time,ax,ay,az,gx,gy,gz,accmagnitude,gccmagnitude
0,49.68078349264078,-154.94988905656004,-94.81516730805166,288.0135250754015,351.99842751998784,7.373462630615068,189.45260959532763,423.69257172689476
1,45.012627828034326,-165.6514326720525,-92.11986676750595,237.80044423539155,335.7889705562712,1.884219348800894,197.8912481711745,422.0583292649988
2,40.38209551922935,-176.14367023587397,-89.45351041291948,188.93055336012208,318.57191198278355,-4.105139022390832,206.1395214013087,421.1620769035417
3,35.81494094916168,-186.34700413087197,-86.8292738797799,142.01431049161337,300.1111629000516,-10.622736306023313,214.1328223587617,420.9101986808887
4,31.33762531859269,-196.18427005177924,-84.25985365210629,97.61608897399343,280.2005071053977,-17.698005493555353,221.80855476621593,421.2148142416644
5,26.977214204907106,-205.5817947177383,-81.75737064077205,56.23987573277646,258.67340847310055,-25.361171359683393,229.10700094580076,421.99787685062216
6,22.761201789260937,-214.4704886180564,-79.33325287130899,18.316782656861484,235.41121319713972,-33.642370468896544,235.9722203686338,423.19436740324045
7,18.717255424781204,-222.78695783593443,-76.99809620004865,-15.805196325007433,210.34936514861872,-42.57041045824999,242.35296655698244,424.75441011693687
8,14.87288135509038,-230.47460788949778,-74.76150622444065,-45.86883050453244,183.4813690669719,-52.1712064563597,248.20360165152067,426.64421052051506
9,11.25501916875839,-237.48470320769383,-72.63192812289607,-71.71244261335183,154.86036565993675,-62.46596485569108,253.48498021817008,428.84580154488
10,7.889578496816444,-243.7773395654262,-70.61647369851543,-93.27169192489426,124.59831299585468,-73.46921002788709,258.16526791787214,431.35566916145376
11,4.800936303472485,-249.32228417022225,-68.72075643235651,-110.5783113549626,92.86288872937644,-85.18676601605529,262.2206573557233,434.18240596323477
12,2.011416628628432,-254.09963918502746,-66.94874593150587,-123.75587786607693,59.87232997825963,-97.61381206917518,265.635943144577,437.343603260143
13,-0.4592234748336357,-258.1002891341434,-65.30265273207115,-133.01281472553262,25.88850844077616,-110.73312840539342,268.40492105291736,440.86223648787825
14,-2.59427787821039,-261.3261006646518,-63.78285294486804,-138.63293884496744,-8.791402835625284,-124.51363794931721,270.5305820410939,444.762822891208
15,-4.380522587448653,-263.78985409378464,-62.38785980147655,-140.96396946379542,-43.844276420673864,-138.90933279956982,272.0250807800007,449.06763210592453
16,-5.808574260855058,-265.5148992198803,-61.11434601449026,-140.40449825518508,-78.93097712976862,-153.85865296563318,272.9094692267556,453.79320706491814
17,-6.8731598433718695,-266.5345417700812,-59.957217419174206,-137.38997863199415,-113.70649201880423,-169.28436146808951,273.2131979201622,458.94740447092914
18,-7.573285805557196,-266.8911802161418,-58.909735162129905,-132.37831848879583,-147.82984152286915,-185.09393585833004,272.97339960215743,464.5270958401206
19,-7.912300663633474,-266.63522432340704,-57.9636812015104,-125.83565339751723,-180.97339898458546,-201.1804728137775,272.23398045680887,470.516592714014
20,-7.897849621279381,-265.8238359279658,-57.10956017460511,-118.22283715331211,-212.83128922655942,-217.4240805964488,271.04455287909553,476.88678690698634
21,-7.541724776944058,-264.5195386956023,-56.336829567075235,-109.98311750306611,-243.1265920310037,-233.69371446492886,269.4592497745795,483.5949400449299
22,-6.859618086805023,-262.7887469353205,-55.63414940464635,-101.53137344612327,-271.61714078493026,-249.84939306230154,267.53546379375666,490.58502153404345
23,-5.870787226885381,-260.7002640481007,-54.98964236993655,-93.24518488142986,-298.0997772676606,-265.74471970879597,265.33255571590144,497.7884798680141
24,-4.597646909151836,-258.3237991675788,-54.391155368077094,-85.45789431605215,-322.4129975399664,-281.2296216781082,262.91057468388635,505.1253346057462
25,-3.0653002588506104,-255.72854638236413,-53.82651411804887,-78.45371208738159,-344.43799781341494,-296.1532131845897,260.32902951642285,512.5054899298977
26,-1.3010265429314063,-252.981865075391,-53.28376325891899,-72.46481816157457,-364.0981994300797,-310.3666842709065,257.6457452945597,519.8301901301434
27,0.6662573454857466,-250.14809288231137,-52.751385602155736,-67.67033064813813,-381.357395034836,-323.7261184076414,254.9158332775919,526.9935583415436
28,2.806543945575638,-247.28751508372315,-52.21849539195735,-64.19694756355658,-396.2167104509611,-336.09514655552823,252.1907954108389,533.8841794596248
29,5.089273774601378,-244.45550639139032,-51.67500169364673,-62.121025730527855,-408.71061618148684,-347.3473544844045,249.51777769758328,540.3867047174978
30,7.483849824705581,-241.70185349564795,-51.11173935287804,-61.47183815785978,-418.90224719072154,-357.3683727423461,246.9389799508002,546.3834682612186
31,9.960114701625617,-239.07025974594143,-50.520566379496344,-62.235745861938696,-426.8782989104227,-366.0575940727405,244.4912232576042,551.7561149982754
32,12.488779870851719,-236.5980270965739,-49.89442805041027,-64.36102785683194,-432.743761550122,-373.3294804252512,242.2056710270096,556.3872440396229
33,15.041799652292235,-234.31590498450666,-49.22738943908448,-67.7631300048329,-436.61673516679366,-379.11444010655305,240.1076947588771,560.1620734342808
34,17.59268599004606,-232.24809123393234,-48.514639482604736,-72.33011647351297,-438.6235368974181,-383.35927420394654,238.2168717853892,562.9701300955134
35,20.116763330728496,-230.41236672916392,-47.75247108316212,-77.92813465784523,-438.89427221910614,-386.02720935804274,236.54709949811027,564.7069645445139
36,22.591365788193997,-228.82034375291045,-46.93824294096087,-84.4067343174587,-437.5589973074622,-387.0975504557213,235.1068092028612,565.2758841490424
37,24.99598077524937,-227.4778075409423,-46.07032956089285,-91.60391326205666,-434.74455283229935,-386.56500109389054,233.89926264412136,564.5896916921087
38,27.31234423959151,-226.38513147648098,-45.14806600161146,-99.35079392139038,-430.57210412783144,-384.43871097772757,232.92291508904822,562.5724090741664
39,29.5244926523433,-225.53774806033704,-44.171693477289175,-107.47586605908634,-425.1553816111515,-380.7411170024874,232.17183031126234,559.1609593098382
40,31.6187763534239,-224.92665999423158,-43.1423110192857,-115.80875916094054,-418.59958097803724,-375.5066479442697,231.6361345921442,554.3067741252274
41,33.58383822861407,-224.53897814656628,-42.06183715506337,-124.18353224802769,-411.00085640956775,-368.7803611221159,231.3024987798173,547.9772895960922
42,35.41056125676028,-224.35847563683592,-40.93298396890995,-132.44148807198002,-402.44632189368673,-360.6165733941121,231.15463935906234,540.1572884694637
43,37.09198824578502,-224.36614956839196,-39.75924397723913,-140.43353250102888,-393.01446502064147,-351.0775393752124,231.17383119856456,530.8500451918547
44,38.62321701502785,-224.5407838790653,-38.54488809577167,-148.02210865066428,-382.77587317255416,-340.2322181488614,231.33942600297357,520.0782284873213
45,40.00127436349241,-224.85950829703506,-37.294970830601365,-155.08273962097766,-371.7941729492093,-328.1551573224884,231.62937148523295,507.884516973821
46,41.22497235034909,-225.29834947156158,-36.01533699055438,-161.50521449749695,-360.12708919183626,-314.9255111553633,232.02072692325146,494.3318861506997
47,42.29475059761181,-225.83277096445255,-34.71262298180446,-167.19445061211863,-347.82753938007215,-300.6261984982626,232.490171075631,479.50353038171806
48,43.21250844044604,-226.43819896590438,-33.39424526666225,-172.07106197881023,-334.94469174890367,-285.3431970268842,233.01449844650836,463.5023913078972
49,43.981430830096215,-227.09053046187228,-32.06836883931175,-176.07166011805901,-321.5249303922898,-269.16496313583986,233.57109973354434,446.4502743049449
50,44.60581193367677,-227.76662024770965,-30.743849510192096,-179.1489096010271,-307.61268696062484,-252.1819621170691,234.1384220634636,428.4865467217229
51,45.090880260761054,-228.44474272739973,-29.430145294261408,-181.27135667282272,-293.2511152646918,-234.48629088602794,234.69640434606978,409.76642495771466
52,45.44262877960503,-229.10502395304403,-28.13719409405708,-182.42304518055874,-278.48260106250024,-216.17137526602903,235.22688280032764,390.45887096879585
53,45.66765288776704,-229.72983894067815,-26.875256951317493,-182.60292970823076,-263.3491134808384,-197.33172511669002,235.71396148227566,370.7441314306782
54,45.77299836521196,-230.30416894824643,-25.654728267448096,-181.8240914634148,-247.8924160191498,-178.06273262030726,236.14434246640428,350.8109635122322
55,45.76602063994265,-230.8159130519936,-24.485916436882103,-180.11275849938679,-232.1541633449268,-158.4605010328017,236.50761012869611,330.8535993607806
56,45.654255895622775,-231.25614801008257,-23.378800135918382,-177.5071290804859,-216.17591516620212,-138.62169255467907,236.79646374090942,311.06850706179864
57,45.44530380836771,-231.61933017382194,-22.3427669761181,-174.05599656702245,-199.99910103718668,-118.64338444538961,237.00689242567537,291.6510099920239
58,45.146721056446395,-231.90343323315923,-21.386342435609684,-169.81717743948036,-183.66497090928004,-98.6229223193035,237.13828659116817,272.79183070708194
59,44.76592423106267,-232.11001597477946,-20.516918026494395,-164.85575203590622,-167.21456613662838,-78.6577592150897,237.1934803930309,254.6736311933508
60,44.31010047375751,-232.24421514491317,-19.740488489501885,-159.24214034313465,-150.6887444823444,-58.84526890301702,237.17872072965102,237.4676289156684
61,43.786124205656826,-232.31466014326932,-19.06140818234668,-153.05005149775832,-134.12829007145652,-39.28252209056645,237.1035599640886,221.3303767429948
62,43.20047873402417,-232.33330869166775,-18.482176499944792,-146.3543630390397,-117.57413473350269,-20.06601469216443,236.98067203083812,206.40080257682925
63,42.55918220476707,-232.31520556770377,-18.003261149079304,-139.2290014174611,-101.06771039139693,-1.291338223103032,236.82559456124704,192.79760888606486
64,41.867718165979525,-232.27816947505102,-17.622966714607006,-131.7449061133145,-84.65144289877969,16.94721613755088,236.656402660907,180.61713108910166
65,41.130971854795774,-232.24241572784825,-17.33735458090316,-123.96816413420007,-68.36938615243425,34.557125991596806,236.4933226108137,169.93174525234716
66,40.353174186732865,-232.23012455762958,-17.140219084562474,-115.9583988086235,-52.267982013343264,51.44818170926079,236.35829595038086,160.78889931715574
67,39.53785624616967,-232.2649665761954,-17.023123652995036,-107.76748672325125,-36.396917623029005,67.53310511760195,236.27450618120156,153.21081853469278
68,38.687817800068444,-232.3715981969845,-16.975499391976655,-99.43866015428125,-20.810038433742324,82.72823768388805,236.26588163176643,147.19490657185207
69,37.805113953227085,-232.57514042067393,-16.9848070783001,-91.00603088707706,-5.566263940332524,96.95428835475217,236.3565886285363,142.71483136487595
70,36.89106441698852,-232.9006541683731,-17.036762045937827,-82.49454697304758,9.269555424942062,110.13712644493673,236.57052886453468,139.72225228526906
71,35.946289801909735,-233.37262432833353,-17.115620331792382,-73.92036917402982,23.62590711169832,122.2086002651346,236.93085376046787,138.14911554737742
72,34.97077878315031,-234.01446300866345,-17.204523737463358,-65.29163100839187,37.424079978074836,133.10735790579696,237.4595068028784,137.91042043454533
73,33.96398897465877,-234.84804030955462,-17.28590098084534,-56.60952750753452,50.57789058930375,142.7796431998968,238.17680246691432,138.907341366289
74,32.92498302326552,-235.89324842785985,-17.341921573851064,-47.86966454189204,62.99373675758643,151.18003772360518,239.10104757587126,141.0305807169054
75,31.852599971724015,-237.16760231232865,-17.354998204295157,-39.06359375926622,74.57103710290244,158.27211893299898,240.24820805166934,144.1638245786677
76,30.74566047010445,-238.6858776288831,-17.308332014332773,-30.180458059895834,85.20310818022273,164.02900518945785,241.63162120588765,148.18717778773535
77,29.603202955553236,-240.45978469781147,-17.186493119393827,-21.20867888992406,94.778522042794,168.43376038423685,243.2617512343126,152.98046452979784
78,28.424746423159256,-242.49767553095285,-16.97602594645321,-12.137628678673694,103.18297629554469,171.47963391644478,245.1459836075446,158.4262952615165
79,27.210573836576877,-244.80428025347368,-16.666065553182033,-2.959247785008948,110.30169430536402,173.17011564558157,247.28845272649409,164.41281755374834
80,25.96202850959968,-247.3804691363965,-16.24894722306774,6.3304173896632205,116.02235367040983,173.51878997134023,249.6898966367411,170.83608564475648
81,24.681813809787805,-250.22303731540958,-15.720787614378596,15.72976337335885,120.23851530958235,172.5489784698591,252.34753289681595,177.60199937242572
82,23.374284254284635,-253.32451106155366,-15.082011932058313,25.230264521057794,122.85349384817356,170.29316684062715,255.2549509190222,184.62777723259057
83,22.045713618395364,-256.67297698700827,-14.337798455875093,34.815191619570975,123.78457403541287,166.7922196839289,258.4020180727609,191.84294126944926
84,20.704523274901664,-260.2519384052489,-13.498409912826105,44.45842029909186,122.96744069907379,162.09439618689646,261.7747992135793,199.18980472973425
85,19.361451890930756,-264.04020577612545,-12.579381329489529,54.123351949315904,120.3606549874722,156.25419134738934,265.3554917200289,206.62346821375885
86,18.029646224692154,-268.0118303508847,-11.601536738470545,63.76199168713829,115.94998118123317,149.33104075757814,269.1223802924998,214.11134689652718
87,16.724652591164674,-272.13609144973,-10.590812724471308,73.31425063466325,109.75234909982244,141.3879414097444,273.04981746496134,221.6322693857098
88,15.464290074340056,-276.37754804792934,-9.577875095888881,82.70755824600867,101.81922851126188,132.4900548928788,277.10823686221744,229.1752057752079
89,14.26839006723421,-280.69616453433423,-8.597525250782548,91.8568797020652,92.23919414579512,122.70337059063402,281.26420669559593,236.73769591622957
90,13.158392282136667,-285.0475189023314,-7.687903990849059,100.66522972478336,81.13947270782066,112.09351297211214,285.4805309671761,244.32405735199575
91,12.156794751929201,-289.38309966916864,-6.889511530425937,109.02475598691852,68.68628682337639,100.72477729515275,289.71640560239035,251.94345613321357
92,11.28646404873632,-293.65069599595273,-6.244072412783357,116.8184336248171,55.0838455868778,88.65947136254637,293.92763658974224,259.60792465487964
93,10.56982133266344,-297.79488428955875,-5.793282388159356,123.92237048965023,40.57187720536345,75.95762740789155,298.0669275352938,267.3304103688243
94,10.027929171682237,-301.7576143604897,-5.577480603686375,130.20867551545552,25.421654752264406,62.677128166557054,302.0842450914297,275.1229377515361
95,9.679512603725481,-305.47889897556877,-5.6342945150054256,135.548795448497,9.930528316797345,48.87426550873071,305.92727243067105,282.994961536081
96,9.539955013081963,-308.89761183401896,-5.997306866093896,139.817183656861,-5.5849577053333945,34.604720079812765,309.5419627617647,290.9519799108828
97,9.620314576585628,-311.9523996168345,-6.694794201617047,142.89513370786216,-20.79721780812332,19.924918324221007,312.87320587248956,298.9944616165604
98,9.926409948892148,-314.58271277166983,-7.748584902409017,144.67459365008986,-35.376840820807814,4.893691632664637,315.86561983945535,307.1171223982957
99,10.458024319765977,-316.72995644537775,-9.173081690454923,145.06177675472796,-49.00259866627855,-10.425866234576942,318.4644767635085,315.3085672731612
100,11.208274996580117,-318.3387573129604,-10.974488886350489,143.98040138055524,-61.371923849959586,-25.96447046770888,320.6167655635974,323.5512984460365
101,12.163191399696844,-319.35833415307746,-13.150278424089189,141.37442523202685,-72.21148329008471,-41.64478808819546,322.2723867053265,331.8220758342895
102,13.301538081911058,-319.7439502796007,-15.688920803858537,137.21018417675555,-81.28743935465565,-57.379802192556696,323.3854636583113,340.0926075535725
103,14.594911420916858,-319.4584150240025,-18.56989801582912,131.47789759633835,-88.41496617704931,-73.07154471161647,323.91574451454346,348.3305392707567
104,16.008129238701297,-318.4735903646903,-21.76400542607166,124.19255403881583,-93.46658272766072,-88.61033244546972,323.83005549746895,356.50070114789224
105,17.499921918768422,-316.77184874031246,-25.233939149910217,115.3942353724508,-96.37887553585617,-103.87461966846183,323.10375721123734,364.5665570674141
106,19.023921740151657,-314.34742027644927,-28.935154891726842,105.14796845326545,-97.15721497310474,-118.73155146838765,321.722145578292,372.49178335085776
107,20.52993426614109,-311.2075629504637,-32.81697385304443,93.54320658609039,-95.87812090833614,-133.0382671416638,319.6817332993277,380.24188683839816
108,21.965461884580062,-307.3734879154247,-36.8239013306053,80.69303779931018,-92.68900712106763,-146.64396450166467,316.9913446087502,387.78576062072824
109,23.27743529156076,-302.8809742442949,-40.897114215664445,66.73319539542761,-87.8051291409247,-159.3926956018158,313.6729560095633,395.09707527019856
110,24.41409440909232,-297.7806127130435,-44.97606492576707,51.820913907646855,-81.50367591734098,-171.1268232334564,309.7622185138369,402.1554168438262
111,25.32694681762937,-292.1376270302382,-49.00014181891325,36.13363857451252,-74.11507870149691,-181.69102636364667,305.3086028436629,408.94710910463067
112,25.972720449887397,-286.0312331689898,-52.910320960864325,19.86756702405709,-66.01175517561819,-190.93670245695935,300.37511826795475,415.4656915346556
113,26.315219486305327,-279.5535129320301,-56.6507427767503,3.2359831765793774,-57.59465516240927,-198.72657734983613,295.0375684034546,421.7120593012534
114,26.3269896706906,-272.8077961802385,-60.17015080229516,-13.532664679778737,-49.278115793019005,-204.9393022236955,289.3833235176465,427.69429751781405
115,25.99070285155653,-265.9065668115879,-63.423138566289424,-30.196991758423504,-41.473656560593874,-209.47379647907823,283.5096086829759,433.42725202457586
116,25.300180847224418,-258.9689299515604,-66.37116351193521,-46.50526291275322,-34.57343550907008,-212.2530894290662,277.5213301918963,438.9318695506431
117,24.260995092745297,-252.11770094824175,-68.98330192415655,-62.19839570060232,-28.934135996739045,-213.22742630274996,271.52848789079184,444.23431699247175
118,22.890599498566495,-245.47619937987943,-71.23673392852626,-77.0134489849914,-24.862052522639146,-212.37643665888208,265.6432467813502,449.36486570466826
119,21.217977712860186,-239.16485186974856,-73.1169609553879,-90.68767405711667,-22.60009341460732,-209.71021475574727,259.97676523377135,454.35651645634204
120,19.28281070452725,-233.2977244280354,-74.61776860171946,-102.96320396856066,-22.317322605845888,-205.26922748943542,254.63589728045832,459.24335244111546
121,17.134194603361163,-227.97911677644296,-75.74095537302634,-113.59243753393004,-24.10153071031065,-199.12303936317826,249.7199008196167,464.0586411357478
122,14.82896065071544,-223.30035655157226,-76.495852702381,-122.34413164972018,-27.955167397441713,-191.36791733470676,245.31729085203827,468.8327539142759
123,12.429667926904516,-219.33692990988288,-76.89866457486866,-129.010148385268,-33.79479384154647,-182.12344354993857,241.50297655115418,473.5910248141742
124,10.002354628245376,-216.14607686395055,-76.9716567383309,-133.41271703209165,-41.45403739191301,-171.5283154681554,238.33581312814744,478.35171514998603
125,7.614144695750441,-213.7649649624704,-76.74222640996919,-135.4119765318655,-50.68986183397929,-159.73554837116495,235.85668459360625,483.1242772090197
126,5.330813217324063,-212.20953413865112,-76.24188395889482,-134.9134735930221,-61.19181554221547,-146.90731502554274,234.08721235406938,487.9081082329017
127,3.2144158785252612,-211.47407931810764,-75.50517844047837,-131.87521885388105,-72.593794033897,-133.2096631557537,233.0291580576261,492.6919502717373
128,1.3210845010475785,-211.53160651541842,-74.5685990133146,-126.31385713923909,-84.4877577673301,-118.80734561539268,232.66455836199611,497.45402548400534
129,-0.30091776955885835,-212.3349636091079,-73.46948390908409,-118.30949351524072,-96.43878262612073,-103.85898263662236,232.95659559947208,502.1629124092766
130,-1.6128016006236643,-213.81870995000256,-72.24496744720435,-108.00873568409092,-108.00078922191537,-88.51275170283401,233.85117304788918,506.779084295295
131,-2.586454852806907,-215.90165119021682,-70.93099339417608,-95.62556337011853,-118.7322961259818,-72.90276947881267,235.27912837693466,511.2569616062985
132,-3.2052033197424428,-218.48992978359755,-69.56141979719284,-81.43971322706096,-128.21156877753867,-57.14629289117026,237.15898592218255,515.5472866399771
133,-3.4641107894124676,-221.48053058054032,-68.16723667715299,-65.79236987624617,-136.05058733532888,-41.341824375526315,239.40012011516998,519.599611476364
134,-3.3698231518976587,-224.7650376890906,-66.77591429590872,-49.07907734202978,-141.90733032354441,-25.568161805808096,241.90618091161858,523.364700286452
135,-2.939982493281466,-228.2334652913352,-65.41089654829246,-31.739928409908384,-145.4959631983262,-9.884389628202488,244.57861907604516,526.7966803403966
136,-2.202255736985285,-231.77798239155763,-64.0912511635761,-14.247249036922769,-146.59462737429982,5.669233050756197,247.32014563664953,529.854827301
137,-1.193037650694249,-235.2963598990076,-62.831485005148615,2.9088362269656813,-145.05064009301626,21.069567523884096,250.0379661428318,532.5049301568765
138,0.04410060993825038,-238.69498787973077,-61.64152790741597,19.236406081590918,-140.78303272451345,36.30818408508156,252.64664654823804,534.7202364392995
139,1.4601390133292775,-241.89134026166332,-60.526881758936014,34.25861351180819,-133.78246919631164,51.38837924212705,255.07049290453375,536.4820154552654
140,3.0024306579693483,-244.81580164492613,-59.48892315216915,47.530618593980606,-124.1086927296482,66.32177571976727,257.2453598849787,537.7797868178169
141,4.616537562229823,-247.41281312072752,-58.52533861452887,58.65571893640465,-111.88574419119362,81.1246728904572,259.11984083774905,538.6112440783178
142,6.248004260300121,-249.64133750177288,-57.63066249061265,67.29982047619934,-97.29527589163926,95.81432272204793,260.6558313477059,538.9818713220494
143,7.844001500116175,-251.4746853046726,-56.796880680395965,73.20346568268869,-80.5683476987038,110.40530712316276,261.8284957490481,538.9042241349403
144,9.354783587264622,-252.89977787272167,-56.01406023844225,76.19077326400995,-61.97613537475007,124.90618586101627,262.62569875506847,538.3968425983205
145,10.734916440399651,-253.91595079550086,-55.27096612577942,76.17483004829275,-41.8200021053819,139.31656928288712,263.0469903122818,537.4827887645409
146,11.944248360815042,-254.53341770646338,-54.555632027428274,73.15929274109229,-20.421382059259514,153.62474666858228,263.1022495680066,536.1878476966644
147,12.948610813649104,-254.77152078017082,-53.855861027080195,67.23618393955307,1.8881005100806436,167.80596999209826,262.8101024956872,534.5384856950067
148,13.720251047329441,-254.65689007407804,-53.15964225612286,58.58008452875304,24.775900076594397,181.82145635071265,262.1962269906883,532.559707281965
149,14.238011197987115,-254.221620892056,-52.45547942598571,47.43911913724393,47.91689512413349,195.61813349789466,261.2916499838194,530.2729827470721
150,14.487279014401437,-253.50155910765832,-51.732634982836224,34.123292500970344,71.00057621546746,209.12911494023112,260.1311251472977,527.6944235995695
151,14.45974317549193,-252.53476155515312,-50.98129895620401,18.990854933483767,93.73692676288708,222.27485621094638,258.7516593873716,524.8333611724921
152,14.152991262120636,-251.36017459075444,-50.192694617100955,2.433449319634681,115.8609288954948,234.9649136103944,257.19123389000816,521.691436020064
153,13.569990835601033,-250.01655073985452,-49.359134416944784,-15.13918258550488,137.1357023626713,247.10020189546623,255.48774316304699,518.2622414480405
154,12.718493889195928,-248.5416025596526,-48.4740399223972,-33.31417982735058,157.35434905151297,258.57562899026414,253.6781550942523,514.5314977768254
155,11.610402426780075,-246.97137577319413,-47.531938812457696,-51.689540761176865,176.34062732589427,269.28297452477307,251.79787797427514,510.47767959775535
156,10.261128550019698,-245.33981141583254,-46.528450402852535,-69.88651809281198,193.9486183975629,279.1138753293995,249.88030782549654,506.07298620908654
157,8.688976779592801,-243.6784596723552,-45.460268737314195,-87.55998017583094,210.0615716742263,287.9627849175231,247.9565218058911,501.28453801903237
158,6.914569911818911,-242.01630603701113,-44.32514957728065,-104.4064362147477,224.5901283637807,295.7297848879123,246.05508082813768,496.07569517747027
159,4.960332985859212,-240.37967264571205,-43.121905192106574,-120.16957560636293,237.47012357181055,302.32314280179884,244.20190622203265,490.4074218541937
160,2.850043408825036,-238.79216314611696,-41.85040880327705,-134.6433185263523,248.6601576951006,307.6615316055408,242.42020033682346,484.2396522156776
161,0.6084493827425631,-237.2746272528234,-40.5116085508471,-147.67250694002448,258.13910908326665,311.6758481332578,240.73038834237207,477.53264465871024
162,-1.7390462951165118,-235.84513013332023,-39.107548579362394,-159.15147507382105,265.9037330740022,314.3105910330524,239.150067042433,470.24833343949746
163,-4.166644114173024,-234.51892089086786,-37.64139226495913,-169.02082076219654,271.96645973792846,315.5247804656392,237.69395516638576,462.351698283396
164,-6.648357423068234,-233.30840244336088,-36.11744022739685,-177.2627513398781,276.35346695573946,315.2924222469457,236.3738472213185,453.81217248136835
165,-9.158185268203116,-232.2231110133536,-34.54113437046871,-183.89540026235582,279.1030701424393,313.60253703049574,235.19857864343314,444.6051005057332
166,-11.67026035236234,-231.26971693938304,-32.91903918725037,-188.96650664469126,280.2644380834039,310.4587901676132,234.17401343507484,434.7132410901359
167,-14.158983329416433,-230.45206001535456,-31.258792693359922,-192.54682448026247,279.8966181024494,305.8787698212428,233.30306708569717,424.12829505036615
168,-16.599153471838697,-229.77123256514648,-29.569021095922093,-194.72358705578222,278.06783410837664,299.89296965344465,232.5857777668893,412.8524218869669
169,-18.966104271333197,-229.22572206481735,-27.859213421156372,-195.59430037804614,274.85500787434154,292.5435379049934,232.0194376235115,400.8996969536224
170,-21.23585089224077,-228.81162220379906,-26.139554786555312,-195.26108210043412,270.3434464005856,283.8828570140352,231.59879332124987,388.29745212106076
171,-23.38525465420722,-228.5229169145246,-24.420719673946007,-193.82570371543702,264.6266352490939,273.97201742884573,231.3163209154279,375.08743730676053
172,-25.392207913560494,-228.3518365748916,-22.713629168483433,-191.3854372307134,257.80607812606337,262.87924657399617,231.16257500510048,361.32673778729765
173,-27.2358409163812,-228.2892799738705,-21.029178502059896,-188.0297559847834,249.99112571076512,250.6783497663046,231.1266066766426,347.08838281023577
174,-28.896750527622505,-228.32529033221786,-19.377943294421947,-183.83789471301654,241.29874099026745,237.4472149569519,231.19643952686386,332.4615847622792
175,-30.35724928159191,-228.44956915032114,-17.769874488596162,-178.8772377156318,231.85315350575956,223.26642808519637,231.35958854758582,317.551555139414
176,-31.601631911598012,-228.65200828934275,-16.213993000987386,-173.20247655478533,221.78536047622302,208.21804093393263,231.60360321665738,302.47885383953786
177,-32.61645528347644,-228.92321874856927,-14.718095585003013,-166.85546000250284,211.2324386162256,192.3845287421199,231.9166140441781,287.37824180740347
178,-33.39082642213192,-229.25503417371598,-13.288483532586557,-159.86564832615,200.3366369021802,175.8479702198738,232.28786118289338,272.3970236680992
179,-33.91669211130671,-229.6409681565941,-11.929725783097348,-152.2510803750397,189.24422806905483,158.68947757502167,232.70818449427247,257.6928863465515
180,-34.1891223391123,-230.0766067097133,-10.644467777894771,-144.01976386059425,178.1041055945449,140.98889807546422,233.1704565141067,243.43126099641842
181,-34.20657851872535,-230.55992067144746,-9.43329687258734,-135.171404819532,167.06612337792407,122.82480081717293,233.669942815385,229.78225750729897
182,-33.97115584648537,-231.09148686517472,-8.294674215455291,-125.69939939596394,156.27918702064642,104.2747521443264,234.20457795720696,216.9172417943152
183,-33.488787478566934,-231.67461116749465,-7.224941723507027,-115.5930178304072,145.8891182409996,85.41587043392715,234.77514912367633,205.00514457040606
184,-32.76939668769463,-232.3153507985982,-6.218411089449136,-104.83971548852021,136.03632717305098,66.32563619366016,235.3853833000463,194.20860545011004
185,-31.82698216561835,-233.02243678937492,-5.2675394489203144,-93.42750814558987,126.85334076212105,47.0829176471357,236.04193711476003,184.6800676276113
186,-30.679621566740753,-233.80710054291373,-4.36319328777657,-81.34734845508822,118.4622487019088,27.769156562226602,236.754291191929,176.5579458781876
187,-29.349379521870908,-234.68281072376115,-3.4949984974739476,-68.59543806089404,110.97214065685863,8.469645523093133,237.53455308251884,169.96299415839735
188,-27.86210866449304,-235.66492850112138,-2.651770499249099,-55.17540618816254,104.47661898761712,-10.725182469311598,238.397174697077,164.99499849024846
189,-26.24713547271543,-236.77029053100048,-1.822014339141874,-41.100282202313615,99.05147894846165,-29.71853731151438,239.35859170235983,161.72991597818478
190,-24.536826762247156,-238.01673000120132,-0.9944808376114257,-26.39418815127896,94.75265255650334,-48.40621484333927,240.4367935528114,160.21757162554363
191,-22.766037410256192,-239.42254655883463,-0.1587614920460091,-11.093679099945058,91.61451234162729,-66.67578357132884,241.65083366804961,160.48001097390866
192,-20.971445232458297,-241.00593600055498,0.6940978826934088,4.751334916124638,89.6486263787711,-84.40609203857191,243.02028972397395,162.51058839551197
193,-19.190784590615387,-242.7843903446856,1.5709865966818106,21.07714072868545,88.84304598289889,-101.46716314755818,244.5646841618295,166.2738482540981
194,-17.461995881468322,-244.77407853337243,2.476144151956689,37.80628739757972,89.16219212526809,-117.72052796125934,246.3028749875744,171.70622961595376
195,-15.822313159509628,-246.98921774125608,3.4106230496487697,54.84818443814539,90.54738636740636,-133.0200354006621,248.25242689760447,178.71759557833636
196,-14.307316431718863,-249.44144522692278,4.371819931384388,72.10022788311484,92.91804785431339,-147.21315674330043,250.42897283944416,187.19355657884992
197,-12.949978351877276,-252.1392009199565,5.353093232141703,89.44942204838868,96.17355122531357,-160.14278572009832,252.8455763653864,196.9985242668369
198,-11.779736930616881,-255.08713156103488,6.343482647083004,106.77443681455728,100.19571322814953,-171.64951689534084,255.51210565276344,207.97939979251146
199,-10.821626337790724,-258.2855283346331,7.327542971924038,123.94801342136873,104.85185059163389,-181.5743673336564,258.43463100741593,219.9697693000179
200,-10.095496860072398,-261.7298116729275,8.285302733468562,140.83960878634036,109.99833036419177,-189.76188970056515,261.6148592008659,232.7944523167268
201,-9.615352642684877,-265.41007920818475,9.192356684142053,157.31815206306035,115.48451786545708,-196.06360925532653,265.0496201128376,246.27422850165243
202,-9.38883217266147,-269.3107353281622,10.020100651671171,173.25478045004368,121.1570170266777,-200.34170294307805,268.7304235261545,260.2305577692598
203,-9.416851868525386,-273.41022274292067,10.736117079485357,188.5254266562622,126.86409243656868,-202.47282623374875,272.6431058747133,274.4901104539875
204,-9.693427984075628,-277.68087708567066,11.304719108201802,203.01314937052598,132.46015998171208,-202.35198283229522,276.76758746188204,288.88893901027257
205,-10.205686558834746,-282.0889241737064,11.687659135730955,216.61013002590988,137.81023096605585,-199.89632431944025,281.0777594701739,303.2761499025898
206,-10.934065460294542,-286.59463580532395,11.84500340698731,229.21930065543467,142.79419048951632,-195.04876163401968,285.5415166428407,317.5169704877325
207,-11.852706742261573,-291.1526539924052,11.736166825564473,240.755612161209,147.31078342266633,-187.78126863353592,290.120945986627,331.495145240683
208,-12.930031744072469,-295.71248595564776,11.321092205786154,251.14699126913843,151.2811716306076,-178.09776044101054,294.7726748528741,345.1146321956456
209,-14.12948580147472,-300.2191640195287,10.561546729017742,260.33505923007357,154.6519177513463,-166.03643650740932,299.4483742298792,358.300598798383
210,-15.410434358615031,-304.61405686214636,9.422496978354442,268.27568982232503,157.39724877363457,-151.67149052518013,304.0954060626332,370.999734409645
211,-16.729187835146142,-308.8358124857357,7.873514178643992,274.9394667662388,159.52046129895785,-135.11410618328807,308.6575979173976,383.17990588110996
212,-18.04012887865334,-312.82140961979155,5.89015443290357,280.31206490515495,161.05435185283787,-116.51267834761158,313.0761251409656,394.8291864700349
213,-19.29691254500505,-316.5072934544455,3.455255428501387,284.39453336672403,162.06058917608206,-96.0522222661888,317.29048024425083,405.95429034163095
214,-20.45370736818936,-319.83057338755344,0.5600911309396442,287.2034123464957,162.6279881417539,-73.95295734898937,321.2395113541899,416.5784473128922
215,-21.46644321084382,-322.7302639036463,-2.7946711778332998,288.7705776897506,162.86969304605188,-50.468075499199415,324.86251529219487,426.73875684007317
216,-22.294030493698486,-325.1485534641173,-6.598262009671718,289.14268662762015,162.91932781445544,-25.880725563022956,328.1003748384654,436.4830682005234
217,-22.899515355668544,-327.03208921232147,-10.829392171071861,288.38009877651467,162.92621851615658,-0.5002641608772435,330.89673287883204,445.8664472650047
218,-23.251136883677344,-328.3332665461653,-15.456160624787932,286.5551707906376,163.0498357089986,25.34216159447494,333.1991975699329,454.9473104582132
219,-23.32325579177742,-329.0115114772141,-20.436310472064356,283.7498693957072,163.45363711913961,51.2986220343018,334.9605716679641,463.7833330012089
220,-23.09712853331867,-329.0345395598176,-25.717842719112127,280.0527112215715,164.2985130239332,77.00991657481495,336.14009507949834,472.4272688283547
221,-22.5615064644682,-328.37956779254887,-31.239982584788986,275.55511235036516,165.73604753902964,102.11149392663353,336.7046822018257,480.9228498734681
222,-21.713045951437184,-327.0344457240725,-36.93447673864634,270.347309164916,167.90181045721576,126.23967778171506,336.6301250679643,489.3009586120575
223,-20.556521530827712,-324.99866030126583,-42.72718286560189,264.5140887849756,170.90888859598616,149.0380864863746,335.90222077587407,497.5762856915341
224,-19.104839427684528,-322.28415770029085,-48.539896644079505,258.1306354188857,174.84185522287075,170.164126178221,334.5177688874125,505.74468939834446
225,-17.378852120526453,-318.9159166948405,-54.292347184173394,251.2588492454969,179.75136394079038,189.2954273446207,332.4853735793847,513.7814598372934
226,-15.406976037310429,-314.9322041693716,-59.90428177669001,243.94451487105147,185.64954286744634,206.13608496453958,329.8259786121342,521.640653374231
227,-13.224614416724611,-310.38444598573017,-65.2975556551519,236.21567408097965,192.50635898683575,220.42255252581418,326.5730628138993,529.2556032373512
228,-10.873387062555233,-305.33665676383293,-70.39814288381496,228.08248361810521,200.24712159598766,231.92903070757643,322.77243138391253,536.5406397985633
229,-8.400169833519453,-299.8643904367321,-75.13799027209078,219.53871324032076,208.7512937738132,240.47218362779057,318.4815544713761,543.393982621764
230,-5.855950975154792,-294.0531987001852,-79.4566467678225,210.5648743186394,217.85277318428385,245.91501188707755,313.76842850175797,549.7017043687005
231,-3.294519637345172,-287.9966148189595,-83.30261518744959,201.13278710406598,227.34177802498797,248.1697161328386,308.7099658345775,555.3426128503289
232,-0.7710131357062993,-281.7937133349188,-86.63439003198012,191.21122272311004,236.9684236417876,247.1994017565803,303.38995199033405,560.1938458507777
233,1.659638821061763,-275.54632938746346,-89.42116265845918,180.7721187410844,246.4480009809739,243.01850745838988,297.89664368298514,564.1369218035474
234,3.9443250084520196,-269.3560515697519,-91.64319133967834,169.79678231507464,255.4678782806427,235.69188782045174,292.32011164422215,567.0639440048486
235,6.033363837122142,-263.32112624916056,-93.2918474424217,158.281472347414,263.6958547105887,225.3325396902176,286.7494562204566,568.8836280133039
236,7.882055424964679,-257.53342617033064,-94.36935951833411,146.24179487570288,270.7897099446034,212.09802879573357,281.2700381388382,569.5268216910366
237,9.452112797551042,-252.07564000052932,-94.88828444132683,133.71545066162963,276.4076228542355,196.18574043369549,275.96086998919037,568.951219663609
238,10.712910696319923,-247.01883155345055,-94.87073909411417,120.76302935021381,280.2190770185263,177.8271402696175,270.8923055247011,567.1450349474685
239,11.642494576569971,-242.42049812586623,-94.34742819583025,107.4667327043339,281.9158301042977,157.2812827893569,266.12414487417107,564.1294682990901
240,12.228300975749946,-238.3232280293903,-93.35650473627804,93.92710882789872,281.2224990694818,134.82784104380806,261.7042463401125,559.9598948059519
241,12.467553194648623,-234.7540201893613,-91.94230019197802,80.25806860292661,277.90630692175694,110.7599487336873,257.6677024351273,554.7257536085998
242,12.36731194553589,-231.72428660941964,-90.15396282054348,66.58061575073745,271.7855548087706,85.37714326775787,254.03660206163858,548.5491733812332
243,11.944177678358418,-229.23051516601808,-88.04404372404046,53.01583761972132,262.7364300932501,58.97867753894145,250.82036483190913,541.5823948371022
244,11.2236581923267,-227.25552939586012,-85.66707137527453,39.67776463671095,250.69783685297784,31.857432070361153,248.0165996842663,534.0040701994079
245,10.239230749997377,-225.7702471296598,-83.07815523503956,26.66670819895959,235.6740337873139,4.294612152422641,245.6124102867545,526.0145382807524
246,9.031141488746828,-224.73581368303553,-80.33165761606928,14.063632156546646,217.73497533231722,-23.44463881219372,243.58604628376713,517.8301997649987
247,7.644995889558394,-224.1059694798303,-77.4799699821658,1.9260104877999842,197.01436419646902,-51.11463386595037,241.9087839271275,509.67715286754975
248,6.130201900316858,-223.82950705109917,-74.57242536342342,-9.71451393223876,173.70552966543127,-78.49152245168914,240.5469130328527,501.7842926863962
249,4.538331736022509,-223.85267802727282,-71.65437258308414,-20.852512969727233,148.05534115156277,-105.37468186472857,239.46370974840747,494.3761228864754
250,2.9214694634774743,-224.12142592720429,-68.76643082837236,-31.507207694303375,120.35644766508354,-131.5871883773123,238.6212857793156,487.66556826119745
251,1.330609533062174,-224.5833433452867,-65.94393521985549,-41.71912029762014,90.93819896571436,-156.9754708096718,237.98222312475613,481.84710226538095
252,-0.18583322894280768,-225.18927996667747,-63.216575960011596,-51.54524938191686,60.15665130154979,-181.4082759090304,237.51092682991103,477.090505879779
253,-1.5833487901809993,-225.89455785631958,-60.608225955920936,-61.053184054410934,28.38408840574221,-204.7750930911364,237.1746542390456,473.5355463537119
254,-2.8224482697219027,-226.65978000689495,-58.13694512950127,-70.31464363185799,-4.001504208196453,-226.9841955918925,236.94420529947536,471.2878052234846
255,-3.8695387308698788,-227.4512449417385,-55.81514441464151,-79.39895827979763,-36.626586952418556,-247.96045578888547,236.79428251750804,470.4158020022221
256,-4.697536024247921,-228.24100255844957,-53.649888820706465,-88.36699139305438,-69.13144450128111,-267.6430847982048,236.7035495503836,470.9494686300582
257,-5.286208108356098,-229.0066033905085,-51.64331670719197,-97.26595113402723,-101.17845483574824,-285.9834314466225,236.65443309794318,472.87994757728745
258,-5.622253877045249,-229.73060476360118,-49.79315121352758,-106.12545374954675,-132.45897586114586,-302.942954771778,236.63272331699616,476.16062506886044
259,-5.6991342657801685,-230.39990310254612,-48.093279363708106,-114.95509438118312,-162.69865510685386,-318.49145878966874,236.62703345306718,480.7092729418441
260,-5.516682720630765,-231.00496239244939,-46.534374632476556,-123.7436618325355,-191.66105425972663,-332.60564981286734,236.62818014322588,486.4111539910271
261,-5.0805306078079004,-231.5390052601067,-45.10453969389414,-132.4600114434509,-219.14956919839642,-345.26804658961595,236.6285425522483,493.1229392733435
262,-4.401389558145819,-231.99722621002897,-43.78994764037384,-141.05549314536034,-245.00771272810775,-356.46624359461407,236.62145199554806,500.67728489489235
263,-3.4942368251961486,-232.37607713060106,-42.575462224421166,-149.46772706056208,-269.11790663164953,-366.1924996257783,236.60065487736784,508.8879151344306
264,-2.3774512004020023,-232.67266412133029,-41.4452208212452,-157.62543253336116,-291.3989974619665,-374.44359909406046,236.55988152992612,517.5550553195862
265,-1.071945629326125,-232.88428270409895,-40.38316785787731,-165.4539527314962,-311.80276239085947,-381.2209136801379,236.4925426477774,526.4710509382733
266,0.3996616289811785,-233.0081062028385,-39.37353099109646,-172.8810788426892,-330.30970378608293,-386.5305790439249,236.39156405590361,535.4260007992701
267,2.0138023224004695,-233.041030151971,-38.40123666901524,-179.8427666029029,-346.9244419690933,-390.3836964729245,236.24936004255562,544.2132254837833
268,3.746613731351412,-232.9796646822494,-37.45226536519017,-186.2883529545601,-361.67100487376666,-392.79647354628884,236.0579359533575,552.6343924273484
269,5.574477746675229,-232.8204575172621,-36.51394954188382,-192.18492016740865,-374.58828332172817,-393.79023087888896,235.8091026764667,560.5041294400946
270,7.474436510121763,-232.55992296958735,-35.575219234126266,-197.5205157750376,-385.7258755097464,-393.3912225432838,235.49477945777815,567.6539810646387
271,9.424486622543107,-232.1949474884566,-34.62680096486084,-202.30601522808396,-395.1404896288559,-391.6302436196465,235.10735744059792,573.9355963373724
272,11.403761738343984,-231.7231400238426,-33.66137547234496,-206.57550528168673,-402.8930153726659,-388.54202646006996,234.6400945293336,579.2230795576304
273,13.39261966496762,-231.14319571602428,-32.6736986114091,-210.38516379578513,-409.04631885212194,-384.164454303665,234.0875126267125,583.4144832130218
274,15.372654667597475,-230.45524406366238,-31.66068805635331,-213.81070891296022,-413.6637649364103,-378.5376438890072,233.4457709066148,586.4324690626846
275,17.326658379767803,-229.66115742216718,-30.621476369230898,-216.94358029074402,-416.80842832319365,-371.70296569031945,232.71299326662444,588.2242045470184
276,19.23855339332342,-228.7648017754133,-29.557428914815898,-219.88609059429328,-418.54292043441615,-363.70208029939744,231.88953384412835,588.7605932542041
277,21.093322214116082,-227.7722183912263,-28.472123351725482,-222.74584150349756,-418.92973360893996,-354.5760718473463,230.97817071511128,588.0349578425443
278,22.876951017193598,-226.6917315304213,-27.371286294873393,-225.62973158586365,-418.03198686747896,-344.36475426681733,229.98422399209377,586.0613012402484
279,24.57640291057269,-225.53398335460022,-26.262682375059004,-228.63789236010814,-415.91444848212535,-333.1062143374197,228.91560005704736,582.8722687135878
280,26.17962972264612,-224.31190216999133,-25.155951355017176,-231.85787513303308,-412.64470918146424,-320.83663826453613,227.78276822907398,578.5169225317359
281,27.67562523501431,-223.04061375013043,-24.062390168076757,-235.3593784142121,-408.294385202995,-307.5904480230254,226.59867938731898,573.0584259220026
282,29.054516905236433,-221.7373074134665,-22.994678605681838,-239.18975886471594,-402.9402413963143,-293.40075212227754,225.37863767424403,566.5717167328586
283,30.307688050377877,-220.42106880362502,-21.966549642484015,-243.37051291079513,-396.66513988585774,-278.30009495723783,224.14013641011786,559.1412356117723
284,31.427918606423116,-219.11269020077185,-20.992407705300778,-247.89485586871896,-389.55873818594813,-262.32147113402334,222.90266802335546,550.8587594649925
285,32.409530088046864,-217.83446701798823,-20.086900291596656,-252.7264645149742,-381.7178810259196,-245.49955702343098,221.68751548083992,541.8213786939541
286,33.248519228249904,-216.60998625078705,-19.264450197959608,-257.7993908325184,-373.24665151249,-227.87210156541244,220.5175297645879,532.1296460487149
287,33.9426649438608,-215.46390944663156,-18.53875739666703,-263.0191021455457,-364.2560687517138,-209.48141184153354,219.41689483952052,521.8859157328401
288,34.49159472091186,-214.42174961635513,-17.92228145358992,-268.26455856197765,-354.8634398627592,-190.37586577420103,218.4108787121684,511.1928836498962
289,34.896799146361694,-213.5096386841254,-17.425717336168898,-273.39120449517605,-345.1913936149853,-170.61138411257932,217.5255668679674,500.1523336199184
290,35.16158688089598,-212.7540797833632,-17.057479384903473,-278.2347281932098,-335.36663980407843,-150.25279630483638,216.78757276710957,488.8640903283272
291,35.290976453006586,-212.1816771996672,-16.823209873672,-282.61543188929915,-325.51851201676567,-129.37503964592128,216.2237193191737,477.425177893763
292,35.29152542847258,-211.81883631243656,-16.72532975348848,-286.3430544769871,-315.7773607493204,-108.06413783956144,215.86068550845172,465.9291830276476
293,35.171101524961706,-211.69142672798588,-16.762649776935888,-289.22189644812596,-306.27286820309376,-86.41791324768982,215.72461377770992,454.4658229388064
294,34.93860399793456,-211.82440397840384,-16.930060193594215,-291.05611042372334,-297.1323549514125,-64.54639597615734,215.84067642899979,443.12071903343076
295,34.60364700254673,-212.24138845432714,-17.218316498346628,-291.6550370547408,-288.47914193528646,-42.57190206500034,216.2326029206491,431.9753766524984
296,34.1762194626123,-212.96420422594773,-17.613937216186926,-290.8384828456907,-280.43101943150594,-20.628762151089155,216.922174086152,421.1073675930676
297,33.666338085164064,-214.0123846153676,-18.09922744023682,-288.44185166449387,-273.09885904409373,1.1373090659640073,217.9286934904878,410.5907056992586
298,33.083711416003126,-215.40265537872287,-18.65243896122748,-284.32105417901374,-266.58538735461264,22.570203496470675,219.26844993726098,400.4963968608204
299,32.43743315122904,-217.14840980531463,-19.2480745179488,-278.3571287028996,-260.9841229344315,43.5047630542105,220.95418822182802,390.8931344148454
300,31.73572230011593,-219.25919275387002,-19.85734003651333,-270.4605128943249,-256.3784641656226,63.76846046281571,222.99460741730448,381.84810057166106
301,30.985726328850134,-221.74021251913695,-20.448744753033726,-260.57490863737263,-252.8409052641873,83.18339471040719,225.3939072040152,373.4278252641909
302,30.193401209687156,-224.5919003629687,-20.988844942156756,-248.6806826887397,-250.4323525277986,101.56857115109389,228.15140294568312,365.69904647152305
303,29.363479380326293,-227.80953750574977,-21.443122638113504,-234.79774405506606,-249.20151167663397,118.74242890730054,231.26122934550497,358.72951090318753
304,28.499532932896674,-231.3829683868575,-21.77698604446517,-218.98783663873368,-249.1843193398435,134.5255704963405,234.71215061121146,352.58865112287276
305,27.60413485771094,-235.2964170542385,-21.95687307904301,-201.3561835973209,-250.40339646033576,148.74364045589616,238.4874921097805,347.34807495665353
306,26.679115871438402,-239.52842050272798,-21.95143377470938,-182.05241909188337,-252.86750816865728,161.23029148776908,242.56520438941007,343.0818056813643
307,25.72590833457139,-244.05188860090527,-21.73276139595153,-161.2707444135042,-256.5710234476876,171.83016889786006,246.91806517372703,339.8662175028257
308,24.74596222531002,-248.83429519398285,-21.277636503276618,-139.2492494254831,-261.49337891316344,180.40183775378313,251.51401879520378,337.7796208599864
309,23.741211537012074,-253.83799956121126,-20.568743132853452,-116.26834701537817,-267.59856432818503,186.82057326015197,256.31664609235014,336.9014665453418
310,22.714563421862195,-259.02069217761,-19.59581215313431,-92.64827739846206,-274.8346622447095,190.98093438753028,261.28575164435233,337.31115603320495
311,21.670377534376232,-264.33595413154956,-18.356644133349782,-68.74564983245655,-283.13348845448115,192.799044504741,266.37804987676594,339.08646616181215
312,20.614899911336188,-269.73391590564603,-16.857962975780744,-44.949001047551,-292.41039106136725,192.21451095147987,271.5479274413762,342.30161729356627
313,19.55661492510228,-275.1619986291478,-15.11605224552214,-21.6733627490341,-302.56427142539724,189.1919279727062,276.7482565325851,347.02503335828027
314,18.50648085545843,-280.5657191939191,-13.157128799646188,0.6461541052730142,-313.47788819002085,183.72192342571364,281.93123240921824,353.31685820220287
315,17.478019710592033,-285.88953958562814,-11.01741340335281,21.56173191883267,-325.01849519349156,175.82172775305347,287.0492082714534,361.2263039344215
316,16.487239980581055,-291.0777403160249,-8.7428659889963,40.62112734060402,-337.0388453532064,165.53526223626383,292.05550179240095,370.7889121055455
317,15.552381442669885,-296.07529781550556,-6.3885643337907085,57.3767861723721,-349.3785670666251,152.93276105908632,296.9051498838687,382.0238069635965
318,14.693483001809588,-300.82874575650175,-4.017719088753565,71.39568946118418,-361.8658907668783,138.109957122055,301.55559125042606,394.9310128019296
319,13.931786751506179,-305.28700027813227,-1.7003346077228165,82.2697960254023,-374.31967645597973,121.18687412317168,305.9672594340513,409.4888978346807
320,13.289002854148274,-309.40212908072,0.4884573806146244,89.62691018571613,-386.55167453461877,102.30627687245375,310.1040721034447,425.6518000226949
321,12.786469301293598,-313.1300448047403,2.470347212856639,93.14176118931377,-398.3689470770719,81.63183844527923,313.9338053472962,443.3478906608268
322,12.444247110609188,-316.4311045366535,4.1660209834290125,92.54703290757834,-409.5763869302371,59.3460873957834,317.4283449463573,462.47734193523627
323,12.2801945748174,-319.2706001822117,5.497487993826126,87.64403142341234,-419.979295885891,35.6482017874362,320.56381047191786,482.9108839174912
324,12.309064028212418,-321.6191292340364,6.390483252698864,78.31262894364497,-429.38601519335094,10.751719812358216,323.32055317787393,504.4888594255812
325,12.541661931961736,-323.4528422787745,6.776861426538105,64.52008131105055,-437.610633524829,-15.117761106393308,325.6830354067179,527.0209038193468
326,12.984108741707548,-324.7535719940211,6.596896941233994,46.32828992068621,-444.47581974460627,-41.72482508330575,327.6396073559473,550.2863826094402
327,13.637229832978125,-325.508857284025,5.801406240801401,23.899073282180705,-449.81583255756163,-68.82635148557601,329.18220555625777,574.0357071459916
328,14.496103398104978,-325.71188418484905,4.353612226219211,-2.5029663244379914,-453.4797427452125,-96.17344575458961,330.30600492836714,597.9926178273453
329,15.549786103421138,-325.36137094233743,2.230677456186675,-32.510346734484415,-455.33486816849484,-123.51314994159075,331.00906154309575,621.8574813924647
330,16.78123256442038,-324.4614272908701,-0.5751581465431945,-65.65566739647468,-455.27037310053265,-150.5899210973162,331.2919852858006,645.311602724409
331,18.167420330616668,-323.021416851938,-4.055887479901427,-101.3778085658341,-453.2009293763729,-177.14689649717084,331.1576799349881,668.0225091328363
332,19.67968787213319,-321.0558464611192,-8.187532200308253,-139.03141674311047,-449.07028454204027,-202.92699770630276,330.61118241382354,689.6501287157071
333,21.284288702273248,-318.5842972294667,-12.930445220449052,-177.89957556810413,-442.8545377215254,-227.67395675183343,329.65962321377543,709.853752167737
334,22.94315985413168,-315.63139986486897,-18.230121375439655,-217.2094033195468,-434.56489212510286,-251.1333730684097,328.31231671550654,728.2996350176046
335,24.61489693778425,-312.2268424716137,-24.01849720874171,-256.1501618039825,-424.2496376633817,-273.05392562237404,326.58097440186276,744.6690606677163
336,26.25592037401924,-308.40538465689116,-30.215699669293304,-293.89331771371485,-411.99512051746416,-293.18886761070394,324.48001749127576,758.6666421441231
337,27.821807838705073,-304.2068397037698,-36.7321831089193,-329.61387768157937,-397.92548006367076,-311.29791955565724,322.0269505175291,770.0285945768552
338,29.268756700026827,-299.6759790466468,-43.47117588569549,-362.5122334836235,-382.2009774653649,-327.14965052010956,319.2427459487141,778.5306684230851
339,30.555128031165346,-294.86231171346003,-50.33134358479401,-391.83571452796497,-365.01480371337607,-340.52439864157344,316.1521835147043,783.9954066608623
340,31.64301171105176,-289.81969617856333,-57.209566247722115,-416.89905815879047,-346.58833590081645,-351.2177348786665,312.7840871259511,786.298389687067
341,32.49974149715506,-284.6057527717411,-64.00372234682459,-437.10307485834613,-327.164905347935,-359.0444220130013,309.17140708580763,785.3731667533871
342,33.09928129745135,-279.281060334766,-70.6153726430516,-451.9508959086928,-307.0022441906744,-363.84276837282766,305.35110519414565,781.2146401469714
343,33.42340090170033,-273.90813957089927,-76.95224263969033,-461.0613275721444,-286.36388086383874,-365.47922548930393,301.3638143963205,773.8807555861764
344,33.46256281002421,-268.55024545280605,-82.93041315650531,-464.17897757991466,-265.50985091810537,-363.8530337033782,297.25326170178425,763.492441918848
345,33.2164525417667,-263.27000995936146,-88.4761444232548,-461.1809501931702,-244.68716828001047,-358.900682841426,293.0654619407572,750.2318196588733
346,32.69410271639371,-258.1279922321,-93.5272794374029,-452.0800175388701,-224.1205538736399,-350.59993047166483,288.8477091659703,734.338753295946
347,31.91358476109629,-253.18120426312154,-98.03419590022727,-437.02426835757785,-204.00393582665566,-338.97311202258,284.6474104965427,716.1058583623662
348,30.90126902302774,-248.48168543887587,-101.96030080761383,-416.2933171294991,-184.49321454661245,-324.0894880560006,280.5108221622615,695.8720998289192
349,29.690681892176105,-244.07519862667718,-105.28208523883325,-390.2912335849346,-165.70072767500926,-306.0664048828014,276.4817579068499,674.0151441063372
350,28.321014984145076,-240.00011475447602,-107.98877680130362,-359.5364282974605,-147.69175876923717,-285.0690937838425,272.6003447428057,650.9426596445843
351,26.835364462343158,-236.28654300505175,-110.0816420666693,-324.64880349882407,-130.48331585175399,-261.30899791228217,268.90189981811756,627.0828017660482
352,25.278796477900492,-232.95575067455425,-111.5730006338399,-286.33454567323304,-114.04526917838231,-235.0405901277779,265.4159948029447,602.8741617647182
353,23.696346114987556,-230.0199011223169,-112.48501654955757,-245.36899355571921,-98.30379103055128,-206.55672487890504,262.16576126623335,578.7555012677569
354,22.131061161085242,-227.48212074887357,-112.84833276842171,-202.578058789431,-83.14689590996386,-176.18264817935324,259.16747320996075,555.155621972111
355,20.62219793625674,-225.3368873853271,-112.70061140693609,-158.81870558038892,-68.4317506334869,-144.2688669433769,256.4304229957028,532.4837298117064
356,19.203664542444717,-223.57071399196664,-112.08503769748354,-114.9590106090768,-53.99332260575246,-111.18314703479086,253.9570863458885,511.12063443038403
357,17.90278852133712,-222.16308475928932,-111.04883925970513,-71.8583258651576,-39.65386889291768,-77.3019623980181,251.74355303376825,491.4110758011034
358,16.739463125354856,-221.08758736762422,-109.64186479150706,-30.348055087333513,-25.23274112974196,-43.00175049617896,249.7801841490874,473.6573921151526
359,15.725701415539499,-220.31317663551368,-107.91525782598904,8.786470921793981,-10.555989599221071,-8.65033942153161,248.0524456639612,458.114646626001
360,14.865602063790456,-219.8055015895972,-105.92025234965183,44.82257304777329,4.534711062679332,25.401100248481193,246.5418618781952,444.98723185384785
361,14.155706570681325,-219.52822984429812,-103.7071085216135,77.1148592415701,20.17422862606456,58.82525850689416,245.22703096856458,434.4268835095411
362,13.585705917716927,-219.4443092714684,-101.32419907903477,105.10757872739322,36.46756570417891,91.32477411249212,244.08464759290183,426.5319744607155
363,13.13943658728483,-219.5171162641303,-98.817250654677,128.34442629902688,53.48511961641604,122.63700346004187,243.0904834325218,421.3479249919762
364,12.79609237845221,-219.7114515703061,-96.22873924053424,146.47560630250638,71.25975544291552,152.53734163801695,242.22028492879684,418.8685583133342
365,12.531570299718247,-219.99435791727674,-93.59743508490953,159.26205277758712,89.78574235564105,180.84104859490665,241.45055758330687,419.038245323561
366,12.319866402747095,-220.3357475132178,-90.9580889280201,166.5767950544232,109.01951151757207,207.40361406969748,240.75921719195293,421.7547131433692
367,12.13444048154961,-220.70884074876471,-88.34124843444462,168.40355204374646,128.88210871629244,232.11976872548797,240.12609922225028,426.8724289304647
368,11.94947635550267,-221.09042869998171,-85.77319109283441,164.83272727338766,149.26313883542613,254.92131025021703,239.53332718169668,434.20650420038794
369,11.74097615083693,-221.4609803314437,-83.2759579553423,156.0550546087834,170.02593468120176,275.77395826441693,238.9655484931168,443.5370870598126
370,11.48764182049796,-221.8046201518093,-80.86747153443693,142.3532078802713,191.01363242844187,294.673479136367,238.41005174366606,454.6142160117396
371,11.171514142963701,-222.10900363741996,-78.56172104459286,124.09173497847999,212.05580329798164,311.64133166845596,237.85678227705105,467.1630996627739
372,10.778357352978313,-222.3651166227802,-76.36899901138479,101.70570808438212,232.97527887978566,326.72007874160545,237.29827429143702,480.88976599336365
373,10.297795023216322,-222.5670218784802,-74.29617505592563,75.68849609655598,253.594817090753,339.96879060726036,236.72951733675862,495.4869991386399
374,9.723218622270908,-222.71157211530712,-72.34699525307506,46.579062331879406,273.7432862524556,351.4586351104005,236.14777384886102,510.6404573337513
375,9.051503299793282,-222.79810449398383,-70.52239844327853,14.949170376956976,293.26109326543576,361.26881153844926,235.55236255437183,526.034847932466
376,8.282575062119577,-222.8281280669661,-68.82084358195482,-18.609154439224806,312.0046438531805,369.4829412025914,234.94442057062963,541.3600269900023
377,7.4188790249616545,-222.80501284144964,-67.23864404254319,-53.49560710103723,329.8496929108454,376.1859827278531,234.32665505888468,556.3168918990054
378,6.464799637318346,-222.73368743134438,-65.77030555545657,-89.11278020377925,346.6935153996118,381.4616969008849,233.70309357736284,570.6229439333026
379,5.426080835035504,-222.62035136808484,-64.40886434445336,-124.87634133723506,362.4558976850158,385.3906481317894,233.078840929528,584.0174103117517
380,4.3092875571974085,-222.47220760063135,-63.14622133086592,-160.2240647571881,377.0790114499405,388.04869981502463,232.4598491680463,596.2658298288447
381,3.121340855988445,-222.297219957197,-61.97346730600586,-194.62361462860798,390.5262844200358,389.50594076567154,231.85270614340652,607.1640204958214
382,1.8691482001367197,-222.10389901040978,-60.88119294696616,-227.57901358798765,402.7804227444221,389.8259699397996,231.2644463029554,616.5413615833191
383,0.5593399213234032,-221.90111796105288,-59.859776684272674,-258.63576183860386,413.8407689117082,389.06546626039864,230.70238540463347,624.2633366636796
384,-0.8018867465346863,-221.69795817721788,-58.89964299946525,-287.3846012872128,423.7201971589439,387.27397809119356,230.17397872510512,630.233299845753
385,-2.208822326723475,-221.50358218080387,-57.99148400476838,-313.46394919100936,432.4417560425033,384.4938804453157,229.6867005154063,634.3934450320631
386,-3.6562106527834954,-221.327130286316,-57.12643821716606,-336.5610580996068,440.03526545327674,380.7604645551292,229.24794103367424,636.7249773525086
387,-5.139141706379623,-221.1776358537689,-56.296222142434374,-356.41199354038645,446.5340629801671,376.10214114400407,228.86491652935413,637.247505682943
388,-6.65289069517329,-221.06395334340127,-55.49321236054591,-372.80055633300407,451.97207258363505,370.54075338845126,228.5445871307542,636.0176936944997
389,-8.192723238674587,-220.99469314722805,-54.71047793674846,-385.5563099527602,456.38133822959503,364.0920066221096,228.29357771091375,633.1272225539373
390,-9.75368585135753,-220.97815747032206,-53.9417649264663,-394.5519019123905,459.790128459294,356.76602834575203,228.11809736538842,628.7001297900769
391,-11.330398984878833,-221.0222721667153,-53.18143644828569,-399.6998891805113,462.22167738962975,348.56807365093033,228.02385394945506,622.8895952493511
392,-12.916867320161076,-221.1345102918658,-52.42437334400196,-400.94928992888197,463.6935862444004,339.4993880404582,228.01596110854732,615.8742470138637
393,-14.506319365864009,-221.32180433748505,-51.665841827494425,-398.28208713637173,464.2178702368077,329.558232820715,228.0988365149243,607.8540592648859
394,-16.091086025136686,-221.59044588829968,-50.90133565123459,-391.70990369764155,463.80160115855796,318.7410691261244,228.27609179039098,599.0459122001998
395,-17.6625256847988,-221.94597380550618,-50.12640115773473,-381.27105326613935,462.4480682100377,307.04388671385556,228.55041686427307,589.6788825925576
396,-19.211001521528203,-222.39305477704173,-49.33645420248697,-367.0281454543375,460.15835920206473,294.4636543537187,228.92346409362509,579.9893330696824
397,-20.72591506622777,-222.9353629594874,-48.52659838838424,-349.0663878262732,456.9332512252564,280.9998610453657,229.39574016134813,570.2158689288208
398,-22.19579853579214,-223.57546825608645,-47.69145430763446,-327.49268069690083,452.77529365837205,266.6561120866111,229.96651635135305,560.5942333150033
399,-23.608466840621404,-224.31474505013594,-46.825009489407826,-302.43554548837795,447.69096609111074,251.44174142262014,230.63376978763776,551.3522148658084
400,-24.951228234312357,-225.15331431119253,-45.92049851008386,-274.04586577410373,441.6927983184511,235.3734015204001,231.39416898470006,542.7046463193984
401,-26.211150079709096,-226.0900316421435,-44.97032237666755,-242.49835563249755,434.8013479555871,218.47659356697756,232.24311634040876,534.8485777627924
402,-27.375373155121505,-227.1225322417514,-43.966016061492795,-207.9936067364455,427.04694247226,200.7871031214211,233.17485825122546,527.9587136844842
403,-28.431464533524654,-228.2473412052243,-42.89827301425879,-170.7605082691157,418.47110581334715,182.35230859502195,234.18267064992529,522.1832083632721
404,-29.36779574652077,-229.4600541775731,-41.75703533927189,-131.0587865965031,409.1276047716298,163.23233163472284,235.25912403778364,517.639919124427
405,-30.173930198905648,-230.75558911420836,-40.53165764654227,-89.18137811635101,399.0830666220124,143.50099965033465,236.39642746994565,514.413221467357
406,-30.84100199148642,-232.1285048989578,-39.211151016373684,-45.456331158454496,388.4171369993307,123.24659169469548,237.58684554261464,512.5514937408158
407,-31.3620675018656,-233.57337714615392,-37.78451095293481,-0.24793248473620083,377.22216528516185,102.57234015099735,238.82317655411956,512.0653813106167
408,-31.73241118480517,-235.08521611318648,-36.24112975186998,46.043228690519065,365.60242330381436,81.59666262534304,240.09927414567954,512.9269499752244
409,-31.949788091299972,-236.65990665987627,-34.5712896140673,92.98151124866838,353.67288114440373,60.45310133369672,241.41058932303716,515.0698342621009
410,-32.014587642381585,-238.29464592056368,-32.76672839272822,140.09898737348254,341.5575806163473,39.28995113004939,242.75470519582623,518.3904764442315
411,-31.929906220835257,-239.988351098984,-30.821265340678504,186.89985482066268,329.3876615112262,18.26956190046791,244.13183338508372,522.7505347551646
412,-31.701520023028372,-241.74200781627337,-28.731469910041508,232.86654763332805,317.29910791667197,-2.4326941557004913,245.54523911343375,527.9805123001959
413,-31.337754117975287,-243.558928939842,-26.497352864880625,277.4675059723731,305.4302908117485,-22.629795394529648,247.00156170019196,533.8846194847476
414,-30.849248499249505,-245.44489498699102,-24.123055989098383,320.16647012411676,293.91938862335707,-42.124785007832116,248.51099869813743,540.2468308667569
415,-30.248626767400232,-247.4081502254209,-21.617514666255232,360.43306872219,282.90176903593783,-60.71282469091762,250.08732537465983,546.838032197523
416,-29.55007770937664,-249.45923360838904,-18.995066579557722,397.7543823545419,272.5074131421465,-78.18358226399798,251.74772673576703,553.4240777189993
417,-28.768864354490873,-251.6106307311291,-16.275979568468152,431.6470862990095,262.85845747096346,-94.32394341731933,253.51242683148064,559.7744974084466
418,-27.920779041613002,-253.87624208564375,-13.486871930931843,461.66971494971216,254.06692136505694,-108.92103141181717,255.4041096421212,565.6715172622015
419,-27.02156649021283,-256.2706738960217,-10.660998735867755,487.4345499038958,246.2326775874656,-121.76550943965515,257.4471372567901,570.9189923583872
420,-26.08633953975997,-258.80837025770103,-7.838377753834087,508.61861758026987,239.44171394385793,-132.65512803311415,259.6665838019153,575.3508111431016
421,-25.12901374729804,-261.50261828518376,-5.065728574981653,524.9732939088726,233.76472410685483,-141.39846477611212,262.08711675340396,578.8383170897895
422,-24.161787079269246,-264.36447032728273,-2.396198848621012,536.3320550694701,229.2560575350327,-147.81878681407417,264.7317697271072,581.2963147869549
423,-23.19468923925315,-267.4016377934127,0.1111470858141937,542.6159843331844,225.95305188206444,-151.7579500394802,267.6206613847761,582.6872824585603
424,-22.235221631518826,-270.6174185824524,2.39209909390259,543.8367432323748,223.87576669816215,-153.08023433579467,270.76972259849913,583.0234994884117
425,-21.2881037714817,-274.0097235215657,4.378348826056526,540.0968360509233,223.02713403312774,-151.67600387526133,274.1894975544934,582.3669107518721
426,-20.355135654190008,-277.57026578027427,5.998823967301698,531.5871338735121,223.39353817154117,-147.46507710105493,277.8840833104219,580.82668243644
427,-19.43517887204317,-281.2839703277866,7.181309030293754,518.5817700028632,224.9458303115447,-140.39969437632882,281.8502659783878,578.5545471967179
428,-18.524252767075744,-285.1286480661565,7.854338916563735,501.4306617111173,227.64077129905917,-130.4669833736639,286.07690027254864,575.738177949686
429,-17.61573612291478,-289.07496205683304,7.949333943637485,480.55004089687054,231.4228749530652,-117.69084286616689,290.5445635256592,572.5929553292527
430,-16.700660279844325,-293.08669294689366,7.402924216409068,456.4114740529932,236.22659812527382,-102.13319290747108,295.2254970560343,569.3525895750658
431,-15.768076451524802,-297.1212897290618,6.159389048302677,429.5299072666994,241.97879737400018,-83.89457047581418,300.08382902690437,566.2591123610707
432,-14.805478643347602,-301.13067316145975,4.173116604646358,400.45127677492985,248.60135348566857,-63.114080869715885,305.07605599236257,563.5527636217865
433,-13.799263918650839,-305.06224518525295,1.410973261355196,369.7401793354593,256.01385935607624,-39.968742708954395,310.15174744952924,561.4622673197649
434,-12.735213656664499,-308.86005033582785,-2.145536180402809,337.9680071423031,264.13627431881946,-14.672284981085026,315.25443070477036,560.1959290341086
435,-11.59898264616318,-312.46603489562676,-6.498436242934299,305.70183413237186,272.8914641913959,12.526534094116823,320.32261291625355,559.9339086757708
436,-10.376587058119034,-315.82135529887194,-11.631887196527337,273.4942133827934,282.2075636626898,41.346015406377475,325.29090252650917,560.8219315562797
437,-9.054887133401598,-318.8676968119408,-17.51132581244558,241.873928104885,292.0201090694744,71.47395203683735,330.09120136692354,562.9666052936738
438,-7.622065267346158,-321.54857407098086,-24.083215322336972,211.3376470219051,302.2738905936997,102.57036142640288,334.65394879337504,566.4324134259322
439,-6.068104365872756,-323.8105942441023,-31.275453943021567,182.3423783983146,312.92446247150946,134.27049390171658,338.90940777779076,571.2403658203327
440,-4.385274025028845,-325.6046697580533,-38.998461771800194,155.29859970571528,323.93923044510194,166.18812108406834,342.788988146459,577.3682086188727
441,-2.5686323952523678,-326.8871699860552,-47.14693314425002,130.56396139212188,335.29801271815074,197.91913416824502,346.22660321185907,584.7520385258747
442,-0.616548971028318,-327.621000184229,-55.60220729069103,108.43751917414212,346.9929510275995,229.04550553262297,349.1600527307779,593.2891301186143
443,1.4687521020504488,-327.776592030825,-64.23517689844014,89.15453125820342,359.02763933210525,259.1396844464194,351.5324178350251,602.8417687340402
444,3.6806369927271327,-327.33278440499555,-72.9096250580403,72.88195180254259,371.41534540560536,287.76950546593486,353.2934432047163,613.2418801475626
445,6.007514830493649,-326.2775667651914,-81.48585873412375,59.714842579104435,384.17623007769174,314.5036829252872,354.4008697666943,624.2962554854682
446,8.432329593529468,-324.6086520931756,-89.82449290546917,49.673992594732496,397.3335226508347,338.9179432757798,354.8216696895773,635.7921817386614
447,10.932135255369518,-322.33384337549137,-97.79023406329011,42.70506471510956,410.90868898704605,360.60180645121693,354.53312667933596,647.5033054104202
448,13.477808888724503,-319.47115823654707,-105.25551409450878,38.67957057564823,424.9157261758659,379.1659679056032,353.52370037747755,659.1955819257417
449,16.033962573766527,-316.04868133906234,-112.10383480702737,37.3979107876804,439.35482311119137,394.25015828578074,351.7936152017507,670.6331954802101
450,18.559114036375977,-312.1041237706517,-118.23269905554362,38.594614762589046,454.2057217566057,405.53127593397744,349.3551220176434,681.5843649725593
451,21.00616677088066,-307.684082631557,-123.55602650876389,41.94578518748937,469.42118013293896,412.7315098525993,346.2323959743277,691.82697052788
452,23.32323360848718,-302.8430115477205,-128.00597993098296,47.078608424184665,484.92096277459564,415.6261096183764,342.4610550941605,701.1539361731242
453,25.454815123896463,-297.6419320390203,-131.5341595657049,53.58264591904103,500.5867672321551,414.0504243309599,338.08730959194844,709.378291025962
454,27.34331814419593,-292.1469340258614,-134.11215590671446,61.022486630716706,516.2584458173169,407.9058311379676,333.1667778779067,716.3378130806208
455,28.930872203002927,-286.4275287735118,-135.7314817430175,68.95123165221194,531.7318128403739,397.1642062028261,327.763027983783,721.8991451227549
456,30.161375483134528,-280.55492765724364,-136.40293037155092,76.92421369378947,546.7582484630426,381.87065368806986,321.9459198964772,725.9612671932713
457,30.982679166501914,-274.60032474802125,-136.15542668251345,84.51233511541342,561.0462255171058,362.14429464089375,315.78983352850145,728.4582173351992
458,31.348802596848245,-268.633260384905,-135.0344507524593,91.31444069634267,574.2647971759923,338.1770185299156,309.37186847959254,729.3609726852121
459,31.22206318838217,-262.72013669307375,-133.10011986474112,96.96821991433471,586.048993450808,310.23020520856716,302.7700958507824,728.6784339611193
460,30.575005597479198,-256.92294463178797,-130.42501561359154,101.15924708513953,596.0069870255434,278.629524001292,296.06193046122127,726.4574928355242
461,29.392024174399722,-251.29824631739794,-127.09183959008868,103.62790176668821,603.7288093013914,243.75800113615045,289.32267591087486,722.7821970625189
462,27.670589896059884,-245.89643739466354,-123.19097575851927,104.17405085010294,608.7963310601368,206.04761206561335,282.62427730713125,717.772056880696
463,25.422015842500798,-240.76129390954947,-118.8180312069394,102.65950369654108,610.7941724050087,165.96970015386927,276.0342990703705,711.5795547377736
464,22.6717214494043,-235.92978843721136,-114.07142010695274,99.00836198543567,609.3211744244127,124.0245491781289,269.6151293884449,704.3869280405746
465,19.4589829519761,-231.43214304233942,-109.05004864873749,93.20547057075169,604.0020494362075,80.73044693821039,263.42339946715606,696.4022934759353
466,15.836183717353636,-227.29207361535202,-103.85115140016927,85.29323289080256,594.4988265857187,36.612574610656786,257.5095953492038,687.8551759168182
467,11.867602005844649,-223.52717238586052,-98.56832176616028,75.36708589205037,580.521724149309,-7.807954948412141,251.91783318050804,678.9915004028893
468,7.627793816308425,-220.14937342061415,-93.28977071569246,63.56993833103068,561.8391079035047,-52.0246040710064,246.6857654868125,670.0681063325104
469,3.1996439071267373,-217.1654493064395,-88.09683864463872,50.08586659722474,538.2862339613613,-95.55517831837338,241.84458600424676,661.3468503328295
470,-1.3278315324271373,-214.57749502368543,-83.06277559148468,35.133337756068755,509.77252105996735,-137.95059829814187,237.41910343696193,653.088377325019
471,-5.861841538775395,-212.3833659627236,-78.25179582684268,18.958194296580274,476.28714775186006,-178.8024502121734,233.42785970249764,645.5456560511864
472,-10.308246113924504,-210.5770496624234,-73.71840481246353,1.8265933382205597,437.9028215762988,-217.7491293937362,229.8832750485434,638.9573941218272
473,-14.57396339016256,-209.14896357789686,-69.50698998941137,-15.981950552448918,394.77761873315904,-254.48043804802066,226.79180984429576,633.5414677113822
474,-18.569276514148868,-208.08618263563622,-65.65166178700413,-34.18131058107424,347.1548438344536,-288.7405526788183,224.15413983458683,629.4885220504011
475,-22.20996744206237,-207.37260958778026,-62.17632745026312,-52.4852065721736,295.3609101995049,-320.3293365462284,221.96534749612115,626.9559200572538
476,-25.41921622105291,-206.9891077356152,-59.09497747179727,-70.6133274088554,239.80129200950378,-349.1020347640807,220.21513647077074,626.0622358549756
477,-28.129217664206667,-206.9136192627804,-56.41216226072495,-88.29708079278934,180.9546501144655,-374.9674500522918,218.88807869163338,626.882504221353
478,-30.282481942537174,-207.12129330889124,-54.1236349324118,-105.28493771552338,119.3652824194176,-397.8847513364108,217.96390477938508,629.4444420481764
479,-31.83280069082459,-207.58464641355008,-52.2171346322503,-121.34733422310792,55.63409590490563,-417.859111817584,217.41784775318547,633.7258494327335
480,-32.745874787674104,-208.27377460806977,-50.67328360639132,-136.2810820862168,-9.591661777037796,-434.9364055916604,217.22104830816485,639.6533727614757
481,-32.99961307929255,-209.15663176912585,-49.46657038647079,-149.91322565181105,-75.62964008129448,-449.1972113907302,217.3410270768118,647.1027685716315
482,-32.58412228627803,-210.19938334625346,-48.5663911525087,-162.10426763734688,-141.774298753051,-460.75037863797485,217.7422256489424,655.9007463922628
483,-31.501416870771507,-211.3668386209517,-47.938121821175685,-172.75067531140618,-207.3091915034617,-469.72640571586464,218.38661396081415,665.8283958174684
484,-29.76488378154231,-212.62295856670048,-47.5441947546025,-181.7865734826423,-271.51931703528794,-476.27086475548293,219.2343572614035,676.626125183828
485,-27.398540905787655,-213.93143045500992,-47.34515598441814,-189.18453420243367,-333.7032483025934,-480.5380833316425,220.24453146545486,687.9999648710846
486,-24.436129906852457,-215.25629493479187,-47.30068120612795,-194.95538599966093,-393.18477565115523,-482.68526334728114,221.37587158626488,699.6290247512619
487,-20.920084112355795,-216.56260678250007,-47.3705314262993,-199.14698751106218,-449.32383263995445,-482.8671833837644,222.58753448236868,711.173847424935
488,-16.90041053418529,-217.8171072059325,-47.5154321048009,-201.84194046516603,-501.5265119594704,-481.23159519380675,223.83985473391144,722.2853684756475
489,-12.433522310739157,-218.98888366416475,-47.69786290937594,-203.15425365088154,-549.2540197047891,-477.915389962605,225.09507131319535,732.6141815300487
490,-7.581054167892726,-220.04999268327148,-47.88274856995129,-203.22501096680676,-592.0304561539078,-473.04157718150816,226.3180028657744,741.8198072650082
491,-2.408689082126851,-220.97602211453642,-48.03804449311669,-202.21714074568078,-629.4493475152293,-466.71708965468775,227.47665084807406,749.5796786717697
492,3.0149806582478598,-221.74657174241779,-48.1352136338333,-200.30942785035836,-661.1788842471562,-459.0314029801726,228.54271250725577,755.5975769185277
493,8.619540090230446,-222.3456351130806,-48.14959368461059,-197.68995200586767,-686.9658471131161,-450.05593707236613,229.49198977913468,759.6112806346766
494,14.333773211398295,-222.7618707639738,-48.06065601544314,-194.549172826431,-706.6382226601456,-439.8441908380941,230.304685497941,761.3992245529407
495,20.08661170326369,-222.98875728236834,-47.85215990814122,-191.07291116887475,-720.1065263574225,-428.43254864198434,230.96558445048882,760.7859997763414
496,25.808007061300525,-223.0246331534754,-47.51220728335634,-187.4354947743449,-727.3638653442619,-415.8416881726506,231.4641230921554,757.6465662752964
497,31.429726072980795,-222.8726284079984,-47.03320419269957,-183.79334083828334,-728.4847845315525,-402.078513118348,231.79435739932347,751.909087496342
498,36.88607257981525,-222.54049999501478,-46.41173592336131,-180.2792372808145,-723.6229503053553,-387.1385301272476,231.9548427502794,743.5563363990503
499,42.11454079041889,-222.0403862330954,-45.64836287922592,-176.9975577960666,-713.0077357397914,-371.00858758085906,231.94844261053439,732.6256614882681
500,47.05640702395896,-221.38849753293587,-44.74734468665354,-174.02060483616538,-696.9397803066753,-353.6698936940122,231.7820841020274,719.2075403426074
501,51.65726761559283,-220.60476083690688,-43.716300328694366,-171.38622274118154,-675.7856055035762,-335.1012332298834,231.46647828147982,703.4427862710423
502,55.86753079224729,-219.71243390542853,-42.56581256567798,-169.09676455570167,-649.971375118944,-315.2823052031836,231.01582117009727,685.5185098470047
503,59.642869597969565,-218.73770287351635,-41.308985500552595,-167.11943551193428,-619.9758943189305,-294.19710762355686,230.4474884391304,665.6629694821795
504,62.94464137374857,-217.7092729138365,-39.96096496672035,-165.38797846059418,-586.3229449297809,-271.83729900842627,229.78173265701753,644.1394724241125
505,65.7402769096462,-216.65795813596407,-38.53843241694102,-163.80561556713172,-549.5730554374644,-248.20546983834942,229.0413878648265,621.2395089402779
506,68.00363932954755,-215.61627371270583,-37.05908392384233,-162.2491185841008,-510.3148044387838,-223.3182603884019,228.25158259355536,597.2753183398053
507,69.7153492658697,-214.61803102195847,-35.54110646939375,-160.57384723073696,-469.1557573099363,-197.20926449655485,227.43945959806234,572.5720968596918
508,70.86306924767553,-213.69793534754032,-34.00266383607119,-158.61957042730478,-426.7131394726424,-169.93166173395366,226.6338986243572,547.4600652056187
509,71.4417368875604,-212.89118519078477,-32.46140426622123,-156.2168665877939,-383.6043568378511,-141.56052301508237,225.86523737917292,522.266617899529
510,71.4537338748481,-212.23307225208333,-30.934001745221224,-153.19388553036532,-340.4374846032434,-112.19473696637455,225.1649854283954,497.3087768688992
511,70.90897631892521,-211.75858144143493,-29.43574228973895,-149.3832453898178,-297.80185836656375,-81.95850655683536,224.56552591213034,472.8861666599379
512,69.8249117908099,-211.50199070729212,-27.98016601617429,-144.6288336573305,-256.25891482391063,-51.002367895116144,224.09980061918097,449.27471702706134
513,68.22640944175346,-211.49647089076942,-26.57877514391588,-138.79228306950412,-216.33344139295107,-19.50368611736387,223.80097497206694,426.7212796144306
514,66.14553165693066,-211.77368608073917,-25.240817485459033,-131.7589014583501,-178.50540304076637,12.333412685025099,223.70208063933725,405.4393185595752
515,63.62117861756623,-212.36339494847272,-23.973154203749065,-123.442850375628,-143.2025183559695,44.27870929053422,223.83563459121618,385.6058000007466
516,60.698600730100175,-213.2930532245598,-22.7802193813523,-113.7913901997513,-110.79375372537446,76.07718807170801,224.23323428112636,367.3593632064905
517,57.42877799030487,-214.5874168842953,-21.66407703676368,-102.78803884730449,-81.5838934374029,107.45098342457774,224.92512920792277,350.79980803369045
518,53.86766979780478,-216.2681448661272,-20.624578639397583,-90.45452631109167,-55.809324673414075,138.10198625226536,225.9397694325748,335.98888250780976
519,50.0753433219174,-218.35339946216027,-19.659621164761077,-76.85146747029697,-33.63515041710697,167.71510801749804,227.30333181292002,322.95230412475377
520,46.1149930731169,-220.85744210450983,-18.765502620949437,-62.077720738667125,-15.153711530404967,195.9621847314619,229.03922494700717,311.6829026442175
521,42.05186870209949,-223.79022234054725,-17.937368844791937,-46.26844981632368,-0.3845630814126285,222.5064860978156,231.16757425160492,302.1447334350288
522,37.95213209429708,-227.15695855865388,-17.169742010344446,-29.591959001702428,10.724089034489799,247.00777634341893,233.7046894248226,294.2779799353933
523,33.88166844929672,-230.95771067568916,-16.457117571669936,-12.245426812358453,18.292525632277094,269.1278536448573,236.66251792883034,288.0044407394827
524,29.9048790958235,-235.18694764704966,-15.79461237039357,5.550285657300502,22.50530085030623,288.5364752481846,240.0480902303509,283.23337920150254
525,26.08348603627207,-239.83311634300318,-15.178642569566241,23.55653059533137,23.605791507113217,304.9175562318045,243.86296542087257,279.86749922777597
526,22.475379303821818,-244.8782229305629,-14.607606106299293,41.523219181051914,21.8896579302726,317.97551230407134,248.1026894221207,277.80879937857725
527,19.133537848037225,-250.29744309696102,-14.08254063180304,59.195343992370425,17.697394014868355,327.4416020655648,252.75628201644412,276.9640498746977
528,16.105052607069016,-256.0587828290765,-13.60772450369808,76.31940273128141,11.406164606692709,333.08011292043267,257.80577309786025,277.24963689033353
529,13.430276574856588,-262.12281658863446,-13.191185358256117,92.64946310661591,3.421137558545841,334.6942284806946,263.22581248431493,278.59552987352106
530,11.142121304809622,-268.44253411522294,-12.845078371003265,107.95264116862818,-5.83348488314475,332.1314150051052,268.98338099042246,280.9481544268618
531,9.265513171710953,-274.9633301506657,-12.585895252373092,122.0138137171792,-15.923543600627934,325.2881710583787,275.0376327623132,284.27199771965275
532,7.817016746965935,-281.62317239857947,-12.434466563376187,134.63944710403425,-26.413936279058156,314.11399860876264,281.33989958026905,288.5498352316626
533,6.804627373922705,-288.3529812340551,-12.41572534043664,145.6604959652605,-36.8774147666624,298.6144748988692,287.83388635745763,293.78154376532666
534,6.227730527588105,-295.077249332441,-12.558209856602172,154.93440052991488,-46.90303177645671,278.8533314647382,294.45608282471943,299.9815504014652
535,6.077221672383396,-301.71492009931217,-12.89329717472588,162.34628288728018,-56.10411778722787,254.95347782841196,301.1364090153541,307.1750529937832
536,6.335777003692804,-308.18053080047923,-13.454175816504607,167.80950306654188,-64.12568302613155,227.09694064434498,307.79910175116026,315.39322723149854
537,6.978262665827819,-314.38561058676186,-14.274583909229039,171.26577786471051,-70.65115483492669,195.52372266981274,314.363836565734,324.6677017586244
538,7.972267868492514,-320.2403068005461,-15.387356920977876,172.68508366994604,-75.40837895389062,160.52961837331284,320.74706560391616,335.0246317040155
539,9.278746018655834,-325.6551971023725,-16.822844887500494,172.06555576310043,-78.17483347321968,122.46305269941462,326.8635386804007,346.47872929529296
540,10.852747849988523,-330.54323214248893,-18.60727152498895,169.43355961224134,-78.78202347833981,81.72103436465892,332.6279637000423,359.02761622668737
541,12.64423170248021,-334.82174519343175,-20.76111594511326,164.84404607298137,-77.11903869461646,38.74433270055968,337.95675545479276,372.646845380512
542,14.598938450550099,-338.4144618256549,-23.297601392859505,158.3812174560269,-73.13526178565519,-5.988004240949347,342.7698189608242,387.2858995914466
543,16.65932183471541,-341.2534439162349,-26.221374430617406,150.15943468336803,-66.84220884003159,-51.964673276658644,346.9923146639018,402.86541338331455
544,18.76552887065932,-343.280907008894,-29.527452541083548,140.3242000473024,-58.314465811532735,-98.64857360302429,350.5563570970741,419.27578254254286
545,20.856429302442674,-344.4508569266933,-33.2005086691408,129.05296908229633,-47.6896577523973,-145.48360667213385,353.40260460656657,436.3772324764447
546,22.870697121403975,-344.7304991555687,-37.21454820640848,116.55549081155687,-35.167356403754304,-191.90174752201244,355.4817041334115,454.0013211030969
547,24.747949847592917,-344.1013818243944,-41.53301757019525,103.07335692133505,-21.00680235287947,-237.33033826784967,356.7555606373291,471.9537692105498
548,26.429951221953132,-342.5602397209413,-46.109363886375284,88.87846180910657,-5.523297219843695,-281.1995729055035,357.1984051044475,490.0184511706159
549,27.86187935471368,-340.1195127458815,-50.888042491226095,74.27013676205068,10.916884619846703,-322.95015369335755,356.7976381688647,507.9623453282398
550,28.993655211751864,-336.807517510452,-55.80594365691008,59.57081764057382,27.903201314816805,-362.0410998307724,355.55442814770385,525.541233634597
551,29.78131601777661,-332.66825540513497,-60.79418375222737,45.12022649967593,44.98926464806224,-397.9576771314125,353.4840426732815,542.5059469242342
552,30.18840517832034,-327.76084490201544,-65.78018180236278,31.268179534887285,61.7030118666764,-430.21939303084565,350.6158925799401,558.608965964754
553,30.187335385288147,-322.15857112127225,-70.68992330126298,18.36625957444047,77.55857222358738,-458.38796680383183,346.99326638693964,573.6111993857629
554,29.760666021840287,-315.9475527037341,-75.45030129784986,6.75869319987535,92.0696564745023,-482.0751444250195,342.6727348300709,587.2887611562309
555,28.902221772179605,-309.2250353943998,-79.99142079053331,-3.2271647531408365,104.76416353090185,-500.95018627849424,337.72320853668174,599.4395607573518
556,27.617968747623788,-302.0973340627808,-84.24875585969112,-11.290320889645164,115.1995582388707,-514.7468188196987,332.22463929249284,609.8895013358359
557,25.92655995686692,-294.677460595595,-88.16505882838356,-17.165216412991583,122.97844473201543,-523.2694119621659,326.2663674468337,618.4980594370269
558,23.859466072025594,-287.08249375125325,-91.69193618653814,-20.630049420599207,127.76365984140806,-526.3981249999651,319.945135188179,625.1629992448061
559,21.460621969292674,-279.43076689696176,-94.79102661453436,-21.5140777778942,129.29215748129778,-524.092757974599,313.3628070202163,629.8239614134594
560,18.785544671329106,-271.83896771302005,-97.43474174051306,-19.703693625710336,127.38695892581329,-516.395056058461,306.6238628980273,632.4646722065671
561,15.899912271602709,-264.41925744204576,-99.60655859429933,-15.147107738182953,121.96650866180387,-503.42924537209143,299.83275307912726,633.113554865116
562,12.877632605052606,-257.27652400144933,-101.30088094322302,-7.857519113107867,113.05089602955809,-485.4006315745526,293.0912231787245,631.8425993712758
563,9.798470308397151,-250.50588244265,-102.52251132268988,2.08532114032305,100.76456715045533,-462.5921661174119,286.49572983600757,628.7644569173922
564,6.745336756720257,-244.19052771517966,-103.28579401479323,14.5352071031617,85.33534262495618,-435.35897417200283,280.1350691483703,624.0278593213279
565,3.801374853394258,-238.40002865426766,-103.61350033503427,29.28125370749759,67.0897543618611,-404.1209354247726,274.088330134571,617.811602806371
566,1.0469866329674464,-233.18912937152032,-103.53553158054255,46.051329325537665,46.44490006704275,-369.3535058990112,268.4232644825209,610.3174599189074
567,-1.4430451577321106,-228.59709660289363,-103.08751291896351,64.51708865976248,23.897170363963383,-331.57705761561715,263.19513457839486,601.7624754684339
568,-3.6021992023712874,-224.64762154068708,-102.30934468628122,84.30051964118815,0.008321987917233643,-291.3450857299453,258.44606857057,592.3711501345765
569,-5.374498015344176,-221.34925480544453,-101.24376757548418,104.98189314619064,-24.610549844789393,-249.23168367694169,254.20491829456498,582.3680132893174
570,-6.7163330409977435,-218.69632578163794,-99.93498695165975,126.1089807105512,-49.31653975602357,-205.81871255826007,250.48758662520493,571.9710355293737
571,-7.597764693536863,-216.67027436782988,-98.4273910019631,147.2073779368079,-73.45333770327272,-161.683091768838,247.29776723007942,561.3862373037623
572,-8.003260405954519,-215.24130555720976,-96.76438896299497,167.79173507134448,-96.36988124400942,-117.38461684715877,244.62802256231157,550.803722727837
573,-7.931863650306507,-214.3702660377487,-94.98738945359135,187.37764892375972,-117.43863076980017,-73.45467254243168,242.46111536473714,540.3952211616664
574,-7.396814781042833,-214.0106377597448,-93.1349341980806,205.49391412442898,-136.07286532767276,-30.38615926286181,240.77150483091964,530.3130709339088
575,-6.424669644912943,-214.11054627906574,-91.24199808236399,221.69477400866458,-151.7424366712936,11.37510615243036,239.526920478854,520.6904480218458
576,-5.0539831665689565,-214.61469106927052,-89.33946182191599,235.57176310817638,-163.98748156650498,51.437315731772756,238.68993391318145,511.6425428178489
577,-3.3336413124482704,-215.4661196996152,-87.45375846176991,246.76470569030573,-172.4296783551363,89.46778536476498,238.21945986179944,503.26833001540916
578,-1.3209349181576646,-216.60778622447714,-85.60668979493701,254.97143642420508,-176.78074072298645,125.19618673644833,238.07213196679766,495.6525635033547
579,0.9205275435490233,-217.98385451880694,-83.81540377237208,259.9558432925334,-176.84796305531023,158.41588633479128,238.2035144586148,488.86765720973744
580,3.322973602935428,-219.54072777656623,-82.09251911925298,261.5538970180723,-172.53675856604093,188.98344273908006,238.56912666182347,482.97517608241037
581,5.816599404276,-221.2278044592058,-80.44637894843888,259.67741909219,-163.8502535888747,216.8163712675394,239.12527219146978,478.0267473573522
582,8.331604271291335,-222.9979775696347,-78.88141169692406,254.31544344931228,-150.88611031031806,241.8893379192391,239.829677975515,474.06429847512607
583,10.800062574938853,-224.80790731308701,-77.3985755138111,245.53313618209188,-133.8308400883368,264.2289903866202,240.64195916739837,471.11962328297307
584,13.15758196497272,-226.61810624204765,-75.99586117010638,233.4683456829896,-112.95193811740252,283.90767085899466,241.52393390090162,469.21336379341034
585,15.344711682666139,-228.39288069691383,-74.66882836529177,218.32595596801292,-88.58821801619243,301.03628179974413,242.43981643451335,468.3535644071793
586,17.30807945816672,-230.10017326365193,-73.41115095269056,200.3703038567229,-61.13875375093822,315.75659075285273,243.35631888787523,468.53400455570153
587,19.001249455459696,-231.71134893813442,-72.21514833759146,179.91599251112842,-31.050848440636553,328.23326313386457,244.242691203316,469.73254105957415
588,20.385306342978495,-233.20096355009431,-71.07228331189762,157.31748710100072,1.1925527298723348,338.64590332407647,245.07072691066685,471.9096917446259
589,21.429181732685226,-234.546547401136,-69.97361084598111,132.9579119749739,35.08560302042194,347.18136533920017,245.8147592870584,475.0076679263669
590,22.10974884416988,-235.72843042371153,-68.91016754539669,107.23748314425735,70.11207111986245,354.0265664681008,246.451668824216,478.9500189887606
591,22.41171890272882,-236.72962769629441,-67.87329683534628,80.5620069783382,105.75729264613395,359.36200240239145,246.96091841410188,483.64199381016977
592,22.32737762683492,-237.53579609459686,-66.85490936495269,53.33185835669403,141.51925759714138,363.35612248403083,247.32462707891483,488.97165918516697
593,21.85620128549904,-238.1352646481227,-65.84768086508976,25.931821511214842,176.9185857242929,366.1606809720832,247.52768646594353,494.81175260787336
594,21.004389039030016,-238.51913329312643,-64.8451909477681,-1.2778641637466783,211.5071977390425,367.90713701508685,247.5579172494519,501.02219236797725
595,19.784342602307937,-238.68142748152226,-63.84200710727169,-27.968962799932108,244.87554939874957,368.7041344793745,247.40625577134543,507.4531263324967
596,18.21411728939441,-238.6192896900622,-62.83371942286134,-53.85097778777716,276.65835530446,368.63605455932196,247.06695529875617,513.9483743784182
597,16.316861501944746,-238.333183619899,-61.81693326104036,-78.67501157168128,306.53878682725406,367.76260019497334,246.5377816198324,520.3491085118101
598,14.120255300004835,-237.82708351858778,-60.789228779216806,-102.23568077866001,334.25118097341567,366.11934228834633,245.8201798339957,526.4976176948642
599,11.655953090855272,-237.1086203290148,-59.749096151312884,-124.37110833073986,359.58234154834264,363.7191338513197,244.91938854059208,532.2410182986994
600,8.959030996262806,-236.18915838101108,-58.695853803039086,-144.96110547150798,382.37154888714383,360.55427974241655,243.8444792075424,537.4347921106636
601,6.067436348610449,-235.083780678569,-57.62955424890505,-163.92374274159002,402.50941895331306,356.599336545644,242.60830208386014,541.9460579037211
602,3.0214349595183334,-233.81116711797688,-56.550879472266345,-181.21058364846354,419.9357669242797,351.81440905241874,241.22732549321177,545.6565058548658
603,-0.1369489043632214,-232.3933578089249,-55.46102593736706,-196.80091249438735,434.6366352365335,346.14880619317347,239.72136248838657,548.4649434776587
604,-3.3645046135963543,-230.85540228089263,-54.36157854392407,-210.69532440451695,446.6406426760949,339.54491968877323,238.11318694894234,550.2894155341193
605,-6.617422873447505,-229.22490368952103,-53.25437312910593,-222.9090590530444,456.014801203621,331.94219280000993,236.42804923532927,551.0688686477748
606,-9.851900582439173,-227.53147430165586,-52.14134830191427,-233.46545042325403,462.859932988124,323.2810539064215,234.69310855586863,550.7643354970539
607,-13.024762045827794,-225.806124034957,-51.02438919569077,-242.3898358481457,467.30580401460844,313.5066997198199,232.93680470653388,549.3596157364108
608,-16.09409329777668,-224.080607561422,-49.905167903465966,-249.70422257173314,469.5060749774543,302.5726253077792,231.1881956578557,546.8614334881793
609,-19.01988379056314,-222.38675760869177,-48.784987572186715,-255.42295354399363,469.6331568741888,290.4438125242817,229.47628966385196,543.2990562260951
610,-21.764666969346223,-220.75583272744893,-47.664638786023275,-259.54955037832093,467.87304890091457,277.0995047211547,227.82940113859576,538.7233681315973
611,-24.29414826601689,-219.21790682864776,-46.54427738466144,-262.074844289957,464.4202302318241,262.5355134120511,226.27455825832172,533.2054026463993
612,-26.57780625704468,-217.80132506001544,-45.42333210677869,-262.9764387752322,459.472674759901,246.7660213226671,224.83698693814387,526.8343533975942
613,-28.589450784322985,-216.5322462271233,-44.3004487770603,-262.2194833855464,453.22705822064944,229.82486515098608,223.5396907842185,519.7150988896044
614,-30.307721197747416,-215.43428651521532,-43.17347562371499,-259.75867802599316,445.8742293601547,211.7662992859423,222.40314054860687,511.9652929513986
615,-31.71650856741788,-214.52827334565688,-42.039492000958184,-255.54137311931677,437.59501975577166,192.66525756687903,221.44508021824316,503.7120884010991
616,-32.8052872430159,-213.832112129853,-40.894880508333905,-249.51158403550048,428.5564692113214,172.61714307148517,220.68045047665552,495.0885744735881
617,-33.569342878706834,-213.36076254897856,-39.735440576769534,-241.61469999588354,418.9085440082216,151.73718547375847,220.12142396272924,486.23001852514267
618,-34.009885783031365,-213.12631500166358,-38.55654032904626,-231.8026401258309,408.7814227044409,130.1594116038162,219.77754075284068,477.27000945760636
619,-34.13404036513782,-213.13815260173823,-37.35330288749527,-220.0391943657356,398.28341819687944,108.03527751762111,219.65592738477406,468.3366051102231
620,-33.95470365271712,-213.40318030730296,-36.12082301286918,-206.30528589241334,387.4995954331488,85.53200982414431,219.7615791865583,459.5485898903003
621,-33.49026845119805,-213.9261008154663,-34.85440982841792,-190.60390457129915,376.49113162737314,62.83070066049526,220.09768402890873,451.0119530771905
622,-32.76421004744651,-214.70971659487822,-33.549851285698644,-172.96448599134115,365.2954501018596,40.12419542229712,220.66596576840718,442.8167023000883
623,-31.80453983552081,-215.7552384232209,-32.20369559300046,-153.44654449263922,353.9271398816823,17.614806337615235,221.46702718958096,435.03412914542605
624,-30.643134817667164,-217.06258273226692,-30.813543640500725,-132.1424071484182,342.37965109816787,-4.4881206816697405,222.50067478929907,427.7146424109652
625,-29.31495796409229,-218.63064265264654,-29.37834464579937,-109.17893493373454,330.6277317333157,-25.970763050639267,223.76621086573124,420.886276926164
626,-27.8571899755247,-220.45752046527946,-27.898685469544006,-84.71815437364465,318.6305453122902,-46.61748262206847,225.26268156173072,414.5539706595967
627,-26.30829739849105,-222.54071188459756,-26.377062871862293,-58.9567565249216,306.3353832052241,-66.21357255067952,226.9890724097715,408.69967996925914
628,-24.7070650323911,-224.87723517346788,-24.81812751536179,-32.12445060598432,293.68186082170763,-84.548071321634,228.94444548182847,403.2833736817525
629,-23.09162207086999,-227.46370031868187,-23.22888865784718,-4.481188506597275,280.60646587633556,-101.41662375609151,231.12801427513185,398.24491357430543
630,-21.498491412416374,-230.29631478716587,-21.618869085016524,23.686694305111345,267.04731081246445,-116.62436628609957,233.5391533985975,393.50679451568135
631,-19.961690130517084,-233.37082243129606,-20.000200825150483,52.071344796096405,252.94893194704264,-129.98881069226408,236.17733970783436,388.9776844309453
632,-18.511906396890055,-236.6823715530944,-18.38765366863521,80.34915501814356,238.26697580383603,-141.34269702998887,239.04202048506394,384.55667382952817
633,-17.175774514401024,-240.22530808457122,-16.798590807580176,108.18727570351595,222.9726180566896,-150.5367828438314,242.13240378695875,380.13811688124974
634,-15.97526557333769,-243.9928909178358,-15.252849192401118,135.25069961460161,207.0565708442454,-157.4425323350088,245.4471668796152,375.61691977878735
635,-14.92720696877506,-247.9769285785311,-13.772546038161638,161.2097002219718,190.5325477176245,-161.95466633702824,248.9840806742932,370.8941060763822
636,-14.042939854727,-252.16733957300156,-12.381816337820405,185.74738274748296,173.44007044803826,-163.99353199562324,252.73955106425143,365.88246253836866
637,-13.328119868920208,-256.5516430815865,-11.106488447726887,208.56708281616997,155.84651792944015,-163.5072496982365,256.70808220815263,360.5120440714142
638,-12.782663423809298,-261.11439252203354,-9.973705647217326,229.39933469801912,137.84833529719816,-160.47359341033516,260.8816724429167,354.73529539290314
639,-12.400839360559795,-265.83657182567777,-9.011501310895357,248.00812852466044,119.57134260909709,-154.90155849769303,265.2491606599907,348.5315341711563
640,-12.171503138620166,-270.69498259077864,-8.248334198223592,264.19618679603417,101.1701082839525,-146.8325681188638,269.7955492188548,341.910540022598
641,-12.078467408792035,-275.6616588296912,-7.712588398856551,277.80901802573845,82.82638342336662,-136.34126581061437,274.5013380410629,334.9150103424766
642,-12.100998864621879,-280.70335371905367,-7.4320397889368985,288.7375515515504,64.74662830316291,-123.53583910204507,279.34191234995507,327.62168047011414
643,-12.214427283773164,-285.7811481984528,-7.433288145474449,296.9192220583904,47.158699166599064,-108.55781850628416,284.28703223968336,320.14096245211965
644,-12.390849235129082,-290.85023303498815,-7.741152762230085,302.33745197616423,30.307797651199298,-91.58129977228458,289.30047454209347,312.6150306765968
645,-12.599906349673129,-295.85991320689203,-8.37803078873946,305.01956881020584,14.451811253723388,-72.81154616038562,294.3398754970535,305.2143682026542
646,-12.8096165403699,-300.75387619011707,-9.363221547701867,305.03328525364986,-0.14381387543458138,-52.48294219011865,299.356816516357,298.13287760551333
647,-12.987236299005678,-305.47075462765144,-10.712225823089993,302.4819545789315,-13.211529276193453,-30.856290067042416,304.2971854507795,291.581747086882
648,-13.100133244079183,-309.9449997151767,-12.43603596491569,297.4988841692598,-24.487347611312693,-8.215463023691077,309.10183299307283,285.782338660675
649,-13.116650224132577,-314.10806532670233,-14.540440331602898,290.24103866085943,-33.71661492264563,15.136546120901327,313.70752904274417,280.95842247417136
650,-13.006944978789532,-317.88988557789224,-17.025373062654214,280.88248575674226,-40.659815757039375,38.88211964134394,318.0482080349661,277.32811303937564
651,-12.74379193076855,-321.22061137572365,-19.884345825177352,269.60793091508776,-45.09834843072261,62.69397003938923,322.05647636054107,275.0958660161024
652,-12.303334523267099,-324.032555402021,-23.104000892730355,256.60665475300675,-46.84020831288873,86.24045420233801,325.66533978849185,274.44486973737986
653,-11.665777357851512,-326.26228049789427,-26.66382440397541,242.0671155598116,-45.72550632445162,109.19112951798695,328.8100947982403,275.5301199487616
654,-10.81600741622173,-327.8527541515869,-30.536054779650673,226.1724168812614,-41.63173251908085,131.2224226105328,331.4303155829954,278.47240799107135
655,-9.744133458744168,-328.75548255459114,-34.685813681390826,209.09677447331663,-34.47865617695537,152.02327276481708,333.4718590680544,283.3533908897773
656,-8.445932883042518,-328.9325322980541,-39.07147551236399,191.00305390968057,-24.23273884407904,171.3006073569881,334.8888044366417,290.21185372623205
657,-6.9231959800227365,-328.3583467065631,-43.64527725862074,172.04139319288305,-10.910928075992558,188.78450589761033,335.6452418062185,299.0412247086591
658,-5.183958155289807,-327.02126717516666,-48.35415542353363,152.3488751121748,5.416301554889365,204.2329129734459,335.71682690095497,309.7883633314229
659,-3.2426107367044508,-324.9246776428876,-53.14078316721795,132.05017145703218,24.622788239940178,217.43576884753665,335.0920247454115,322.3536115859879
660,-1.119880340794604,-322.0877021717759,-57.94477031988137,111.25904413990686,46.52552281791947,228.21843978671166,333.7729753046384,336.59207551081096
661,1.1573342176651507,-318.5454007729024,-62.70398256426277,90.08055501389164,70.88460067749517,236.44434766895128,331.7759270322669,352.31608680091125
662,3.5562792156429297,-314.3484264047001,-67.35593356646667,68.61380532017581,97.4043948242663,242.01671884812987,329.1311998549363,369.2987791688238
663,6.038829013144755,-309.56212631671923,-71.83920416078989,46.95499714570183,125.73605972999721,244.8793945723649,325.8826570955962,387.2786997577242
664,8.562144298339662,-304.2650939403856,-76.09484462912484,25.200584629787762,155.48147243778902,245.01666951148184,322.0866864828058,405.9653612645633
665,11.079510975188995,-298.54720329891643,-80.06771859143228,3.450265292397166,186.19870112449223,242.45215249048744,317.8107135792438,425.0456258878405
666,13.541358578945411,-292.50718534651173,-83.70774926667131,-18.19044345821422,217.40905388483088,237.2466760038228,313.13129554868664,444.1907991498317
667,15.8964482927148,-286.2498326335689,-86.97103067998395,-39.60828545730245,248.60569780808538,229.49531886518596,308.1318671151598,463.06430131192457
668,18.09320973881409,-279.88294254068364,-89.82076843288107,-60.68121360276062,279.26375087422036,219.32364749247594,302.9002314411648,481.32977581354044
669,20.081193680152413,-273.51412746486784,-92.22801805952766,-81.27835750152666,308.8516421442088,206.88332189700242,297.5259043154021,498.65948383126454
670,21.812596343245968,-267.24763098829266,-94.17219465247518,-101.26109086756104,336.8434202420161,192.34724771783021,292.09742912729564,514.742814734725
671,23.24380200757999,-261.1812914120871,-95.64133563741706,-120.48519721735566,362.73158241693034,175.9044813019032,286.69978220761226,529.2947082026511
672,24.336884705828773,-255.40378805272226,-96.63210898770183,-138.80405302461412,386.03991436137625,157.7551076078384,281.4119834817571,542.0637368906845
673,25.061007398583072,-249.9922918021737,-97.14957073738096,-156.07267776316516,406.3357889059146,138.10530859299314,276.3050163979941,552.8395511677684
674,25.393657598479482,-245.01062033630402,-97.20668667553213,-172.15244366825587,423.24137710553856,117.16282216347102,271.44014400650497,561.4593576030713
675,25.321662081359836,-240.50797090344625,-96.82364212058526,-186.9161945262805,436.44327727860207,95.13295995015048,266.8676853155389,567.8131046475849
676,24.84193012279863,-236.51827115868227,-96.02697038309107,-200.2534907209697,445.7001582552688,72.21530930471093,262.6262889010397,571.84708568669
677,23.961884562462963,-233.060153152231,-94.84853563702708,-212.0756759634782,450.84812953860006,48.601195598896844,258.74271147042793,573.5657345278341
678,22.69955254929285,-230.1375201994036,-93.32441013839039,-222.32045054990158,451.8036787237636,24.471930057040474,255.23208036609464,573.031469841593
679,21.08330234507427,-227.7406440151102,-91.49368908943705,-230.95564028403408,448.56414227269084,-0.002179865517568075,252.0985931393033,570.362532447722
680,19.15122813934296,-225.84770282780792,-89.39728852879495,-237.9818747578001,441.20578993747847,-24.662123075339007,249.33658598084395,565.7288461824728
681,16.95020062426633,-224.42665205892357,-87.07677202652908,-243.4339380996215,429.87970007346814,-49.35988076326833,246.93188715626906,559.3460174599445
682,14.534616414564208,-223.4373085906067,-84.57325027537897,-247.38063068476652,414.8056805873648,-73.95765191434553,244.8633624571468,551.4676711237455
683,11.964893485931178,-222.83352788778063,-81.92639342089461,-249.9230776211312,396.2645486389235,-98.32675078752538,243.1045572706351,542.3764008589346
684,9.305771713571483,-222.56535978292317,-79.17358906816914,-251.191529922774,374.5891231558695,-122.34632452585396,241.6253438584498,532.3736884786326
685,6.62448644597964,-222.58108237317214,-76.34926996608158,-251.34081448810417,350.154309677091,-145.90203431622288,240.39349208404533,521.7692114271531
686,3.988888080267079,-222.8290323602392,-73.4844253908318,-250.54468586021082,323.36666811262876,-168.8848287866741,239.37609587591257,510.870003092528
687,1.465581312773014,-223.2591719752582,-70.60630007725842,-248.98940502729047,294.653850394961,-191.1899151282405,238.5408043834484,499.9699472846766
688,-0.8818457521121346,-223.82435516314487,-67.73827481757563,-246.86691151552319,264.45427561514185,-212.71600431090408,237.85682428879437,489.3400707694473
689,-2.994439519148223,-224.4812772209144,-64.89991422828754,-244.36796366166965,233.207374888308,-233.3648749607725,237.29567675921635,479.22004588626226
690,-4.819292817426534,-225.1911112319114,-62.1071603811642,-241.67560234771202,201.34468879659116,-253.04126925523744,236.8317080788392,469.8112353721406
691,-6.310710435982385,-225.9198503763329,-59.37264626436507,-238.95925282208486,169.2820406007595,-271.6531063279384,236.44236624007627,461.27151464908235
692,-7.4311022337014645,-226.63838704716048,-56.70609991021033,-236.3697247947148,137.41294293603704,-289.11197605101796,236.1082661004485,453.71200503890367
693,-8.151592393762096,-227.32236786925722,-54.114807924637894,-234.03530807688347,106.10332852499374,-305.333859593606,235.8130730408236,447.1957542073544
694,-8.45234697810797,-227.95186898102614,-51.60410622453212,-232.05909282834665,75.687630041812,-320.24001285171335,235.5432400034402,441.73831329141217
695,-8.322633711931733,-228.51093924192688,-49.17786664050024,-230.51757212331404,46.46617363961648,-333.7579440339232,235.28763628171595,437.310085896491
696,-7.76063752210061,-228.9870608189512,-46.83895085126212,-229.4605122839873,18.703797408759193,-345.82241630236615,235.03710887340014,433.84026253713523
697,-6.773062547686503,-229.37057636824446,-44.58960748748534,-228.91200619033677,-7.370437731067547,-356.37640926329965,234.78401796053086,431.2221042584536
698,-5.374556025097988,-229.65412883263613,-42.43179380488433,-228.87256029034526,-31.562610127107043,-365.3719783713159,234.5217861575817,429.3193003031638
699,-3.5869916820614316,-229.83215345278194,-40.36740985739786,-229.32201149569812,-53.712559489178894,-372.7709584958518,234.24449629048854,427.9730966873433
700,-1.4386502915731427,-229.90045268295998,-38.39844010495921,-230.22302963604884,-73.69196648278762,-378.54546693643914,233.9465652444917,427.009876196915
701,1.036666824100588,-229.8558745238306,-36.52700408395995,-231.5249380573051,-91.40208733803125,-382.67817210136104,233.62251282245964,426.2488668996653
702,3.8005589388997025,-229.6961044259861,-34.755323586178065,-233.16758145970792,-106.7713313190308,-385.162306689482,233.26683551707325,425.5096668852653
703,6.810953863268999,-229.41957109912104,-33.08561863812265,-235.08498659224827,-119.7528504476787,-386.00141804849346,232.873986330327,424.61929783949046
704,10.023020161716433,-229.0254576616198,-31.5199485512793,-237.20859618758573,-130.3222848425894,-385.2088628464967,232.43845372085212,423.4185381528116
705,13.390046955913835,-228.51380198562055,-30.060017303944125,-239.4699056765612,-138.4757749028658,-382.8070677720125,231.95492585205926,421.7673350374298
706,16.86428052124904,-227.8856645415787,-28.706964073392154,-241.80239053594312,-144.2283150321536,-378.82659211735063,231.41852118813597,419.5491508665965
707,20.397712171666157,-227.14333916382776,-27.461159437572892,-244.14267399725966,-147.61248463299768,-373.3050410123294,230.825063675256,416.6741572878414
708,23.94281590839331,-226.29058191647354,-26.322025532500113,-246.43094511400278,-148.67755309538555,-366.28588869013805,230.1713801978301,413.0812472402485
709,27.453236652466433,-225.33283501135244,-25.287894564773477,-248.61069158555821,-147.4889191628013,-357.81727834088144,229.45559915772546,408.7388861161799
710,30.884430610340253,-224.27742584629053,-24.35591508258723,-250.62785704262242,-144.1278140101094,-347.9508679525334,228.67743131774762,403.6448663376197
711,34.19425855809709,-223.13372523014442,-23.522010050544452,-252.42956645444025,-138.69117379883266,-336.74078965625773,227.83841710425392,397.8250632228588
712,37.34353078435454,-221.91325342586666,-22.78088582187796,-253.96258458135569,-131.29157299937998,-324.2427836072592,226.9421281376533,391.33131407339187
713,40.29649967517136,-220.62972761868497,-22.12608707941363,-255.17168060364318,-122.05710534159147,-310.5135568676986,225.9943147795209,384.2385577972748
714,43.02129334900532,-219.29904961131416,-21.55008998308267,-255.99806792521952,-111.13110502344851,-295.6104038877728,225.00299586154165,376.64138065479875
715,45.490282092499406,-217.93923720693536,-21.044424364567085,-256.3780734437936,-98.67161596979285,-279.59110894173375,223.97849086244824,368.65011663211925
716,47.680368932711815,-216.5703057052566,-20.59981601292373,-256.2421678440754,-84.85053970089876,-262.51413335576905,222.93339757295288,360.3866500413036
717,49.5731965573268,-215.21410670037238,-20.206341573743245,-255.51446056448486,-69.8524201731456,-244.43907276978578,221.88251926065098,351.9800641867866
718,51.155264823522714,-213.8941305150221,-19.853590571808358,-254.11273265268514,-53.872853924050844,-225.42735323185337,220.8427450417366,343.56227375585826
719,52.41795599347625,-212.63527714826202,-19.530830771742956,-251.9490498185096,-37.116543376101305,-205.5431207812252,219.83288648715748,335.2637701149298
720,53.3574682926101,-211.46359937951829,-19.22717391746358,-248.9309680063366,-19.7950380812221,-184.8542682908635,218.8734731437393,327.20959799639803
721,53.974662063967784,-210.40602110646327,-18.931738709882797,-244.9633156082631,-2.1242311724416325,-163.43353633146128,217.9865099738427,319.5156692339962
722,54.27482621356701,-209.49003401674142,-18.633807293293085,-239.95051051902038,15.678305395248502,-141.35962190403802,217.19520055564706,312.28550441531473
723,54.26737536352226,-208.74337582893958,-18.32297142992177,-233.79934679240492,33.39605452600501,-118.71822994423037,216.52364073374002,305.60747694324624
724,53.965490019002786,-208.19369327351515,-17.98926536893802,-226.4221646931957,50.81626388859414,-95.60300709087252,215.99648794887838,299.5526166532481
725,53.38571323738328,-207.86819294875625,-17.62328396179425,-217.74029946892904,67.73254674917729,-72.11630456286608,215.6386119223882,294.1730125502357
726,52.54751786202787,-207.79328363314227,-17.216286498072694,-207.68768850735134,83.94730191345545,-48.36972609112545,215.47473314279748,289.5008370727339
727,51.47285831485945,-207.99421454997136,-16.76028879093366,-196.21450437343566,99.27389797984037,-24.484426672200726,215.5290566521685,285.54799805563397
728,50.185720165733734,-208.49471480737938,-16.24814796935021,-183.29067339637012,113.53858506553043,-0.5911376008270065,215.82490928687778,282.3064095759015
729,48.71167919262947,-209.31663913634972,-15.673645978123112,-168.9091368434875,126.58211403221672,23.1700976947861,216.3843881472139,279.74885942849266
730,47.07747945676288,-210.47962411680183,-15.031578823013723,-153.08871493818344,138.2610577636075,46.6504841441408,217.22802664416264,277.83043944740007
731,45.31063720874956,-212.00075778949062,-14.317859005528454,-135.8764433389396,148.44884070624727,69.69333120516241,218.37448248193277,276.4904955218346
732,43.4390745426078,-213.89426435669415,-13.529638083119092,-117.3492668868159,157.0364916990714,92.13519670950252,219.84024987952836,275.65504686855115
733,41.490783954228995,-216.1712048134293,-12.665454662272037,-97.61499542859661,163.93314144726253,113.80730338915723,221.6393965164199,275.239618310321
734,39.49352249860228,-218.8391938811172,-11.72541056961713,-76.81244968835964,169.066290338352,134.53720649433626,223.78332423165958,275.15242396182197
735,37.474532169550464,-221.90213351226632,-10.711374892864235,-55.11074957773595,172.38187516573382,154.15068476279697,226.2805514533868,275.2978347696041
736,35.46028171899964,-225.3599634558787,-9.627212464027307,-32.70772139399292,173.84416518638622,172.4738213750215,229.13651473108723,275.58005515249226
737,33.476224789774825,-229.20842988317173,-8.479030544471614,-9.827423309298794,173.43551914478036,189.3352364659001,232.3533866492687,275.9069256080764
738,31.546570153331125,-233.43887384512118,-7.275435288583673,13.283189244397395,171.15603562290337,204.56842816725924,235.9299078483697,276.1937592495777
739,29.69406180938717,-238.0380422994219,-6.027788065406863,36.35841406953677,167.02312933676956,218.01417479513066,239.8612317745337,276.3671116625624
740,27.93976916476474,-242.98792543396482,-4.750450539465295,59.11869999438899,161.07106557758658,229.52294648073516,244.13878186227916,276.3683758285135
741,26.302889771463377,-248.2656248342022,-3.4610060715397344,81.27619662357186,153.35048334396714,238.9572704100856,248.75012182211822,276.1570873616151
742,24.800568581017288,-253.84325764482097,-2.180443339107639,102.54083214740788,143.92793400083298,246.19399049908895,253.67884044115456,275.71381998394924
743,23.447738050980423,-259.68790238975146,-0.9332862586466576,122.62676689320298,132.88545570693378,251.1263607385672,258.90445293120365,275.042547333826
744,22.25698264980564,-265.761592758707,0.25234749684002306,141.2590448234401,120.32019387504022,253.66591257522145,264.4023216352129,274.1723458566486
745,21.238429427121428,-272.02136668507796,1.3447787440970334,158.18024558401825,106.3440645737311,253.74404135300196,270.1436001201484,273.1583165155236
746,20.3996636861697,-278.4193795740803,2.3089104658721644,173.15692865366807,91.08344170040574,251.31326556393591,276.0952065391165,272.0816128814264
747,19.74566615332018,-284.90309246342775,3.1065040749625457,185.9856608351122,74.67883139390901,246.3481256016593,282.219834571087,271.04848239850213
748,19.278766269450056,-291.41554775169254,3.6966084827164227,196.4984301469112,57.28448071544142,238.84570546626506,288.47601284748595,270.1882581363783
749,18.99860584703406,-297.89574622694283,4.036159363936416,204.56727331496464,39.06785463764105,228.82578037255246,294.8182259055202,269.65028057006606
750,18.902108309174455,-304.2791387148244,4.080761127616,210.1079792705338,20.208907870975438,216.33061385020952,301.19711062093336,269.59978145049104
751,18.983450686568688,-310.498243100995,3.7856570423962568,213.08277463192266,0.8990767912441258,201.4244477996638,307.559741123577,270.21282137708437
752,19.23403804927581,-316.4833925037577,3.1068835778658412,213.50194514632074,-18.660078872258055,184.1927462366794,313.85001210820735,271.67043450587903
753,19.642482685700113,-322.163613330886,2.002593483681478,211.42439471100724,-38.25864612214137,164.74126656906893,320.00912551113026,274.1521922441237
754,20.194592821037418,-327.4676238472177,0.4345192336322784,206.95718570313977,-57.68058982388327,143.19503999032096,325.97617959929426,277.82944675302036
755,20.87337782547136,-332.32493606605635,-1.6304646160749792,200.25413591982337,-76.70647855700167,119.69734404201503,331.6888538051077,282.85854873677215
756,21.659078591786262,-336.66703748709193,-4.218733755093458,191.5135644025152,-95.11671947567295,94.40874503051579,337.0841782129904,289.3743473448748
757,22.529233002881565,-340.4286251284215,-7.34832504573136,180.97527866214,-112.69529300816012,67.50627561776545,342.0993740395004,297.48426988487546
758,23.45878721923868,-343.54886255526475,-11.027437665047906,168.91688001338267,-129.23395104929153,39.182793733225665,346.672750790129,307.26324515659695
759,24.420264146803813,-345.97263102215805,-15.25310058952859,155.64943568663233,-144.5368122523284,9.646543596965177,350.744646820859,318.7496800554585
760,25.384001327266205,-347.65174815983175,-20.010083511298344,141.51253265657098,-158.42525596788565,-20.879090620977944,354.2584025263786,331.94263183850506
761,26.318471931537754,-348.5461313072443,-25.270125466802483,126.8686968478237,-170.74298304977654,-52.15568114180141,357.1613587809902,346.80024737145857
762,27.19070420280288,-348.6248865326021,-30.991548648823812,112.09714075416545,-181.36107822524576,-83.92977904450849,359.40587645666176,363.23947457536804
763,27.96681546973426,-347.86730724391174,-37.11931385777137,97.58679940230458,-190.18287705732808,-115.93296989464713,360.95037438378716,381.1369966583942
764,28.612675348155868,-346.26376704934535,-43.58555883467351,83.72863351816764,-197.14841377208512,-147.88209489892893,361.7603818853092,400.3313002464975
765,29.094708015108537,-343.816489860077,-50.310641577958776,70.90722107375437,-202.2382075935782,-179.47978691909543,361.8095975958804,420.6257650650193
766,29.380835222941858,-340.54017631019855,-57.20468816354527,59.49172165279313,-205.47613697939067,-210.41547714105184,361.08093880945165,441.7926530987512
767,29.441550362219196,-336.4624598889169,-64.16961935222368,49.82637591901679,-206.93115423680788,-240.36702277781404,359.5675555204048,463.57787388622427
768,29.251100150953803,-331.6241596337082,-71.10160361812922,42.22078558154411,-206.71760772455497,-269.00308819312056,357.2737714394593,485.70640286361856
769,28.788735487492826,-326.07929027782666,-77.89385774409922,36.94029713245414,-204.9939657816112,-295.98638119642,354.2159019440966,507.8882254066862
770,28.039977836394076,-319.8947873228706,-84.43969150069934,34.196875569940374,-201.95977710472428,-320.97780368933974,350.42288811859953,529.8246678029732
771,26.99783349369099,-313.1499055919672,-90.63567199890151,34.1408946947504,-197.8507590013672,-343.6415230081006,345.9366789605521,551.2149601458158
772,25.66387674551488,-305.93525668821223,-96.38476819568037,36.85428289075272,-192.93198092488544,-363.65090977734064,340.81229232408475,571.7628618068605
