time,ax,ay,az,gx,gy,gz,accmagnitude,gccmagnitude
0,25.258606504254182,-228.57038667180225,-106.81628081778167,-99.88072867509038,-10.449471620295098,-153.00996147206286,253.5546661700373,182.13859297140993
1,24.777002733718692,-229.3019247090596,-107.07840749783401,-102.08322620801857,-9.478038314570634,-154.04215395454295,254.28510312110186,184.00982008253285
2,24.324473841430226,-230.01004242802597,-107.34148400295861,-104.37795107690901,-8.483475051547913,-155.10477498593082,254.99781326730528,185.93924433289305
3,23.904958134815,-230.68535939602765,-107.60534815596533,-106.77118405468852,-7.446554401875337,-156.18908489456052,255.68466023435934,187.93133506392408
4,23.522094015554185,-231.31908018033297,-107.8696628731085,-109.27132044002225,-6.348223279572015,-157.28502376720851,256.337928904696,189.99223763908932
5,23.179153095573387,-231.9032140551013,-108.13386139053301,-111.88873277045447,-5.170186430445261,-158.38123302383923,256.950492858088,192.12967004146563
6,22.87896808135892,-232.43077891970532,-108.39710061827186,-114.63548088849977,-3.895453297248151,-159.46511257010653,257.5159705430857,194.35271660659396
7,22.62385716307605,-232.89598351553116,-108.65822485580475,-117.52486500385213,-2.5088314711647848,-160.52291681353876,258.0288660007447,196.67151631018106
8,22.415547669638677,-233.29438238590157,-108.9157414179121,-120.57082661528212,-0.9973535028378043,-161.53989174320924,258.4846900961578,199.09684866724697
9,22.25510234587503,-233.62299857446402,-109.16780908224331,-123.78721161743415,0.6493726831257524,-162.50045415210508,258.88005849661363,201.6396261645205
10,22.142851853005034,-233.88040984566288,-109.41223957222172,-127.18691872363158,2.438896178885723,-163.3884129741136,259.2127630726483,204.31030769194052
11,22.07833713688179,-234.06679517439318,-109.64651144176916,-130.7809637931818,4.375741229625213,-164.1872315810621,259.48181391267457,207.11825219267246
12,22.060265204588603,-234.183939273942,-109.86779489377224,-134.57749644402148,6.461310202187716,-164.88032869638715,259.6874497004826,210.07103547799278
13,22.086481622476473,-234.23519395073103,-110.07298553879141,-138.58080949214897,8.693866239070354,-165.45141434195335,259.83111487612763,213.1737558706918
14,22.153962765079335,-234.22539615715564,-110.25874503736519,-142.7903844641317,11.068586276822883,-165.8848559884299,259.9154029124938,216.4283561693877
15,22.258830520734435,-234.16074385678678,-110.42154693553216,-147.200017820797,13.577671803580051,-166.16606884046345,259.9439662684678,219.83299044669582
16,22.396391677424756,-234.04863213153055,-110.55772668759869,-151.7970726857722,16.21050314902185,-166.28192291442284,259.9213949920523,223.3814644297837
17,22.561203412213498,-233.89745307203958,-110.6635356819442,-156.56189978048178,18.953823715687587,-166.22115822203543,259.85306720676,227.06277765709297
18,22.74716513321411,-233.71636375102239,-110.73519979606276,-161.46746874301996,21.79194324280325,-165.9747979974771,259.7449755788255,230.8607941928777
19,22.947635444446934,-233.51502719420336,-110.768983423446,-166.47924670230407,24.70695328368733,-165.53654859644294,259.6035344507915,234.75406623090385
20,23.155571365154614,-233.30333217254244,-110.76126002383029,-171.55535456106892,27.678952615702137,-164.9031735267901,259.4353730422948,238.71583117116924
21,23.363685345469463,-233.09109917429078,-110.70859008182049,-176.64702279813204,30.686284297533916,-164.07482807629216,259.24712129574493,242.71419751141232
22,23.564614382545958,-232.88778196398692,-110.60780682236545,-181.6993578877586,33.70578878031962,-163.0553402660461,259.0451964671345,246.71252817168394
23,23.75109500773969,-232.70217599420675,-110.45610895818675,-186.65241801789142,36.71307844557475,-161.8524235729276,258.8355997491714,250.6700219339437
24,23.916138258561816,-232.54214571527177,-110.25115808191444,-191.44258318355656,39.682838046922704,-160.47780728154538,258.62373224672825,254.54248497236097
25,24.053199684852835,-232.41438220177483,-109.99117628431242,-196.0041906059674,42.58915286161854,-158.94727161022334,258.4142382726507,258.2832754857461
26,24.156340349907932,-232.32420092850745,-109.67503775541778,-200.27139266828928,45.405862257980566,-157.28057689919834,258.2108817888068,261.8443957914827
27,24.220375270306814,-232.27538764555305,-109.30234722288179,-204.18018225684526,48.10693151602689,-155.50127904198342,258.01645975374026,265.1776985970468
28,24.241005908312317,-232.27009849937312,-108.87349843759705,-207.67052062651854,50.66683003662364,-153.63642690900807,257.8327546522809,268.2361683277695
29,24.21493352645141,-232.3088189209361,-108.38970723339082,-210.68849636675887,53.06090054944524,-151.71614171486118,257.66052756754044,270.97523499314724
30,24.139950533148184,-232.39038430587192,-107.85301536785418,-213.18844077981035,55.26570234432148,-149.77308293700776,257.49955252118156,273.35407722651206
31,24.01500719790946,-232.51206399194368,-107.26626300120571,-215.13492441523442,57.259312172683885,-147.84181009987205,257.3486921281332,275.3368722857433
32,23.840251235484832,-232.66970836963745,-106.63302923377427,-216.50456071981495,59.021569063148846,-145.9580540125631,257.2060137480008,276.8939530149622
33,23.617038116660723,-232.8579571661566,-105.95754163239695,-217.28754490702627,60.53425330132358,-144.15791456678465,257.06894434404205,278.00283414408807
34,23.347910919848076,-233.0705050163062,-105.24455705131639,-217.4888587132239,61.78119453965257,-142.47700489201645,256.93446118302336,278.64907229505945
35,23.036549820802932,-233.3004181417663,-104.49921723018784,-217.12907463063203,62.74830878034911,-140.94956362015387,256.79931406478084,278.82692555500694
36,22.68769225126834,-233.54049314720464,-103.72688372585586,-216.24469695844655,63.42356833737197,-139.6075583311573,256.6602727911862,278.53977981121693
37,22.30702507184313,-233.78364596730327,-102.93295779053594,-214.88798263567963,63.79691253523939,-138.47980395362092,256.51439139174147,277.80031104683945
38,21.901050125939744,-234.0233164958802,-102.1226917681969,-213.12619376101742,63.86010965408964,-137.59111992922575,256.3592787682669,276.6303566582278
39,21.476924703823638,-234.25387272602603,-101.30099933028576,-211.04024732981387,63.60658233330536,-136.96154925346138,256.1933641903846,275.0604757429266
40,21.042279002122253,-234.4709973393855,-100.47227229651591,-208.72274673336747,63.031209178373075,-136.605661040477,256.0161454724418,273.12918889232185
41,20.60501370454443,-234.6720396270613,-99.64021161184172,-206.2754037031424,62.13011464775196,-136.5319560306459,255.82840764279044,270.88190218701124
42,20.173082172415498,-234.85631645069395,-98.80767904039278,-203.8058874301545,60.900457604970356,-136.74239149779964,255.63240043063894,268.36953692978113
43,19.754262979691905,-235.02534757176673,-97.97657456047634,-201.4241676634124,59.340226622070006,-137.2320383942608,255.43196392135104,265.6469046943605
44,19.35592925546908,-235.1830129458779,-97.14774293317905,-199.2384485068078,57.4480477291437,-137.988879484881,255.2325933272158,262.77088483217227
45,18.98482146150545,-235.33562244894986,-96.32091176214134,-197.3508172286467,55.223008217174375,-138.9937530142663,255.04143604805293,259.7984770571414
46,18.646830053265024,-235.4918919413429,-95.49466235379182,-195.85275573087296,52.664498475024345,-140.22044252607697,254.86721697369245,256.78481374407306
47,18.346794151705556,-235.66282340595703,-94.66643362098286,-194.82067977542204,49.77207264454165,-141.63591007219802,254.72009109178543,253.78122403213905
48,18.088321962981126,-235.8614908340066,-93.83255819963463,-194.311681378131,46.5453280556781,-143.20066726775605,254.61142567239537,250.83344396291272
49,17.873638252714738,-236.10273732214083,-92.98832896449338,-194.3596521237263,42.98380302709806,-144.8692764202148,254.55351740418752,247.98006339805974
50,17.703463776452992,-236.40279229780396,-92.12809328521718,-194.9719592447005,39.08689288029144,-146.59097223258036,254.55925269901414,245.25129159948227
51,17.576931240734037,-236.77882076300273,-91.24537179134946,-196.12683253480034,34.853785091062605,-148.31039325245882,254.64172187665235,242.66810986992542
52,17.491542054693255,-237.24841882731056,-90.33299829788149,-197.7715995808616,30.283416429128575,-149.96841113119427,254.81380004150697,240.24186264553055
53,17.443167686306854,-237.82907147234178,-89.38327790984634,-199.82188088753134,25.37445762866901,-151.50304468036086,255.08770905534226,237.97431915123818
54,17.426098776346198,-238.5375893280124,-88.38816104859686,-202.16182689080506,20.125334430932995,-152.85044455988884,255.47457592405408,235.85821740230108
55,17.433144296071863,-239.38954120657814,-87.33943211949489,-204.64544713597638,14.534297450233636,-153.94593321563875,255.98400307539058,233.8782820190664
56,17.455781990896522,-240.39869836776046,-86.22891267607169,-207.0990491810337,8.59955668107393,-154.7250835197605,256.62366549785645,232.01268778750378
57,17.48436013599421,-241.57650524474067,-85.04867999329326,-209.32477171380543,2.3194987518015737,-155.1248186446446,257.39894870091325,230.23492261211672
58,17.508349229885265,-242.931589928412,-83.79130260482319,-211.10516314256895,-4.306994713044227,-155.0845152505097,258.31264008429196,228.51598675029206
59,17.51664068186749,-244.46932627698334,-82.45009437816083,-212.20872355042184,-11.280111790890334,-154.54709228258704,259.3646846778393,226.8268502123299
60,17.49788790489819,-246.1914581345028,-81.01938814398049,-212.3962945535692,-18.59854770285903,-153.46006861627038,260.5520144018442,225.14107720712437
61,17.440883667151734,-248.09579473525199,-79.49482893664562,-211.42814890315438,-26.25881259526585,-151.7765743625674,261.8684580133044,223.4375158563908
62,17.334966165877827,-250.1759848418269,-77.8736856382148,-209.07160087416113,-34.25441632802957,-149.4563027159295,263.3047367010706,221.70294363673608
63,17.170444992884825,-252.42137544118094,-76.15517823975183,-205.10893133914016,-42.57494568174262,-146.46639173919405,264.8485478095767,219.9345549226221
64,16.939036830803218,-254.81695891054687,-74.34081607904281,-199.34539983159726,-51.20505659935882,-142.78222844664427,266.48473642836234,218.14217751398186
65,16.634299289441756,-257.3434106014725,-72.43474042952172,-191.61710156389512,-60.12340920984346,-138.38817090576097,268.19555176816465,216.3501109874482
66,16.25204982425262,-259.97721701963616,-70.44406284441725,-181.7984214455425,-69.301576760813,-133.27818758547852,269.9609826479308,214.5984916197008
67,15.790755348800225,-262.69089342999973,-68.37918877400408,-169.80883999168748,-78.70296219556971,-127.45641638226857,271.7591643037644,212.94410637236874
68,15.251877125993243,-265.4532888598621,-66.25411421633375,-155.61885701232376,-88.2817589689152,-120.93764809796737,273.5668472009947,211.46060104152642
69,14.640154882877614,-268.2299759410032,-64.08668158108905,-139.25481676608143,-97.98199613544367,-113.74774015434173,275.359917458059,210.2380534170603
70,13.963813942809084,-270.9837225092029,-61.89877959938977,-120.80244117597073,-107.73671114485208,-105.92396577446127,277.1139576076544,209.3819089726592
71,13.23467969887007,-273.67504107278495,-59.716471020197304,-100.40890426147837,-117.46729596984679,-97.51530173632119,278.8048354797653,209.0113020423353
72,12.468185178406323,-276.26281100421403,-57.57003094554188,-78.28331020164262,-127.08306204920818,-88.58265421818044,280.40930785077535,209.25680786792196
73,11.68325990412855,-278.70496654577124,-55.49387808813475,-54.695469120866214,-136.48106635928335,-79.1990173385894,281.9056241587322,210.25768917587618
74,10.902091706484542,-280.95924147321847,-53.526381533834396,-29.97289916895499,-145.54623462124067,-69.44955296091011,283.27411418461844,212.15871467904552
75,10.149757366535448,-282.9839586087162,-51.709527438656835,-4.496021747488812,-154.15180872583167,-59.431573623383926,284.4977423559565,215.1066365723591
76,9.453722660272746,-284.7388494658427,-50.08843375309628,21.30843986058165,-162.16013505214033,-49.25440373684458,285.5626104194932,219.24642086021612
77,8.843217239661794,-286.1858863887133,-48.710706330573835,46.975798584934594,-169.4238000994982,-39.03908816855129,286.45838981033467,224.71732956295926
78,8.348494608256374,-287.2901069126243,-47.6256362198269,72.01336249593709,-175.78711144414436,-28.917912634580354,287.17866527909575,231.6489583485923
79,7.999992121104989,-288.0204080070746,-46.88324511207967,95.91183746271388,-181.08791656411162,-19.033697545988193,287.7211723696951,240.1573366433229
80,7.8274103805980415,-288.3502866026328,-46.533193362885974,118.15793272202428,-185.15974940351163,-9.538826601535064,288.0879132730189,250.34119811243772
81,7.858735432097774,-288.2585025349489,-46.62357225030335,138.24786618243112,-187.8342932795297,-0.5939737716600302,288.28513845514294,262.27852501216853
82,8.11923050793546,-287.72964086348327,-47.1996086958716,155.70140955387149,-188.94414704558736,7.6335025632194835,288.32318523037503,276.0234582948507
83,8.630426528069767,-286.754552482754,-48.30231628068539,170.0760659446234,-188.32587814077638,14.971521673737554,288.21616906538395,291.60364667306465
84,9.409142154221103,-285.33065506975925,-49.96713096350302,180.98093682782286,-185.82334122297348,21.245611470631424,287.9815288490184,309.018084872108
85,10.466565043358276,-283.4620806695623,-52.22257342186845,188.0898126139354,-181.2912350845288,26.28160793028204,287.63943357731563,328.23546813751045
86,11.807426121198311,-281.15966144005137,-55.08898232992652,191.153012417824,-174.59886386264998,29.90870701595862,287.2120646603993,349.1930703826271
87,13.429298160121657,-278.4407509822125,-58.57736410587576,190.00750491843,-165.63406087764875,31.962836114910335,286.72279501625076,371.7961393949658
88,15.322048680863702,-275.32888498124527,-62.68840467083038,184.58486450713048,-154.30722388468806,32.29029428372133,286.19529290821913,395.91779519811604
89,17.467475265767987,-271.85329126615505,-67.41168754583443,174.91665627076074,-140.55539809563462,30.75159319070907,285.652584720218,421.3994171758358
90,19.839148792790734,-268.0482654819197,-72.72516018808307,161.136900572109,-124.34632732128983,27.225414459400803,285.1161160878443,448.05151159123926
91,22.402486710474694,-263.95243391894894,-78.5948867624654,143.4813431898721,-105.68237393729186,21.612584815096604,284.60485447915573,475.65506264601834
92,25.115073990250107,-259.6079292562485,-84.97512024598136,122.28334938096788,-84.60418585011509,13.839958525576844,284.1344779041368,503.9633853041973
93,27.92724360083563,-255.05950780730947,-91.80871927608207,97.96634850447337,-61.193965024049895,3.864087601812657,283.7166935022086,532.704514264473
94,30.78292119006781,-250.3536382895216,-99.0279248259093,71.03287875726512,-35.5781704817722,-8.325445352453228,283.3587260979952,561.5841783027358
95,33.62073018357379,-245.53759231245496,-106.55549826590854,42.0504182976391,-7.929473248672697,-22.703158267601058,283.0630104309596,590.2894208269223
96,36.37534392282771,-240.65856591401695,-114.30620578658926,11.634338740418732,21.532223894269425,-39.20538821080971,282.82711182127224,618.4929341378144
97,38.979061222288635,-235.76285976757134,-122.18861513923946,-19.57152249701923,52.53987905120938,-57.72871275799329,282.64388879684867,645.8581736326643
98,41.36357140230088,-230.8951431995699,-130.10715042725033,-50.91600869817546,84.78066733832367,-78.12917593155835,282.5018979901353,672.0453029794226
99,43.461864859788676,-226.097823730091,-137.9643311918918,-81.76268624705388,117.89871008869768,-100.22240181781495,282.38602683229954,696.7179818071941
100,45.21023577250711,-221.41053919875526,-145.66310573276164,-111.51182064214778,151.49923257406942,-123.78465555123839,282.27832398118346,719.5509319110728
101,46.55031483282904,-216.86978351960366,-153.10917799033894,-139.62122641430892,185.15414260654492,-148.55488389740714,282.15898239422535,740.2381029095956
102,47.431062469447056,-212.50866983313233,-160.21322448798733,-165.624897466314,218.40895417235683,-174.23773717984596,282.00741745542024,758.5011205592932
103,47.81064767071472,-208.35682666369,-166.89290397648315,-189.14837265359176,250.79091031410175,-200.50754217445973,281.80337465483103,774.0975779800777
104,47.658135333190536,-204.44041430470546,-173.07457740859047,-209.9199321677114,281.8180910997958,-227.01316361883272,281.52799954814185,786.8286628471369
105,46.9549069456477,-200.78224094990753,-178.69467806269805,-227.77695194137166,311.0092296834492,-253.38366204883317,281.1648075682975,796.5456256689861
106,45.6957458007546,-197.4019520179752,-183.7006981346368,-242.66705026826972,337.8939077614308,-279.2346294258645,280.7005018856163,803.15468331579
107,43.889528680962904,-194.31626250414735,-188.05178538481584,-254.64401379182385,362.02276824397455,-304.1750624735541,280.12560209616015,806.6200949880483
108,41.55948049147512,-191.53920163513592,-191.71896807686872,-263.85884980832896,382.97737448394975,-327.8146169610968,279.43486290397834,806.965311238015
109,38.742965473132834,-189.08234176468756,-194.68504580552113,-270.5466369256236,400.37936576273944,-349.7710739294254,278.62747804133977,804.2722469303235
110,35.49080689349164,-186.95498883855754,-196.94419619014423,-275.01010106570357,413.8986066453412,-369.67784077421805,277.7070785174762,798.6788419833581
111,31.866145099330364,-185.16431887018746,-198.50135231726847,-277.6010051831478,423.26009617096565,-387.1913064280389,276.68154451014567,790.3751398095309
112,27.942860730225373,-183.7154525445562,-199.3714041687942,-278.7004996942507,428.24947997007774,-401.99787110973875,275.5626563934031,779.5981371735452
113,23.8036055362113,-182.6114672692615,-199.5782711592766,-278.6995409486333,428.7170813977266,-413.8204774591291,274.36561305701673,766.6256544015054
114,19.537497672430764,-181.85335190669468,-199.1538848295043,-277.9803631707828,424.5804265858261,-422.4244810381209,273.10844582145705,751.7694569348602
115,15.237551578664833,-181.4399135610317,-198.13711287738923,-276.8998095040619,415.82527852077556,-427.62271328470706,271.8113549339374,735.3678389008343
116,10.997924375711081,-181.3676480601045,-196.5726495251715,-275.7751184294154,402.50521858256315,-429.2796079489784,270.4959937414161,717.7778605372982
117,6.911070571277879,-181.63058640090398,-194.50989339195434,-274.8725502128013,384.73982682895723,-427.31428207765686,269.18472378791216,699.3674135599325
118,3.0649039242031964,-182.22012892191373,-192.00183242842584,-274.39904587563115,362.71152304173495,-421.7024846746083,267.89986254113006,680.5072716590624
119,-0.45993133579539175,-183.12487806803557,-189.10395532734714,-274.49695187738797,336.66114655131156,-412.47735057293903,266.6629442671583,661.5632694926597
120,-3.592578798544741,-184.33048012567727,-185.8732091304492,-275.24172208285546,306.8823780910561,-399.7289240519789,265.4940137366153,642.8887462447727
121,-6.274182356828834,-185.8194867474731,-182.36702254517604,-276.6424224635012,273.71514086142054,-383.6024462268505,264.41097189764906,624.8173907219311
122,-8.459708048267412,-187.57124848621768,-178.64241307050176,-278.6448063597324,237.53815619620931,-364.29543172150795,263.42899221607286,607.6566320204256
123,-10.119305074483796,-189.56185449799068,-174.75519309104283,-281.1366897035863,198.7608653650875,-342.0535926566121,262.56002579202533,591.6817276304428
124,-11.239153850550958,-191.764134376258,-170.75928565950224,-283.9553272194588,157.81495691776638,-317.16570025784097,261.81241228411227,577.1307027629603
125,-11.82176934146708,-194.14773900198625,-166.706155079716,-286.89646510544634,115.14575399657255,-289.95750507072097,261.19061176070653,564.2002849499546
126,-11.885749538496603,-196.67931671625047,-162.64435127711133,-289.7247187409966,71.20371601139479,-260.78486467137776,260.69506962468046,553.042953271069
127,-11.464980563526161,-199.32279867743063,-158.61916114082456,-292.18489443371277,26.43629436406023,-230.02625192964234,260.32222270951655,543.7651815912012
128,-10.60733065457231,-202.0398029131021,-154.67235525363773,-294.0138441329451,-18.71964482309025,-198.07483654338628,260.0646496751271,536.4269025422358
129,-9.372884517106622,-204.79016056195985,-150.8420150843594,-294.952416164013,-63.844652693075105,-165.33034710017233,259.91136315988894,531.042158728332
130,-7.831786626210509,-207.53256057809767,-147.16242391128856,-294.75704988454953,-108.54264435668827,-132.19092976637663,259.84823501344084,527.5808467717884
131,-6.061776360439089,-210.225301349427,-143.66400437269354,-293.2105644383455,-152.44585881590496,-99.04522218701331,259.8585396135895,525.9714063292333
132,-4.145508600409649,-212.8271300067101,-140.37328638866796,-290.1317166420361,-195.21876757532283,-66.26485659018923,259.92359414250785,526.1042676535177
133,-2.1677599533993197,-215.29814348317538,-137.31289111544532,-285.38315268356916,-236.5609024989317,-34.19759411110699,260.02346936204447,527.8358530569857
134,-0.21262263628524458,-217.60072036311047,-134.50151950524534,-278.8774511985236,-276.2086068451365,-3.1612734020393307,260.13774061146796,530.992931419699
135,1.639214743849291,-219.70044972366665,-131.95393775713487,-270.58104624268583,-313.935744912528,26.561268413805212,260.2462470050093,535.3771480207643
136,3.3130072995450117,-221.56702268768848,-129.68095603894696,-260.5159200522242,-349.55343482324406,54.726174502063245,260.3298272989221,540.7695884982643
137,4.742233246552414,-223.17505410906847,-127.68940087343043,-248.75905903653057,-382.90889512699783,81.13135308146947,260.3710034635911,546.9352785890114
138,5.870544367046936,-224.50480531336976,-125.9820851915371,-235.43976496558182,-413.88351871081466,105.61801153642183,260.3545872724806,553.6275641423254
139,6.653334788324081,-225.54278356755233,-124.55778304349441,-220.73500136287518,-442.390306463278,128.07092148929618,260.2681906706346,560.5923539823501
140,7.058891859007388,-226.2821993389773,-123.41121810728191,-204.8630290638768,-468.37080754325126,148.41743436767362,260.1026266315544,567.5722383267932
141,7.069109698839678,-226.72326791286844,-122.5330762868145,-188.07564247278566,-491.79172197082835,166.62530341065346,259.8521930320334,574.310515726517
142,6.6797622511915975,-226.8733472948013,-121.91005287394657,-170.6493577870667,-512.6413235129678,182.69940221399327,259.51483741451113,580.555170845736
143,5.900347690956228,-226.74690942458497,-121.5249441441945,-152.8759254783431,-530.9258555469089,196.677461268189,259.09220522945225,586.062843615248
144,4.753529278324562,-226.36534645477948,-121.35679203057681,-135.05254148197653,-546.6660393393712,208.62497187270276,258.58957812706393,590.6028180765799
145,3.2742087663992265,-225.7566180208467,-121.38108867952265,-117.47211572895107,-559.8938134920063,218.62943059815348,258.015711878273,593.9610385233283
146,1.5082769524458677,-224.9547489087984,-121.5700451957205,-100.41392487883557,-570.6493968583773,226.7941164892564,257.38258537887845,595.9441344745911
147,-0.4889081654943741,-223.99918930287765,-121.89292587485866,-84.1349315660031,-578.978737781323,233.23160698737126,256.7050729982541,596.3834084630985
148,-2.6542616453912666,-222.93405193304932,-122.31644604056973,-68.8619992725144,-584.9313833546273,238.05724671004384,256.0005525279066,595.138715444697
149,-4.918874692781031,-221.80724193490445,-122.80522860008936,-54.785174651825805,-588.5587767911189,241.38278542532427,255.28846038584686,592.1021429700191
150,-7.210024963800301,-220.669496034527,-123.32231194717066,-42.05215222954916,-589.9129713245792,243.31039766051123,254.5898047087965,587.2013891048044
151,-9.453239677107481,-219.57334785470502,-123.82970016851156,-30.763983963457633,-589.0457366114116,243.92728649197917,253.92664576513553,580.402731173931
152,-11.574359311169669,-218.57203594516884,-124.28894577317895,-20.972051601595844,-586.0080281870431,243.3010583714159,253.3215520472836,571.7134822364968
153,-13.501552483730404,-217.71837083187697,-124.66175527154073,-12.676285804002152,-580.8497908100856,241.47603448575106,252.7970396671546,561.1838422606468
154,-15.167235859419078,-217.06357717709338,-124.91060873241318,-5.824594235466445,-573.6200702556197,238.4706372684606,252.37500242405704,548.9080650859039
155,-16.50985656407678,-216.65612722882074,-124.99938584675323,-0.3134514951539755,-564.3674125861663,234.27595868277643,252.0761402763426,535.0248779794596
156,-17.475498670619377,-216.54058219283834,-124.89399287503164,4.010394815823963,-553.1405324441824,228.85558058935226,251.91939494259162,519.717105529287
157,-18.019279962065138,-216.75645889425456,-124.56298679858786,7.347138807873067,-539.9892304127147,222.1466779937036,251.92140275252882,503.2104619005182
158,-18.106510463123307,-217.3371399665121,-123.97819454025601,9.940077168766898,-524.9655330986266,214.0623943697916,252.09597631128682,485.77148421368287
159,-17.713590223950952,-218.30884672539946,-123.1153258976048,12.070731989978954,-508.1250188911002,204.49543555628358,252.45362778463306,467.7045854286347
160,-16.828630519522584,-219.6896947648568,-121.95457869463151,14.052947802453074,-489.52827934912256,193.3227858918882,253.00114750767375,449.3482095791721
161,-15.451789812141634,-221.48885301145575,-120.48123355894946,16.2259802074832,-469.24245382808454,180.41140865706438,253.7412519982885,431.07007861620065
162,-13.595323142135294,-223.70582736354862,-118.68623370375235,18.946608458301085,-447.34276624420403,165.6247545720064,254.6723151638761,413.26153183405506
163,-11.283350625488259,-226.32989004704584,-116.56674231823014,22.580328848148987,-423.91398990516706,148.8298695356592,255.78819548164833,396.33097834416446
164,-8.551357130492732,-229.33967543749785,-114.12666691005202,27.49171853197848,-399.0517699818099,129.90486804494378,257.0781702837328,380.69651125508875
165,-5.445440856037142,-232.70296241354373,-111.37713639121888,34.03409894683768,-372.86374324003765,108.74652283026683,258.5269861487895,366.7777685328406
166,-2.0213334195109356,-236.37666247828506,-108.3369129566895,42.53867298854406,-345.47041008730605,85.27771433452783,260.1150320001942,354.98716825375095
167,1.6567818297130381,-240.30703196645388,-105.03271703170616,53.30335922403207,-317.0057333297582,59.45448568678361,261.8186389819021,345.72069273309796
168,5.517623173378039,-244.43012537557064,-101.499440090194,66.5815976810762,-287.6174596402878,31.272459820506825,263.6105084588785,339.3484439248362
169,9.484302651038668,-248.6725046405639,-97.78021745322272,82.57145190876356,-257.46718202233046,0.7723951849566842,265.4602662948823,336.20523804886386
170,13.475921648668617,-252.95221540012687,-93.92633182760436,101.40537630395862,-226.73018294434905,-31.955315798262554,267.3351376268585,336.58154624686813
171,17.40923274085404,-257.18003558036276,-89.99691893857744,123.1410502381737,-195.59511642552965,-66.76736743948827,269.2007316208214,340.7151148822723
172,21.200329463703408,-261.2609938632162,-86.05844965433154,147.753695226633,-164.26360063796383,-103.46560432453933,271.02192035495943,348.7836081230947
173,24.76632585436059,-265.09614607524196,-82.18396873603552,175.13028353438844,-132.9497973216959,-141.796510645263,272.7637904448486,360.8986016041885
174,28.026989446335463,-268.584586772892,-78.45207867272781,205.0660139919221,-101.88004705371155,-181.45216663571708,274.39264082566785,377.1012166227678
175,30.906295019726368,-271.6256620095213,-74.94566754977033,237.2633738437937,-71.29260774397056,-222.07267250836114,275.8769957161432,397.35962138459803
176,33.33387134223297,-274.12133823357476,-71.75039181464463,271.33402672472954,-41.43750774819457,-263.25000167720765,277.18859856809905,421.5685465346193
177,35.246318630783186,-275.9786723220776,-68.95293714265125,306.80367027460943,-12.576478219854192,-304.5332102830149,278.30335098758195,449.5508767045345
178,36.58837973467155,-277.11231957962633,-66.63909231431748,343.1198972320527,15.017121600242808,-345.4349003842946,279.2021602719341,481.061296537392
179,37.3139526465745,-277.44701045120325,-64.89168125791778,379.6629763609459,41.05851935035152,-385.4388104010379,279.8716602491831,515.7918926307287
180,37.38693592133669,-276.91992276076974,-63.78840669153815,415.7593498233557,65.25205322654186,-424.0083883754131,280.3047724216664,553.3795426754401
181,36.78190219749119,-275.4828746858304,-63.39966499505025,450.6975272083585,87.29219132309393,-460.5961903622131,280.5010781832149,593.4148596531927
182,35.48459837566408,-273.1042650022452,-63.78639624449396,483.7459486968078,106.86523332185955,-494.65393645531304,280.4669786973467,635.4524032584968
183,33.49227387622632,-269.77069199339917,-64.99803606954767,514.1722955609745,123.65186273549446,-525.6430496012354,280.2156274488141,679.0218249568647
184,30.813840402445692,-265.4881907381902,-67.07063736973075,541.2636492921349,137.3306830369053,-553.045497059885,279.7666313207274,723.6395800098885
185,27.46986755230491,-260.28303939259285,-70.02522995628387,564.3468439938667,147.58282199105673,-576.3747510168181,279.1455282735284,768.8208215642252
186,23.492418490788168,-254.20209740939856,-73.86648464971391,582.8083220754747,154.09762777540956,-595.1866830206649,278.3830619781757,814.0910893300811
187,18.924728969367628,-247.31265149717723,-78.58174481506667,596.1127918108231,156.57941076757578,-609.0902057764728,277.5142849563436,858.9974179679697
188,13.820731644326846,-239.70175800473862,-84.140482264155,603.8199979549764,154.75510935319076,-617.7574744009864,276.5775311612466,903.1185169611715
189,8.244426299983006,-231.47508310322218,-90.49422563623327,605.5989543631981,148.3826803402317,-620.9334568267183,275.6133060457214,946.0737132920245
190,2.269095545218973,-222.7552544581187,-97.57699784692068,601.2390510070411,137.25993853337343,-618.4446794365766,274.66314666674515,987.5303992618744
191,-4.023634943404733,-213.67974990550218,-105.306285156149,590.6575363948859,121.23350020916777,-610.2069496325781,273.7685059784044,1027.2097882748083
192,-10.544892320368334,-204.39835998520448,-113.58454398291832,573.9029883883745,100.20742679199984,-596.2318528120398,272.9697140276865,1064.8908485638444
193,-17.199808189205726,-195.07027218335332,-122.30123286556308,551.154519124393,74.1511237097783,-576.631818384889,272.3050642911805,1100.4123554393486
194,-23.88892345123463,-185.86083546161206,-131.33533600693775,522.7166104436009,43.10603112944504,-551.6235494285208,271.8100658310953,1133.6730736288484
195,-30.509740740739023,-176.9380739445042,-140.55832174610853,489.009642804635,7.190653563612376,-521.5296148379305,271.5168910909019,1164.6301505101526
196,-36.95841420525083,-168.4690282687764,-149.8374542733601,450.55636224385995,-33.396481144520784,-486.77801291808464,271.45403479920975,1193.29586770155
197,-43.13155983290477,-160.6160120012621,-159.03935069601434,407.9647265309007,-78.37626301570147,-447.89953285386713,271.64618183567626,1219.7329626101543
198,-48.92816078887049,-153.53287877621256,-168.0336500345186,361.90778233143317,-127.39105392818539,-405.52276704748544,272.1142620227106,1244.0487920421858
199,-54.251532004363405,-147.36140325396192,-176.6966390294055,313.1014443203364,-180.00941682653323,-360.36666476226645,272.8756494744067,1266.3886609403946
200,-59.011298382389406,-142.2278847740973,-184.91466552304115,262.28125985147847,-235.73340888774695,-313.2305679413554,273.9444458001511,1286.9286665786794
201,-63.12533361657552,-138.24008457124563,-192.58716697937342,210.17942181705405,-294.0081472133323,-264.98173575796756,275.3317727287984,1305.8683913282298
202,-66.52160293227288,-135.48460258009476,-199.62915182297073,157.50340036052157,-354.2331926250609,-216.54044717807244,277.0459931443736,1323.4237002426776
203,-69.13985254999456,-134.0247855753771,-205.9729961892594,104.9175614267037,-415.775178164017,-168.86287052250808,279.09278266256604,1339.819773318034
204,-70.9330901099404,-133.89923444557257,-211.56945857327315,53.028996010898844,-477.9810564811375,-122.9220027063654,281.474988826893,1355.2843707150614
205,-71.86880333658645,-135.12094778876605,-216.38786766425707,2.3784875392220184,-540.1913637512903,-79.68710227194757,284.19224204098316,1370.0412521203984
206,-71.92986969827018,-137.6771069506222,-220.41549931109398,-46.56288841058964,-601.7529879959217,-40.10215978599525,287.2403186572784,1384.3036869304606
207,-71.11511832420813,-141.5294794239471,-223.65621966648513,-93.39156599305832,-662.0310623736651,-5.064052817261314,290.6102964435029,1398.2680930081222
208,-69.43951615401501,-146.61539681603793,-226.12852507207225,-137.76428728032977,-720.4197484004804,24.598895943395014,294.2875789261765,1412.1079812093349
209,-66.93396171508766,-152.8492513084121,-227.86314835249436,-179.38701145319584,-776.3518024434202,48.14721325154412,298.2508917271018,1425.968496936704
210,-63.644681447499856,-160.12444918345915,-228.9004214949451,-218.00145672760436,-829.30691268386,64.94870239740287,302.4713672481621,1439.9618862190814
211,-59.632235495407436,-168.31575913277456,-229.2875849374136,-253.37103349852202,-878.8188469561302,74.49434991120476,306.91183328815293,1454.1641562353543
212,-54.970152441310745,-177.28199490413533,-229.0762159644132,-285.2679626905957,-924.4814696301033,76.4111585998805,311.52640855261365,1468.613078921157
213,-49.74322482505777,-186.86897542486156,-228.31991767713882,-313.4632073487241,-965.9536785998372,70.47147548744357,316.26048713822576,1483.307558834462
214,-44.04550858301022,-196.91270976676606,-227.072370977286,-337.7205059300981,-1002.9632905601532,56.59851935947169,321.0511680700954,1498.2083005889872
215,-37.97807945648156,-207.24275750897823,-225.38580926382593,-357.7953308210534,-1035.3098691316518,34.867956424637875,325.82815650598604,1513.2396793653872
216,-31.646608217994853,-217.68571559045478,-223.30993238786823,-373.43906360132326,-1062.8664494172942,5.50551812037665,330.5151312345515,1528.2927198042348
217,-25.15882465129316,-228.06877995805476,-220.89123628720688,-384.40813835499296,-1085.580069788123,-31.11920398386354,335.03154026733887,1543.2290901889573
218,-18.62194759010026,-238.22332463213607,-218.17270157549106,-390.47740907803956,-1103.4709865988027,-74.50252203343611,339.2947554976304,1557.8859929739494
219,-12.140164230252159,-247.98843318564582,-215.1937615809261,-391.4565907177615,-1116.630432368605,-124.0195996447902,343.2224915647462,1572.0817714691739
220,-5.812245074545142,-257.21430911693693,-211.9904593649903,-387.2083366352999,-1125.216794232145,-178.94012050024725,346.7353751586654,1585.621970824909
221,0.2706201221118181,-265.7654834013281,-208.59570332663128,-377.66636417086687,-1129.450143603459,-238.446148928691,349.75953969722286,1598.3055194383091
222,6.026686165342967,-273.52373111913147,-205.03954016690463,-362.85202547524045,-1129.6051381722857,-301.65160781343747,352.22911670572347,1609.9306640301004
223,11.385148399139664,-280.39060606205163,-201.34938030650804,-342.88783232734227,-1126.0024331450566,-367.62277086731825,354.0884994619258,1620.3003135934212
224,16.287220135481228,-286.289503993789,-197.55013248199802,-318.006663704909,-1118.9988638895072,-435.3991545825814,355.29426655218924,1629.2265228535468
225,20.686761923750208,-291.1671727033243,-193.66422887412952,-288.5556919048444,-1108.976778984914,-504.0142006935175,355.81667219592134,1636.533961321451
226,24.550456622813247,-294.99460039678036,-189.71154668810215,-254.99443273902835,-1096.3329945013022,-572.5151641017203,355.64063477500747,1642.0623498015495
227,27.857547958074466,-297.7672328456156,-185.7092532913726,-217.8867305047328,-1081.467893351945,-639.9816646020938,354.7661824790441,1645.6679798624814
228,30.59918168951382,-299.50449292491413,-181.6716170346614,-177.88689895083567,-1064.7751986026694,-705.5424228226258,353.2083428162706,1647.2245406066522
229,32.777405793926974,-300.2486021891964,-177.60983316659102,-135.7206244967914,-1046.6329044019333,-768.3897795948002,350.9964889379279,1646.6235420578525
230,34.403898252414706,-300.0627312365953,-173.53191370606288,-92.16156966291582,-1027.3957587287573,-827.791690310474,348.1731790492479,1643.7746349518704
231,35.498498221642,-299.0285321509775,-169.4426828930121,-48.00487164006995,-1007.3895716327961,-883.1009876230665,344.792545045267,1638.6060835557362
232,36.08761925657639,-297.2431307979672,-165.3439077680795,-4.038900085903805,-986.9074878882684,-933.7618126971684,340.918302656069,1631.0655638179585
233,36.202622576005325,-294.8156779189594,-161.2345787001352,38.98328497552882,-966.2082301902173,-979.3132227230951,336.6214676664501,1621.1213541128793
234,35.87822456193146,-291.8635748020659,-157.1113394525117,80.37134691554833,-945.5162006081134,-1019.390086412196,331.97787110704303,1608.7638825918261
235,35.15100601383063,-288.5085010499299,-152.96905257899493,119.52262302189996,-925.0232312846458,-1053.721475739943,327.06557070811596,1594.0075121995073
236,34.05808143477442,-284.87237811142256,-148.80147501319212,155.94343793564258,-904.891702666175,-1082.1268475713061,321.9622564842648,1576.8923921861403
237,32.63597518169755,-281.0734026241065,-144.60201148306322,189.2658188699502,-885.2586976117394,-1104.5103794139727,316.74274534258365,1557.486184940607
238,30.919738059614605,-277.222278493763,-140.36451002132566,219.25889817057293,-866.2408298184131,-1120.8538761358268,311.4766535199168,1535.885484036567
239,28.94232340771596,-273.41876675082864,-136.08406389459134,245.83455258210338,-847.9393728179508,-1131.2086963806526,306.22632701050964,1512.2167654958903
240,26.7342267776251,-269.7486586043688,-131.75778682772662,269.04709536972274,-830.445320287525,-1135.6871568194088,301.0450994786944,1486.636751624758
241,24.323379097023867,-266.28126079339364,-127.38553245717624,289.08709615545774,-813.8440295164536,-1134.4538586755023,295.9759348832007,1459.3321092127694
242,21.73527083426101,-263.0674641108258,-122.97053365037308,306.2696452745956,-798.2191376333603,-1127.7173451599015,291.0504984161372,1430.5184470920137
243,18.993274766520898,-260.1384463717432,-118.5199419396917,321.01759770914373,-783.6554937841249,-1115.7224434460584,286.28868444041836,1400.4386192306085
244,16.119127587611484,-257.505040482635,-114.04525130004217,333.8405208013381,-770.2409175403225,-1098.7435751946507,281.69861393214416,1369.3603769235895
245,13.133525520491773,-255.15777705851727,-109.56259375334533,345.3102259475955,-758.0666707102939,-1077.0792408543648,277.27709682359745,1337.573446041246
246,10.056786072469281,-253.06758986137925,-105.09289719781214,356.0338841417284,-747.2266118397877,-1051.0478002902382,273.01053737175596,1305.3861315815627
247,6.909527028391418,-251.18715200646596,-100.66189904601784,366.6258052939478,-737.8150849757831,-1020.98459010206,268.87624430016126,1273.1215705058062
248,3.7133148311285678,-249.4527922331593,-96.3000132048195,377.6789976001473,-729.923671493218,-987.2403395560372,264.8440930026659,1241.1137632576929
249,0.49123781497552577,-247.78692438557616,-92.04205274056973,389.7376117418613,-723.6370009866085,-950.180774686421,260.8784753924174,1209.7035131556
250,-2.731634611823767,-246.10091041842722,-87.92681586871507,403.2713135907294,-719.0278702451235,-910.1872355970261,256.9404646505578,1179.234391115068
251,-5.927938058131392,-244.29826833882186,-83.99654797226518,418.65252115573475,-716.1519551315567,-867.6580768953552,252.9901174520403,1150.048822677866
252,-9.067866619197913,-242.2781315677351,-80.29629637805648,436.13729440695334,-715.0424171282884,-823.0105770998512,248.98883497618894,1122.4843677730069
253,-12.119206056652855,-239.9388647321644,-76.87317699147931,455.8504916672002,-715.7047044957333,-776.6830512744582,244.901705484524,1096.8702336864858
254,-15.04754938634921,-237.18174205508396,-73.7755723894756,477.77561688270464,-718.1118294523528,-729.1368433472032,240.69975469678496,1073.5240306898638
255,-17.8166887621489,-233.91459744140343,-71.05227971433479,501.7495920829666,-722.2003712127765,-680.8578714635627,236.36203493898688,1052.748749861363
256,-20.38916999078856,-230.05535934137205,-68.75162404388462,527.4625111963082,-727.8674146878037,-632.3574116478825,231.87748956842162,1034.8299162825117
257,-22.72698984156763,-225.53538795326986,-66.92054943281094,554.462274617429,-734.9685907134768,-584.1718316294659,227.24653518559325,1020.0328508877096
258,-24.792411532013503,-220.3025368474889,-65.6036963310011,582.1638739898128,-743.3173395665967,-536.8610268475185,222.4823104150564,1008.5999637085943
259,-26.548870459417827,-214.32386528920014,-64.84247138913183,609.8629946562808,-752.6854776880926,-491.00536268122454,217.6115464199673,1000.7480022316108
260,-27.961940541370343,-207.58793127744065,-64.67411432318177,636.7535263484499,-762.8051091207493,-447.20098874772304,212.6750207927086,996.6651916383094
261,-29.00033139817142,-200.10659884744317,-65.13076679510736,661.9485154493119,-773.3718882748029,-406.0534603571329,207.72756326791614,996.5082274841192
262,-29.63688765950279,-191.91629713860468,-66.23855026958373,684.5040478865578,-784.0496086635483,-368.1696763916263,202.83758933877434,1000.3991128113692
263,-29.84956315270336,-183.07867406270964,-68.01666352622176,703.4455137482176,-794.4760623197974,-334.14821906699996,198.08614701967,1008.4218664658288
264,-29.622343798973144,-173.68059517262387,-70.47651569359074,717.7956674729415,-804.2700858897446,-304.568255894104,193.56547335502597,1020.6191627737992
265,-28.94609314140715,-163.83344944556057,-73.62091661998676,726.6038575745149,-813.0396810874722,-279.97723427005906,189.3770712103959,1036.9889906525632
266,-27.81929345715993,-153.671738744628,-77.44335201858783,728.9757571438087,-820.3910681051385,-260.87766156747233,185.6293333893119,1057.4814400604168
267,-26.24865382298216,-143.35094673466608,-81.92737501955098,724.1028840323099,-825.9384990830434,-247.71331636877446,182.43475971461424,1081.9957347256177
268,-24.249555316890028,-133.04470522661262,-87.04614781732738,711.2911631328882,-829.3146234395834,-240.85527876479716,179.90683234591862,1110.3776334715417
269,-21.84630400289148,-122.94129988859892,-92.76216691810401,689.9877582513516,-830.18115778722,-240.58819948628138,178.1566338629828,1142.4173206760565
270,-19.072165348414476,-113.23958144652318,-99.02720353781162,659.8053917525613,-828.2395727926219,-247.09724947808883,177.28931018606346,1177.8479024039975
271,-15.969159366069004,-104.1443714803496,-105.78248774135383,620.5433781520265,-823.2414725300206,-260.45620346618944,177.4004950870425,1216.3446210201162
272,-12.587603501291548,-95.86147237069396,-112.95916158036452,572.2046231616175,-814.9983147648799,-280.617112688475,178.5728237659667,1257.524899263594
273,-8.9853992857124,-88.59240783809166,-120.47902282231904,515.0078822255795,-803.390109050264,-307.40201254982003,180.87266869904118,1300.9493256766884
274,-5.2270681813038555,-82.52903344093302,-128.25557621046295,449.3946332021423,-788.3727374773551,-340.49708984203266,184.34723097619442,1346.1236969246263
275,-1.3825510754898673,-77.84816540229568,-136.19540257599428,376.0299991512092,-769.9835711469252,-379.44970082582887,189.02211421043265,1392.5022376935347
276,2.4742059709893014,-74.7063813005193,-144.1998466220345,295.79726324360854,-748.3451012756915,-423.6685855260732,194.89949547499586,1439.4921227860202
277,6.266850015135305,-73.23514754359704,-152.1670109936568,209.78565337550702,-723.6663625841518,-472.4275648118286,201.95698830260636,1486.4594250362354
278,9.918367517554055,-73.53642631105603,-159.99402675090025,119.27124391285432,-696.2419933986167,-524.8729351689474,210.14726653206813,1532.736603187452
279,13.352936473675571,-75.67890891588037,-167.57954866576628,25.691030356179485,-666.4488482919998,-580.0346915229933,219.398485239989,1577.631623444107
280,16.497835954588354,-79.6950133137522,-174.82639899163132,-69.3895174046706,-634.740153442706,-636.8416108002077,229.61549742885188,1620.4387755081284
281,19.285358386407662,-85.57877085109823,-181.6442575498961,-164.314825866406,-601.63727185047,-694.1401175485404,240.68182464093834,1660.4511966066998
282,21.654664730993417,-93.28471147770279,-187.95227176026103,-257.38258639684926,-567.7192250622807,-750.7167272534455,252.4622989817963,1696.975050738639
283,23.553519945035152,-102.72783719315672,-193.681440746929,-346.89084161356794,-533.6101996391108,-805.3237229788468,264.8062565010534,1729.345215788854
284,24.939846432149427,-113.78474875955565,-198.77661713107523,-431.1871565569381,-499.965349147559,-856.707568390373,277.5511318226854,1756.9421948753006
285,25.783036332135232,-126.2959577119733,-203.19797444793357,-508.7179289681792,-467.4552841002966,-903.6393998742643,290.5262871545036,1779.2097810282569
286,26.064968438339488,-140.06937162427016,-206.92181352283353,-578.0756771261991,-436.74971862874565,-944.9467806178083,303.5569114107519,1795.6727783630347
287,25.7806816385856,-154.88488549815713,-209.94063016215426,-638.042086028348,-408.5008037964856,-979.5457507994012,316.46784942893004,1805.953865841093
288,24.93866410840459,-170.4999510778402,-212.26243374362303,-687.6247363487306,-383.32670687960143,-1006.4720822318067,329.08726130628213,1809.7885511143936
289,23.56072645932915,-186.6559378029302,-213.90937828802947,-726.085783323032,-361.7959765601691,-1024.9105560345386,341.2500542819334,1807.0371529838217
290,21.681438040027626,-203.08505268559662,-214.9158286511007,-752.9613404513734,-344.4131601029559,-1034.2210431956555,352.801060167308,1797.6928735373767
291,19.347119206874307,-219.5175564397116,-215.32602390055257,-768.0708756515132,-331.60602566901986,-1033.960195881744,363.5979430508096,1781.8852378944835
292,16.614399804228867,-235.68900028045366,-215.19151535455572,-771.5164772429936,-323.7146256517304,-1023.897665101539,373.51381738595654,1759.8784506558425
293,13.54837648892054,-251.3472101242052,-214.56855205993105,-763.6723575018028,-320.98235432265403,-1004.025954368192,382.43954370667905,1732.0645239415612
294,10.220428449834943,-266.2587600110494,-213.5155675945488,-745.1654190025064,-323.54912929831806,-974.5632957991216,390.28565599597914,1698.951366405783
295,6.705779326762344,-280.2147024451725,-212.09089403393173,-716.8481006413853,-331.44685845339336,-935.9492778587402,396.98386587971305,1661.1463717680376
296,3.0809176166117003,-293.0353587475752,-210.35079573817706,-679.7650194028478,-344.59741235020493,-888.8333315855845,402.4880864429692,1619.3363733737872
297,-0.5789961141867094,-304.57401648052166,-208.34788126383626,-635.1150958767284,-362.8133623283839,-834.0565532254194,406.77492374132936,1574.2650885198389
298,-4.202601681442279,-314.7194319488444,-206.129920094296,-584.2108749263269,-385.8017235024765,-772.6276639176267,409.8435975509591,1526.7093223277145
299,-7.724563420450485,-323.3970908324065,-203.7390645985353,-528.4366398799204,-413.1708366732464,-705.6941517314365,411.7152736324127,1477.455222612339
300,-11.087432927531939,-330.569235196323,-201.21145704228653,-469.20671714772993,-444.4403402393054,-634.5097983422606,412.431814973233,1427.2757875022353
301,-14.243059743652037,-336.2337163900601,-198.57718527244802,-407.9251431150795,-479.0539579011887,-560.3998703820475,412.05398536421535,1376.9106506937276
302,-17.153487472677828,-340.4217775502063,-195.86053732144,-345.9476699184694,-516.3946092469972,-484.725269916636,410.6591620214389,1327.0489289386371
303,-19.791304982101256,-343.19490493581696,-193.08049404249732,-284.5469438589241,-555.8011801973759,-408.8469032981042,408.33863307804296,1278.3156365910088
304,-22.139456322334322,-344.6409138957306,-190.25139054974488,-224.88159131248278,-596.5861903997371,-334.09145124058716,405.19457034660894,1231.2618806927262
305,-24.190545845073512,-344.86945330994735,-187.38367278863038,-167.96986630648024,-638.053566353326,-261.71961042812615,401.33677807285625,1186.3587768162815
306,-25.945703518236588,-344.0071222333997,-184.48467602942983,-114.66842369888681,-679.5157620546283,-192.89773281242753,396.8793246882802,1143.9947962865388
307,-27.413097462671363,-342.19239433054656,-181.559358119099,-65.65666197503236,-720.3095499854388,-128.67361878098336,391.9371670033946,1104.4760875009229
308,-28.606195730691756,-339.5705396294427,-178.6109319278714,-21.426921232000378,-759.809922156136,-69.95703178717011,386.6228751020148,1068.0292172380632
309,-29.54188787503695,-336.2887194583038,-175.64135769133392,17.719372322790164,-797.441682840517,-17.505302592792376,381.0435615607462,1034.8057519660128
310,-30.23857969031346,-332.49140980700315,-172.65167524778616,51.669741587474206,-832.6884708869063,28.085811470470972,375.298110484572,1004.8881344281835
311,-30.714372123262063,-328.31628188292575,-169.64217638676988,80.49322137568053,-865.0991089395026,66.3860455637983,369.4747900262868,978.2963897031715
312,-30.98542787774332,-323.89063794206083,-166.61243628395505,104.42800024470695,-894.2913287469091,97.12954555724595,363.6493164268691,954.995296444329
313,-31.06461661671449,-319.3284676939975,-163.56123818597808,123.86485733092154,-919.9530566155714,120.20917535465965,357.88341854806765,934.9017632462098
314,-30.960511981236042,-314.72815809784186,-160.4864358978388,139.32722071073388,-941.8415536560963,135.66674775394287,352.2239305641305,917.8922420528405
315,-30.67679168288215,-310.17085950073675,-157.38480394317125,151.44872402707256,-959.7807863604465,143.67982826811794,346.70241874452483,903.8100813700574
316,-30.212067312009182,-305.7194856916307,-154.25192567806369,160.94913044426795,-973.6574505774532,144.54584376179042,341.33532785660594,892.4727681132383
317,-29.56014533638446,-301.4183057540397,-151.08216534925347,168.60943609200825,-983.4160846543426,138.6642760349531,336.1246148993048,883.6790281003189
318,-28.710697043182574,-297.293072047451,-147.86876144971174,175.2468712488511,-989.0536871566768,126.51773436389765,331.0588233305436,877.2157541424529
319,-27.650294436369943,-293.35162090627693,-144.60406651919877,181.69040030864912,-990.6142070175574,108.65268168587939,326.1145398888573,872.8647128558638
320,-26.363752230814367,-289.5848798135569,-141.27994410269704,188.75719474052732,-988.18320861369,85.66053935817386,321.2581684381641,870.4089546274239
321,-24.835703275341416,-285.96821573769756,-137.8883186388731,197.23042918466595,-981.8829418168341,58.15981932529957,316.4479507522294,869.6388243514643
322,-23.052325623401277,-282.46306293334106,-134.4218602058542,207.8386397321897,-971.8679764761738,26.779834995442563,311.6361625116899,870.3574509028032
323,-21.00313351687908,-279.0187739633493,-130.874774281791,221.2367929769367,-958.3214972475301,-7.853571489242031,306.77141367430505,872.3855850873139
324,-18.682741496714954,-275.5746443991764,-127.24365731730087,237.98914991768584,-941.4522995081633,-45.12997190543865,301.80098544864046,875.5656601574377
325,-16.09251092774778,-272.06206904832214,-123.52837206615379,258.55397356062986,-921.492479048018,-84.46377927295059,296.6731409951514,879.7649649783266
326,-13.241991980212763,-268.4067949447018,-119.73289247487988,283.2701241348359,-898.6957654942114,-125.30110152414765,291.33935328933086,884.877845988914
327,-10.150081987810708,-264.5312429154778,-115.86606675632072,312.34560874453996,-873.3364112656232,-167.1240830646695,285.7564008376593,890.8268887254616
328,-6.845832964928295,-260.35687456284063,-111.94224923236729,345.848196396241,-845.7085151747195,-209.45290369878637,279.88828962873583,897.5630712259344
329,-3.3688561362829916,-255.8065844120221,-107.98175662207561,383.6982645532548,-816.1256344864671,-251.84569632359825,273.70796732684204,905.0649275849029
330,0.23071142775115994,-250.80709746746606,-104.01111246592758,425.6640979570505,-784.9205229696055,-293.89671774419,267.198802839411,913.3368064450102
331,3.8926945181008348,-245.29135049439148,-100.06305381457747,471.35990300873294,-752.4448258075577,-335.23315913734314,260.3558106877698,922.406351518831
332,7.547819418073223,-239.20083134020996,-96.17628632773028,520.2468221247576,-719.0685647020355,-375.51101337755705,253.18660485344003,932.3213647128647
333,11.119084519697957,-232.48784509498722,-92.39498645698815,571.6372259330815,-685.1792573329793,-414.41042579420065,245.7120707975216,943.1462338780345
334,14.523523553235778,-225.1176695282576,-88.76806137175411,624.702524219565,-651.1805341651107,-451.63094395516055,237.96674709044586,954.9581155363411
335,17.674307443969933,-217.07055576986883,-85.34818794466449,678.4846695875721,-617.4901423884728,-486.88705271269833,229.99890970874748,967.8430587561683
336,20.483117692673527,-208.34352445144015,-82.19066105238404,731.9114339043671,-584.5372609946157,-519.9043359257425,221.87035306339166,981.8922408973873
337,22.8627141063904,-198.9519032844022,-79.35208854502343,783.8154219642383,-552.7590904862524,-550.4165496572896,213.65586292383708,997.1984599290101
338,24.72961305480789,-188.9305498421259,-76.88897540687017,832.9566562460229,-522.5967215581992,-578.1638269803148,205.44237815617063,1013.8529914216492
339,26.00678933186149,-178.3347033110638,-74.85624280829957,878.0484290393055,-494.4903246615789,-602.8921649412367,197.32784089051592,1031.9428715204715
340,26.626315034620877,-167.2404112120919,-73.30572903596645,917.7859814880528,-468.8737330790612,-624.3542722713324,189.41973857140718,1051.5486126060466
341,26.531852263867744,-155.74448172021528,-72.28471895411333,950.8774403341965,-446.1685143866095,-642.3117847743603,181.8333466166386,1072.7423010753532
342,25.680922325526623,-143.96391953468034,-71.83454698003962,976.0763281535021,-426.77763926536596,-656.5387871826107,174.68968742611682,1095.5859738826184
343,24.04688172249627,-132.03481352370957,-71.98931580846215,992.2148662234504,-411.0788642800254,-666.826518963627,168.11323034518398,1120.1301297007694
344,21.620543813567494,-120.11065752426674,-72.77476961899147,998.2372141686836,-399.4179491844036,-672.9890894688344,162.2293676271932,1146.4122078992361
345,18.411394019600856,-108.36010124603618,-74.20735662646638,993.2317391716417,-392.1018329796153,-674.8699858689106,157.16171280120693,1174.4548674410714
346,14.448355607083032,-96.96414548751017,-76.29351172923575,976.4613804521591,-389.39189989877013,-672.3491252341519,153.0292792004996,1204.2639187674329
347,9.780072363877348,-86.11281412986312,-79.02918537576636,947.3911716743588,-391.4974793575915,-665.3501790663786,149.94360676045335,1235.8258027177606
348,4.474684057585387,-76.00135414676153,-82.39963910607743,905.7120048644729,-398.56974319807165,-653.8478836822841,148.00591374523142,1269.1045679325834
349,-1.3809193583299526,-66.82603379398749,-86.37952122659128,851.3597654315345,-410.69618694746555,-637.8750422619529,147.30435621389776,1304.0383678631913
350,-7.682368061777894,-58.77962774626297,-90.93322772494727,784.5290412445305,-427.8959043722319,-617.5289233358185,147.9114812139608,1340.5355761435094
351,-14.309598844978115,-52.046695475280536,-96.01554401271773,705.6807115296074,-450.1158798320876,-592.9767652458287,149.88195921531457,1378.4706996353289
352,-21.12913673744917,-46.79877459613805,-101.57255274495773,615.5428539518035,-477.2285243565083,-564.4601060550704,153.2506764601941,1417.6803455605316
353,-27.996836873615898,-43.18962318829616,-107.5427822220457,515.1045688854955,-509.03066381516055,-532.2976732532611,158.0312582102423,1457.9595653186245
354,-34.76103653036334,-41.35065348604842,-113.85855920900643,405.6025057905659,-545.2441478329382,-496.88658781038936,164.21507943647762,1499.0589454694668
355,-41.26605090802744,-41.38670369554616,-120.44752006526649,288.50008519462176,-585.518185331889,-458.70166363715197,171.7708012978425,1540.682839628781
356,-47.355929472882096,-43.37229535501271,-127.23422555152062,165.45963877311934,-629.4334287853278,-418.2926176394343,180.64445128248565,1582.4891286364896
357,-52.8783742548637,-47.348520847655976,-134.14181784943403,38.30793692448944,-676.5077299876914,-376.27904904530817,190.76004348386815,1624.0908564963706
358,-57.68870987751182,-53.32069894164128,-141.09365300105358,-91.00416547040044,-726.2033847194268,-333.3431018977314,202.0207142179835,1665.0600140016631
359,-61.65378941830791,-61.25692412836862,-148.01483818757245,-220.44696472289152,-777.9355851866395,-290.2197939068999,214.31032843050625,1704.93363056836
360,-64.65572084436036,-71.0876159211556,-154.83360222952112,-347.96075795384326,-831.0817238897085,-247.68507875481612,227.49549622028042,1743.2221906161076
361,-66.59530396461912,-82.70614516755104,-161.48243202250737,-471.5067932301077,-884.9911582853096,-206.5418045384948,241.42792889505117,1779.4202222826757
362,-67.39507481743405,-95.9705750375434,-167.89892033612546,-589.1186086199094,-938.995065990679,-167.60383289138232,255.9470622954349,1813.0187300505825
363,-67.00186124535085,-110.70650591730791,-174.02629297647445,-698.9519286443206,-992.4160973073077,-131.67868611812224,270.8828818046498,1843.5189831466928
364,-65.38876001340216,-126.71095945574177,-179.81361416282087,-799.3312704567561,-1044.577650372589,-99.549188984809,286.0588958326905,1870.4470521941514
365,-62.5564535060689,-143.75718270147257,-185.21570341164713,-888.791510311075,-1094.812724937743,-71.95466158636864,301.2952174868247,1893.368421273535
366,-58.53379425847785,-161.6002043979235,-190.19282878928698,-966.1128652038769,-1142.4724203776404,-49.57229050366167,316.41172177587697,1911.901991198458
367,-53.37759929708262,-179.98293697993668,-194.71026373719596,-1030.348032729181,-1186.934205358676,-32.99934708442481,331.23124398933345,1925.7328225347514
368,-47.17161442060483,-198.64259258303096,-198.7378034313317,-1080.8405767632735,-1227.610085923449,-22.736928120782615,345.58277357827563,1934.6230305092524
369,-40.024632834555014,-217.3171700713381,-202.2493307747439,-1117.2340222292155,-1263.9547346132806,-19.175865254344064,359.30458079862825,1938.4203271710214
370,-32.06778502085795,-235.75177175750497,-205.22250409026427,-1139.4715092358942,-1295.473529098346,-22.585387705426562,372.24719677931165,1937.063802945594
371,-23.451057917232184,-253.7045219120114,-207.63861311248226,-1147.7862414723315,-1321.7303118323066,-33.105029655944016,384.2761572368642,1930.5866503779184
372,-14.339148510319621,-270.9518835558118,-209.4826221756741,-1142.6833346149836,-1342.354558434656,-50.74014794088105,395.27441867006627,1919.1156618919229
373,-4.90680355552366,-287.2932044707887,-210.74339368435963,-1124.914015143139,-1357.0475657900631,-75.36125853843693,405.1443631986796,1902.867484127812
374,4.66616408353797,-302.55436576325656,-211.41406321388106,-1095.443422241809,-1365.5872608239506,-106.70722024901397,413.8093217953885,1882.1417793902394
375,14.199967084196595,-316.59045313787266,-211.49252021811546,-1055.4135055166141,-1367.8312864640056,-144.3921091692906,421.2145624316412,1857.3116139596184
376,23.519820335367584,-329.2874179566531,-210.98193493075237,-1006.1026678405578,-1363.7181250375404,-187.91546045106716,427.3277071997535,1828.8115398266953
377,32.460590098369416,-340.5627382555081,-209.8912631318169,-948.8838598037394,-1353.2661493563746,-236.67542083213132,432.13855989969454,1797.1239410557553
378,40.87092966617615,-350.36512676689904,-208.2356578283694,-885.1827876428414,-1336.5706317664503,-289.9842611951848,435.65834366154303,1762.7642734738201
379,48.61675396265573,-358.67336311289307,-206.03672237100244,-816.4377644124729,-1313.7988825222872,-347.0856383104719,437.9183682771847,1726.2658459095207
380,55.58395025630347,-365.49435143111407,-203.32255307133542,-744.0625383324356,-1285.183822919512,-407.1729615329266,438.9681694354658,1688.1647839715
381,61.68026779757697,-370.86052381015276,-200.12753861562425,-669.4131954778322,-1251.016412014486,-469.4082079788096,438.87318572482985,1648.9857851399163
382,66.83637182386693,-374.8267245935339,-196.49190478406373,-593.7599723661318,-1211.6374198739854,-532.9405362345424,437.7120616371947,1609.229209230785
383,71.00608490672559,-377.466720665639,-192.4610127540666,-518.2645379697818,-1167.42905937617,-596.9240742165986,435.5736832279239,1569.3599443281644
384,74.16587031924966,-378.86948751170604,-188.08443556096813,-443.96302297979815,-1118.8069481772911,-660.5343028183992,432.5540655324942,1529.798348941382
385,76.31363802186213,-379.13541930633045,-183.4148497265135,-371.75479708229915,-1066.2127820511282,-722.982524636705,428.75321627936796,1490.9134127676487
386,77.46697424772627,-378.3726030768025,-178.50678832930302,-302.39673545375757,-1010.1079793408834,-783.5279967896331,424.27209875770194,1453.018123687784
387,77.66091062472822,-376.6932823514393,-173.4153087418675,-236.5024878298766,-950.9684245850641,-841.4874180356364,419.2098083978609,1416.3668981772123
388,76.94535823772026,-374.21061557904727,-168.1946332932048,-174.54608061447837,-889.2803147109281,-896.2415905100496,413.66106350244405,1381.1548395423658
389,75.38233590961524,-371.0358103656379,-162.8968240458305,-116.86905455699582,-825.5370054885293,-947.2392195144829,407.71409151791903,1347.5185381258486
390,73.04312023520589,-367.2756877378952,-157.57055316237816,-63.69027244970785,-760.2366765218603,-993.9979616716885,401.44896920355393,1315.5381176689473
391,70.00543764295588,-363.0307027968714,-152.26002739296052,-15.11752230847029,-693.8805832771849,-1036.1029716702326,394.93644916082377,1285.2402556109585
392,66.35080633592293,-358.39342100106194,-147.00411871650036,28.839913854996635,-626.9716441407598,-1073.2033208038913,388.237277964616,1256.6019529135197
393,62.16211918381436,-353.4474247806682,-141.83574330780735,68.25846553552852,-560.013115670081,-1105.0067585225795,381.4019845993399,1229.5548904122973
394,57.52153891995256,-348.2666050278591,-136.78151845499022,103.2878673823942,-493.50713442279914,-1131.273355536663,374.47109427246846,1203.9902729547287
395,52.50875612917749,-342.9147777076556,-131.86171267152505,134.13960277281308,-427.9529426656061,-1151.8086005654543,367.47570394271315,1179.7641199261093
396,47.19964006528406,-337.4455583925779,-127.0904888457222,161.07649142749318,-363.8446616562893,-1166.4565223157467,360.43834349404335,1156.7030031899958
397,41.66529318211807,-331.9024272924268,-122.4764246484071,184.40354361531013,-301.66852446854296,-1175.0933759247696,353.37404110237355,1134.6102549881844
398,35.97150261477265,-326.31892384525895,-118.02327942129436,204.46004095105886,-241.89952631812588,-1177.6223727202143,346.29151279430357,1113.2726653819989
399,30.17856566702455,-320.7189219032578,-113.73096329329675,221.61266377058377,-184.99749222204474,-1173.969848245376,339.1944035265602,1092.4676611319658
400,24.341451723357707,-315.11695224897113,-109.59665333159613,236.2493801315235,-131.40260029926247,-1164.0831609636753,332.0825189110576,1071.970909801773
401,18.510250222127684,-309.518556559202,-105.61599423259885,248.77375123096036,-81.53043631466275,-1147.9304985058777,324.9530013144019,1051.5642334560982
402,12.730843882210886,-303.9206737198932,-101.78431834393602,259.59929679133563,-35.76669295378147,-1125.5026462528715,317.80141962198104,1031.0436575603082
403,7.045738823342696,-298.31207344346535,-98.09782210564644,269.143599062642,5.5383347708698185,-1096.816651150887,310.62275667845444,1010.2273732848082
404,1.4949791218560353,-292.67386193540636,-94.55464294000916,277.8218962111099,42.075272436638805,-1061.921197678453,303.4122909077007,988.9633612439756
405,-3.8829269192887703,-286.980089225752,-91.15579107292773,286.0400119644703,73.58099780803067,-1020.903407070281,296.16637801847475,967.1364124147253
406,-9.050138021875048,-281.1984878161078,-87.90590318637237,294.18657498323824,99.84356405463315,-973.8966784018427,288.8831446524198,944.6742853717112
407,-13.96873130999348,-275.2913681839014,-84.81379766563347,302.6245864563775,120.70651123509633,-921.0891136679849,281.5631084242236,921.5527554403685
408,-18.600127444372852,-269.21668946938433,-81.89282326386169,311.6824879034849,136.07239779525807,-862.7320111233977,274.2097384823172,897.7993388805643
409,-22.904732513988126,-262.92931447177995,-79.16100324711809,321.6449556966879,145.9054357288554,-799.147874400779,266.8299680852352,873.4955122239176
410,-26.84182790873163,-256.38244795991835,-76.64098471378797,332.7436999559332,150.2331730633652,-730.7373718734253,259.4346664016735,848.7772921209753
411,-30.369726829440232,-249.52924717114055,-74.35980734712714,345.14857195878534,149.1472247023206,-657.9846939450862,252.0390714930252,823.8340935025861
412,-33.44620294196167,-242.32458394357076,-72.34850737217633,358.95928802360993,142.80309724585754,-581.4607973234372,244.6631809386094,798.9058428166092
413,-36.029183132614584,-234.726929702751,-70.64157140959962,374.1980640848961,131.41917845154748,-501.8240951812934,237.33209148484596,774.2783880016501
414,-38.07768272410485,-226.70032772846275,-69.27625199788,390.8034314129241,115.27496596442982,-419.8182483789691,230.07627489771787,750.277316656649
415,-39.5529483816132,-218.21641164647536,-68.29175273646325,408.6254784862723,94.70859666491886,-336.26683087640254,222.93177400696936,727.2603661653876
416,-40.41976182517313,-209.25642456830272,-67.72828748699949,427.42274412705166,70.11371465500578,-252.06477533755444,215.9403007030189,705.608680455052
417,-40.64784701576764,-199.81318934413886,-67.62601630521812,446.86097742225684,41.93569010799981,-168.16664530880112,209.14921641988894,685.7172331057133
418,-40.21331558374449,-189.89297670688177,-68.02386221208059,466.5139820750309,10.667178696611645,-85.57192106855959,202.61137567217355,667.9847910036005
419,-39.1000807932344,-179.51721453550647,-68.95821864220791,485.8667731565127,-23.15700453366226,-5.3076202125796375,196.38481495638152,652.8038305213553
420,-37.30116976434571,-168.72397803770792,-70.46156776023383,504.3212829152187,-58.96573044775118,71.5913058074239,190.5322731383739,640.5508300932919
421,-34.819867048514105,-157.56919740399283,-72.56104386859705,521.2048441291572,-96.15815180856619,144.10325766817633,185.120535179877,631.5773375173933
422,-31.670629688378213,-146.12751677628944,-75.2769913347179,535.7816382822886,-134.11106876575886,211.24233852617027,180.2195979095587,626.2021384031464
423,-27.879723952297574,-134.49273722277485,-78.62157936147524,547.2672108371523,-172.1870583441182,272.0810993038033,175.90166357704027,624.7047352488087
424,-23.48554603622149,-122.7777784291998,-82.59754347401062,554.8460271768952,-209.7433270572862,325.77298422991646,172.23997376533822,627.3202016123279
425,-18.538602079710838,-111.11410052274225,-87.19712438973065,557.6918829739556,-246.1412020357418,371.5737832001487,169.3075031606367,634.2353312285568
426,-13.101135924165094,-99.65053942401889,-92.40126943068239,554.990812762566,-280.75612903806984,408.8614250159554,167.17553998944314,645.5858853011489
427,-7.246405581852655,-88.55152566186253,-98.17915156133093,545.9659816653547,-312.98800177258755,437.1534970682639,165.9121872783301,661.4546686107855
428,-1.0576211978016705,-77.99467606304854,-104.48804848314391,529.9039119039114,-342.2716118165215,456.12194806560115,165.58082540331384,681.8701397296923
429,5.373431621813766,-68.16776852549278,-111.27361026083803,506.1812928213671,-368.0869857484264,465.60451568758646,166.23858041315768,706.8052778311071
430,11.948048905628339,-59.26513131664909,-118.4705289029832,474.2915488166409,-389.96936740503565,465.61251610707455,167.93484345964603,736.1764804993383
431,18.562502113056055,-51.48349993437106,-126.00360675112914,433.8702898235773,-407.51860834664984,456.3347337070655,170.70988408115443,769.842344727099
432,25.110116175318197,-45.0174167412347,-133.78920206402228,384.71874093399833,-420.40774735289483,438.1372538568592,174.59359418465573,807.6022777402494
433,31.483471338851782,-40.05427121530376,-141.73700998570553,326.8242411648843,-428.39058759424955,411.55918610200735,179.60439054917305,849.1949863948629
434,37.576661370182016,-36.76910107321466,-149.75211635231312,260.376918403377,-431.3081144138976,377.3043266742807,185.74829199587782,894.2969953233294
435,43.287535484390574,-35.31929577417031,-157.73724298475418,185.7816920426434,-429.0936327236581,336.22890589407393,193.0181745066301,942.5214374232511
436,48.51984953311058,-35.83936310527648,-165.59508928154435,103.66483086911767,-421.7765352523959,289.3256572613461,201.39319624674314,993.417439239005
437,53.18525567739229,-38.435935630795754,-173.23066826919415,14.87440454139449,-409.4846349987135,237.7045314270804,210.83837769831305,1046.4704822547424
438,57.20507064164303,-43.18320512058028,-180.55353635106704,-79.52588610914582,-392.4450007691728,182.57046044352353,221.30432193357052,1101.104152763223
439,60.51178027380163,-50.118977392394164,-187.47982421995525,-178.26983233278762,-370.98321822598973,125.19865481535079,232.72706668898255,1156.6836908020357
440,63.05025925271912,-59.24153497582956,-193.93399070944892,-279.90891088945887,-345.52095892161975,66.9079847143427,245.02807188089366,1212.5217059826898
441,64.77870430497116,-70.50747889326531,-199.85024036909252,-382.8394180757733,-316.5716830314384,9.033052772747393,258.11436098448047,1267.8863411012746
442,65.66929243263684,-83.83069291200992,-205.1735674970752,-485.33614187458284,-284.7342457687033,-47.10439407713729,271.87884954087076,1322.012035357906
443,65.70857973419206,-99.08253442951954,-209.86041224770764,-585.5918763888961,-250.68414962037622,-100.22404192989482,286.20090657800677,1374.112877176923
444,64.89765181304881,-116.09330799879186,-213.87893610525754,-681.7617805993747,-215.16221168706673,-149.11489290969647,300.9472027024796,1423.3983564365976
445,63.252026957830225,-134.6550243285166,-217.20894237308738,-772.0112915704608,-178.96051373904655,-192.6617687423469,315.97289976842774,1469.091142319783
446,60.801303521659456,-154.52539399032545,-219.8414807953342,-854.566045326598,-142.90567047328574,-229.86975965949998,331.12322966019474,1510.4463380996654
447,57.588538149829034,-175.43295475688728,-221.77818344382055,-927.7620626497609,-107.83967022794309,-259.8859704069986,346.23549365314415,1546.7715078783162
448,53.669344339380146,-197.08318646137997,-223.03038198665368,-990.0943432138391,-74.59878278275588,-282.0179662789005,361.1414904337263,1577.446643129441
449,49.11071108094355,-219.16542797561274,-223.61805546005047,-1040.2619920460952,-43.99125807545472,-295.7484018685554,375.6703522855378,1601.9431511482742
450,43.98955695391422,-241.36037714081772,-223.5686541556435,-1077.2080797206502,-16.774726367607308,-300.74542337629236,389.65173734121623,1619.840915440052
451,38.3910533313663,-263.347926244969,-222.91584100855488,-1100.1526062806345,6.365672554479507,-296.8685672643394,402.91929339096043,1630.8425092529837
452,32.40676866486129,-284.8150637490797,-221.69818865932547,-1108.6171871005322,24.837376145210516,-284.17002684584935,415.31427803487566,1634.7837426460735
453,26.132701581508478,-305.46355929978023,-219.95786902083094,-1102.4403907674682,38.157717387505684,-262.8913163130045,426.68919363684233,1631.6398887384541
454,19.667281191285664,-325.0171462971073,-217.7393722216863,-1081.78301629985,45.9676521602227,-233.45552007560147,436.9112762863965,1621.5271563903314
455,13.10941645746871,-343.22792718976405,-215.08829193717008,-1047.1229830517689,48.04130680093539,-196.45546309224335,445.8656686329403,1604.6992385784174
456,6.55667172709669,-359.8817531607933,-212.05021322503643,-999.2399104897094,44.291034002233786,-152.63826225717034,453.4581097225257,1581.5390501903116
457,0.10363305003187136,-374.80237214925853,-208.6697363063627,-939.1898809203735,34.76795469989129,-102.88680938651373,459.6169924349886,1552.5460590663429
458,-6.159488577608163,-387.854195550407,-204.9896645335681,-868.2712989131253,19.658235346658504,-48.1987900598118,464.29467043700595,1518.3198920727054
459,-12.147993092671209,-398.943601427933,-201.05037636498014,-787.9831684337757,-0.7244235896718207,10.336134886084881,467.4679395930056,1479.5411387503646
460,-17.783565493898074,-408.0187665714377,-196.88938944026143,-699.9774700362461,-25.94945311603579,71.56035747779453,469.1376699895845,1436.9504441189217
461,-22.99490826987066,-415.06809555916305,-192.5411108408552,-606.007596157844,-55.482521323394195,134.27294513083208,469.3276190073681,1391.3270440477436
462,-27.71816839671311,-420.11738482502244,-188.03675332067496,-507.87495918329563,-88.70036413717168,197.2542640086693,468.0825066434164,1343.4678315090212
463,-31.897205474738872,-423.2259163305552,-183.40438515534555,-407.3759074052307,-124.90668729862814,259.2900399632071,465.4654752408508,1294.1678612422484
464,-35.483751939279024,-424.48171403260295,-178.66907360240447,-306.2509698539806,-163.34858549239672,319.1943357153165,461.55508315016766,1244.2029488507337
465,-38.43751512919982,-423.9962158081258,-173.85308038661987,-206.13821952655005,-203.23303970314322,375.8309807155607,456.44199529395036,1194.3147604423318
466,-40.72626479368386,-421.8986158114246,-168.97607242829085,-108.53222521981617,-243.74316557678284,428.1330659069635,450.2255352835926,1145.1985722612271
467,-42.32593923258031,-418.3301208366897,-164.05532105017593,-14.749691820444205,-284.05398086673705,475.12020686939405,443.01025649833963,1097.4937279217831
468,-43.220790282707576,-413.43834265707306,-159.1058759331316,74.09749471234524,-323.3475318276187,515.9133786793622,434.9026756671948,1051.7767270370555
469,-43.403573730583936,-407.37201959727776,-154.14071365167754,157.12146570267726,-360.82726493899673,549.7472251573374,426.00829353292187,1008.5568226936705
470,-42.87577901158057,-400.2762275056174,-149.17087254374658,233.66978005504353,-395.7315547973857,575.9798350197095,416.4290043767139,968.2739655071365
471,-41.64788100485735,-392.2882052270341,-144.2055945036803,303.3292766970105,-427.3463084384222,594.100050959819,406.2609708453859,931.298894597573
472,-39.739587535540686,-383.53388461361845,-139.2524994422198,365.9227955407447,-455.0165692008012,603.7324313487318,395.59301406215354,897.9351347026094
473,-37.180048931465,-374.1251816077262,-134.3178197164761,421.4993251256484,-478.1570461666833,604.6400177628378,384.5055428767638,868.4226141205573
474,-34.00799092020268,-364.15807422455566,-129.4067200875685,470.3182091820853,-496.26150098627966,596.7250765290331,373.07002166068236,842.9425734415632
475,-30.27172978593581,-353.7114662192182,-124.52372378038649,512.8280716625106,-508.9109320536508,580.0279813552146,361.3489542700433,821.6233938033174
476,-26.029029548327298,-342.84681233167623,-119.67325688281267,549.6411151410679,-515.7805051114367,554.7243900907625,349.39634326160166,804.5469401520614
477,-21.34676514807757,-331.6084624167732,-114.86031185086442,581.503428938511,-516.6451884241178,521.1208461852872,337.2585684754224,791.7549959069269
478,-16.30036286328856,-320.02466739945635,-110.09121727084434,609.261929908697,-511.38405885415193,479.64890983060695,324.9756179017555,783.2553681205623
479,-10.972998735062927,-308.10917956187654,-105.37448691503297,633.8285669176599,-499.9832513865051,430.8579000170326,312.5825964178874,779.0272737913643
480,-5.454546966015254,-295.8633726914682,-100.72170830134108,656.1424600588576,-482.5375278682654,375.40631014716035,300.1114343929947,779.0256827261628
481,0.1597174386472255,-283.2788034007722,-96.14842086334045,677.1307200658206,-459.25044082243966,314.0519479959646,287.59271789002236,783.1843899584028
482,5.770644585274865,-270.34013257442723,-91.67492730185683,697.6687966219872,-430.433066143279,247.64084622121425,275.05756449572334,791.4177152325243
483,11.27693412220305,-257.0283244585907,-87.32697901693071,718.5413243963211,-396.50127605240795,177.09499272356587,262.5394727530826,803.6208673797705
484,16.577016371270858,-243.32403954266775,-83.1362776043736,740.4045577596024,-357.97152275962594,103.39894163584684,250.07607783966643,819.669153567748
485,21.571038634013807,-229.21113541330064,-79.14073890207193,763.7515950925117,-315.4551051174088,27.585386365598996,237.7107507678529,839.4163434517593
486,26.162898392418555,-214.68018667767868,-75.38447361828649,788.8816796111676,-269.65089577860186,-49.28019392126752,225.49398248887854,862.6926038016484
487,30.262262025414426,-199.73193055208657,-71.91744903110694,815.8749145590909,-221.33651553172712,-126.11566505961181,213.48449778425575,889.3024884866791
488,33.786508504598835,-184.38053883439483,-68.79480980803096,844.5737319953495,-171.35795572657435,-201.83895388950742,201.75004716738354,919.0234889663521
489,36.66254194571478,-168.65661041900853,-66.07585286706531,874.5723862237538,-120.61767011574926,-275.385114314832,190.36782914374118,951.6056098543124
490,38.82842394365687,-152.60977279072526,-63.82267100792701,905.2155827259443,-70.06118377930301,-345.7234684707089,179.42450126796436,986.7723307738829
491,40.23478523839169,-136.31077813922727,-62.09850141598153,935.6070849324966,-20.662297288862447,-411.8745149716824,169.0157474366432,1024.223166923614
492,40.84598554753638,-119.85298203520908,-60.96583581992083,964.6287627365394,26.593002608698843,-472.9262728585654,159.24538121499054,1063.6378794807474
493,40.6409996005853,-103.35310188429085,-60.484366392402315,990.9700753375521,70.72377784027547,-528.0497194214026,150.22398077488944,1104.682242689026
494,39.614015793687635,-86.9511698656799,-60.708853112278625,1013.1674506341772,110.77232773902301,-576.5129851058188,142.0670700728895,1147.0151553833084
495,37.774740848913154,-70.80962081734685,-61.68700320492759,1029.65247928809,145.82308546433367,-617.6939897882623,134.8928827276714,1190.2967780892511
496,35.14840918561882,-55.11148803775802,-63.45745202684644,1038.8073329347444,175.0219093235997,-651.0912397205989,128.81976847746432,1234.1972660650315
497,31.77549972218917,-40.05771643773777,-66.04792905117192,1039.025387366961,197.5953806829264,-676.3325493969354,123.96332507880038,1278.4055515155512
498,27.711166284277372,-25.86363957466029,-69.47368428944554,1028.774715894385,212.8696429269514,-693.1815034202442,120.43335849726509,1322.637523330406
499,23.024391529389504,-12.754701789791149,-73.73624091673639,1006.6619337879471,220.2882468740237,-701.5415273166775,118.33078878447022,1366.642890815958
500,17.796878821820247,-0.9615366947302959,-78.82252969970004,971.4938261227293,219.4284176659459,-701.4574914021604,117.7446262946642,1410.2100261899518
501,12.121701804198498,9.28546269625907,-84.70444993258678,922.3342721113736,210.0151356183324,-693.1148265406423,118.74914181308999,1453.168171827226
502,6.101737040482461,17.761929266011432,-91.33888922667964,858.5541753770259,191.93243522443677,-676.8361827765459,121.40134447219464,1495.3865690174202
503,-0.15208965176765948,24.25549815158444,-98.6682197681621,779.8724023813221,165.23137525162429,-653.0757091885366,125.73886364128722,1536.7702996412131
504,-6.522708361753939,28.57180378667603,-106.62127094116258,686.3860980205998,130.13421806193395,-622.4110743610122,131.7783069422667,1577.252907808674
505,-12.888924217479973,30.54032584429028,-115.11475746565505,578.5891656552598,87.03447483584993,-585.5333809035058,139.514138703612,1616.7861597680032
506,-19.127512029094497,30.01991462142371,-124.05511912466696,457.378148160073,36.49262039185545,-543.2351544476207,148.91809436338698,1655.3275825292649
507,-25.115348977515566,26.903831611661523,-133.34070423335396,324.04520921618916,-20.772549913387596,-496.3966080812661,159.9391190019948,1692.826671323707
508,-30.731550890115624,21.124148176461546,-142.86420635991635,180.25837390860016,-83.89676701496255,-445.97039832062916,172.5037940151014,1729.2108506945074
509,-35.85958253498705,12.655353734195714,-152.51524486225009,28.029629115453883,-151.8870011238408,-392.96509993859564,186.51719612951058,1764.3723912046355
510,-40.38931858303283,1.517035222581352,-162.1829667398719,-130.32810859930353,-223.64153121279432,-338.4276362164432,201.86411867211692,1798.1575015909632
511,-44.21903815468704,-12.224496127534477,-171.75854187260188,-292.2537923202177,-297.9727139449559,-283.4249110657338,218.41057760988238,1830.3587169404495
512,-47.25734013076032,-28.4557334322824,-181.13742772860368,-454.99915208199786,-373.631684803883,-229.02490247753312,236.00552611592752,1860.7114812420398
513,-49.42496657809302,-47.01673066451013,-190.22129511835598,-615.6958313024553,-449.33416233765496,-176.2774937007783,254.48271287657636,1888.895494118112
514,-50.65651679018167,-67.70312039340699,-198.91953450355388,-771.426733669202,-523.7865208731823,-126.1953381946755,273.6626409730121,1914.5410005589897
515,-50.90202526482133,-90.26938054860771,-207.1503005882212,-919.2994970333625,-595.7113495625962,-79.73507531938422,293.3546125437354,1937.2398078294502
516,-50.12836523887612,-114.43328941675365,-214.84109574611205,-1056.52000347665,-663.8718204496834,-37.77923594308731,313.3588727933489,1956.560463593653
517,-48.32042749918393,-139.88146003557253,-221.92893306096516,-1180.4638595999413,-727.0943333144895,-1.119200904181462,333.4688874064923,1972.0667445366416
518,-45.48201470047051,-166.27580075599425,-228.3601514743374,-1288.7438204853163,-784.2890720846863,29.560402042298897,353.4737943013293,1983.3383838467068
519,-41.6363869161031,-193.26071040324487,-234.08997583278156,-1379.271187356925,-834.4682709747041,53.69546276781512,373.1610623266229,1989.9928027197634
520,-36.82639658068851,-220.47078591697252,-239.08192323539006,-1450.3093059690568,-876.7621186220714,70.8539187449892,392.3193683954353,1991.706509097772
521,-31.114161293927566,-247.53879881651932,-243.30715476073928,-1500.5174615639453,-910.432301822835,80.74468512864412,410.7416752631725,1988.2348023186187
522,-24.580241032180297,-274.10368526278285,-246.74385892719846,-1528.983729463941,-934.8832002039862,83.22367964336232,428.2284596291812,1979.4284947605502
523,-17.322311049362305,-299.81829368121106,-249.37673089757686,-1535.2456989618704,-949.670702672238,78.29672207090238,444.59100902105297,1965.2465382686846
524,-9.45335091364081,-324.3566443362005,-251.19658233794596,-1519.2984186333306,-954.508553718736,66.11918962870197,459.6546802138498,1945.7637094458603
525,-1.0994003316266139,-347.4204764636802,-252.20008678110227,-1481.5893751004683,-949.2720839428705,46.99241698171865,473.2619953108729,1921.1728315985322
526,7.603040406479265,-368.744888945537,-252.38964112643154,-1423.0007786439562,-933.999157850824,21.356932554727884,485.2754462085678,1891.7813580831178
527,16.509867171682124,-388.10291770547417,-251.77330977804394,-1344.8198673857328,-908.8881928762996,-10.21728675058065,495.5798841476003,1858.0024888283292
528,25.47237687183048,-405.30893482795767,-250.36481369302052,-1248.6983512355953,-874.2931648958211,-47.04328466108662,504.0843869190964,1820.3413272414498
529,34.340311044208875,-420.22079920458066,-248.1835288453458,-1136.6024942657955,-830.715609735493,-88.33199617537248,510.7235197605515,1779.3768984701937
530,42.964838272428274,-432.7407347833924,-245.25446316513043,-1010.755667153861,-778.7937471393839,-133.20913859788305,515.4579344916723,1735.741122916591
531,51.201392878693795,-442.8149582979221,-241.6081849121624,-873.5754646063351,-719.2889793381904,-180.73368592964346,518.2742823241379,1690.096039236282
532,58.91230932973175,-450.4321214537357,-237.2806777299872,-727.607645051374,-653.0701320650737,-229.91743894774228,519.184446576856,1643.110661823056
533,65.96921449519057,-455.62067104098605,-232.31309938254958,-575.4591873908518,-581.0958931852304,-279.7451644742245,518.2241305620682,1595.4388136834184
534,72.25515950231362,-458.4452630560118,-226.75142464752028,-419.7326683261739,-504.3959527996747,-329.1947584526146,515.4508623853363,1547.6991004358117
535,77.6664870211898,-459.0023929991138,-220.645959929319,-262.96396451648656,-424.05136068871093,-377.25689493336364,510.9415020370294,1500.457921360307
536,82.1144380423935,-457.41542392777,-214.05072808143274,-107.56501493568024,-341.1746029727118,-422.95365976347233,504.78935665116273,1454.216102315687
537,85.52650570451031,-453.8292067003176,-207.02273496486026,44.226918788077846,-256.88987171262954,-465.3557332284428,497.1010264241324,1409.3994302577566
538,87.84754386027033,-448.4044930960837,-199.62114173561082,190.39235322473365,-172.31396555846672,-503.59777667652065,487.9931151074446,1366.3530988593698
539,89.04063569652303,-441.3123417947066,-191.90637651816985,329.164189486555,-88.5382166720332,-536.8917869510699,477.5889437696562,1325.3398521592592
540,89.08772334035478,-432.72870920349663,-183.93922493812744,459.05324644048727,-6.611785787849544,-564.5382977836383,466.01540374651495,1286.5414436703236
541,87.9899936356132,-422.8294018558835,-175.77994098112578,578.8644211150331,72.47339881271867,-585.935415655137,453.4000743034842,1250.0629156096797
542,85.76800922462866,-411.7855450328782,-167.48741847826267,687.7034648856521,147.79586017954963,-600.5857669952723,439.8687132388847,1215.9391490529486
543,82.46156907896288,-399.75969431853093,-159.11846008805495,784.9746615415098,218.5158351762548,-608.1014963001196,425.5432057854446,1184.1431389083652
544,78.12927996591287,-386.9026844405832,-150.72717578472182,870.3699913581719,283.88454911742457,-608.2074890102714,410.5400305050087,1154.5954992253046
545,72.8478207371568,-373.35127483370644,-142.36453713934333,943.8506478538251,343.2515441079125,-600.7430026684715,394.96927236627516,1127.174789433966
546,66.71088474983652,-359.2266158909367,-134.07810731314913,1005.6220208970432,396.07015810492265,-585.6618822611733,378.9341846144172,1101.728350872025
547,59.827791723474455,-344.63352569272877,-125.91195964319125,1056.1034506401186,441.9012846621344,-563.0315181815547,362.5312738291052,1078.083434018096
548,52.32176849368452,-329.6605357007675,-117.90678995830606,1095.8941736858126,480.41555288242114,-533.030683139347,345.8508579433408,1056.0584610818503
549,44.32790812723695,-314.38063678921213,-110.1002194169619,1125.7369143190983,511.3940572421799,-495.94636025955214,328.978026032841,1035.4742931065412
550,35.99082822258524,-298.8526351807759,-102.52727588106512,1146.48051641714,534.7277454642202,-452.1696497895321,311.99391229424646,1016.1653519031515
551,27.462061220843506,-283.1230122980625,-95.22103277244048,1159.0428725719278,550.4155486212422,-402.1908171128039,294.9771855276513,997.9903910717221
552,18.897221431184217,-267.22817387829,-88.21337503618992,1164.375203018254,558.5613184589461,-346.59352104338126,278.0056500922103,980.8426305730827
553,10.453004500881919,-251.19697208966113,-81.53585222774421,1163.428494415633,559.369626302069,-286.04823975913985,261.157854789869,964.6588832772328
554,2.2840844803228375,-235.05338930858898,-75.22056901842268,1157.1226599349438,553.1404764980413,-221.3048935878393,244.5146119949976,949.4272286096426
555,-5.460019250374872,-218.81928240907692,-69.30105422830991,1146.3187610442367,540.2629941070174,-153.18465057592348,228.1603395849163,935.1927468645835
556,-12.638028508443625,-202.5171000627941,-63.81304197807185,1131.7944664111585,521.2081595578227,-82.57089353316356,212.1841514784654,922.0608352656958
557,-19.119867885333914,-186.1725006242203,-58.79509412089698,1114.222832858172,496.5206796178328,-10.399327104214965,196.6806374609753,910.1976959130836
558,-24.78942382268392,-169.81681264303216,-54.28899327178077,1094.1544824811301,466.81010097231365,62.352788619729395,181.75028824776297,899.8277200030941
559,-29.54702719731494,-153.48929184361046,-50.33984177755057,1072.0033096880536,432.7412863531099,134.67827475212903,167.4995363875577,891.2276837306979
560,-33.31159213188097,-137.2391356855049,-46.99581446469248,1048.0359596323963,395.0243800456555,205.55251235952727,154.0403968922032,884.7178980313706
561,-36.02235389891258,-121.12721841868888,-44.3075315008259,1022.3654432153074,354.4043871707216,273.9467037926784,141.48970324835653,880.6506859856454
562,-37.64016204116734,-105.22750636778095,-42.32704070553137,994.9493572322373,311.6504787190143,338.84182254156843,129.96794519083375,879.3967636186318
563,-38.14830008613781,-89.62810680589229,-41.10642396977383,965.5932272717141,267.5451140265406,399.2431234553481,119.59772489934379,881.3302409696779
564,-37.55281882707494,-74.43189670362733,-40.69606777436805,933.9594601891738,222.8730490561335,454.1950544330806,110.50185837980546,886.813021358602
565,-35.882384306706214,-59.756672485344794,-41.14266121570373,899.5822705075118,178.4102787217765,502.79638471404866,102.80115868509374,896.1793564263319
566,-33.18765316027724,-45.73476097611131,-42.48700516607853,861.8887336633957,134.91295013271477,544.2153435851898,96.61194739574876,909.7212298056728
567,-29.54019665482444,-32.512036579351864,-44.76173233030477,820.2258326936541,93.10628444441745,577.70454572037,92.0433507268382,927.675120400432
568,-25.031001178351044,-20.246301196579196,-47.98904914213994,773.8930252379852,53.6735589625341,602.6154643399854,89.19444704709021,950.2105622851335
569,-19.768577837375528,-9.105001577972967,-52.17861581710843,722.1794916704088,17.24522745115734,618.4122001614573,88.15134352541524,977.4207865220279
570,-13.876717885191091,0.737716926985466,-57.32567996740327,664.4048640250456,-15.611706751208528,624.6842825781222,88.98427073540003,1009.3156041992269
571,-7.491934560446735,9.104592240259565,-63.40957217741468,599.9619117009763,-44.403906273099565,621.1582301912341,91.7447945189716,1045.8165691261513
572,-0.7606360110684859,15.819403394703127,-70.39265953023298,528.3594034669945,-68.72129834371627,607.7075917345255,96.46325272484737,1086.7543460962004
573,6.1639217395142,20.711612722595177,-78.21983600704378,449.263199526087,-88.24580596536651,584.361186659594,103.14652850432516,1131.8681165850908
574,13.124848833945087,23.621370772052217,-86.8186074706471,362.5335677710565,-102.7589238106565,551.3092678738976,111.77626941441945,1180.806792126679
575,19.964946356744303,24.404736234510185,-96.09980411753112,268.25677203723086,-112.14782711423346,508.90733742502056,122.30765082893618,1233.131788073634
576,26.53008282657676,22.93894252889076,-105.95892569698184,166.76914657486518,-116.40969596165117,457.6773591154617,134.6687624810794,1288.3211416506037
577,32.67256073747408,19.127528607751895,-116.2780954283879,58.67214219827474,-115.65395248073038,398.30613017804905,148.7606696529826,1345.7748336645661
578,38.25440830764331,12.90514464649605,-126.92856799779321,-55.16280915379326,-110.10214549394367,331.6405979063569,164.45816858450416,1404.8212796708758
579,43.150527464020854,4.241843664774517,-137.77370566037519,-173.60033302068675,-100.085276064102,258.67993794237384,181.61122243066316,1464.7250743984348
580,47.251624206387355,-6.85332266718676,-148.67230548912573,-295.25829485358827,-86.03843758750246,180.56425112731162,200.04703202234072,1524.6961812933837
581,50.46684305729973,-20.329572886250883,-159.48213284239418,-418.5358574820609,-68.49274430170796,98.55978874654025,219.57266645951336,1583.9008361066083
582,52.72602530366892,-36.092680982421044,-170.0634944964132,-541.6516273946053,-48.06463832289332,14.040685469681518,239.978153653518,1641.4744586339898
583,53.98151302492311,-54.00440932550745,-180.28267215911993,-662.6906005539381,-25.44278957765103,-71.5327316192083,261.03991171448826,1696.5368179866348
584,54.20942825973896,-73.88319599176893,-190.01503529232585,-779.6581552492108,-1.3729232612664382,-156.63888003548772,282.5243904325877,1748.2095533669592
585,53.41036883149839,-95.5061714222235,-199.14766498716912,-890.5389462458819,23.35898841327133,-239.72279976039397,304.1917919332357,1795.6359066211805
586,51.60947885656981,-118.61253624077389,-207.58135388408041,-993.3582672404527,47.94466362694252,-319.22652703602523,325.7997568075785,1838.0022007171947
587,48.85587226038334,-142.90827535932033,-215.23190453949434,-1086.2433060348667,71.57204599842649,-393.6213738169223,347.1069400259229,1874.5602694274655
588,45.22141014158025,-168.0721156638598,-222.03072504605575,-1167.4817472130035,93.44393264186454,-461.44137783547194,367.87645360797995,1904.649797175444
589,40.798854576181235,-193.7625634230542,-227.9247996055367,-1235.575378478838,112.79626455462108,-521.3170493819142,387.8792027314318,1927.719422224468
590,35.69943975907496,-219.62579320166276,-232.87617189211392,-1289.286686639931,128.91574823427882,-572.0084154833402,406.8971678054428,1943.345484800567
591,30.04991595971319,-245.30411017055513,-236.8611060014641,-1327.6768192685454,141.1565691162038,-612.4362635673489,424.72667596938896,1951.2474101293287
592,23.989134842611655,-270.44467526163777,-239.8690828563806,-1350.1336784658108,148.95600815071833,-641.7104332186341,441.18166682462913,1951.2988503985537
593,17.664259256182977,-294.70816757768034,-241.901759298287,-1356.389280044774,151.84876351499275,-659.154014128401,456.0969054029814,1943.533851498353
594,11.226698510090207,-317.7770602077801,-242.97197521577712,-1346.525869544926,149.4797128985098,-664.3223939959998,469.33104699052706,1928.1474814887633
595,4.827891039539354,-339.3632031183167,-243.1028495110861,-1320.970667047245,141.61475262047168,-657.016269200067,480.76942281058507,1905.4905937432695
596,-1.3849227266965758,-359.2144377158794,-242.32696333006416,-1280.4795315298309,128.149257198437,-637.2879818602064,490.32639476638934,1876.058714851638
597,-7.272777990001674,-377.12000846263845,-240.68559380551,-1226.1102724073858,109.11365902257296,-605.4408630450208,497.94712055425504,1840.4754222631634
598,-12.708746767861651,-392.9145843681519,-238.22794033878682,-1159.1867438346426,84.67568376531484,-562.021609640929,503.60857753379025,1799.4709541237912
599,-17.58122023819467,-406.48075573988916,-235.010283313305,-1081.2551944477611,55.13890042853628,-507.80605780431887,507.3197162547719,1753.857116134233
600,-21.79656826547207,-417.7499294416113,-231.09503131843036,-994.0346006491608,20.937434262456946,-443.77899917375856,509.1206533591492,1704.4997827497164
601,-25.281064291773866,-426.70161003002056,-226.54964044798825,-899.3629005890047,-17.373093564046748,-371.10889478892784,509.0808672435221,1652.2904226604112
602,-27.982006943449758,-433.36112447942054,-221.4454183567047,-799.1411821732717,-59.12813241294584,-291.1184756945455,507.29642416496444,1598.1181094148096
603,-29.86801862139271,-437.7959217767244,-215.85624824162522,-695.277952542475,-103.56983983475116,-205.25229419532803,503.8863305025906,1542.843399293166
604,-30.92854974310399,-440.1106487659729,-209.85727935593567,-589.6356011215336,-149.86522960389368,-115.04232457547727,498.98816976823787,1487.2752602139906
605,-31.17266013445945,-440.4412615315121,-203.5236311308243,-483.98103925594285,-197.12618314553393,-22.072717684138215,492.7532319240072,1432.151926973835
606,-30.62718371608857,-438.9484700361949,-196.92915084680575,-379.9422525593837,-244.4306281501308,72.05521002754992,485.34137170430586,1378.1261848717693
607,-29.334408490606787,-435.81082938589435,-190.14525447613212,-278.97215535379064,-290.8441747659748,165.75673181763577,476.9158404035121,1325.7552164043461
608,-27.34942092932194,-431.2177848997556,-183.2398704774016,-182.3207207975691,-335.44152102796215,257.4952891918442,467.6383242408702,1275.4948469098874
609,-24.737271764659305,-425.362953795821,-176.2764992863382,-91.0159090712321,-377.32699157806974,345.81111297713636,457.66439637886407,1227.6978240181757
610,-21.570118290704155,-418.4378885246511,-169.31339794964106,-5.853460607671272,-415.65365059319316,429.3462798885479,447.1395539136367,1182.615658360088
611,-17.924486756250936,-410.6265203274159,-162.40289924774095,72.60480974733746,-449.6405228148661,506.8657914879039,436.1959699607677,1140.403516559875
612,-13.8787787754251,-402.1004304977158,-155.59087606374663,144.02496244460085,-478.58755818910294,577.2744607893883,424.9500473607266,1101.127664656852
613,-9.511120022960624,-393.0150443475648,-148.91636295355502,208.28817885664478,-501.8880809555516,639.6295793222931,413.50081666265623,1064.774986854499
614,-4.897619868929507,-383.5067918536297,-142.41134710454142,265.4725708747617,-519.0385702257821,693.1495022032271,401.9291789769731,1031.2641346006887
615,-0.11107890302852155,-373.6912320775804,-136.10074036289018,315.8309366969117,-529.6457233356065,737.2184226247873,390.29795629447807,1000.4578866389023
616,4.779850428435954,-363.66209807518396,-130.00254312974488,359.7658544159507,-533.430851172194,771.3877055910896,378.6526799094894,972.1763206090078
617,9.711074201422063,-353.49118673832066,-124.1282094569708,397.80341394296966,-530.2317405810056,795.3742121563006,367.0230226604969,946.2104132696564
618,14.623087215176884,-343.2289945155177,-118.48321979371107,430.56670810885765,-520.0021876153911,809.056071115771,355.42476285760694,922.3357020366678
619,19.460690254503803,-332.9059851977476,-113.0678626015786,458.74995599255004,-502.80945396822347,812.4663493141978,343.86215664257065,900.3256556569493
620,24.17247339888364,-322.5343695989354,-107.87821788680256,483.093844603468,-478.82992782324595,805.7850413792671,332.33059087959276,879.9644134223532
621,28.7101500373931,-312.110278505414,-102.90732465258387,504.36238348731086,-448.3432824724055,789.3297528500121,320.8193904264691,861.0585551848071
622,33.02782696101617,-301.6162188668546,-98.14650113970062,523.3213056327803,-411.7254249659095,763.545394647919,309.3146615125982,843.4475556186998
623,37.08129259658593,-291.0237173975825,-93.5867728511084,540.7178474268732,-369.44051544461865,728.9931471361089,297.8020660745787,827.0125605879219
624,40.827398586425616,-280.29607353008265,-89.22035036447062,557.2616217300598,-322.0323166904339,686.3388927582818,286.2694387571676,811.6831163547122
625,44.22359967103791,-269.39116274948276,-85.04208848614863,573.6062719464637,-270.1151028302585,636.3412610868749,274.7091770765284,797.4415052292612
626,47.22770342983071,-258.26424945702803,-81.0508519518073,590.3316598481568,-214.3643164845758,579.8393823501095,263.1203541610776,784.3244122791332
627,49.797865460247344,-246.87078340902534,-77.25071184118376,607.9264820978873,-155.5071172638648,517.7404075859707,251.51052078391047,772.4217724436621
628,51.89284803630823,-235.16916345953857,-73.65190169651234,626.7714055951478,-94.31291577344886,451.0068267143395,239.89717754078478,761.8728159446033
629,53.472542454383856,-223.12345553745925,-70.27147279160663,647.1230299654355,-31.583941383711817,380.6436003169245,228.3089080580615,752.8595212678296
630,54.49873844117728,-210.7060483198012,-67.1336031905984,669.0991963669319,31.854146777800644,307.6851165161563,216.78616990214067,745.5978738808446
631,54.93610928636679,-197.90022077611167,-64.26953367158991,692.6663380581002,95.1616253958596,233.18199034631573,205.38174191499013,740.32749073387
632,54.75336953012834,-184.70258237650896,-61.71712331595558,717.6296879384005,157.49408754180206,158.18773822739735,194.16082590714524,737.3002851674432
633,53.92455337438233,-171.12533170807362,-59.52003654798335,743.6272068333703,218.011884220456,83.74538292822673,183.20079825370047,736.7689004499719
634,52.430356420939006,-157.1982653135551,-57.72659006401004,770.1280672311275,275.8896686704686,10.874072406095049,172.59060459113874,738.9756269446259
635,50.25948062054899,-142.9704582666405,-56.388301572154624,796.4364221378745,330.326069234386,-59.44417425749313,162.42979021573618,744.1424398875245
636,47.409922075320466,-128.51153302989323,-55.55819248746765,821.701016159648,380.55349028828624,-126.27745315483205,152.82716127544282,752.4626618821118
637,43.89014309422167,-113.91243423599569,-55.28890417538843,844.9309693790996,425.84800724794184,-188.7565320587696,143.8990781141412,764.0945840231338
638,39.72007322073043,-99.28563416165319,-55.63069271367629,865.0178007586366,465.5392852379125,-246.0868015859126,135.76739222173043,779.1571943207463
639,34.93188857828158,-84.7647063551078,-56.629371003052725,880.7634743089592,499.02041537396786,-297.5594393695656,128.55705172357733,797.7279828778221
640,29.570524658568313,-70.50322235516236,-58.324269635179945,890.9139646358327,525.7575302057229,-342.5616057318301,122.39341632243347,819.8426349162847
641,23.6938844269632,-56.67294756921766,-60.74628925428559,894.1975628985398,545.299031949544,-380.5854948612056,117.39933974875657,845.4962932301746
642,17.372711194632334,-43.46133575259779,-63.91611720025845,889.366891607587,557.2842444037452,-411.2360757318194,113.69209447612003,874.6459747051873
643,10.690104158364583,-31.06834580143428,-67.84267986610642,875.2433773486199,561.4512824928331,-434.2373707553975,111.38022820337963,907.2136631368511
644,3.7406640684710606,-19.702628701851754,-72.52189911145047,850.7627532055815,557.6439229672634,-449.43713579122306,110.56045319031676,943.0895738256603
645,-3.370732648000854,-9.577155682660777,-77.93581575527871,815.0200342845045,545.8172567227591,-456.80982132750734,111.31467695396245,982.1350947167695
646,-10.530520861990503,-0.9043801914206554,-84.05213500811249,767.312335468242,526.041908274704,-456.4577109117973,113.70728505823078,1024.1849537452279
647,-17.618371358861754,6.108954349973551,-90.82423698007169,707.1778844519141,498.50662162672717,-448.61014951719943,117.78278269235007,1069.0482412871406
648,-24.509416350671618,11.267232347155687,-98.19167956486993,634.4296287820903,463.51903411876475,-433.6207923271202,123.56389056517229,1116.508028162336
649,-31.07672639828211,14.39146688518529,-106.08120101893775,549.181945713445,421.5044902671404,-411.9628248569424,131.05017198656483,1166.3194603328466
650,-37.19397807106977,15.324730421392994,-114.40820595631116,451.86913885806285,373.0027852135013,-384.22213016283695,140.217242407783,1218.206376193005
651,-42.73824302213574,13.937355000024574,-123.07869213736042,343.2546434379068,318.66277142614985,-351.0884093141685,151.01658199399924,1271.8566731846347
652,-47.59282373804381,10.131738597993508,-131.9915475760527,224.43015659730796,259.2348122928595,-313.3442973383123,163.37593909959853,1326.9168360857464
653,-51.650059334050994,3.8465952385179945,-141.04112001497566,96.80425172422467,195.5611213502722,-271.85255745264817,177.20028135034028,1382.9862152590988
654,-54.814026407575014,-4.939508826357304,-150.11993628436952,-37.91958520614914,128.56408385209832,-227.54148008376723,192.3732243176178,1439.6117925099431
655,-57.00306483708186,-16.205482649582887,-159.12143025552612,-177.77515686807888,59.23271453751876,-181.3886586609388,208.75884737832203,1496.2842763400606
656,-58.152065596707736,-29.886039685730186,-167.94252792575864,-320.5752432638526,-11.39254169508595,-134.4033609414123,226.20379387581485,1552.4364071111067
657,-58.21446531351088,-45.87114791976234,-176.4859402959278,-463.9616308330406,-82.23641237315233,-87.60776276126452,244.53955063562196,1607.4443044205786
658,-57.163898269513595,-64.0066925843066,-184.66203337640678,-605.4619768279769,-152.20650661233984,-42.01736041923414,263.5848136265054,1660.6325349226174
659,-54.995459801628066,-84.09640364971565,-192.39018229421146,-742.5517143497682,-220.21179334592176,1.3790724047341258,283.1478739677627,1711.2833157800067
660,-51.72653639831364,-105.9050501659925,-199.5995703391527,-872.7190093147641,-285.1814741329053,41.63956775119846,303.02899849422334,1758.64992630496
661,-47.39715895160285,-129.1628463684659,-206.2294549491529,-993.5306927362027,-346.08385365166794,77.88862149772136,323.02282226455236,1801.974038065886
662,-42.06983782813843,-153.57095597787733,-212.22897867277146,-1102.6970968155586,-401.9448199278529,109.33591314603366,342.92080364420883,1840.5063516251616
663,-35.82884233618912,-178.80792757781865,-217.5566431011761,-1198.1337889787412,-451.8655950338951,135.293533141607,362.5138049753894,1873.529672927848
664,-28.778893841090945,-204.53685037015742,-222.17958211016835,-1278.0182909170328,-495.03948969715447,155.19114286333908,381.5948497364088,1900.383366200849
665,-21.043253313352466,-230.41298850524709,-226.07276816932938,-1340.8399758061332,-530.7674530926209,168.58850626259058,399.9620751725596,1920.4879676078624
666,-12.761203238541244,-256.0916333541048,-229.2182666022095,-1385.44146854147,-558.4722118397318,175.1848901187498,417.4218571644731,1933.3686380206213
667,-4.084952608298708,-281.235905025263,-231.6046228039665,-1411.05006017315,-577.7107243518287,174.82493317048795,433.7920410262153,1938.6760985427043
668,4.823968309751377,-305.5242364305806,-233.22643043762565,-1417.2979149245919,-588.1845591795899,167.50072802701777,448.9051745244198,1936.2037563104566
669,13.798713658772366,-328.6572860863449,-234.08408804172365,-1404.230201577299,-589.7476884932294,153.35003644037113,462.61161145579166,1925.8999002001378
670,22.671377681301767,-350.36405046777776,-234.1837131114111,-1372.3007005886905,-582.4111274063221,132.6507573628225,474.78233802403196,1907.874111488764
671,31.277320269409287,-370.40698216711434,-233.53715469394714,-1322.3548923976186,-566.3438874746088,105.8119679309067,485.311371712646,1882.397365058224
672,39.45936983014158,-388.58596332702916,-232.16203384998184,-1255.600999049547,-541.8698593157181,73.36202862089458,494.1175937429787,1849.8956683884276
673,47.07171722308716,-404.7410312992187,-230.08174563724793,-1173.5699268979401,-509.46047586087144,35.934353050897975,501.145900009442,1810.9374848428815
674,53.983336790145586,-418.75380290696927,-227.32537098834229,-1078.06554372218,-469.72329498608383,-5.748524720125456,506.3675888882013,1766.2155999284132
675,60.08080468859559,-430.54759436473506,-223.92746566559705,-971.1072021734946,-423.38692994278847,-50.89198493124761,509.7799450919114,1716.5244797756282
676,65.27042735962284,-440.08628560931874,-219.92771227860243,-854.8668473364356,-371.28300052250006,-98.64692523238067,511.4050249489537,1662.7344787147915
677,69.47964017267479,-447.3720293274791,-215.37043808470375,-731.6033554885088,-314.3259391973842,-148.12747073939008,511.2876975716967,1605.764405820644
678,72.65768256024589,-452.4419533635462,-210.30401468316987,-603.5968859912498,-253.4915448083865,-198.428393046408,509.49304383709875,1546.5539137463534
679,74.77559523003785,-455.3640461022867,-204.78016469544863,-473.08595914469294,-189.79513612911626,-248.6418950285268,506.1032550125068,1486.0369464149157
680,75.82561359548353,-456.2324434541511,-198.85320453163328,-342.20970766708837,-124.27004576332962,-297.87347037343795,501.2142000226196,1425.117161877748
681,75.8200494138326,-455.16235031794116,-192.57925179894602,-212.95732764023919,-57.94704992606099,-345.25660015194893,494.93184219672384,1364.645939710616
682,74.78976209256255,-452.28482825993933,-186.0154222901935,-87.12623259683643,8.164813237671275,-389.96610345816487,487.36868328111177,1305.4033557036312
683,72.78232461016101,-447.74166619793607,-179.21903675996182,33.71014986456287,73.09570458562995,-431.2300137266225,478.6403970810776,1248.0823684540987
684,69.85998783026433,-441.68052503266097,-172.24685345775754,148.22455578184417,135.93048611946952,-468.33990569625684,468.86279066758476,1193.2763864917845
685,66.09754147710686,-434.25051372516,-165.15433948754566,255.3481639302247,195.82210131258157,-500.65964908112466,458.14920085626653,1141.4703396916257
686,61.58016002195981,-425.59831641755875,-157.99499280267338,354.2735420115413,252.00273645792183,-527.6326117028054,446.6084004299953,1093.035341860769
687,56.40130741137431,-415.86495080352194,-150.81972705295857,444.44917679967733,303.79272960542,-548.7873741587347,434.3430548926956,1048.2269881102495
688,50.66075712168962,-405.1831998748127,-143.67633334616662,525.5667598715728,350.60725732879786,-563.7420474745779,421.4487387983285,1007.187272992804
689,44.462765327669906,-393.6757247625693,-136.6090357427078,597.5425550570326,391.9608906110859,-572.2073035589476,408.0134928182593,969.9500403181775
690,37.914416816293205,-381.4538372300778,-129.6581601926568,660.4942293301079,427.4701639731754,-573.9882363946375,394.11787981943843,936.4497840744939
691,31.124146880865222,-368.6168871273731,-122.85993867796128,714.7144928719715,456.854340367144,-568.9851719208406,379.8354805735142,906.5335164500256
692,24.200428557660302,-355.2522027520916,-116.24647046805363,760.6427803189084,479.93457418496274,-557.1935391844393,365.23375692596454,879.9753101172297
693,17.250603853591446,-341.4355102433149,-109.8458596014952,798.8360335735482,496.6316758037369,-538.7029066219525,350.37520177862024,856.4930144464745
694,10.379830590816466,-327.2317515696949,-103.68254119883076,829.9394405860896,506.96266722483034,-513.6952756611045,335.3186907229642,835.7665446396878
695,3.690113255291596,-312.69621914575356,-97.77779883644125,854.6577684348171,511.03629588349446,-482.4427078222576,320.120949505946,817.4570534658083
696,-2.7206136465810093,-297.87592834424385,-92.15046166509424,873.7277249470923,509.0476493012382,-445.30433928414135,304.83805472265277,801.2262230072448
697,-8.75937829898235,-282.8111566768807,-86.81775461106103,887.8916094187255,501.2719922011615,-402.72280809236406,289.52689209590045,786.7548671944404
698,-14.339063594395355,-267.53708935684296,-81.79625949183706,897.8723841262927,488.0579328407086,-355.22008624899246,274.24650694844183,773.7600261329872
699,-19.37931424578818,-252.0855240890415,-77.10293083971423,904.3502249315815,469.82001698244176,-303.3926765745444,259.0592940557328,762.0097717501682
700,-23.8074655540733,-236.48660165480163,-72.75609914187771,907.940597860679,447.03084486228073,-247.9061077529973,244.0319876644681,751.3350395535086
701,-27.559489825705302,-220.77054133217695,-68.77638739816715,909.1739594433728,420.21280705377313,-189.48864422133633,229.23642558411592,741.6379552995006
702,-30.58094519974641,-204.96936956474448,-65.18746548613028,908.47728313696,389.9295378377413,-128.924122067926,214.750072500224,732.8963305913694
703,-32.82790070876448,-189.11863504859113,-62.01657144283843,906.1577539780885,356.77718824039476,-67.04382751346655,200.65629600284186,725.1642402735505
704,-34.26780192114856,-173.25910273344036,-59.29473924562456,902.38912394216,321.3756236135267,-4.7173500619804365,187.04439388399172,718.5688425737751
705,-34.88023471937658,-157.43841305665754,-57.05668811669929,897.2013552421705,284.3596503205798,57.15763209916775,174.0093733277247,713.30383412902
706,-34.65754185806204,-141.71268154113602,-55.34034770188276,890.4742743049545,246.37037047160968,117.66664104911675,161.65148258893487,709.6201222840187
707,-33.60524878472421,-126.14799867501306,-54.18601567181593,881.9359957160176,208.0467509778556,175.89072339003147,150.07549492319498,707.8144261151364
708,-31.742261866573863,-110.82177238143325,-53.635168137626444,871.166837585003,170.01747300463634,230.9197177776006,139.38974412558005,708.2165703083328
709,-29.100812735004318,-95.82383780420504,-53.728966853628094,857.6093271671713,132.893101665416,281.86631767405413,129.7049117588859,711.1762062347265
710,-25.726135313085727,-81.25724463750728,-54.50652805076573,840.5846851726125,97.25858730240738,327.8807275256002,121.1325681622739,717.0495924633137
711,-21.67587535496529,-67.23862397330784,-56.00303375554304,819.3158863223513,63.66608454227058,368.1656644369552,113.78347281452582,726.186921023926
712,-17.01924425277606,-53.89803720436053,-58.247776476469184,792.9570412029021,32.62805933571194,401.99142301191097,107.76564525702744,738.9205211675766
713,-11.835938128789708,-41.378220292441554,-61.26223213139423,760.6284587800532,4.610651553802568,428.7106997098708,103.18222651161528,755.5541323045207
714,-6.2148491695245305,-29.83315751741003,-65.05825468175408,721.4563639960886,-19.97272705797885,447.7728631283593,100.12916322729583,776.3533161889659
715,-0.2525989436219894,-19.42594793817978,-69.6364801146561,674.6158952397478,-40.76755356896405,458.73735488945664,98.69276201455142,801.5369705709866
716,5.948076065996984,-10.325962447630596,-74.98501824897535,619.3757226898491,-57.48406969613543,461.28590972212015,98.94717782324706,831.2698138115246
717,12.280057230939795,-2.705326401959658,-81.07849930039252,555.1424335345587,-69.902784516271,455.2332917334711,100.95191543103853,865.6556442893686
718,18.633666494602576,3.2652005571714984,-87.87752892579975,481.502737119331,-77.8794689160251,440.5362563796559,104.74943467278968,904.7311555528523
719,24.898551620087584,7.420842230853121,-95.32859090491152,398.2615553497667,-81.34946346062593,417.30046379487817,110.36295573561196,948.4601179070575
720,30.965606920311064,9.607787218307687,-103.3644205873338,305.4741755369944,-80.33108764118599,385.7850881246452,117.79455909238526,996.7278184714568
721,36.728902144874816,9.688377473226184,-111.90485435384304,203.47084254397257,-74.92791914572754,346.40488878237943,127.02366501266458,1049.3357741242867
722,42.08759138929112,7.546331721832149,-120.85814037857745,92.87243975644743,-65.32971048113082,299.72953331495313,138.00596100189614,1105.9968791301562
723,46.947772498735105,3.0918219755941183,-130.12267419999895,-25.403761325442094,-51.811728918136446,246.47998880837474,150.67282395563373,1166.3313036596246
724,51.224265121872726,-3.733782002661094,-139.5890999129884,-150.14892994465097,-34.732344556121404,187.52183102056034,164.93125968303198,1229.863602796101
725,54.84227222518659,-12.953683434564798,-149.14269577449204,-279.878328556372,-14.528748599171319,123.85535970595033,180.664358208804,1296.0216102455029
726,57.73888634181656,-24.552121194304224,-158.66594389004746,-412.85761728079285,8.289244173700936,56.60245741819877,197.73224136511698,1364.1377592249808
727,59.864399890168244,-38.471691134813824,-168.04116977958873,-547.139220802553,33.14727432386157,-13.00980989321079,215.97346190545048,1433.453477585041
728,61.18338027084192,-54.61167927559504,-177.15313082840154,-680.6077627509401,59.41628248958185,-83.66877708829657,235.20680230840554,1503.1272287305453
729,61.67547549132547,-72.8275415540354,-185.89143415875952,-811.0331939773185,86.42393149808964,-153.9987862611415,255.23341741103377,1572.2466013983517
730,61.33592354046841,-92.93163860665173,-194.15267568556223,-936.129906164978,113.46736173338529,-222.58655155810905,275.83926866726006,1639.8445883102947
731,60.17574687094345,-114.69529742772282,-201.84221466470385,-1053.619850847954,139.82700382122465,-288.00890853580165,296.79780989799366,1704.9198587775268
732,58.221620881359584,-137.85222381517926,-208.87553217408123,-1161.2974964795274,164.7811659856748,-348.862458515724,317.8729042919521,1766.4604741896676
733,55.515411517917784,-162.10323192867716,-215.179164214726,-1257.0943664591034,187.6211256245847,-403.79449894968764,338.821975810182,1823.4701786824035
734,52.11338173807512,-187.12219435479523,-220.69124256320697,-1339.1409088670678,207.66647298008178,-451.53450898412876,359.39941636373584,1874.996161179923
735,48.085070074120146,-212.56305390854027,-225.36170929459425,-1405.8235381891238,224.2804641911885,-490.9253394743492,379.360273300151,1920.1570364242766
736,43.51184838415623,-238.06768323611794,-229.15228684835978,-1455.8348365135778,236.88513009066168,-520.9531501636901,398.4642243014609,1958.1697160669908
737,38.48517192288716,-263.2743346277016,-232.03628368245484,-1488.2150885750787,244.97585279742935,-540.7750626008303,416.47981119678394,1988.3738220304847
738,33.104544390876775,-287.82639219712183,-233.9983010265027,-1502.383551411314,248.13507091119098,-549.7434758830843,433.1888594030394,2010.2523360840983
739,27.475233970570706,-311.38112155111986,-235.03388601481583,-1498.158143264721,246.04471912114408,-547.4260372541105,448.390965805284,2023.4473020371674
740,21.705792973868444,-333.6181072039708,-235.1491549522132,-1475.7626003220048,238.4969645505528,-533.6203752273623,461.9079012862954,2027.7696225675263
741,15.905452197951895,-354.24707430474524,-234.3603887489979,-1435.8206008986926,225.40278336458178,-508.3628855415012,473.58774707566664,2023.202325990814
742,10.181479099840365,-373.0148081455567,-232.69358204132894,-1379.3368737275784,206.79793558703486,-471.9310996363844,483.3085676364228,2009.8970941628827
743,4.636603330699251,-389.7109123239747,-230.18391278990708,-1307.6658490276147,182.8459464457695,-424.8394442645771,490.9814192869952,1988.1642938186849
744,-0.633379477877432,-404.1721847560144,-226.87509601525255,-1222.4689392330129,153.83778661508023,-367.8284950853636,496.5525064984497,1958.457191136752
745,-5.54171757100858,-416.28544060369995,-222.8185958233166,-1125.6620282453184,120.18805682046707,-301.8481084181259,500.00432881733786,1921.351417532941
746,-10.01243299492347,-425.9886728207645,-218.07269004202126,-1019.3551894997439,82.42762012835522,-228.0350581895957,501.3557097150789,1877.5210670885767
747,-13.981603562095296,-433.27051327381395,-212.70140403500113,-905.7870195046398,41.19278337506203,-147.68599398212535,500.66066050470516,1827.7130117977613
748,-17.398162116348544,-438.1680364954434,-206.7733474720927,-787.2562253058409,-2.7887013283098017,-62.22666893962239,498.0061015479175,1772.7210817654855
749,-20.22421422431364,-440.76302735586034,-200.36049617047277,-666.0532021492554,-48.714379930881705,26.821529298615552,493.50853137176216,1713.3616438637448
750,-22.43490849425881,-441.1769052981321,-193.5369606082033,-544.3942628128109,-95.72601200702348,117.87666663842514,487.3097941430829,1650.4518290148967
751,-24.01792020091077,-439.56455467024483,-186.37777621306535,-424.36094441382477,-142.92999223312998,209.3318822287581,479.5721416136034,1584.791259080591
752,-24.97262710941612,-436.1073494810463,-178.95774191894066,-307.8464587469622,-189.41856810904304,299.59047984202675,470.47281483988553,1517.147695533383
753,-25.30906604705041,-431.00568083324515,-171.3503260353884,-196.5109155384823,-234.29114781086813,387.0994984185684,460.1983840685836,1448.246653037647
754,-25.04676017285318,-424.4712976562114,-163.62665403022336,-91.74647717199555,-276.67503392560087,470.38087884042153,448.9390841427995,1378.7647354986836
755,-24.213500921344394,-416.7197588458047,-155.85459170361057,5.346870469968392,-315.7449890420735,548.05949278224,436.88337039697495,1309.326268180111
756,-22.844156814607263,-407.9632707639935,-148.09793859075603,93.97470242879947,-350.7411279182554,618.8874776417799,424.2128990482998,1240.5027046781581
757,-20.97956568850028,-398.404151250046,-140.41574872109575,173.65088802796367,-380.98472919170473,681.7645131694203,411.0981086675644,1172.8142605552714
758,-18.665549177182516,-388.2291220992068,-132.86179737549992,244.19024174318918,-405.8916600608444,735.7538620047633,397.69454663178476,1106.7332422598295
759,-15.95206997962148,-377.6045880334076,-125.48421198659133,305.6919763526221,-424.98320527500573,780.0941616258485,384.1400473293942,1042.6885789161881
760,-12.892534578107337,-366.67301317273837,-118.32528253860313,358.51509263719737,-437.8941846453337,814.2070891557981,370.55282851948596,981.0711103441918
761,-9.543227636224886,-355.55045799791185,-111.4214622960996,403.2470181585808,-444.3783293555505,837.7011202193834,357.0305306451168,922.2392290276176
762,-5.9628503599260885,-344.3252931524913,-104.8035641194955,440.66691287001834,-444.3109639963592,850.3716708688002,343.6501834596539,866.5245132879161
763,-2.212124925190486,-333.05806330357785,-98.49715118379491,471.70509289899223,-437.6891053759545,852.1979518807606,330.46904707971817,814.2370229687672
764,1.646578335675405,-321.7824361626573,-92.52311325723171,497.3999922880328,-424.62913935137425,843.3368824831075,317.526241873622,765.6699594970867
765,5.549634688726469,-310.5071395723536,-86.8984105508185,518.8539987640156,-405.3622748068185,824.1144113841821,304.8450543170114,721.1034239578662
766,9.432619303376326,-299.21876381580245,-81.6369568966661,537.1893816578737,-380.2280029893473,795.014582689663,292.4357848238337,680.8070452721339
767,13.230854135034752,-287.88528725870543,-76.75060372891545,553.5053970608817,-349.6658136751101,756.6666680200738,280.2989891746296,645.0412992778138
768,16.880069427753693,-276.4601710743221,-72.2501774273188,568.8375237031388,-314.20543800767916,709.8306676378377,268.4289578127105,614.0573991818649
769,20.317190459581038,-264.88686279534164,-68.14651630624071,584.1196641440151,-274.455900159028,655.3814651537747,256.81727684710427,588.0957070022932
770,23.48124808227012,-253.10354811265825,-64.45145071321029,600.1500447482688,-231.09366371631063,594.2919040041883,245.45632052461454,567.3826914754254
771,26.314399537456893,-241.04799478436962,-61.178670590244494,617.5614644395665,-184.85015118494633,527.6150402943127,234.34253628642216,552.1265370042801
