time,ax,ay,az,gx,gy,gz,accmagnitude,gccmagnitude
0,-6.904930968532402,-238.10710760891283,-119.96470067683748,-26.419628410229766,12.52274643183142,-1.4461569362675193,266.71041905492433,29.448178612767162
1,-6.8897376430734205,-238.73339503028018,-119.8055611837618,-27.559387277856374,13.488761145316136,-0.24615907257230726,267.206839215629,31.152746150786925
2,-6.878530078686347,-239.3523375884896,-119.6529227216839,-28.638961566068744,14.449998961525925,0.9221759030678799,267.69955629657954,32.806429754133276
3,-6.871207819933382,-239.95774794323893,-119.50891584661956,-29.638570356252533,15.402209013007298,2.0470727461107807,268.1838562137812,34.388058385009906
4,-6.8676489401438925,-240.5436678061669,-119.37543440574795,-30.54003889105584,16.34080893991064,3.1173642136212756,268.65513118068674,35.87757468644457
5,-6.867715912621579,-241.10448879313932,-119.25406519265526,-31.327284988722624,17.260878569084685,4.122716270703476,269.108959949979,37.25648127559404
6,-6.871260899637366,-241.63506473716635,-119.14603151184228,-31.986746653203532,18.157175149070653,5.053840666812345,269.5411861916116,38.508251327418115
7,-6.878129950903125,-242.1308113273463,-119.05215409799774,-32.50773501235742,19.024173295062347,5.90268917692111,269.94799270115806,39.61869099063911
8,-6.888165544279254,-242.58778973581735,-118.97283186530827,-32.88269848980788,19.856131671212342,6.662623582443573,270.3259694347215,40.57624193868889
9,-6.901207083945835,-243.0027724489185,-118.90804345719862,-33.1073868002231,20.64718691327625,7.328555599969073,270.672174137504,41.37221377420591
10,-6.917089312900742,-243.37329092776133,-118.85736860492364,-33.18090697794554,21.391473522858046,7.897051540114909,270.98418478496313,42.00093818202239
11,-6.935638953415479,-243.6976653612838,-118.82002631780821,-33.105668029348806,22.08326660669889,8.366397470151297,271.26014279654675,42.459839566234464
12,-6.956670150869377,-243.97501674719115,-118.79492542406824,-32.88721564352893,22.71714253919851,8.73662197473723,271.49878531993227,42.749420181942526
13,-6.979979428211339,-244.2052613383644,-118.78072240852809,-32.533963404596285,23.288151028304444,9.009475140848252,271.6994644685578,42.87316123661423
14,-7.005340900310986,-244.38908754703343,-118.77588206335955,-32.056831845009064,23.79199078317721,9.1883639952255,271.86215171058217,42.83734486482154
15,-7.032502509004795,-244.52791582196932,-118.77873776317091,-31.468811152938162,24.225180129031934,9.278246165815947,271.98742657380274,42.65080503886627
16,-7.061184012429759,-244.6238426385918,-118.78754937790234,-30.7844670427599,24.585213588451612,9.285484944606614,272.0764499291019,42.32461812638696
17,-7.091077323294871,-244.67957033544698,-118.80055752251407,-30.019411896854056,24.870695710977536,9.217670170760476,272.1309229426666,41.87174576645574
18,-7.1218495128118375,-244.69832495419013,-118.8160331565701,-29.189764597872802,25.081444304495452,9.083410419238106,272.15303328705585,41.306643958668786
19,-7.153148436826285,-244.68376447096765,-118.83232168682594,-28.311622458198432,25.218556668760932,8.892102842330258,272.1453904471552,40.64485280418521
20,-7.184610572762726,-244.63987992857696,-118.84788072785804,-27.400567401897558,25.28443432889192,8.653687619461527,272.11095204543074,39.90258128409825
21,-7.215870363770456,-244.57089212516814,-118.86131064989418,-26.471226204718416,25.282763921656734,8.378394288862248,272.0529432129599,39.09630086866734
22,-7.246570258528466,-244.48114675181893,-118.87137721944852,-25.536901293129855,25.218454128881717,8.076487277683603,271.97477130977916,38.24236068600285
23,-7.276370762856778,-244.37501112807342,-118.87702609479437,-24.609284497938205,25.097530763310218,7.7580177670510855,271.8799387219339,37.35663552040729
24,-7.304960104518862,-244.2567758134775,-118.87738948801488,-23.69826147340097,24.926994161636117,7.432588672493263,271.77195681667956,36.45421611078895
25,-7.332063393550978,-244.13056427771372,-118.87178572537017,-22.811809539569214,24.714644746143986,7.109139010858959,271.65426423361396,35.549149085569304
26,-7.357451276888462,-244.00025350877377,-118.85971267475298,-21.955986824839115,24.46888382844787,6.795753272353299,271.53015251606945,34.65423142305815
27,-7.380947970598033,-243.8694079692377,-118.84083612354192,-21.13500606842155,24.198497425987714,6.499500618257111,271.4027017059107,33.78086167205669
28,-7.402438304727831,-243.7412286577012,-118.81497421061819,-20.351382503883176,23.912431152398195,6.226307754676351,271.2747279351084,32.93894749880164
29,-7.4218732147656485,-243.61851819438232,-118.7820789242649,-19.60614206492702,23.6195642540031,5.9808681574891,271.14874424437284,32.13686665623077
30,-7.439273029755599,-243.50366193605606,-118.74221550640047,-18.899073916597356,23.328490658999687,5.766588944518487,271.026934957166,31.381476383935407
31,-7.4547279041570444,-243.39862429059588,-118.6955404674802,-18.229010162634882,23.047314502902996,5.585575168065216,270.91114312520443,30.678164682963452
32,-7.468394860481278,-243.30495871238952,-118.64227892693309,-17.594115524274557,22.783467020059522,5.438649765882201,270.8028699498282,30.030935943103362
33,-7.480491266694752,-243.22382927657384,-118.58270218175872,-16.992170707393903,22.543550958011085,5.325406054608137,270.7032846532941,29.442523018348787
34,-7.491285128804712,-243.1560412054369,-118.51710667192258,-16.420834935921288,22.333217712465316,5.24428865374187,270.6132429384362,28.914517969236467
35,-7.501083072185109,-243.1020772906612,-118.44579564310298,-15.877875635157723,22.157081068490303,5.192698151973375,270.5333118653426,28.447514209184376
36,-7.51021704046684,-243.06213693688272,-118.36906465160396,-15.361356381543706,22.018669713504067,5.1671146263233725,270.4637987180628,28.041253596113954
37,-7.519030523454605,-243.03617465406552,-118.28719166821394,-14.869777799064266,21.920418676120335,5.163235247551239,270.40478135316204,27.694773017758077
38,-7.5278647700487635,-243.02393526266508,-118.20043209634937,-14.402169832804582,21.863697766680584,5.176121632124182,270.3561377131056,27.406546165716687
39,-7.537045250646269,-243.024983776615,-118.10901865518645,-13.958137492880985,21.848873152761588,5.2003532841214835,270.317572654337,27.1746173729269
40,-7.546868729854076,-243.03872880131243,-118.01316580005918,-13.537865406086912,21.875396526533876,5.2301842854634595,270.2886409067289,26.99672541013222
41,-7.557591565167157,-243.06443922319792,-117.91307807971013,-13.142088992930418,21.941915007687385,5.259701150824235,270.26876571585706,26.870415800578236
42,-7.5694200441728325,-243.1012548646167,-117.80896151040747,-12.772041556611258,22.04639409145879,5.282980281748627,270.2572533940792,26.793140465767785
43,-7.582503601332344,-243.14819254062493,-117.70103676173417,-12.429386909874673,22.186245721946943,5.294243635965097,270.25330456990474,26.762343493919
44,-7.596931596097755,-243.20414950199608,-117.58955285570472,-12.116146335519526,22.358453997344192,5.288011073566064,270.2560233730852,26.775531717689827
45,-7.612733979367531,-243.26790652638567,-117.47480024613003,-11.834626731977481,22.55969200606211,5.259247413555389,270.264426105686,26.830328712231747
46,-7.6298856923783145,-243.338132963032,-117.3571224687869,-11.58735399190028,22.78642467498838,5.203501652287118,270.27745111739466,26.924510832435075
47,-7.648314202833156,-243.4133959300492,-117.23692585974914,-11.377012502324527,23.034994137641853,5.117035237637948,270.2939716301332,27.05602408095206
48,-7.66790929139653,-243.49217559070453,-117.1146870216136,-11.206388784995871,23.301685923959568,4.996935914454349,270.3128130833758,27.222981053669148
49,-7.688533996799205,-243.5728878518675,-116.99095778093098,-11.07831527976915,23.582776168063063,4.8412134956027835,270.33277606922223,27.42363802802843
50,-7.710035472403488,-243.6539148536618,-116.86636736869121,-10.995609414676503,23.874561895360674,4.648873916909411,270.3526650419087,27.65635342398049
51,-7.732254524352662,-243.73364243636573,-116.7416214951654,-10.961003412867278,24.17337806411941,4.4199680646268185,270.3713218984168,27.919530235159744
52,-7.7550328969135265,-243.81050275134325,-116.6174979403821,-10.977061536654173,24.47560612742391,4.1556121169475775,270.38766259787974,28.21154633754121
53,-7.778217867398314,-243.8830195870591,-116.4948383485278,-11.046083290127566,24.777679233319564,3.8579765001111586,270.40071449437505,28.530677525739875
54,-7.801664254774525,-243.9498537868326,-116.37453613864557,-11.169993104777449,25.07608875895995,3.530241016151471,270.40965199364206,28.87501850836316
55,-7.8252344161893586,-244.00984616282273,-116.25752073246436,-11.35021894017936,25.36739587772651,3.176514338810483,270.41382830547184,29.242406963803017
56,-7.8487971053206955,-244.06205542496988,-116.14473851441079,-11.587563902902408,25.64825062526121,2.8017170803026272,270.41280126545576,29.63035536204795
57,-7.8722261190255045,-244.10578883405887,-116.03713102821922,-11.88207636182904,25.915419764393956,2.411429147617093,270.40635140935797,30.03599484821072
58,-7.895399478806577,-244.14062361124593,-115.93561096647838,-12.232925095071758,26.165823816259753,2.011704090899685,270.3944907896833,30.456035177408697
59,-7.9181995915019225,-244.16641758450479,-115.84103664926879,-12.638286743725569,26.396582963452786,1.6088553809853186,270.37746147721475,30.886744466826254
60,-7.940514538844484,-244.18330803707514,-115.75418592299465,-13.095253286364574,26.60507109764896,1.2092217796412672,270.3557232176945,31.323952296611292
61,-7.962240421482671,-244.19169821927187,-115.67573062090663,-13.599767396647088,26.78897699994464,0.818920975297514,270.3299302437958,31.76307934421724
62,-7.983284501823282,-244.19223158449265,-115.60621281617469,-14.146593382307536,26.946371419248344,0.44360227287512205,270.30089781586565,32.199196177404076
63,-8.003568698808323,-244.1857545780708,-115.54602408325012,-14.729330855533386,27.075778550809712,0.08821017184775569,270.269559745839,32.627112948130645
64,-8.023032783701908,-244.17326967489345,-115.4953889078836,-15.340477252281225,27.176250008313694,-0.24322901379040304,270.23691890348226,33.04150042504644
65,-8.041636460876434,-244.15588119025182,-115.4543532371218,-15.97154371040561,27.247438785038128,-0.5477858336640724,270.2039933834896,33.43704106907224
66,-8.05935947706929,-244.13473706335077,-115.42277892869107,-16.613226569474126,27.289669984006675,-0.8237613295723737,270.17176152088854,33.8086068244395
67,-8.076199075224993,-244.11097024265672,-115.40034459539987,-17.255633839507915,27.30400440668346,-1.070767350379856,270.141109222535,34.15145817579903
68,-8.092164501032487,-244.0856434051399,-115.3865530763425,-17.888562447209477,27.292290539730708,-1.2897480585068601,270.11278307419445,34.46145698869739
69,-8.107268749460557,-244.05970048838756,-115.38074544622971,-18.501818106847736,27.257200130511986,-1.4829404258239778,270.0873523313132,34.73528381098997
70,-8.121518130157943,-244.03392795846423,-115.38212103767843,-19.08556566954318,27.202242457995077,-1.653775076365912,270.0651822241135,34.97064875874663
71,-8.134900475971765,-244.00892798132466,-115.38976248222541,-19.63069427362407,27.13175268354765,-1.8067223701183803,270.04642013207103,35.166483986006156
72,-8.147372996386776,-243.98510481078443,-115.40266447999893,-20.12917900691234,27.050850390400047,-1.9470918592619313,270.03099528955573,35.323105225331005
73,-8.158850968679161,-243.96266481069443,-115.4197649839928,-20.57441943916584,26.965365598297126,-2.080795913824025,270.0186318717649,35.44233014451059
74,-8.169198639319385,-243.9416296298428,-115.43997758583116,-20.96153550636175,26.881731069334595,-2.214090164042717,270.0088745473055,35.527542394920864
75,-8.17822377542717,-243.92186119799763,-115.46222391181293,-21.2876029246257,26.806841423751326,-2.3533042834596976,270.001124827576,35.583692273649106
76,-8.185677174395218,-243.9030964689031,-115.48546477009138,-21.55181351206786,26.74788130522424,-2.504576486949344,269.99468583906474,35.61722786902459
77,-8.191258081584461,-243.88498923729884,-115.50872876444244,-21.7555502104364,26.71212650336908,-2.6736039910375973,269.98881258217904,35.635954284591044
78,-8.194625918496119,-243.8671559414184,-115.5311371796278,-21.902371740187817,26.706723507249443,-2.865419737587417,269.982764387333,35.64882275007759
79,-8.19541808912338,-243.84922219132372,-115.5519241353063,-21.997907139014178,26.738454334552387,-3.0842031716450484,269.97585618850644,35.66565570237487
80,-8.193273035999052,-243.83086686152126,-115.5704513023346,-22.049665441226512,26.81349456677102,-3.33313009466773,269.96750543273185,35.69681783110518
81,-8.187857241458177,-243.81186089889152,-115.58621690652188,-22.06677011798343,26.937173287527315,-3.6142638719488005,269.95727189622903,35.75284633469734
82,-8.178894530858747,-243.7920984503474,-115.59885927835941,-22.059631417541357,27.113744068077317,-3.9284877894667596,269.9448883046019,35.84405605766878
83,-8.166195801537198,-243.77161848086604,-115.60815569484159,-22.0395723007578,27.346176282323604,-4.275476325413313,269.93028036657296,35.98013670117339
84,-8.149687119282817,-243.75061571997009,-115.61401753128955,-22.018425197887407,27.63597590030267,-4.653701689511151,269.9135755437761,36.169759924192796
85,-8.129433988419738,-243.72944048762935,-115.6164827495006,-22.008117323492087,27.98304454948407,-5.060471253756621,269.89510052258555,36.420213958950995
86,-8.105659625353772,-243.7085876090637,-115.61570655062985,-22.020261840296193,28.38558505582918,-5.491991355500298,269.87536786543876,36.73708244117064
87,-8.078755398698997,-243.68867514541822,-115.61195066969564,-22.065770878068363,28.840060840301625,-5.9434532004554965,269.8550526474615,37.12398257655811
88,-8.049282244701672,-243.6704140380095,-115.60557134802076,-22.154504484765425,29.341215381808105,-6.409137047227531,269.8349600518922,37.58237560472018
89,-8.017962622859232,-243.65457007612997,-115.59700563870362,-22.294967270784934,29.88215639338704,-6.882531394078349,269.81598504137077,38.11145987113332
90,-7.985663201794115,-243.64191993891978,-115.58675555027763,-22.49406204378861,30.45450735546407,-7.356464436229082,269.79906548508626,38.70815377366159
91,-7.953368888580347,-243.6332034095798,-115.57536967796807,-22.75690727973543,31.048626633383684,-7.823245575559123,269.78513050948914,39.367172515294094
92,-7.9221491486066675,-243.62907413360747,-115.56342234070202,-23.086722906557462,31.653891681389617,-8.274815209584421,269.7750462532663,40.081199084627535
93,-7.893117926086927,-243.63005145996658,-115.55149070654377,-23.484786584673014,32.2590429727793,-8.70290134008478,269.7695615659953,40.84114631333942
94,-7.867388863406354,-243.6364759683791,-115.54013081030257,-23.950460387674536,32.85257948196274,-9.099181651569031,269.7692564376166,41.63650331249013
95,-7.846027840803546,-243.64847123402603,-115.52985362883229,-24.481285462827213,33.4231949267938,-9.455449606975913,269.7744960181493,42.45575614781495
96,-7.8300050306423605,-243.6659142097159,-115.52110243659538,-25.07313992913416,33.96024166670649,-9.763782867596888,269.78539295914203,43.286869404747215
97,-7.820148648047839,-243.6884163102201,-115.51423253406143,-25.72045308168169,34.45420722937938,-10.016712036860845,269.8017804827229,44.11781247155491
98,-7.817102399874254,-243.7153168046129,-115.5094941654675,-26.416467012140913,34.89718695873761,-10.207387325539713,269.82319802568384,44.93711201924974
99,-7.821288330859489,-243.74568941244854,-115.50701910389832,-27.15353501745844,35.283335269078655,-10.329740153999682,269.848890509281,45.73441027496846
100,-7.832876391899547,-243.778362150711,-115.50681112425008,-27.923444620631,35.60927752507067,-10.378635944092343,269.877821396978,46.50100730744644
101,-7.851761676101833,-243.81194970376683,-115.50874051814546,-28.717751748660056,35.87446478606228,-10.350013553435245,269.9086989632578,47.23036485185282
102,-7.8775499532847535,-243.84489704103177,-115.51254290054302,-29.528111810501517,36.0814546785042,-10.241006166490362,269.9400147341681,47.918549444323396
103,-7.909551937656348,-243.87553263104618,-115.51782269854849,-30.34659333144054,36.23610350986365,-10.050038114325453,269.97009277544663,48.56459398194664
104,-7.946786670333268,-243.90212919371217,-115.52406179495156,-31.16596060447457,36.34765735630674,-9.776892107895156,269.99714817071384,49.17075933533359
105,-7.987994428108212,-243.92296939419833,-115.53063373321272,-31.9799135930636,36.42873317657925,-9.422741781587456,270.0193525202318,49.74268132325542
106,-8.031659504793648,-243.93641338644235,-115.53682362041849,-32.783276052389816,36.49518491416602,-8.990145303588074,270.0349037282134,50.289393139985606
107,-8.076042878591267,-243.94096494770562,-115.54185345289547,-33.5721263790262,36.56585385546022,-8.482997144752632,270.04209701449673,50.82321898213321
108,-8.119224196998125,-243.93533318190308,-115.54491218847228,-34.34386968005209,36.66220698692352,-7.906436872355609,270.03939411656074,51.35954074592904
109,-8.159151875592585,-243.91848723101202,-115.54518958949946,-35.097253413010186,36.80787153297921,-7.266715915933833,270.0254879227508,51.91644572193611
110,-8.193699576765756,-243.889701951284,-115.54191263829672,-35.83233212010983,37.028078048159045,-6.571025421245552,269.99936013771793,52.51426863708118
111,-8.220726910345999,-243.84859305807345,-115.53438315123373,-36.55038886248184,37.34902814817139,-5.8272903322286025,269.96032999008236,53.1750457053001
112,-8.238141832034193,-243.79514082801887,-115.5220151149291,-37.2538218118401,37.79720600796825,-5.043936543856039,269.90809246788143,53.921901284223964
113,-8.243961955979957,-243.72970201971407,-115.50437024057884,-37.94600422239263,38.39865506134299,-4.229639258125801,269.84274506686177,54.77838932164387
114,-8.236371989488584,-243.65301015878072,-115.48119020938711,-38.631125049377324,39.17824292916092,-3.3930615351022735,269.76480246673555,55.76781226312545
115,-8.213774865737046,-243.566164653954,-115.45242402382006,-39.31401623060215,40.15893853078877,-2.542592495059712,269.6751988297742,56.91253980877042
116,-8.174834886301117,-243.47060928803174,-115.41824887748527,-39.99997145930092,41.36112563913249,-1.68609471266829,269.57527751272636,58.23334914478252
117,-8.118512100744798,-243.36810047010823,-115.37908316144193,-40.69456040609874,42.801976841669756,-0.830669992298604,269.4667679634481,59.74880725555969
118,-8.044087932542807,-243.2606654094265,-115.33559069166216,-41.40344199309628,44.4949109324703,0.01754814902830266,269.3517495999047,61.47471480122984
119,-7.951182454231257,-243.1505502700082,-115.28867589078914,-42.13218062010971,46.44915510126333,0.8535683058269697,269.2326026719803,63.42362990987546
120,-7.839763702408445,-243.04015847013383,-115.23947035822232,-42.886070190683874,48.669430827291144,1.6736759740829794,269.11194650295886,65.60448906234183
121,-7.710149191036491,-242.9319796292878,-115.18931189847123,-43.669972199302606,51.15577911451841,2.4755256690897163,268.99256607863134,68.02234090110227
122,-7.562999523048809,-242.82851027151324,-115.13971754716654,-44.488175697973155,53.90353670395073,3.2581883045855595,268.8773286914332,70.67820706620036
123,-7.399303820997867,-242.73216820589403,-115.09235237942931,-45.34428827146233,56.90347033209252,4.02215313754548,268.7690931767094,73.56908183730799
124,-7.220356655743664,-242.64520331169985,-115.04899591315093,-46.24116781507187,60.14207117223674,4.769284797398699,268.6706150123797,76.68807925749155
125,-7.0277262679607215,-242.56960803008033,-115.01150777016014,-47.180904578801275,63.602006496141215,5.502737065102333,268.58445100425274,80.0247324195356
126,-6.823214112858552,-242.50703108511362,-114.98179398102485,-48.1648614174552,67.26272048407245,6.22682619431416,268.51286735831115,83.56544470917912
127,-6.608806081819077,-242.4586978233512,-114.9617749841246,-49.193777494912595,71.10117106849461,6.946867605342932,268.4577546766834,87.29408713514103
128,-6.386616193377613,-242.4253401782386,-114.95335605604473,-50.26793707341474,75.09268475156038,7.6689805824552435,268.4205529360604,91.1927296528279
129,-6.15882409634956,-242.40713880639885,-114.95840065874347,-51.38740081860447,79.21190657755743,8.399866091723652,268.40218898911337,95.24248793479426
130,-5.927608250097096,-242.40367954918628,-114.97870699491986,-52.552292602030896,83.43381808233322,9.146563101380634,268.40302869383186,99.42446077572428
131,-5.695076945915916,-242.41392607381982,-115.01598794205107,-53.76313036988121,87.73479237081663,9.916189023639738,268.42284544980816,103.72072768606915
132,-5.463199328312516,-242.43621024856682,-115.07185450981056,-55.02118551189303,92.09365274568876,10.715670306810194,268.46080662593357,108.11537160525057
133,-5.2337383368275505,-242.4682413605548,-115.14780295196373,-56.32885154527343,96.49269971521932,11.55146991094364,268.5154789360609,112.59548835524937
134,-5.0081871518265135,-242.50713461686053,-115.2452055094604,-57.690000128603266,100.91867093667608,12.429319337294004,268.58485312725315,117.15214276414382
135,-4.787710409623842,-242.54945852762893,-115.36530443344901,-59.110300830253266,105.36359990979315,13.353963792756602,268.6663874216736,121.78123164958934
136,-4.573091231271145,-242.59129988226874,-115.50920855789214,-60.597481044538405,109.82554214221335,14.328929649728025,268.7570681686887,126.48421629600722
137,-4.364684994818276,-242.62834423852686,-115.67789138926068,-62.16150407666668,114.3091419943382,15.35632341945744,268.85348530281277,131.26869164694054
138,-4.162380689071624,-242.65596924568828,-115.87218952245274,-63.81464649822012,118.82601921375688,16.436670965691384,268.95191958061355,136.14876583225166
139,-3.965570513026308,-242.66934772942054,-116.09280024124551,-65.57146008512105,123.39496091790986,17.56880476201191,269.04843822249074,141.14523138460623
140,-3.773128127190883,-242.66355724630193,-116.34027745348152,-67.44860873267295,128.0419120524624,18.749805837194632,269.13899550087467,146.28551808672947
141,-3.58339571593248,-242.63369278012112,-116.61502553938439,-69.46457646880748,132.79976465731096,19.975005805326052,269.21953495875687,151.6034263030768
142,-3.394179868474818,-242.57497944150873,-116.91729103875892,-71.63924875481463,137.7079530877372,21.23805305290475,269.28609025698785,157.13864827834834
143,-3.202756259314789,-242.48288240860498,-117.24715224616237,-73.9933753207018,142.81186820552585,22.531045684803296,269.334882048007,162.936092648506
144,-3.0058831757008355,-242.35321175017498,-117.60450679921063,-76.54792851013823,148.16210818136412,23.844732172001894,269.3624086472983,169.04503388849744
145,-2.799823996585798,-242.18222007746516,-117.989057387169,-79.3233762546994,153.81358683538465,25.168778811300736,269.36552857311045,175.51811340076287
146,-2.580378650494327,-241.96669122766966,-118.40029585287957,-82.33889316772276,159.8245224682614,26.49210113566188,269.34153332767204,182.4102224071246
147,-2.3429238376744426,-241.70401851593243,-118.83748620056613,-85.61153668557448,166.25533112538747,27.803254325020287,269.2882092077813,189.7772988644831
148,-2.0824615132517486,-241.39227150656558,-119.29964730216362,-89.15541752781415,173.16744847079437,29.09087547748863,269.2038874398095,197.67507145529888
149,-1.793675004043385,-241.03025062462834,-119.78553634649755,-92.98089484276883,180.6221041832542,30.344168360692343,269.0874823959736,206.15778347662436
150,-1.47099230988866,-240.61752917854164,-120.29363424182112,-97.09382614259258,188.67907224585133,31.553419098021617,268.93851797229087,215.27692834358763
151,-1.1086565320682438,-240.15448255320348,-120.82213424143984,-101.49490047361951,197.3954198430266,32.71052935518445,268.75714243683194,225.08002660692478
152,-0.7008037263507709,-239.64230458531335,-121.36893501982588,-106.17908026010758,206.82427684666334,33.809552200661564,268.54413229897233,235.60947196881853
153,-0.24154862467898514,-239.08301152289644,-121.93163925624647,-111.13517306430501,217.01364699673314,34.8472150851006,268.3008860578448,246.90147081961342
154,0.27492137378444964,-238.47943446662586,-122.50755840117552,-116.34554940387885,228.00528078360233,35.82341436771073,268.0294089944107,258.98509638220764
155,0.8542436801264834,-237.83520165705724,-123.09372369563276,-121.78601708983756,239.83362867151746,36.741666439911086,267.7322903518592,271.8814747391049
156,1.5017694059808304,-237.1547122641373,-123.68690283874984,-127.42585660485476,252.52489158199862,37.60950162123914,267.4126742421229,285.60311587120873
157,2.222443949801814,-236.4431034104277,-124.28362111768149,-133.22801612923993,266.09618333601514,38.438788476617326,267.0742254563372,300.1533983332356
158,3.0206801238719594,-235.70621205880678,-124.88018537015883,-139.14945924669297,280.5548169517055,39.245977846191046,266.72109110216877,315.5262113611991
159,3.900225499727949,-234.95053313989158,-125.47270890746678,-145.14165342873804,295.8977234408877,40.052257484223496,266.3578586934364,331.70575327606804
160,4.864026722503878,-234.18317488567166,-126.05713566290619,-151.15118339173742,312.1110084053718,40.883609642146936,265.98951106493803,348.6664804526145
161,5.914094674011153,-233.41181183389577,-126.62926245554365,-157.12047060263873,329.1696487773858,41.77076524066031,265.6213783800391,366.37319741662577
162,7.0513751856372675,-232.644635474614,-127.18475924333423,-162.98857873933522,347.03732990482024,42.749049585449974,265.2590875642524,384.781276298444
163,8.275630189166792,-231.8903020916735,-127.71918832605999,-168.69208472414408,365.66642212582144,43.858115920154845,264.90850966446044,403.83699313777424
164,9.585333767999133,-231.15787705035225,-128.22802441898102,-174.16599571122575,384.9980961086317,45.14156435551449,264.5757058280047,423.47796934052235
165,10.977586874711433,-230.45677468879046,-128.7066781615679,-179.34469364853325,404.96257749330107,46.64644475564551,264.2668728103615,443.63370866829285
166,12.448053837269226,-229.7966931734792,-129.15052580982243,-184.16289031867447,425.4795435364394,48.42264307699904,263.9882891665505,464.226223121052
167,13.990923272355142,-229.18754409478578,-129.5549475610846,-188.55657673990382,446.45866714427785,50.52215170110571,263.7462634748596,485.1707444966811
168,15.598895569708732,-228.6393769178186,-129.91537621008746,-192.46395117355723,467.80031640891366,52.99822580913199,263.5470858408281,506.3765217691943
169,17.26319860188759,-228.16229836646775,-130.2273566324938,-195.82630955139967,489.3964200118007,55.90443012305668,263.3969832677671,527.7477072072516
170,18.97363275146173,-227.7663863135929,-130.48661500480077,-198.58888101590316,511.1315100033988,59.2935836145647,263.3020782123825,549.1843358560254
171,20.718645851331658,-227.46159694134104,-130.6891349609153,-200.70158996785472,532.88395278727,63.216614173234525,263.2683480478955,570.583403172475
172,22.485438319464564,-227.25766310414676,-130.8312364227235,-202.11972534801168,554.5273759763177,67.72134070013666,263.3015816645545,591.8400439284318
173,24.260098591158084,-227.16398120095295,-130.9096519180297,-202.80449867663742,575.932292781408,72.8512064382673,263.4073283902769,612.848811907366
174,26.027768688499417,-227.18948358279482,-130.92159495626342,-202.7234751906051,596.9679167588814,78.64399414467043,263.59083399207213,633.5050545575241
175,27.77283921260817,-227.34249371182895,-130.86481543713117,-201.85086734803116,617.5041484834264,85.130560335596,263.85695880054834,653.706369898759
176,29.479172191742688,-227.63056202803867,-130.73763791881902,-200.16768665493112,637.4137028031622,92.33363154377335,264.21007395377427,673.3541250293457
177,31.130349201684876,-228.06028170823285,-130.53897964107705,-197.66175751852353,656.5743319069682,100.26670951427917,264.6539332248379,692.3550071588386
178,32.709941104357995,-228.63708504732196,-130.26834643432483,-194.32760478701974,674.8710868594947,108.93313380405088,265.19151971510314,710.6225700107935
179,34.20179468365908,-229.3650228990014,-129.92580618193284,-190.166233899525,692.19854995299,118.32534881653356,265.8248688004975,728.0787316076609
180,35.590330474936074,-230.24653142990172,-129.51194143160166,-185.1848283468972,708.4629634545919,128.4244176719354,266.55487112144993,744.6551747731554
181,36.860845296979164,-231.2821924092424,-129.02778496163478,-179.39639288739835,723.5841780436798,139.19981757886396,267.3810621006526,760.2945999397066
182,37.999812456187676,-232.4704953584193,-128.47474427695977,-172.81937245244592,737.4973469495401,150.60954089831972,268.3014072899239,774.9517815535888
183,38.99517226391086,-233.80761190646726,-127.8545226718163,-165.47727597982643,750.1542995240521,162.60051345470956,269.31209537199,788.5943846835556
184,39.83660536956877,-235.2871943158587,-127.16904524065788,-157.39833171930724,761.5245402179179,175.10932765138807,270.40735239994314,801.2035070840698
185,40.515781552222734,-236.90021110851313,-126.42039794871279,-148.61519608829417,771.5958347430312,188.06327362757713,271.57929160090276,812.7739232800517
186,41.026577126428855,-238.63483288041255,-125.61078682072747,-139.16473217440148,780.3743633689461,201.3816382260001,272.81781279622425,823.314020305488
187,41.36525497403562,-240.4763806646896,-124.7425228035229,-129.08786686086805,787.8844404257958,214.9772300210092,274.11056428501234,832.8454284928373
188,41.53060230153672,-242.40734762017343,-123.81803613277752,-118.42952778052984,794.1678177840587,228.7580798681135,275.44297802104825,841.4023641303362
189,41.5240224366535,-244.40750250811737,-122.83992213862697,-107.23865345591314,799.2826071564077,242.62926072657135,276.7983862000576,849.0307129799166
190,41.3495782053965,-246.45408051195304,-121.81101829874548,-95.56826270278945,803.30187059174,256.4947678099105,278.15822403729004,855.7868938787839
191,41.01398556364105,-248.52206360699228,-120.73451001065172,-83.475563328006,806.311939825317,270.2594000613721,279.50231967646477,861.7365493978783
192,40.526557158021845,-250.58454909008393,-119.61406025338077,-71.02207583828415,808.4105327567675,283.83058598381297,280.8092680980557,866.9531153985964
193,39.899096404356584,-252.61320121573056,-118.45395639661201,-58.27374547053022,809.7047390527946,297.12010037623753,282.0568819093833,871.5163230794725
194,39.145743571885205,-254.57877728708763,-117.25926606492021,-45.3010152687208,810.3089468272522,310.0456230167713,283.22270820315356,875.5106857604025
195,38.28277629486038,-256.4517161338729,-116.03599309221714,-32.17883399099275,810.3427789756114,322.5320954432961,284.2845973365896,879.0240185699624
196,37.32836787624566,-258.202773839019,-114.79122409494322,-18.98657515101658,809.9291016960037,334.51283762604146,285.22130660225423,882.146033020581
197,36.30230760617209,-259.80368907251994,-113.533256077101,-5.807847246523786,809.1921596818331,345.93039270077037,286.01311952699217,884.9670409220956
198,35.225687973630365,-261.2278586710527,-112.27169581999482,7.269820180196431,808.2558828957843,356.73707549802634,286.6424601543871,887.5767938644045
199,34.12056402647666,-262.4510032872213,-111.01752257222978,20.155425151108474,807.2423989971047,366.895209874369,287.09448122904485,890.0634760973743
200,33.00959023809199,-263.4518029563612,-109.78310662808558,32.75508260057931,806.2707736055398,376.3770510495469,287.35760560822985,892.5128604039054
201,31.91564020144332,-264.212483054803,-108.58217767804172,44.972757125502916,805.4559879918829,385.16440198579164,287.42400125093206,895.0076287697389
202,30.861414536740263,-264.7193321388696,-107.42973833777893,56.71113972375412,804.9081510349919,393.2479465389152,287.2899716208898,897.6268525376684
203,29.869042747146764,-264.96313454057815,-106.34192003313768,67.87266816770182,804.7319300208312,400.62633565080733,286.9562453078939,900.445620467563
204,28.95968530337509,-264.939502486532,-105.33578035967804,78.36069009667337,805.0261736359898,407.30507520263984,286.428151205069,903.5347977294655
205,28.15314270381322,-264.64909502805295,-104.42904301729031,88.08076665482496,805.8836907295904,413.2952743074966,285.7156687138803,906.9608941794895
206,27.467478453680705,-264.09771424652865,-103.63978342553365,96.94211161087988,807.3911404250924,418.61231981758203,284.83334617662575,910.7860160797003
207,26.918662836651862,-263.2962729548092,-102.98606526033993,104.85915585911985,809.6289833550948,423.2745458315,283.8000850328516,915.0678716201982
208,26.520244059725428,-262.2606323210838,-102.4855354673436,111.75321993566088,812.6714406684523,427.30196558992105,282.638791965834,919.8597973822974
209,26.283052859114402,-261.011312279619,-102.15498762545035,117.55426797691307,816.5864075605632,430.7151274877634,281.37590628495843,925.2107707707752
210,26.21494603751059,-259.57308193851367,-102.00990549562518,122.2027060892464,821.4352718272868,433.5341476592036,280.04081454973164,931.165373127183
211,26.32059377102399,-257.97444109609313,-102.06399991521293,125.65117752356714,827.2725954960742,435.77795968602993,278.66516855707494,937.7636703490055
212,26.601314933619093,-256.2470071665073,-102.32875288740668,127.86629780212031,834.145628767399,437.4638086063027,277.2821260345032,945.0409828342135
213,27.0549641578137,-254.42482416290977,-102.81298291126026,128.83026652301228,842.0936397407158,438.60700281942377,275.92553563410837,953.0275246141323
214,27.675873920341694,-252.5436119306856,-103.52244537345678,128.54229021434725,851.1470596579295,439.22092487066993,274.62908916345185,961.7479023252441
215,28.454854605068952,-250.6399747302903,-104.45948124598267,127.01975296126751,861.3264601692302,439.31729127675965,273.42546459175975,971.2204772805152
216,29.379255065854693,-248.75058868265864,-105.62272655515176,124.29907830263616,872.6413947051107,438.90664282776885,272.3454833979296,981.4566068904135
217,30.43308534135472,-246.9113875022286,-107.00689416829738,120.43623593412056,885.0891488776024,437.9990400024641,271.4173052578147,992.4597934155585
218,31.597201642771786,-245.15676526934135,-108.60263822919023,115.50685852125424,898.6534537668623,436.6049328206923,270.66568174073126,1004.2247770120005
219,32.84955168323741,-243.5188137656237,-110.39650987003336,109.60594604818024,913.3032202337519,434.7361701182593,270.1112885640969,1016.7366151176213
220,34.1654762142166,-242.02661032273613,-112.37101061331222,102.84714668787184,928.9913517662973,432.4071094176691,269.7701532573675,1029.9697907967525
221,35.51806064901514,-240.7055704661268,-114.5047473031371,95.36161376173412,945.6536882056723,429.635784924682,269.65319213760614,1043.8873887900095
222,36.87852917978756,-239.57687799470742,-116.77268973040788,87.29644795930798,963.2081241698077,426.44508749417776,269.76586755049067,1058.4403706202106
223,38.21667299882615,-238.65700353481412,-119.14652960601973,78.81274280364374,981.5539358237689,422.8639067468045,270.10797352627463,1073.566970766348
224,39.501304066279296,-237.95732106983945,-121.59513730584182,70.08325943980668,1000.5713396866089,418.92818226581903,270.6735554174229,1089.192226483608
225,40.700726101206165,-237.48383053624562,-124.0851107325236,61.28976390443272,1020.1212990603015,414.68180848386777,271.4509667138043,1105.2276460324592
226,41.78321489369364,-237.23699328634154,-126.58140847603167,52.62006554960421,1040.0455886589532,410.1773369117785,272.42306395786534,1121.5710151960388
227,42.71750054838842,-237.21168598175544,-129.04805705648178,44.264798844493015,1060.1671267773231,405.47642005151135,273.567538383471,1138.1063407819115
228,43.47324488428204,-237.39727727392778,-131.44891933076607,36.413992605555556,1080.2905868946962,400.649943931943,274.8573805349951,1154.7039325453736
229,44.02150796404713,-237.77783040430157,-133.7485080574676,29.25347192605013,1100.2033064372276,395.77780102902176,276.2614716229074,1171.2206314151051
230,44.335198593673965,-238.33243336755365,-135.91282514498056,22.961140470148795,1119.67651863731,390.9482626927284,277.7452925244254,1187.5002014985384
231,44.38950457794662,-239.0356561371574,-137.9102035155889,17.703196230334896,1138.4669429771782,386.2569202699614,279.2717379178792,1203.3739152951773
232,44.1622995531906,-239.85813144677957,-139.71212523722332,13.63034357601946,1156.3187794052928,381.8051769127023,280.802019070896,1218.661374822563
233,43.63452435991307,-240.76725184674103,-141.29398698084714,10.874078602868321,1172.966159944776,377.6982876514116,282.2966345518517,1233.1716246416067
234,42.79054197526022,-241.72797139832866,-142.6357822390409,9.543142317496466,1188.1361166263728,374.0429638789288,283.71638388217116,1246.7046243102557
235,41.618465564013306,-242.7036955566533,-143.72266939200526,9.720254763577454,1201.5521245204748,370.94458008500476,285.0233950988612,1259.0531553098601
236,40.110458793347696,-243.65723766672315,-144.54539600480075,11.459259500587727,1212.9382702801088,368.50404530834237,286.18213361658053,1270.0052381941464
237,38.263006021628,-244.5518153392221,-145.10055310540244,14.782817868224134,1222.024077347516,366.814428502073,287.1603571273416,1279.34712668905
238,36.077147468171084,-245.35205529315178,-145.3906389290177,19.680792159934967,1228.5499869400942,365.9574542794307,287.9299801856568,1286.8669244200914
239,33.5586714127145,-246.0249718561197,-145.4239196654094,26.109443196063157,1232.273448984253,366.00001114000696,288.46781328939034,1292.3588360970805
240,30.71825248273283,-246.54088319693494,-145.21408466838685,33.991540012554815,1232.9755216178012,366.9908356896514,288.75614531648125,1295.6280197516826
241,27.571522890470867,-246.8742313296337,-144.77970467221036,43.21743938830643,1230.4678165886583,368.95755069552604,288.78314544122674,1296.4959536027989
242,24.139062694005837,-247.00427709606268,-144.1435128728696,53.64714502453509,1224.5995676090254,371.90423898523335,288.5430707693279,1294.8061755335414
243,20.44629609559824,-246.91564898559227,-143.33153919323382,65.11330582025177,1215.2645469058364,375.8097262679357,288.03627774615023,1290.4302009375272
244,16.523283448913425,-246.5987335080425,-142.37213673706418,77.42506498721791,1202.4075185236366,380.62672197806984,287.26904735429787,1283.2733816290504
245,12.404402753798982,-246.04990354758075,-141.2949457729577,90.37263050674997,1186.029900351262,386.2819282894814,286.2532447719298,1273.280439634438
246,8.127919518252487,-245.2715886559945,-140.12984417191248,103.7324048450832,1166.194313199454,392.67717620354745,285.0058424031303,1260.440398740613
247,3.735449412206426,-244.27219704658665,-138.9059336383694,117.27248880363855,1143.027725127659,399.6915891072909,283.5483403154772,1244.7906456417938
248,-0.7286764430502648,-243.06590297768378,-137.65060807174518,130.75836103753147,1116.722950840271,407.1847147000862,281.9061198550105,1226.4198811617227
249,-5.218128936359875,-241.6723153112964,-136.38874417245728,143.9585311090177,1087.538335426937,415.0005117772624,280.1077646790587,1205.469767902365
250,-9.68536283046264,-240.11604349393298,-135.14204567519792,156.64996998405755,1055.7955335563204,422.9720337549782,278.1843791710861,1182.1351397241788
251,-14.082442143537923,-238.42617649235942,-133.9285623793554,168.62313747747592,1021.875383257209,430.92661886306377,276.1689280931883,1156.6627057969247
252,-18.36188676733288,-236.63568896540235,-132.76239448477912,179.6864505268587,986.2119613248165,438.6913786578422,274.0956144763339,1129.34825239257
253,-22.47751757834993,-234.78078767692708,-131.65358244224404,189.6700677127165,949.2849891891578,446.0987715077659,271.99930601913155,1100.532414026738
254,-26.385277573015877,-232.9002101043762,-130.60817313516444,198.42890195216344,911.610828527665,452.99205443196513,269.91501417748486,1070.5951473101622
255,-30.044007518725476,-231.03448649567895,-129.62844505864726,205.84481253422922,873.7323608743469,459.2304226282963,267.87742499450025,1039.9490920124756
256,-33.41615634077536,-229.22517636756973,-128.71326849070397,211.8279676740924,836.2080823200631,464.69366811375437,265.9204767923294,1009.0320415221199
257,-36.46840903318829,-227.51409056128702,-127.85857169286082,216.31740775580514,799.6007621446602,469.2862140675496,264.076977242035,978.2987676525074
258,-39.172218251708756,-225.94251016686036,-127.05788113770339,219.28087548285146,764.4660135894569,472.9404074175081,262.3782509166759,948.2124526620217
259,-41.504229701748955,-224.5504134839883,-126.30290270389344,220.71401003120118,731.3411081585278,475.61897772420417,260.8538079076086,919.2359758907603
260,-43.44659554783129,-223.37572147844432,-125.5841116154473,220.63902558277354,700.7343350944169,477.31659519292464,259.5310241776575,891.8232860659103
261,-44.98717389030331,-222.4535710180983,-124.89132146395738,219.10300803008238,673.1151687941014,478.0604849120299,258.4348249923499,866.4110661097665
262,-46.11961566619746,-221.8156238582001,-124.21420673484992,216.1759655184796,648.9054626626074,477.91007861250864,257.58736416032883,843.4108683083565
263,-46.84334317937864,-221.48941821473218,-123.54275858442286,211.94875833481498,628.471841569377,476.9557097688482,257.00769405957374,823.2018668845986
264,-47.163426929017,-221.49776900440736,-122.86765974307038,206.531012546351,612.1194193760252,475.3163828995825,256.7114244512185,806.1243448914661
265,-47.09036941191458,-221.8582225465864,-122.18057071796252,200.04909236307958,600.086924920613,473.1366733533986,256.7103716061187,792.4740048164715
266,-46.63980592314859,-222.5825718194866,-121.47432531719164,192.64417205184157,592.5432806008214,470.5828391876175,257.0122029897558,782.4971684658427
267,-45.832132990203014,-223.67643929117182,-120.74303861878975,184.47041325619492,589.5856428144542,467.83825099844245,257.6200865150726,776.3869117083493
268,-44.69207520133425,-225.138935807372,-119.98213488368846,175.69322139483072,591.2388828831761,465.09826749823424,258.53235713374926,774.2801628594123
269,-43.248201206654095,-226.96240575460203,-119.1883066098817,166.48752851537515,597.4564601123592,462.56470332821294,259.7422171523452,776.2557790364805
270,-41.532399651595206,-229.1322703904171,-118.35941884947435,157.0360320349776,608.1226145316792,460.4400508282092,261.23748979651015,782.333602212909
271,-39.579325523791105,-231.62698250598248,-117.49437489917095,147.52731094974004,623.0557850721224,458.9216292772396,263.00044778704216,792.4744857803341
272,-37.42582675161316,-234.41810612585482,-116.59296040629977,138.15374406160402,642.0131395606721,458.19584288424255,265.00773966281093,806.5812730176419
273,-35.110360038633374,-237.47053445916663,-115.65568277596029,129.10916786600075,664.69608666526,458.43273111070414,267.2304360357187,824.5007004700001
274,-32.672404036973184,-240.74285766589136,-114.68362161705015,120.58623292258551,690.7566276251612,459.78099001612077,269.6342158523467,846.0261910683624
275,-30.151877177759502,-244.1878892468684,-113.67830395386648,112.77344398740027,719.8043975623941,462.36363010079066,272.1797091937801,870.9014929558421
276,-27.58856697110278,-247.75335607568846,-112.64161501907488,105.85189803303156,751.4142418417894,466.2744147140338,274.8230082472927,898.8251096276725
277,-25.02157757338525,-251.38275224628214,-111.57575146682183,99.99176308353556,785.1341711019359,471.57519492287526,277.5163517824024,929.4554546048814
278,-22.48880294071606,-255.01635101089772,-110.48321880867715,95.34856792335643,820.4935378166433,478.2942238512149,280.20898077699286,962.4166492616749
279,-20.02643371480987,-258.59236231760445,-109.36686916471051,92.05939744780062,857.0112765058409,486.42549785191073,282.8481540783062,997.3048657855866
280,-17.66850663868361,-262.04821626937473,-108.22996975258512,90.23911037370024,894.2040486264681,495.9291350655341,285.38030380300944,1033.6950991875347
281,-15.446505133066587,-265.3219457781519,-107.07628778837808,89.97671473408735,931.594132324575,506.732765319648,287.7523014013416,1071.148234067071
282,-13.389018107238753,-268.3536352237285,-105.91017446777066,91.33205114684688,968.716898263602,518.7338701567977,289.91279765506687,1109.218255530606
283,-11.52146095723793,-271.0868963459632,-104.736629984294,94.33294307048136,1005.127718077575,531.8029791990581,291.81359387035843,1147.4594419310035
284,-9.865858574777455,-273.47032822455384,-103.56133324482664,98.9729757501931,1040.408164167485,545.7876002304902,293.41099757424524,1185.4333727407147
285,-8.440686426438976,-275.4589154778999,-102.3906236599134,105.21005976104647,1074.171380375119,560.516736306854,294.6671144412419,1222.7155899799964
286,-7.260763952456884,-277.0153181419864,-101.23142729054338,112.9659193544101,1106.0665325463349,575.8058242586802,295.55102905568447,1258.901766424162
287,-6.337195247663926,-278.11100819109555,-100.09112490502747,122.12661892634432,1135.7822833719845,591.4619148779457,296.0398302545266,1293.6132557730502
288,-5.677354165112825,-278.7272111357128,-98.97736472931614,132.54420267314794,1163.04927209488,607.2889058308727,296.1194418097104,1326.5019245503433
289,-5.284912912168282,-278.85561623500075,-97.89782778596245,144.0394746598865,1187.6416119474823,623.0926349616543,295.78522569037415,1357.2541889088293
290,-5.15991404191302,-278.49882524195516,-96.85995859312484,156.40589301203028,1209.377444783211,638.6856460293759,295.0423327057037,1385.594200991026
291,-5.298885794990422,-277.6705168694741,-95.87067822353868,169.4144977541524,1228.1186143578275,653.8914527367016,293.9057834922663,1411.2861507721097
292,-5.695000596124692,-276.39531190276705,-94.93609963043701,182.81974142885576,1243.769538551372,668.5481509099393,292.40027099685153,1434.135672167917
293,-6.338276324004719,-274.70833188779756,-94.06126604604376,196.366047836198,1256.2753765965417,682.5112625186573,290.55968344469716,1453.9903668150941
294,-7.215819603491168,-272.65445281374724,-93.24993177385193,209.79488807307064,1265.6195991072414,695.6557372794393,288.4263543979049,1470.739483995862
295,-8.312109553622644,-270.2872645903728,-92.50440100324784,222.85213449349376,1271.8210753787446,707.8770847220238,286.05005437006724,1484.3128185338753
296,-9.609318876601938,-267.66775758074306,-91.82543506779535,235.29543209856323,1274.9307938858014,719.0916570177529,283.4867469497069,1494.6789077965277
297,-11.087666936683137,-264.86276863727204,-91.21223272688366,246.90131356918278,1275.0283291077003,729.236144962756,280.79714139146165,1501.842622423188
298,-12.725797236161664,-261.94323004118496,-90.6624823120402,257.47177987523014,1272.218162445525,738.2663818462406,278.0450824164236,1505.8422526473114
299,-14.5011703295439,-258.98227418399654,-90.17247948499721,266.8400751554869,1266.6259584904672,746.1555712342575,275.2958254354229,1506.7461943393787
300,-16.390463082728353,-256.0532537329258,-89.73730029367184,274.87540470584156,1258.3948906801795,752.8920666372333,272.61425071064133,1504.6493383043774
301,-18.36996601235658,-253.22774095982118,-89.35101636494724,281.48638013005433,1247.6821019228412,758.4768360503516,270.0630727611754,1499.6692646359606
302,-20.415971718287956,-250.57357090980219,-89.00693740288696,286.623026031847,1234.655375217672,762.9207439046844,267.7011016329838,1491.9423416215636
303,-22.505148650547685,-248.1529913012163,-88.69786555004603,290.27724581121225,1219.4900761036613,766.2417775358037,265.5816106305202,1481.6198254526323
304,-24.614895226230843,-246.02097764055137,-88.41634650779093,292.4817157298946,1202.3664130444593,768.4623352685767,263.7508608755503,1468.8640521507361
305,-26.72366943287543,-244.22376529968008,-88.15490343662445,293.30725075126,1183.467044436197,769.6066793698224,262.2468268531631,1453.8448061466406
306,-28.8112886035231,-242.79764181897178,-87.9062413314643,292.85875725379026,1162.9750431847372,769.6986405166715,261.09815940550243,1436.7359408242105
307,-30.85919326610809,-241.7680331999745,-87.66341161023333,291.2699523309138,1141.0722134339321,768.7596423841319,260.3234140848064,1417.7123157523035
308,-32.85066809949919,-241.1489080130287,-87.41992905661209,288.6970840812731,1117.937740727619,766.8070966071538,259.9305639411769,1396.9471043347005
309,-34.77101234703956,-240.94251307272032,-87.16983609271071,285.3119297613855,1093.7471479614974,763.8532002555642,259.9168070460121,1374.6095149848811
310,-36.607651957918485,-241.13944440818966,-86.90771261537839,281.2943769621308,1068.671525575858,759.9041503012533,260.26867056431735,1350.86295900799
311,-38.35018668387459,-241.71904751353887,-86.62863315986145,276.8249059765396,1042.877005405915,754.9597729681344,260.9624052176103,1325.863689357756
312,-39.99036749919382,-242.6501317266239,-86.3280767122673,272.07728951239994,1016.524452397074,749.0135513489626,261.9646567518935,1299.7599264143623
313,-41.52200276000154,-243.8919753427688,-86.00179782103507,267.21181026441656,989.7693551701459,742.0530229170851,263.2333946730703,1272.69147941474
314,-42.94079506803799,-245.39559083614574,-85.64567060568918,262.36926936142135,962.7619030061798,734.060509353024,264.7190730243564,1244.7898639649322
315,-44.24411465507929,-247.1052132278376,-85.25551985393552,257.6660208374663,935.6472411874495,725.0141336114498,266.365993246893,1216.1789056602188
316,-45.43071919610685,-248.9599690240774,-84.82695565836218,253.19022015218704,908.5658971305377,714.8890725728668,268.11383503129616,1186.9758059250255
317,-46.5004340483599,-250.8956782236639,-84.35522971192296,248.99941968770776,881.6543652525168,703.6589877706722,269.8993173833011,1157.2926281808943
318,-47.4538104335377,-252.84673787160133,-83.8351320487907,245.11958324652164,855.0458287509376,691.2975721664188,271.65794884446944,1127.2381409484012
319,-48.291781340175945,-254.74803282505118,-83.26094656155243,241.54552769093152,828.870982264607,677.7801487186704,273.3258230564675,1096.919931135676
320,-49.0153355054837,-256.5368180195011,-82.62648218090698,238.24273528924326,803.2589024731038,663.0852570196506,274.84141384370037,1066.446677528526
321,-49.625228865418464,-258.154516699284,-81.92519408047045,235.1504165094051,778.3378965678553,647.1961672305558,276.1473228794622,1035.9304532559272
322,-50.12175083552829,-259.54838091017797,-81.15040523647875,232.18564198374494,754.2362441876335,630.1022655235005,277.19193291284506,1005.48890900391
323,-50.504560183707646,-260.67296411216495,-80.29563275912538,229.24830834507227,731.0827398685707,611.8002626037488,277.9309205679795,975.2471790027621
324,-50.77260237732779,-261.49136106599116,-79.35501570510935,226.226661853089,709.0069424889019,592.2951877193943,278.3285850092648,945.3393526441092
325,-50.92411721394606,-261.9761772505481,-78.32383226136818,223.00308303756543,688.1390462658907,571.6011458254102,278.35895257621513,915.9093686723712
326,-50.95674202259674,-262.11019919190437,-77.19908546746245,219.4598398245901,668.6093036817884,549.741835170498,278.00662330017894,887.1112171666974
327,-50.86771126621628,-261.88674828760634,-75.98012948069571,215.48454516611045,650.5469522020368,526.7508446979302,277.26733336247656,859.1083748571766
328,-50.654147825434634,-261.30971343964484,-74.66930390931275,210.97510028070056,634.0786211351622,502.6717717420257,276.1482177490386,832.0724459271391
329,-50.31343519143415,-260.39327087228986,-73.27254212567885,205.8439546583003,619.3262198482464,477.5582165696611,274.6677685601152,806.1810258009691
330,-49.843654230723544,-259.16131156467384,-71.79992006578502,200.02156030168592,606.4043318835868,451.4737188455457,272.85549532034213,781.614843943637
331,-49.24406371562636,-257.64660678615405,-70.2661140441758,193.45893802367286,595.4171605382496,424.4917016260034,270.75130316130077,758.5542718573911
332,-48.515600461365345,-255.8897497815944,-68.69073904282838,186.12930994043083,586.4550904235773,396.695481325145,268.4046123371175,737.1753053641918
333,-47.66137268909455,-253.93791653924694,-67.09854244031649,178.02878696405267,579.590947153212,368.1783873780564,265.8732479787618,717.6451474497915
334,-46.687119541114164,-251.8434908116746,-65.5194321399448,169.17613427737564,574.8760540369358,339.04401389434366,263.2221323997752,700.1175306067872
335,-45.60161080829859,-249.6625984068301,-63.98832274352489,159.6116711912138,572.3362000218281,309.40660012532084,260.52181401121425,684.7279265422885
336,-44.416963499602815,-247.4535937449813,-62.54478910332431,149.3953925127803,571.9676459783935,279.3915106799393,257.84686750238455,671.5887963664269
337,-43.14885503205386,-245.27553848913024,-61.23252330672802,138.6044235747873,573.7333058051463,249.135762648252,255.27419990375657,660.7850352631863
338,-41.81661594776622,-243.18670842542298,-60.098598466783905,127.32993783099992,577.5592446637307,218.78852573804622,252.88129688735353,652.3697616144472
339,-40.443188189367554,-241.24316123090816,-59.19254982628127,115.67367370386455,583.3316398466351,188.51150286309183,250.74444342132716,646.3605921325377
340,-39.05493846870597,-239.4973944572569,-58.565289999754604,103.7441875546376,590.8943513801595,158.47908259591392,248.936952665446,642.7365332972361
341,-37.68132045705473,-237.9971197367707,-58.267880506881156,91.65297500417965,600.0472496370124,128.87814319279985,247.52743653944188,641.4356068137575
342,-36.35438451495418,-236.7841754892392,-58.350186121191825,79.5105866795478,610.5454449273384,99.90738330640528,246.57815038012453,642.353313655763
343,-35.10813951002344,-235.8935959271746,-58.85944188053197,67.42286050686883,622.0995579477832,71.77606019345457,246.14344219754383,645.3420280577548
344,-33.97777775316238,-235.35284890878089,-59.8387650018755,55.487395192279166,634.3771597080603,44.702035388606774,246.2683342633088,650.2114009995248
345,-32.99878027348674,-235.18125003617575,-61.32564635178611,43.79040148644841,647.0054954520193,18.90906259595116,246.98726204314465,656.729843866575
346,-32.20592424241906,-235.38955686599846,-63.350459954318524,32.40408571905746,659.5755884211,-5.376698822342177,248.32299436415425,664.6271555187218
347,-31.632217287322977,-235.9797458167353,-65.93503466751184,21.38473100045315,671.6477929600991,-27.930906293850647,250.2857597275223,673.5983435242389
348,-31.307786327330437,-236.9449741789776,-69.09133826650302,10.771629382218793,682.758828150768,-48.53590198149896,252.87260551862542,683.3086654076835
349,-31.25875282339067,-238.26972897569567,-72.82032880439577,0.5869755494158381,692.4302703570585,-66.98609278478648,256.0670176863816,693.3998757830226
350,-31.506131648740617,-239.93016270391905,-77.11103022670633,-9.163235429023185,700.178416793369,-83.09367521334286,259.83882739611397,703.4976131022426
351,-32.064795931289034,-241.89461337809968,-81.9398886063212,-18.48734493204693,705.5253563716849,-96.6945111693755,264.1444281294583,713.219800121555
352,-32.942554315941805,-244.1243028657203,-87.27046196165948,-27.4053238190687,708.0110035240734,-107.65393915919157,268.92732163723434,722.1858686892264
353,-34.139389584535024,-246.5742031162066,-93.05349009793662,-35.94542037798952,707.2057700034457,-115.87228917495025,274.11900377598096,730.0265546616941
354,-35.646907673215765,-249.1940543819081,-99.22738082761606,-44.14042737436092,702.7234732987886,-121.28985994546936,279.6401912716097,736.3939455546146
355,-37.44804277485651,-251.92951292215247,-105.71913496558227,-52.023880160904085,694.2340138103475,-123.89111683844823,285.40237775951755,740.9714066602813
356,-39.517056346614595,-254.7233983547945,-112.44571463049031,-59.6265210705032,681.475303747985,-123.70787963768461,291.3096924750434,743.4829682801748
357,-41.81985479687647,-257.5170037279843,-119.31583784765066,-66.97335807153678,664.2639075871934,-120.8212929755651,297.26101882778346,743.7017371038819
358,-44.314632673351184,-260.25142596540354,-126.23215775999729,-74.0816046519695,642.5038649624147,-115.36240872182474,303.15231442031717,741.4569081484577
359,-46.95282693410476,-262.86887205420055,-133.09375818998956,-80.95971360874759,616.1932170074377,-107.51125911572815,308.8790605603866,736.6390060597342
360,-49.68034611641888,-265.3138980594518,-139.79887147071358,-87.6076144605901,585.4278460423626,-97.49436153649577,314.3387592985453,729.2030755419203
361,-52.43901906123669,-267.5345436637589,-146.2477031599159,-94.01814187662814,550.4023601634868,-85.58066879978917,319.4333904232008,719.1696622273965
362,-55.16819409366309,-269.4833334886403,-152.34523533000808,-100.17951522319503,511.40789820229907,-72.0760584589582,324.0717404285681,706.623562922129
363,-57.806413256793896,-271.11812649611545,-158.00387820608336,-106.07861509370477,468.82688344472723,-57.31653421934273,328.17152088497295,691.7104599123165
364,-60.29308824220214,-272.40280471241044,-163.14584949510962,-111.70471870335483,423.1249022932984,-41.660385073711176,331.66120497601224,674.631670658589
365,-62.57011414704714,-273.3078009499606,-167.7051802118925,-117.05331302235867,374.84001363256215,-25.47960656679051,334.48152725684866,655.637328969242
366,-64.5833712164989,-273.8104709958514,-171.6292723131251,-122.12960370298066,324.56989622950414,-9.150927714568406,336.58661083095495,635.0183605558777
367,-66.28407935202539,-273.895318126299,-174.87996370266418,-126.95137296177137,272.9573104368408,6.953198662560788,337.9447053378582,613.0976261309277
368,-67.6299819871624,-273.55407687127285,-177.4340866119784,-131.55090211827377,220.67438810982603,22.473298078392578,338.53853574160615,590.2205875145668
369,-68.58634331838974,-272.785660189921,-179.28353237864934,-135.97575799265758,168.40627743766495,37.0709655339347,338.3652744770235,566.74582030155
370,-69.12674618612591,-271.5959723213661,-180.4348564639171,-140.28834284959152,116.8346658624837,50.43610468082801,337.43615846836127,543.0356643605686
371,-69.23367880074402,-269.9975909534038,-180.90847127499796,-144.5642203776561,66.62169073703629,62.29314934341372,335.77577959713483,519.4472781153714
372,-68.89889890540702,-268.00932744558907,-180.73748218959855,-148.8893456499658,18.394725104058274,72.40617863189648,333.421083894063,496.324340619542
373,-68.12356525619883,-265.6556807817682,-179.9662264850285,-153.35642911573407,-27.26750803863704,80.58290338763847,330.4201213050329,473.9896149341842
374,-66.9181292932997,-262.96620676821993,-178.64857780624067,-158.06073531199098,-69.84708909345188,86.67754841570567,326.8305934130015,452.73853659738
375,-65.30198501140858,-259.97482648823785,-176.84608139524923,-163.09564361884063,-108.89698521034549,90.59267804663722,322.7182498871039,432.83392278364073
376,-63.302882370204046,-256.7190966899676,-174.62598736642596,-168.54827972810025,-144.04880744718795,92.28001487918071,318.1551852314603,414.501824437506
377,-60.95611860035622,-253.23946078329269,-172.05924993594033,-174.49547268490443,-175.01807866201062,91.74029082595428,313.2180859221453,397.92848204638545
378,-58.30353137538384,-249.57849428729602,-169.21855868779446,-181.00022026964885,-201.6069491694303,89.02215505180283,307.98647486525203,383.25830575346276
379,-55.392326773124616,-245.78015442477067,-166.17646308101442,-188.10877228732548,-223.70439863459785,84.22015295146029,302.54099583188895,370.59278256674895
380,-52.27378224058422,-241.8890409050125,-163.00364356083847,-195.84837940382425,-241.28405881545933,77.47178920900976,296.9617755768298,359.9902123180132
381,-49.00186980242499,-237.9496739028477,-159.76737257050112,-204.22571031318344,-254.3998759108534,68.95369859798102,291.3268961141497,351.4661836879556
382,-45.631847242474294,-234.0057954376234,-156.53019749999174,-213.22591268128977,-263.17989800762103,58.87697023368533,285.7110042990751,344.9947170230739
383,-42.21886487192116,-230.0997010595059,-153.3488660974763,-222.81228079842194,-267.8185193098623,47.48170211847996,280.1840803681238,340.510017939554
384,-38.81663282353253,-226.2716092565113,-150.27350382812625,-232.92649105910232,-268.5675379569465,35.03089941751275,274.8103812590956,337.90880174127545
385,-35.47618878127755,-222.55907591941653,-147.34704262588184,-243.48937087527466,-265.726390017325,21.803867702050102,269.6475684074091,337.05316093611015
386,-32.24479916837067,-218.996460546773,-144.60489184461642,-254.4021735925599,-259.6319118708491,8.08928677898051,264.7460236270507,337.7739546513351
387,-29.16501886632964,-215.61444990339697,-142.07483522556382,-265.548338431961,-250.64796053211694,-5.821822861476185,260.14835112306724,339.87469834470636
388,-26.273926394429644,-212.43964386277378,-139.7771323911194,-276.7957179468935,-239.15519046246578,-19.643014226190697,255.88905903481188,343.1359246753644
389,-23.60254384814609,-209.49420732314596,-137.72479960666772,-287.9992537351201,-225.5412496327836,-33.098980958803736,251.99441030598328,347.31997252660295
390,-21.1754442099492,-206.79559142185724,-135.92404214198615,-299.0040725122686,-210.1916199343,-45.931562907980165,248.48243008781955,352.1761426853124
391,-19.01054311010621,-204.3563268148874,-134.37480935690778,-309.6489587071576,-193.48128955846622,-57.90500161139599,245.36305526073758,357.44613803266435
392,-17.11906778081329,-202.1838915930234,-133.0714434826906,-319.7701376350907,-175.76740882419665,-68.81029406248032,242.6384109708075,362.86968592271535
393,-15.505692715973924,-200.28065647053407,-132.00339384864685,-329.2052775954145,-157.38304643683134,-78.46853812696916,240.30319924228317,368.19022286389384
394,-14.16882915065895,-198.64391007417618,-131.15596992352843,-337.79759337915937,-138.63213008552805,-86.73321256097739,238.34518556701474,373.1605080225231
395,-13.101053554846276,-197.26596724419915,-130.5111088911374,-345.39991146451524,-119.78562309570478,-93.49138473654153,236.74577060464594,377.5480232441723
396,-12.289658624126796,-196.13436302718762,-130.0481364084809,-351.8785421896216,-101.07895692060588,-98.6638860743533,235.4806354801544,381.1400139775728
397,-11.717308631454095,-195.23213441710138,-129.74450252709514,-357.11679916904626,-82.71070713652595,-102.20453574495981,234.52045046687948,383.7480286046332
398,-11.362779472372528,-194.53819093143537,-129.5764782928407,-361.01801265682155,-64.842468360273,-104.0985253732024,233.83163801144678,385.21182415525186
399,-11.201762340724924,-194.0277738587345,-129.5198021040373,-363.5079015521762,-47.599851849610815,-104.36010025213967,233.37718204301584,385.40252472579243
400,-11.207708851773912,-193.67300241858607,-129.5502684064721,-364.53619708037036,-31.074499766352705,-103.0296858826395,233.11747620896045,384.22494481052274
401,-11.35269482752707,-193.44350291832052,-129.64425461664655,-364.07744756045753,-15.32698379762488,-100.17061320059274,233.01120385294467,381.6190218724979
402,-11.608280050024462,-193.30711409036326,-129.77918505527413,-362.13097502639556,-0.390434671643375,-95.86559279684941,233.01624191611492,377.56033857936274
403,-11.946342012128213,-193.23065820761803,-129.93393289053196,-358.7199973656217,13.725265614788894,-90.21307914028681,233.0905793898706,372.05975238063706
404,-12.339862887994439,-193.1807636322849,-130.08916251059898,-353.889970768102,27.028904570853307,-83.32365172832236,233.19323866762522,365.16218560846
405,-12.763650556187649,-193.12472065565058,-130.22761540066406,-347.70624386508626,39.54314899665182,-75.31652272240116,233.28518555912356,356.94466055153003
406,-13.194976554404928,-193.03134930867458,-130.33434265593817,-340.251144872332,51.29971347728505,-66.31626153154893,233.33021133050912,347.5136890612937
407,-13.614116269505324,-192.87185555809654,-130.39688692601365,-331.620644801183,62.33464554789123,-56.44980747871355,233.29576827371164,337.0021437749729
408,-14.004779368933999,-192.6206510813504,-130.40541596367288,-321.9207523988672,72.68386980681024,-45.843823359321966,233.15373915936124,325.56574706669414
409,-14.354421413518411,-192.25611172584627,-130.35280906019088,-311.26379968420997,82.37911505347084,-34.622426156014996,232.88112057843236,313.37931413169423
410,-14.654430778060116,-191.7612508614965,-130.23469659746888,-299.76477129829505,91.44432889418063,-22.905316689906275,232.46060074407592,300.6328787106262
411,-14.9001884764312,-191.1242860621795,-130.04945199497723,-287.53781762687197,99.89266388411846,-10.80631751657636,231.88101389844684,287.52781512728586
412,-15.091002221907033,-190.33908070708563,-129.79813476369506,-274.69307255515736,107.72409861019378,1.5676822962184218,231.1376560429329,274.27305038459826
413,-15.2299199666039,-189.4054459467202,-129.484383404533,-261.33387389724504,114.92373652082242,14.117386052100276,230.23245019506237,261.0814372556917
414,-15.323432137942685,-188.32929277175933,-129.11425755526133,-247.55446014433645,121.46080509593088,26.751370597942657,229.17395357042415,248.1663359196444
415,-15.381075664437956,-187.1226283291301,-128.69602994393506,-233.4381931226662,127.2883584330731,39.38601584161394,227.97720362129266,235.7384298587424
416,-15.414956404826553,-185.80339487107753,-128.23993010425468,-219.05633397093072,132.34366777817806,51.94511586320754,226.66340434848155,224.00278322226197
417,-15.439209447755008,-184.3951537060547,-127.75784332613375,-204.46738047283887,136.54926717842673,64.35921210701946,225.25945856865124,213.1561328536038
418,-15.469418687917932,-182.92662025965677,-127.26296999545329,-189.71695742255505,139.8146055357356,76.56469653005107,223.7973558860084,203.3843991503296
419,-15.522018016732469,-181.43105986850918,-126.76945237328798,-174.83823796818334,142.0382422758974,88.50274000533602,222.3134300304751,194.86039578273656
420,-15.613696406901568,-179.94555727652994,-126.29197786533237,-159.85286208987202,143.110512083367,100.1181084149793,220.8475029778845,187.74171862068803
421,-15.760828200183155,-178.51017605708338,-125.84536963998511,-144.77230777873504,142.9165750173722,111.35793522778575,219.44193676941921,182.16879838497118
422,-15.978948195988789,-177.16702733192759,-125.44417676688111,-129.59966038037714,141.33976182066039,122.17052429828728,218.14061703026732,178.263108654989
423,-16.28228889585808,-175.95927007334666,-125.1022767613789,-114.3317154118262,138.26511999089288,132.5042593597309,216.98789470401937,176.125529773322
424,-16.68339460325099,-174.93006778234553,-124.83250358444458,-98.96133974097283,133.5830636501596,142.30669636976717,216.02751436164525,175.83487865468896
425,-17.192823996240676,-174.12152827231486,-124.64631372056229,-83.48000550022735,127.1930289752131,151.52391080920245,215.30155845967613,177.44662348143922
426,-17.81894924747562,-173.57365458810236,-124.5535017158152,-67.88040098140203,119.00703687588123,160.10016386965611,214.8494369327494,180.9918100927469
427,-18.56785583275483,-173.32333577311164,-124.5619743246754,-52.15901378245542,108.95306612480746,167.97793923470505,214.70695042728914,186.47623334388985
428,-19.443343019628553,-173.4034062479979,-124.67758930342346,-36.31857464305746,96.97814390199396,175.09838625756987,214.90545337309453,193.879891912098
429,-20.447020832542737,-173.84180188372025,-124.90406129498662,-20.37024688818419,83.0510672893178,181.40218638221046,215.4711400916999,203.15676900872526
430,-21.578495227376074,-174.6608392935127,-125.24293362852073,-4.335447410425438,67.16467884477346,186.8308382774989,216.4244733992011,214.23498391666516
431,-22.83562950118307,-175.8766422809357,-125.69361155549656,11.752808263719317,49.337631787830624,191.32833386683734,217.77977076637475,227.01735940220266
432,-24.214866768792394,-177.49873563306977,-126.25344971277487,27.84913128584421,29.615594987316918,194.84317270028913,219.5449581090988,241.38244669538022
433,-25.711595669405558,-179.52982145771077,-126.91788463817592,43.895629874890346,8.07186415314109,197.33063663039823,221.7214957708072,257.1860417743483
434,-27.32053936871962,-181.96574703277423,-127.6806020474544,59.82247290682644,-15.192637335574625,198.75522172828045,224.30447531031805,274.26321349547516
435,-29.036146604646834,-184.79566580941074,-128.53372824552144,75.54916172735933,-40.04996738736142,199.09310157983498,227.2828794441587,292.430845802738
436,-30.852963214107564,-188.00238514923876,-129.46803536637327,90.98648641073066,-66.34636682342953,198.3344776493291,230.63999116635478,311.4906736961537
437,-32.765963339529186,-191.5628861532327,-130.47315103699367,106.03909995207621,-93.90402142374074,196.48566049940183,234.35393210241023,331.23276733960097
438,-34.77082128528224,-195.44899320434257,-131.5377645055206,120.6086000989557,-122.52333928039167,193.570722388242,238.39830503895865,351.43939269648536
439,-36.86410770666551,-199.62816417594613,-132.64982320315372,134.59696739747733,-151.98568845367808,189.63256876398657,242.74291172558713,371.8891528809411
440,-39.04339738329739,-204.06436711152446,-133.79671600563145,147.91017339685544,-182.05653330057763,184.7332942698971,247.35451475806988,392.3612945738873
441,-41.307280081501084,-208.71900591920468,-134.9654420016262,160.46174822953492,-212.48890420189917,178.9537178063782,252.19761181967777,412.64005050486026
442,-43.65527067751868,-213.55185653616257,-136.14276619865456,172.17608460799156,-243.0271339744487,172.3920296091108,257.2351918911403,432.5188833945683
443,-46.08761948917161,-218.5219762551947,-137.31536588994757,182.99125739337833,-273.41079402947895,165.16152896674333,262.4294461164141,451.8044991974162
444,-48.60502839140092,-223.58855232165521,-138.46997269579273,192.86115504441656,-303.3787635003153,157.38748133240813,267.7424103401606,470.3205075588307
445,-51.208282672526344,-228.71166095365706,-139.5935150892308,201.75675117097643,-332.673364683033,149.2031750707205,273.13652121478947,487.91062417377174
446,-53.89781281474096,-233.85291381797998,-140.67326460230095,209.6663897869931,-361.0444981954219,140.7453076913125,278.57507263300965,504.4413318485605
447,-56.67320458574175,-238.9759750194238,-141.69698635215153,216.59501440062803,-388.2537115139969,132.1488761181436,284.022563777464,519.803942893631
448,-59.53267996169519,-244.04693747191493,-142.6530914995645,222.56233570600477,-414.0781353593676,123.54178285828223,289.4449342198608,533.9160332816401
449,-62.47257518252469,-249.0345529965144,-143.5307862619038,227.60000151038724,-438.3142241767102,115.03939811479317,294.80968532654856,546.7222470241339
450,-65.48684524802005,-253.9103155592853,-144.32020983274614,231.74790093662875,-460.7812402206132,106.73933586940855,300.0858908967142,558.1944955672051
451,-68.56662589466609,-258.6484016766753,-145.01255263582308,235.04979749520143,-481.32442604896517,98.71670923885105,305.24410361721175,568.3315997456294
452,-71.69988400665059,-263.2254763184718,-145.6001469352388,237.54853705543172,-499.81781769363033,91.02012673072953,310.25616765217444,577.1584392225512
453,-74.87118511727041,-267.6203770239104,-146.07652362494545,239.28111285646526,-516.166659693723,83.66867584432308,315.09495160627,584.7246850847572
454,-78.06160207925114,-271.81369387727756,-146.43643151937806,240.27388782649265,-530.3093920332362,76.65011268012975,319.7340203475861,591.1031947204482
455,-81.24878234221133,-275.7872686163855,-146.67581820115336,240.53827352854944,-542.2191859760469,69.92043468533332,324.1472686973598,596.3881444440322
456,-84.40718298648193,-279.5236420786156,-146.7917741012733,240.06714534523337,-551.9050092774219,63.404958086228014,328.30854435126935,600.6929655657138
457,-87.50847330339182,-283.00548464942284,-146.78244376149723,238.8322366644019,-559.4122005443106,57.000953217101554,332.1912908994822,604.1481354427849
458,-90.52209494819272,-286.2150485405059,-146.64691005223537,236.78270366691208,-564.8225280245227,50.58181283716315,335.7682437993586,606.8988585470184
459,-93.41596016569022,-289.13368291967294,-146.3850585021319,233.84499082589144,-568.2537012057944,44.00264504957036,339.0112121638427,609.1026556350826
460,-96.15725989069394,-291.7414527159462,-145.99742991006022,229.92406020409,-569.8582960808334,37.107098910301616,341.89097705494373,610.9268630082449
461,-98.7133462269495,-294.0168990906396,-145.48507012253359,224.90597993757532,-569.8220484299355,29.735152845116016,344.3773326021365,612.5460292088277
462,-101.0526484683273,-295.9369738933117,-144.8493863020788,218.66180285653934,-568.3614654173778,21.731528929608142,346.43928974357146,614.139183737035
463,-103.14557892872266,-297.47717189267485,-144.0920191218882,211.05260738959288,-565.7207057337384,12.95434455772,348.0454538901381,615.8869424324344
464,-104.96538472650478,-298.6118737239007,-143.21473975031626,201.93552060742468,-562.1676843734925,3.2835805559315663,349.16457784263633,617.9684089580518
465,-106.48890443162135,-299.3149003312804,-142.21937861857114,191.17049754780894,-557.9893720473211,-7.371066369431768,349.76628056819004,620.5578339586248
466,-107.69719387103012,-299.56026717932497,-141.10778944081414,178.62759190222582,-553.486282879259,-19.063367766737088,349.8219116232314,623.8210054091388
467,-108.5759927892112,-299.32311438399904,-139.88184720189673,164.19442142863048,-548.9661779204015,-31.805171310392268,349.305530732311,627.9113668110884
468,-109.11601282602804,-298.58077788821174,-138.5434739461024,147.7835086148291,-544.73705504559,-45.56276382849105,348.1949631533495,632.9658939887629
469,-109.31303701379038,-297.3139577100945,-137.09468245371667,129.3391653194947,-541.0995456259343,-60.25524482074333,346.4728850721853,639.1008044915976
470,-109.16783160528234,-295.5079328220288,-135.53762621676816,108.84359161897085,-538.338892006696,-75.75507242804085,344.127890293415,646.4072230592183
471,-108.68588245277161,-293.1537685714837,-133.87464488039024,86.32187558559576,-536.7167340366793,-91.89083788703704,341.15549021883044,654.9469782699705
472,-107.87697968378771,-290.24946156730704,-132.10829731171697,61.84561296098522,-536.462983861191,-108.45221224268764,337.5590030759387,664.7487540858853
473,-106.75468433703705,-286.80096846690117,-130.24137903940192,35.53491341085093,-537.7681107226028,-125.19689754529172,333.3502945691536,675.8048586406958
474,-105.33571688296095,-282.82306900259755,-128.27692590466177,7.558622077917201,-540.77618485252,-141.85931082393716,328.55033936509057,688.0688931934882
475,-103.63930911180414,-278.3400196860753,-126.21821015615198,-21.867340662702368,-545.579034427649,-158.16063872673496,323.1895801571886,701.454598855848
476,-101.68655816735732,-273.38596260669124,-124.06873800431136,-52.483535276355425,-552.2118464556065,-173.8198285452224,317.3080680983932,715.8361222054868
477,-99.49981591213039,-268.005063156068,-121.8322585179765,-83.9923815296211,-560.6504898303357,-188.5650311210171,310.9553751570351,731.0498727155606
478,-97.10213982990032,-262.25136089345995,-119.51279283381729,-116.06519936676561,-570.8107602604385,-202.14498579678911,304.1902755699708,746.8980505393552
479,-94.51682437080267,-256.1883287283733,-117.11469027256612,-148.3506720634041,-582.5496504036228,-214.33983896952404,297.0802001410464,763.1538134515818
480,-91.76702452621923,-249.88814678840885,-114.64271454073145,-180.48442225894547,-595.6686447642079,-224.97091620864558,289.70047365051045,779.5679403047773
481,-88.87547665744627,-243.43070821492125,-112.10215930505512,-212.0993362130493,-609.9189379900404,-233.9090217145644,282.1333518562901,795.8767480432166
482,-85.86431531115274,-236.9023838994555,-109.49898867634506,-242.83623218061382,-625.0083853476345,-241.08091456792306,274.46688001773225,811.8109392017467
483,-82.75497911709137,-230.39458112026807,-106.83999502112991,-272.3544462068953,-640.6099207262215,-246.47370340324255,266.79359913155406,827.1050012016057
484,-79.56819410785093,-224.00213678634367,-104.13296425134857,-300.3419036724114,-656.3711231829426,-250.13700315614355,259.20912895207573,841.5067480378801
485,-76.32401913480928,-217.82158943228822,-101.38683727746424,-326.52425824013596,-671.9245782774091,-252.18280219548558,251.81065833492758,854.7865873199895
486,-73.04193562280149,-211.949375213465,-98.6118554779768,-350.6727120625485,-686.898664090029,-252.78308863686726,244.69537348540683,866.7461084900414
487,-69.74096278976441,-206.47999212379764,-95.81967766319461,-372.6101825197503,-700.9283915733099,-252.16537514224882,237.95885346085697,877.2256188651402
488,-66.43977966558019,-201.50417408024651,-93.02345601678688,-392.2155510058063,-713.6659419874279,-250.60633763811936,231.69346026021037,886.1103007456172
489,-63.15683669532309,-197.10711317079395,-90.23785900529126,-409.4258165918695,-724.7905681968879,-248.42384228930928,225.98674873695688,893.3347233054634
490,-59.91044225572302,-193.36676486145285,-87.47903052426422,-424.2360779661229,-734.0175599448013,-245.9676755741799,220.91991998382423,898.8855153091721
491,-56.718812831944504,-190.35226765387839,-84.76447683420271,-436.6973748281063,-741.1060147851365,-243.60931492050022,216.56634107529126,902.8020860100793
492,-53.60007956815234,-188.12250580978406,-82.11287618368144,-446.9125270789835,-745.8652047384763,-241.73108391463558,212.99015421264102,905.1753675497351
493,-50.57224800526846,-186.72484140379973,-79.54381027254792,-455.030208219456,-748.1593818132443,-240.71502910594003,210.2449992557772,906.144637238668
494,-47.65311164315234,-186.19403992383627,-77.07742158130773,-461.2375705324704,-747.9109210245986,-240.931837617287,208.37287489717508,905.892556794317
495,-44.86012316038803,-186.5514114670393,-74.73400573131057,-465.7517978821929,-745.1017559205726,-242.7300890885072,207.40316469504842,904.6386341332876
496,-42.21022943885175,-187.80418690622093,-72.53355305493766,-468.81099385152214,-739.77311814828,-246.4261052370388,207.3518542740265,902.6313700324679
497,-39.7196779101326,-189.9451450793427,-70.49525795810636,-470.6648178645014,-732.023648310269,-252.29462897554507,208.22096487624592,900.1393965979586
498,-37.40380228629763,-192.95250310453147,-68.63701785835413,-471.5652619232992,-722.0059981600191,-260.56053555575545,209.99822593044107,897.4419467867193
499,-35.27679559213488,-196.79007744858615,-66.97494496037604,-471.75791964888435,-709.9220908787671,-271.39175237071333,212.65700536363056,894.8190134336577
500,-33.351477682241594,-201.40771849344054,-65.52291367758434,-471.4740427378943,-696.0172434963926,-284.893541870057,216.15651111723784,892.5415613203554
501,-31.639063310865613,-206.74201612666891,-64.29216431558001,-470.92361377157624,-680.5733811723741,-301.1042818815374,220.44227099586251,890.8621462519966
502,-30.14893567052442,-212.71726839341176,-63.290980174382746,-470.2895948969911,-663.9015861897882,-319.99285686632425,225.44689093084122,890.0062714204348
503,-28.888429475955746,-219.24669962055026,-62.524451031245235,-469.72344529207334,-646.3342256524949,-341.45774955629673,231.09108439861396,890.1647752293645
504,-27.862627348632728,-226.23390887251134,-61.99433144685713,-469.3419412807634,-628.2168926451634,-365.32789287554124,237.28495849653999,891.4874988175154
505,-27.074173442079,-233.57452430522193,-61.698997753921724,-469.2252839418413,-609.9003784970907,-391.36530578036303,243.92953531542585,894.0784285759628
506,-26.52310875646785,-241.15803396182935,-61.63350314605904,-469.41643995569854,-591.7328716863099,-419.2694935155638,250.91848080664033,897.9924515073585
507,-26.206733204340214,-248.8697586898442,-61.78972623811015,-469.92163069599036,-574.0525545795603,-448.68354393952393,258.14000725148355,903.2338013912012
508,-26.119500036309905,-256.59292815557023,-62.15660504482273,-470.71186093940895,-557.1807447111374,-479.20179951633787,265.478909738424,909.7562135193391
509,-26.25294859550347,-264.2108166398811,-62.720445573244575,-471.7253618919163,-541.4157037495539,-510.3789327129019,272.81869198120467,917.4647475927193
510,-26.59568147733656,-271.60889187274245,-63.46529201977832,-472.87081378523965,-527.0272146579002,-541.7402042583661,280.04373276699755,926.2191842039459
511,-27.13339198826606,-278.6769281067862,-64.37334380270555,-474.0312106778157,-514.2520049070687,-572.7926415099514,287.0414417655092,935.8388511231933
512,-27.84894723812803,-285.31103429458426,-65.42540339031694,-475.0682329651752,-503.2900698096618,-603.0368394952155,293.7043526960443,946.1086915306793
513,-28.722531180578773,-291.415549729541,-66.60133820389974,-475.82699975029254,-494.30192455726115,-631.9790611906208,299.9321030543237,956.7863478131605
514,-29.731850501473065,-296.9047628117677,-67.8805398118935,-476.1410818721545,-487.40678693730837,-659.143297483819,305.6332527220401,967.6100027464977
515,-30.852404641212065,-301.70441357233153,-69.24236420798537,-475.8376649500648,-482.6816666860038,-684.0829420660987,310.7268986969597,978.3066962417249
516,-32.057819545091945,-305.7529468580164,-70.66653831332226,-474.7427580256054,-480.16131441544417,-706.3917426644771,315.1440495520533,988.6008215331817
517,-33.32024294218737,-309.0024901453035,-72.13352007236777,-472.6863459640034,-479.83896540525285,-725.7137076733161,318.82873058125466,998.2225009845818
518,-34.610796994741676,-311.41953752172134,-73.62480249307652,-469.5073830290464,-481.66780262961964,-741.7516762737436,321.7387985816733,1006.9155497826134
519,-35.90008197458577,-312.9853293439119,-75.12315540407391,-465.0585223003358,-485.56305891326997,-754.2742997808859,323.84645367454465,1014.4447558735297
520,-37.15872217787136,-313.69592517625165,-76.61280235814124,-459.2104725639113,-491.4046784952945,-763.1212308397347,325.13844415818966,1020.6022355969754
521,-38.357942767871556,-313.56197526628654,-78.079534009552,-451.8558734011269,-499.04046164472277,-768.2063739356156,325.6159685895688,1025.212665642333
522,-39.47016410278194,-312.6082025281219,-79.51076328617383,-442.9125835831588,-508.2896206882538,-769.5191145645206,325.29428663304265,1028.1372427801596
523,-40.4695987518622,-310.87261267943944,-80.89553106780753,-432.3262898877855,-518.9466804406103,-767.1235135909659,324.20205645018063,1029.2762818869435
524,-41.33283580194065,-308.40545502428483,-82.2244730204603,-420.0723629198254,-530.7856592791285,-761.1555242477838,322.38042150962,1028.5704261561991
525,-42.03939693335292,-305.2679606580325,-83.48975851969362,-406.1569110601752,-543.5644680520646,-751.8183571475251,319.88187384428363,1026.0005054022317
526,-42.57224894497957,-301.53088877477074,-84.68501176455231,-390.6170105201713,-557.0294623651218,-739.3761792837048,316.76892427502406,1021.5861338545416
527,-42.918257953186284,-297.2729153485097,-85.80522397794513,-373.52011681887393,-570.9200800191815,-724.14638352762,313.11261321354937,1015.3831846816519
528,-43.06857142790356,-292.5789016608097,-86.84666443788092,-354.9626901892958,-584.9734905450102,-706.4907042356697,308.99089839205914,1007.4803135989674
529,-43.0189155802868,-287.538082741084,-87.806796899715,-335.0680942605326,-598.9291792215566,-686.8054817196387,304.48695801876227,997.9947283637199
530,-42.76979739138007,-282.24221748269144,-88.68420643545359,-313.98385289235796,-612.5333849437247,-665.5113932382866,299.68744908632607,987.0674149268962
531,-42.32660277547756,-276.78374272831473,-89.47853979670161,-291.8783722395091,-625.5433108353437,-643.0429708477645,294.6807606177369,974.8580345724333
532,-41.69958500239736,-271.2539728414654,-90.19046044723383,-268.93725205477364,-637.7310291806427,-619.8382173589284,289.55530049469564,961.5397000078841
533,-40.903740522822076,-265.741384253406,-90.82161778111055,-245.35932104525514,-648.887008213168,-596.3286117267073,284.3978523415915,947.2938233115516
534,-39.958572605717634,-260.33002138931266,-91.37462886918735,-221.35253584437646,-658.82319730042,-572.9297657419188,279.29203594511733,932.3052066259875
535,-38.88774643056041,-255.09805644887135,-91.85307028425451,-197.12988223606268,-667.3756184690469,-550.0329566221337,274.316901027821,916.757519358846
536,-37.71864217773463,-250.11653091835535,-92.26147700577135,-172.90541102707036,-674.4064250427805,-527.9977172648887,269.54567994936673,900.8292751710875
537,-36.481815045605714,-245.4483015718031,-92.60534496150427,-148.89052963481458,-679.8054012781436,-507.145620172832,265.04472015820227,884.6903898375059
538,-35.210373028008064,-241.1472082689324,-92.8911333263645,-125.29065411706583,-683.4908894028009,-487.75534483221503,260.872612119477,868.4993686481067
539,-33.939284952928965,-237.25747529307307,-93.12626227697504,-102.30230516515556,-685.4101420815447,-470.05907329333513,257.0795232547103,852.4011407290467
540,-32.70463294951945,-233.8133523819346,-93.31910160242683,-80.11070623817037,-685.5391093386579,-454.24021567516303,253.70674330981822,836.5255287730868
541,-31.542825161042437,-230.83899590072446,-93.47894549192016,-58.887914183236354,-683.8816799731763,-440.4324267880025,250.7864414758016,820.9863174810137
542,-30.489785901917305,-228.34858473279093,-93.61596896974824,-38.79148460659108,-680.4684090692431,-428.719837931882,248.3416304335289,805.8808638066802
543,-29.580141315399334,-226.34665956215028,-93.74116177986288,-19.963647925063082,-675.3547754404572,-419.1383957677656,246.38632735808096,791.2901778712308
544,-28.84641885338953,-224.828668540019,-93.8662359456835,-2.5309486099668925,-668.6190253121292,-411.6781748443585,244.92589697752203,777.2793956089375
545,-28.318278642756486,-223.7816970408358,-94.00350365788312,13.395720001687083,-660.3596704475889,-406.2865132902341,243.95755717263086,763.8985626186566
546,-28.021794096205493,-223.1853544687608,-94.16572263636563,27.720769815480804,-650.6927194092042,-402.8718127699937,243.4710234961025,751.1836525583461
547,-27.97879801110594,-223.0127870973896,-94.36590693430676,40.36335878727834,-639.7487288806891,-401.3078435612367,243.44926569191506,739.1577515542616
548,-28.206308933738498,-223.23178294779328,-94.6171025446493,51.2567248943297,-627.669767109577,-401.4384024542044,243.86934711731692,727.8323510062639
549,-28.716050811384005,-223.80593282619702,-94.9321291383682,60.34752227323503,-614.6063827708214,-403.08218365733603,244.70331699529513,717.2087032208191
550,-29.514076985279505,-224.69581079418342,-95.32329162008985,67.5952636692967,-600.714669481372,-406.0377392989097,245.91912552075968,707.2792060221827
551,-30.600507541389064,-225.86013744569982,-95.80206766131278,72.9719607579131,-586.1535090099387,-410.0884246103244,247.48153282325347,698.0287928523489
552,-31.969387098168305,-227.25689042201432,-96.3787796392526,76.46203433219262,-571.0820657493147,-415.0072416553299,249.35298452937687,689.4363133517516
553,-33.60866831253492,-228.84432873445792,-97.06226119467426,78.06254134611112,-555.6575924377818,-420.56151287100045,251.49442916696657,681.4758958291078
554,-35.50032462510072,-230.58190084524446,-97.8595298804154,77.78373729128943,-540.0335935856817,-426.51733028288425,253.8660560200957,674.1182872600817
555,-37.620593881042275,-232.4310111155773,-98.77547824622329,75.64996235896477,-524.3583793489829,-432.64373705400635,256.4279363468212,667.3321683125597
556,-39.94035229664976,-234.3556249887123,-99.81259627201662,71.7008101805522,-508.7740288703746,-438.7166048210143,259.1405559567048,661.0854402314953
557,-42.42561566744939,-236.3226998008453,-100.97073824145129,65.99251030814943,-493.4157679374632,-444.52217389184796,261.9652326593229,655.3464772960003
558,-45.038161630060024,-238.3024350765161,-102.24694684123618,58.599431236338255,-478.4117503353677,-449.86022546827627,264.86441768224506,650.0853333293369
559,-47.73626314780549,-240.26834334660902,-103.63534645137968,49.61559031298116,-463.883214774219,-454.5468574085922,267.8018855925394,645.274884012264
560,-50.47551928105722,-242.19714975953892,-105.1271162907888,39.156040347449625,-449.94496974554636,-458.4168389766904,270.74282240431876,640.891879392893
561,-53.209764978585646,-244.06853581364345,-106.71055234515134,27.35798982710755,-436.70613792349104,-461.325526144502,273.6538262503903,636.91787399772
562,-55.89203741011413,-245.8647491428605,-108.37122475402612,14.38150449300211,-424.27107103872004,-463.1503274041392,276.5028389984874,633.3399962439478
563,-58.475572555672315,-247.57010722316818,-110.09223431694812,0.40963369995379434,-412.74032697475224,-463.79172049366963,279.2590302656391,630.1515152429673
564,-60.914802647875746,-249.1704280085273,-111.85456775901429,-14.352192160481145,-402.21158496730413,-463.17383249555814,281.89265729524385,627.3521624359219
565,-63.16632300348547,-250.6524247006704,-113.63754643699666,-29.6776336475231,-392.7803644676395,-461.24460861919385,284.3749251005206,624.9481687824535
566,-65.18979634757468,-252.00310481959875,-115.41935772212655,-45.321897547026886,-384.54041091766555,-457.9756073121292,286.67787121083717,622.9519862386002
567,-66.9487644498285,-253.20921507496178,-117.17765307340554,-61.02524832107589,-377.58361964324916,-453.36146934082205,288.7742983546139,621.381675225227
568,-68.41134082768595,-254.2567728829656,-118.89019249098587,-76.51759527907046,-371.9993889191592,-447.41911419543146,290.6377764896424,620.2599570766229
569,-69.5507639634382,-255.13072254688217,-120.53551202053433,-91.52411429160853,-367.8733254703853,-440.1867172058247,292.24273271595627,619.6129507042049
570,-70.34579725701524,-255.8147491682345,-122.09358937315987,-105.77180107947551,-365.2852691634429,-431.7225147778455,293.5646437744183,619.4686340986847
571,-70.78096917418057,-256.291276541108,-123.54648241220926,-118.99679592004667,-364.3066555789977,-422.10347397766395,294.58034112243143,619.8550917770859
572,-70.8466541750855,-256.54166702893946,-124.87891591643323,-130.9522703372448,-364.99729119824053,-411.42384800268917,295.268433086378,620.7986266993474
573,-70.53900143969838,-256.54663219188745,-126.07879317421559,-141.41662534955884,-367.4016708756951,-399.793623121942,295.6098423400702,622.3218274088096
574,-69.85972369368845,-256.28685303983855,-127.1376101892136,-150.201716362337,-371.54501593611513,-387.33684787491836,295.58844990727493,624.4416863229314
575,-68.8157624376089,-255.74379834660434,-128.05075157983694,-157.1607895086361,-377.42924925868886,-374.18982395432005,295.19182909706694,627.1678618908142
576,-67.4188487660815,-254.90071850735046,-128.8176491104313,-162.1957869361534,-385.02914796961676,-360.4991320845659,294.41204457057444,630.5011652353426
577,-65.68498104441474,-253.74378106095267,-129.44178695300243,-165.26365516614382,-394.2889230161908,-346.41946649538977,293.24648367084325,634.4323314236337
578,-63.6338422332078,-252.2633025402363,-129.9305429573999,-166.3812751397624,-405.11946725409075,-332.11125863203625,291.6986799289733,638.9411084986251
579,-61.28818071582882,-250.4550203741893,-130.29486273075878,-165.62863204938105,-417.3964900939072,-317.73808406970625,289.7790830167544,643.9956675226372
580,-58.673179001290265,-248.32133913200676,-130.54877284692586,-163.14986670078156,-430.95971867940585,-303.46386495171373,287.505725983796,649.5523098186616
581,-55.81583420488385,-245.87247873987914,-130.70874995728803,-159.15190616277587,-445.6132957619501,-289.4499016790891,284.90473982722244,655.5554300107334
582,-52.74437197741662,-243.1274496812979,-130.79297245125935,-153.90046338732893,-461.1274467797211,-275.8517894487726,282.0106674679974,661.9376903892893
583,-49.48771107053798,-240.11478246581444,-130.82048916650953,-147.71332004423783,-477.2414272119653,-262.81629452505115,278.86653403584074,668.6203739811724
584,-46.07498951222324,-236.8729460202911,-130.8103445303678,-140.9509543308479,-493.6676991347579,-250.47827886917295,275.52363791682,675.5139051721521
585,-42.53515688414995,-233.45040166217638,-130.7807012092535,-134.00473254810692,-510.09722516700197,-238.95776788277902,272.04103714927015,682.518548779052
586,-38.896631936359235,-229.90525498243943,-130.74800024572065,-127.2830359435067,-526.2057112651551,-228.35725396465028,268.484718095998,689.5253124556849
587,-35.187021415926544,-226.30448606308357,-130.72619538287734,-121.19583085582704,-541.6605813226598,-218.75931928075624,264.9264471868819,696.4170785369818
588,-31.432894269257652,-222.7227577724248,-130.72609340063565,-116.13830123250607,-556.1284312632866,-210.22464687026758,261.44232105687536,703.0699801889234
589,-27.65960466132259,-219.24082137675848,-130.75482646571544,-112.47424085955237,-569.2826919088856,-202.79047326410748,258.1110448161585,709.3550171772148
590,-23.891157103181367,-215.943557490855,-130.81547641553865,-110.51994286389791,-580.8112289846747,-196.4695217552389,255.0119818596757,715.1398845726061
591,-20.15010731126319,-212.91770770878006,-130.90686499226538,-110.52932358485397,-590.4236228537574,-191.24944580383644,252.22303100668722,720.2909688883525
592,-16.457493239070416,-210.24936747438142,-131.0235183869607,-112.68097738658457,-597.8578958889718,-187.09280705036173,249.8183973037204,724.6754544055525
593,-12.832791842140255,-208.0213232866621,-131.15580895345553,-117.06778218928488,-602.8864875828139,-183.93761018562407,247.86633095690007,728.1634794078946
594,-9.29389827044009,-206.3103266714569,-131.29027151694726,-123.68956865629323,-605.3213132572415,-181.6984145459573,246.4269140672452,730.6302872498462
595,-5.857125152817615,-205.18440317781258,-131.41008622811705,-132.4492366963305,-605.0177794765444,-180.26803676331747,245.54997680797106,731.9583286417186
596,-2.5372203970997806,-204.70029695511786,-131.49571427526098,-143.15255915087874,-601.8776669075944,-179.5198477037505,245.27322336108656,732.0392864309764
597,0.6525975583647662,-204.90115034841554,-131.52566691160123,-155.51176158592162,-595.8508288487335,-179.31064916433888,245.62064343756143,730.7760094252804
598,3.700587832494743,-205.81451341572154,-131.47738230956594,-169.15281525671446,-586.9356903636867,-179.48409220005132,246.60127765722407,728.0843544858155
599,6.596419178359171,-207.4507701490135,-131.32817907523741,-183.62623269669163,-575.1785680671998,-179.87457209642267,248.20839456447715,723.8949436044977
600,9.33108660867404,-209.8020563228653,-131.05625034957603,-198.42101622727083,-560.6718633727368,-180.31150809531593,250.4191238277643,718.1548430817423
601,11.89681314431011,-212.8417284186566,-130.64165878963905,-212.98128263096683,-543.5512122273961,-180.62389178385405,253.194574674753,710.8291645262117
602,14.286937537622544,-216.5244243678461,-130.06729080889068,-226.72497575521217,-523.9917022257787,-180.64496851439912,256.48045152623683,701.9025726561555
603,16.495789613486654,-220.78673549246068,-129.31972862676946,-239.063986713708,-502.203293415493,-180.21690252649262,260.20816087654487,691.3806639974684
604,18.51855648025687,-225.54848580529094,-128.3900010442486,-249.4249328488614,-478.42560105481186,-179.19526927614982,264.29638546917806,679.291155264853
605,20.351145368415047,-230.71459089892005,-127.2741782119578,-257.2698058895217,-452.92221506351757,-177.45321834102307,268.6530844297102,665.6847929981124
606,21.99005181149165,-236.1774452541441,-125.97378174026586,-262.11569022632517,-425.9747395845516,-174.8851576096193,273.1778619261918,650.6358707558123
607,23.432244447342615,-241.81976498086237,-124.49598924621584,-263.5527763122898,-397.8767352600081,-171.40982449030696,277.7646327428642,634.2422222586453
608,24.67507912480558,-247.51779355986733,-122.8536217555219,-261.2599531879942,-368.92773634093186,-166.9726322593669,282.3045013304883,616.6245547723845
609,25.716254911921606,-253.14476188085834,-121.06491290845402,-255.0173580068996,-339.42749613320086,-161.54720843986829,286.688761819647,597.9250027296623
610,26.55382304887741,-258.57448178968286,-119.15306993928684,-244.71538710008042,-309.67059020239697,-155.13607582709474,290.81192062999656,578.3048206456119
611,27.186256976478372,-263.6849455859215,-117.14564690623178,-230.35982759619787,-279.94148008767377,-147.77046364194172,294.5746412108447,557.9411961321667
612,27.612587268310296,-268.3618033048992,-115.07375955875783,-212.07294267014652,-250.51011344383932,-139.50927386974365,297.8865125045154,537.0232426841504
613,27.832599687935467,-272.50159546163326,-112.97117773859246,-190.09052585969692,-221.6281114253047,-130.43726284558954,300.6685490985116,515.7473178063391
614,27.847088423338903,-276.014630843133,-110.87333503014577,-164.75511727555607,-193.5255720511314,-120.66252719017926,302.8553416058499,494.3118919804398
615,27.658151119604117,-278.82741589540325,-108.81629669926987,-136.50573374450772,-166.4084997454371,-110.31340453161988,304.3967900762861,472.9122548315556
616,27.269508552324126,-280.8845627880295,-106.83572626721048,-105.86459558018973,-140.45685587923998,-99.53491381997209,305.25937025943523,451.73537651623303
617,26.686829551912105,-282.15012570970816,-104.9658888250843,-73.42142900192566,-115.8232122858185,-88.4848692200505,305.4269010778297,430.95523948112026
618,25.918040393729214,-282.60833785027444,-103.23872561462375,-39.815983892619684,-92.63197911772518,-77.32980599516962,304.90080043084185,410.72891794074854
619,24.973596840765126,-282.26374369098977,-101.68302953280417,-5.719433195963681,-70.97917037224923,-66.2408550760465,303.6998343657965,391.1936141529815
620,23.86669654939818,-281.1407418257208,-100.32374526115359,28.184683991412477,-50.93266540820893,-55.38969358275715,301.85938101282693,372.4647715832265
621,22.613410259054437,-279.28257196553915,-99.18141112284198,61.21934429739864,-32.532922914609856,-44.94468155314434,299.43024507229956,354.63528948508645
622,21.23271264711246,-276.7497955974292,-98.27175301817613,92.73216737474318,-15.794104539524254,-35.0672727195836,296.4770708129191,337.7757757646403
623,19.746398059316675,-273.6183327202901,-97.60543425585645,122.11227594197571,-0.7055676465112193,-25.908762685035317,293.07641134136236,321.93570507520803
624,18.178872208081586,-269.9771271071725,-97.18795910979334,148.80545201421486,12.766310936133559,-17.607414547820554,289.3145193277505,307.14530030447895
625,16.556817865573283,-265.9255197459277,-97.01972274654145,172.32723336092144,24.676017017534814,-10.285982496831043,285.2849295179691,293.4179269823086
626,14.908740038272468,-261.5704146939905,-97.09619578312504,192.27367597033313,35.09652442867353,-4.049639886538212,281.08590634980055,280.7527793301149
627,13.264403497831939,-257.023323739632,-97.40822793285038,208.32958937669954,44.11670371562574,1.0156894212055452,276.81783085727363,269.1376416297142
628,11.654182162090502,-252.39737613130444,-97.94245193434399,220.27413127640492,51.838558304073516,4.844599518618257,272.58059984519593,258.55152758687166
629,10.108345057059713,-247.80437735428254,-98.68176657276202,227.98372541703654,58.37433708655043,7.39307143636559,268.4711072399981,248.96703152313813
630,8.656307154639169,-243.3519966152532,-99.60587655188958,231.43234156793997,63.84357682825556,8.638939241205236,264.5808728594717,240.35226609973003
631,7.325875298075521,-239.14115633452928,-100.69186747330141,230.68924716193584,68.3701311100639,8.581946302454798,260.9938777472482,232.67230865507761
632,6.1425198291943754,-235.26368846344334,-101.91479603558695,225.91440494399973,72.07924436318899,7.2433834927097465,257.78465765340627,225.89012823181378
633,5.128701509071921,-231.80031198045748,-103.24827825932205,217.35174728263144,75.09472995735372,4.665302882085957,255.01669722249807,219.96701377111603
634,4.3032809232866605,-228.8189740369015,-104.66506144256144,205.32060348352886,77.53631062760755,0.909305745626119,252.7411572935172,214.86256683936247
635,3.6810338246214993,-226.3735847322386,-106.13756823040028,190.20559009926637,79.5171780863782,-3.9450873811242277,250.9959570239989,210.5343565768845
636,3.2722909065148102,-224.50316310360458,-107.63840354392832,172.44529564659967,81.14182639427501,-9.802464378649482,249.80522194695703,206.93735842033027
637,3.0827146339476728,-223.23140004371862,-109.14081724393107,152.5201012204665,82.50420994267074,-16.55391123122868,249.17909898327068,204.02331061556455
638,3.113219492314446,-222.56663269786276,-110.61911740124577,130.93947885322825,83.68627082880191,-24.079710589904685,249.1139300525318,201.740123263594
639,3.360035823266908,-222.50221446474393,-112.04903097895298,108.22910209291364,84.75687125166782,-32.252278393764314,249.59276728285928,200.03146365405402
640,3.814911519630659,-223.0172550357681,-113.40801061863188,84.91809014860637,85.77115412987087,-40.939251855025546,250.58620489631724,198.83661936760487
641,4.465440296506651,-224.07769603004132,-114.67548803036279,61.52668957125445,86.77033986341779,-50.006630142189714,252.05349567404883,198.09070821648257
642,5.2955001998541436,-225.63767990432854,-115.83307624465988,38.55467633781691,87.78194997014458,-59.32186266556612,253.94391364070296,197.72526408803196
643,6.285781829236813,-227.64116315892178,-116.86472480437973,16.470735785707298,88.82043054559477,-68.75677988697315,256.19831947608736,197.66918473392428
644,7.414382852762575,-230.02371960882118,-117.75683378766456,-4.296953279205544,89.88813169328365,-78.19026824309425,258.7508812845921,197.84998774250522
645,8.657444025151575,-232.7144758352451,-118.49833394241207,-23.3687421234311,90.97658490667826,-87.51060366188541,261.53090070569544,198.1952905486073
646,9.989802070857614,-235.6381190823595,-119.08074068926778,-40.420000600401586,92.06801037262157,-96.61737623541141,264.46469290169483,198.6344135126019
647,11.385636233106867,-238.71691793982603,-119.49818914682722,-55.185979691206576,93.13698141840713,-105.42296031059412,267.47746876598944,199.10000284199535
648,12.819087726775011,-241.87269816450168,-119.74745585725746,-67.46501260054458,94.15217432591041,-113.85350756688285,270.4951688907225,199.5295805935171
649,14.264834575431237,-245.02871995208525,-119.82797089600498,-77.12007491429009,95.07813825215788,-121.84946343127218,273.4462016113676,199.8669486095245
650,15.698608252173216,-248.1114088923116,-119.74182181097372,-84.07877752845648,95.87703109945622,-129.36562758689345,276.26304197048523,200.0633979200707
651,17.097642979537763,-251.05190062847643,-119.49374850106705,-88.33191369662399,96.51028138054261,-136.37079605253336,278.88365468810343,200.0787010377504
652,18.441053065492568,-253.7873685461783,-119.09112583695371,-89.9307212624094,96.94015160565155,-142.84703451143764,281.252711903314,199.88188823203765
653,19.710137757778366,-256.26211404865273,-118.54392872573312,-88.98305068348155,97.13119362208707,-148.78863973880885,283.3225850562573,199.451827169813
654,20.88861643543793,-258.4284094474971,-117.86467262158286,-85.64864663884713,97.0515990507267,-154.20084801294115,285.0540992302231,198.77763582466574
655,21.96279943506972,-260.2470935763299,-117.0683213936821,-80.13375435689439,96.67445731801509,-159.098346857868,286.41704706608783,197.85896037926824
656,22.92170151950472,-261.6879293744636,-116.17215420724439,-72.68525129488663,95.9789391059719,-163.50364073385546,287.39046759288664,196.70614413929098
657,23.75710606099984,-262.72974036507145,-115.19558382757792,-63.58448228504026,94.95142408811114,-167.4453143870736,287.9627025933617,195.3403031660677
658,24.463588484921505,-263.36034870954694,-114.15992055337523,-53.14094518095036,93.58658866842758,-170.95623168018506,288.131249047463,193.79331298319624
659,25.03850736059122,-263.5763410958461,-113.08807868171561,-41.68593866357013,91.88846253917116,-174.07170458495415,287.9024304782652,192.10770129006173
660,25.481970658131477,-263.3826900877214,-112.0042257121265,-29.56624841249562,89.87145313601783,-176.8276674114791,287.29091251996357,190.33643579485954
661,25.79678312247495,-262.79225788412185,-110.93337804267617,-17.137915861392585,87.5613258474526,-179.2588949945588,286.31908873169516,188.5425944250511
662,25.988378610521618,-261.82520705371445,-109.90095032172087,-4.7601079283430225,84.99611663438871,-181.3973093059649,285.01636175454325,186.7989066922548
663,26.06473889645246,-260.50833922923215,-108.93226856187849,7.21091159387597,82.22694383397128,-183.27042509146898,283.41834269244174,185.18715871220573
664,26.03629821927243,-258.87437853957437,-108.05205938884096,18.427716483658944,79.31867825413724,-184.89998970979707,281.56598854082836,183.79745895719597
665,25.91583098961455,-256.96121221841804,-107.28392933756272,28.55756373290692,76.35042572490609,-186.30087368436168,279.5046940391343,182.7273661407893
666,25.718318711698753,-254.81109675205968,-106.64984890773532,37.28814345280935,73.41577428075826,-187.48026552419108,277.28335085710347,182.0808840758559
667,25.460791310918662,-252.46983446667173,-106.16965605041996,44.33320518234907,70.62275910834285,-188.4372168664878,274.9533838325078,181.96733061439843
668,25.162137639595546,-249.98592291795023,-105.86059282915362,49.43800612393719,68.09350212113608,-189.1625722783519,272.567771329168,182.5000885718075
669,24.84287997476147,-247.4096780570397,-105.73688736829507,52.38449832459896,65.9634891932569,-189.63930286457062,270.18005496159674,183.79524553678817
670,24.524907878641443,-244.79233202303334,-105.80939120328486,52.99614509719776,64.38045633301273,-189.84324531706088,267.8433431788091,185.97012680991682
671,24.231167788100027,-242.1851075825906,-106.0852800648481,51.14223486834356,63.50286604842238,-189.74422974915407,265.60931363736944,189.1417223462487
672,23.985305904255274,-239.63827361600485,-106.56782415178334,46.74154509716896,63.4979664164063,-189.30756208909216,263.52722088536467,193.4250059074347
673,23.811263221920942,-237.20018942502838,-107.25623222116666,39.76520137296975,64.53943730473975,-188.49581100164826,261.64291846309476,198.93114392161888
674,23.732822931459786,-234.9163497320461,-108.14557247376418,30.23857842235608,66.8046401316166,-187.27083585836363,259.9979078938634,205.76559370553036
675,23.7731120808167,-232.82844673728465,-109.22677228170518,18.24210125425128,70.47149898309061,-185.5959815559565,258.6284309277278,214.02609626343624
676,23.954061393725418,-230.97347013125366,-110.48669816421638,3.9108261257403183,75.71505168917543,-183.43835819671585,257.5646254317518,223.80057791939223
677,24.295829555303794,-229.38287013480047,-111.90831681133525,-12.567288123269158,82.70371971926015,-180.77111883415748,256.8297690468762,235.16498704497673
678,24.816201145125596,-228.08181206526973,-113.4709372195872,-30.95446865183617,91.59535576110433,-177.5756465921344,256.4396377437232,248.18110599147843
679,25.529970696706584,-227.08855311568112,-115.15053313014613,-50.96758160875425,102.53313791726919,-173.8435633743889,256.40200826980833,262.8943924019691
680,26.448328909313116,-226.41397241610574,-116.92014395081864,-72.283903845902,115.6413899653438,-169.57847590883526,256.7163336659681,279.3319164466185
681,27.578270543779194,-226.06128360880967,-118.75035107986497,-94.54811580656208,131.02141838248434,-164.79738075227328,257.37361909547633,297.5004692507868
682,28.922046713120185,-226.0259550223889,-120.60982482870784,-117.38036740126107,148.74746871521154,-159.53165786157803,258.3565209872576,317.38492122380666
683,30.476686803532438,-226.29585623852824,-122.4659348218565,-140.3852219496247,168.86291550046516,-153.8275923229834,259.6396860038529,338.94690612897966
684,32.233616670720586,-226.85164169573187,-124.28541385881843,-163.16124258537894,191.37680955210476,-147.74637597504514,261.19033782776705,362.12389736687993
685,34.178399560322866,-227.66737232881903,-126.03506190300071,-185.31095250692954,216.26091162116282,-141.3635552906653,262.9691095581754,386.8287276749999
686,36.2906240736145,-228.71136551575918,-127.68247336365333,-206.45087638626964,243.44733978412856,-134.76790933374443,264.9311080867414,412.94958358690724
687,38.543959383905765,-229.9472522680155,-129.19676757829282,-226.22135628754353,272.82694777324093,-128.0597620332845,267.0271848111811,440.3504835838387
688,40.90639208138888,-231.33520925673892,-130.5492999387219,-244.2958329012923,304.24853274860163,-121.34875615852437,269.20537528198105,468.8722266957971
689,43.34065205339549,-232.83332271252618,-131.71432989247614,-260.38929334286115,337.5189454788153,-114.75114127899172,271.4124598252221,498.33377964896454
690,45.804827303395285,-234.3990324244331,-132.66962231080194,-274.2656115867349,372.4041467315803,-108.38665294666687,273.59558880959287,528.5340586333705
691,48.25316002056512,-235.99059792584984,-133.39696044779583,-285.7435469954701,408.63122443165133,-102.37508319844883,275.70391085169473,559.254058330588
692,50.637008892112235,-237.56852619366254,-133.88255174453568,-294.70121834718884,445.8913594966082,-96.83266118527513,277.6901404132207,590.2592857942076
693,52.90595601308216,-239.09690110453147,-134.11731175828172,-301.0789309533626,483.84370531492164,-91.86837572806355,279.5120030790001,621.302467503245
694,55.00903115418883,-240.54455926362888,-134.09701624145433,-304.88029726726234,522.1201263422716,-87.58037795330924,281.1335020264516,652.1265102961875
695,56.89602170439566,-241.88606398123636,-133.82231662589496,-306.17165147585405,560.3307244419659,-84.05260148788744,282.5259571468155,682.4677069424725
696,58.518833148100974,-243.10243837582888,-133.29861956209484,-305.0798121222369,598.0700666192137,-81.3517300445231,283.6687781628322,712.0591821978776
697,59.83286219976406,-244.181629259767,-132.53583629081592,-301.7882918649712,634.9240141680903,-79.52462817279799,284.5499441953686,740.6345743730774
698,60.7983425092203,-245.1186850991756,-131.5480121797656,-296.5320896115766,670.4770405043766,-78.59633175788584,285.16617395724614,767.9319409371869
699,61.38162121701735,-245.91564335241918,-130.35285072147227,-289.5912279918872,704.3199123122246,-78.56867250711508,285.5227826069296,793.6978649728738
700,61.55632394991516,-246.5811343964913,-128.9711498274501,-281.2832195162919,736.0575946980682,-79.41958750932612,285.63323301687046,817.6917224921942
701,61.3043665994589,-247.12972069485264,-127.42617152586595,-271.9546592234452,765.3172242920542,-81.10314302066884,285.5184006765556,839.6900486322477
702,60.616774731341664,-247.58100040754604,-125.74296909968932,-261.97215197006284,791.7559742569173,-83.55028201331938,285.2055823279563,859.4909144103173
703,59.49427578604906,-247.9585137666843,-123.94769784270177,-251.7127908019041,815.0686138217881,-86.67028753583949,284.7272881065615,876.9181977876807
704,57.947635293867236,-248.2884978802083,-122.06693637466886,-241.5544108945369,834.9945464741606,-90.35293732611653,284.1198648870781,891.8256079349688
705,55.99771599831341,-248.59854109386754,-120.12704452995503,-231.8658522748806,851.3241007259303,-94.47130782347404,283.4220044845134,904.1003051933259
706,53.67524774946824,-248.9161916443813,-118.15358127491781,-222.99747341870665,863.9038502108534,-98.88516678449585,282.6731943015457,913.6659556779601
707,51.02030581977229,-249.26757702595938,-116.17080215048743,-215.27216498960166,872.6407583319603,-103.44487331117377,281.9121698656578,920.4850707803411
708,48.08150541066031,-249.67609015420018,-114.20125065698454,-208.97711570871107,877.5049762506351,-107.99568350889852,281.1754283258346,924.5605070098123
709,44.914930133192485,-250.16119595769857,-112.26545218752163,-204.35657755654685,878.5311683801638,-112.38234096419266,280.49585931199954,925.9360370874707
710,41.582821773977614,-250.73740748705444,-110.38171308048238,-201.60586226890564,875.8182918989754,-116.4538153468565,279.90154469161644,924.6959440817715
711,38.15206728108564,-251.41347417566416,-108.5660215668897,-200.86677320895524,869.5278114339199,-120.06804066972327,279.4147718925364,920.9636320802052
712,34.69252621674964,-252.19181678217356,-106.83204215894767,-202.22463542722008,859.8803834036487,-123.09649747948554,279.05129685818036,914.8992861334801
713,31.275247657687327,-253.06823407579077,-105.19119057056271,-205.7070330433302,847.151094215069,-125.42848073653268,278.8198826567768,906.696649026659
714,27.97062956973529,-254.03189576970397,-103.65277269587155,-211.2842993572307,831.6633811211374,-126.97489792004147,278.7221286035779,896.5790117579093
715,24.84657597421993,-255.06562484873854,-102.22416859217442,-218.87173443511077,813.7818031676065,-127.67145102587988,278.75259283353483,884.7945378680361
716,21.96670770914632,-256.146460605542,-100.9110410571239,-228.33345102250195,793.9038617124005,-127.48107281239727,278.8991990601292,871.6110586774545
717,19.388681341504704,-257.24648184474944,-99.71754866970147,-239.48767722179377,772.4510951565724,-126.39551245193721,279.1439064539883,857.310486962191
718,17.16266798409359,-258.3338584332615,-98.64654537372601,-252.11327926048395,749.8596905841126,-124.43599787768389,279.46361094687353,842.1830007371858
719,15.330039490516643,-259.3740893109362,-97.69975260402107,-265.95721595659,726.5708658801229,-121.65293928256962,279.8312373960669,826.5211470285678
720,13.922303673305766,-260.3313767730555,-96.87789485125143,-280.7426030186818,703.0212796727884,-118.12467722920933,280.21697517381006,810.6140087663847
721,12.9603228148468,-261.1700806428231,-96.18079459536602,-296.17705246777456,679.6337234618483,-113.9553167789319,280.58960488964163,794.7415678079338
722,12.453841050189233,-261.8561920409515,-95.60742713248253,-311.960959770909,656.8083410085283,-109.27172431950584,280.91786107767575,779.1693854937929
723,12.401336486034008,-262.35876496315626,-95.15593963364867,-327.7954362223461,634.9146047203689,-104.21979565825907,281.171774825098,764.143710540724
724,12.790203332704142,-262.651244983774,-94.8236415107384,-343.3896233861317,614.2842571457171,-98.96013133465962,281.3239415953714,749.8871130023584
725,13.597258005102217,-262.71263826775254,-94.6069745970612,-358.46717650807096,595.2053970745075,-93.6632757779344,281.35066299831817,736.5947318041938
726,14.789551532056036,-262.5284706825768,-94.5014718671857,-372.7717608101241,577.9178532925006,-88.50468844002198,281.2329169901017,724.4312104360177
727,16.325459501147385,-262.09149595151956,-94.50171290480559,-386.07146414807477,562.6099446833209,-83.65961633377168,280.957118877658,713.5283792429836
728,18.15601099073467,-261.40212305365634,-94.60128363662344,-398.1620874018969,549.4166747320118,-79.29802988535955,280.5156452897542,703.9837229373301
729,20.226409988753893,-260.4685457854071,-94.79274725153653,-408.86932655560685,538.419355064436,-75.57977101585159,279.9071043941997,695.8596493369824
730,22.477696809691878,-259.3065707346545,-95.06763266310328,-418.04990471239256,529.6466010752214,-72.65004747145528,279.1363473096231,689.1835514833745
731,24.84849306884187,-257.9391530336233,-95.41644618182436,-425.59174594301913,523.0765974522132,-70.63539257855246,278.214227062333,683.9486317330634
732,27.276772005306658,-256.39566135977327,-95.82871114921136,-431.413304831432,518.6404958302951,-69.64019452077144,277.15712185175227,680.1154346160315
733,29.70159653980135,-254.71090413941255,-96.29303919171112,-435.46217686683724,516.226782397708,-69.74388226822467,275.9862483308475,677.6140167942747
734,32.064770478288885,-252.92395740812705,-96.79723560574202,-437.7131185139272,515.6864395778066,-70.9988349100048,274.7267978600726,676.3466689387203
735,34.312353484369524,-251.07684104517543,-97.32844027269877,-438.1656060639195,516.8387210655159,-73.4290570238569,273.4069341023412,676.1910970179168
736,36.39599729020503,-249.21309398545924,-97.87330437325748,-436.8410630393731,519.4773610239346,-77.02963592482112,272.05669375277375,677.0039697539661
737,38.27406858566198,-247.37630070812122,-98.418201835078,-433.77988902050754,523.3770434737747,-81.76696912155258,270.7068337526044,678.6247438450754
738,39.912532827918874,-245.6086213166108,-98.94947268327198,-429.038427817756,528.2999643646018,-87.57972419369318,269.387668430426,680.8796864905711
739,41.2855825136743,-243.94937631013792,-99.45369317047192,-422.6860172745692,534.0023248995531,-94.38047030593407,268.12793899168514,683.5860226004518
740,42.37600272236884,-242.4337348306983,-99.917964917522,-414.80226283101496,540.2406002226811,-102.0579018153426,266.95375572020066,686.5561391613874
741,43.17527549269769,-241.09155170687367,-100.33021271178279,-405.4746686320407,546.7774336777103,-110.47956057641066,265.8876501678964,689.6017802509126
742,43.68343255686553,-239.94639395979473,-100.67947851379994,-394.7967409086496,553.387015109633,-119.49495502306027,264.9477705432536,692.5381632887795
743,43.9086728975701,-239.0147915428024,-100.95619791017108,-382.8666477563174,559.8598134050379,-128.93897100292588,264.14724849098593,695.1879414629292
744,43.866767274845685,-238.30573988612431,-101.15244495932556,-369.78647832920734,566.0065493749921,-138.63547105895236,263.4937594814519,697.3849305959598
745,43.58027622795747,-237.82047326152954,-101.26213231813396,-355.6620959094377,571.661315516686,-148.4009839146186,262.98929214614947,698.9775130887042
746,43.077611308550026,-237.5525181449964,-101.28115572517329,-340.6035279775687,576.6837742488644,-158.0483925199331,262.6301342409729,699.8316291536864
747,42.3919717889113,-237.48802499152154,-101.20747504663574,-324.7257874765409,580.9603955862116,-167.3905361697157,262.40707475109804,699.8332681296312
748,41.56019102350526,-237.60636579586784,-101.0411276777651,-308.14997742664025,584.4047279934892,-176.24365024216414,262.3058133693083,698.8903812874818
749,40.6215279950751,-237.8809741949313,-100.78417369279298,-291.004499424447,586.9567309584971,-184.43057680775178,262.3075605861287,696.9341524539636
750,39.61644017365083,-238.28039515756757,-100.44057544890431,-273.42616815226984,588.5812330116786,-191.7836907485736,262.3898041795568,693.919583645207
751,38.585373491266374,-238.76950283530715,-100.01601725587106,-255.5610310266448,589.2656127627241,-198.14749818245465,262.5272111961742,689.825378950928
752,37.567603917616815,-239.31083831230703,-99.51767328036591,-237.56470574210516,589.0168312904812,-203.3808757807129,262.69262896016875,684.6531400553245
753,36.60016280645904,-239.8660142708939,-98.95393414755668,-219.6020784792682,587.8579702679801,-207.35893025738335,262.85814472438034,678.4259195486648
754,35.7168748707533,-240.39713128037948,-98.33410465841332,-201.84624996831357,585.8244499158437,-209.97446650295024,262.9961615667735,671.1862114119967
755,34.94753338190332,-240.86815049001905,-97.66808643307883,-184.47667176374352,582.9601125646102,-211.13906035559944,263.08044796276545,662.9934886793758
756,34.31723214006383,-241.24616975578022,-96.96605990609226,-167.6764760134762,579.3133596590264,-210.78373790696818,263.08711991598756,653.9214225924878
757,33.8458682034774,-241.50255451565536,-96.23817984917169,-151.6290631331002,574.9335214716906,-208.85926788334004,262.9955175122034,644.0549320931779
758,33.54782357405965,-241.61388098142717,-95.49429753495757,-136.51406792804235,569.8676198284925,-205.33607763220775,262.7889422860832,633.487215085106
759,33.43182819503985,-241.5626572927175,-94.74372094801316,-122.50287185844826,564.1576563288539,-200.203807314779,262.4552278205885,622.3169033094346
760,33.50100079461902,-241.33779794739198,-93.99502225529515,-109.75386506210779,557.8385243617446,-193.47052174040587,261.9871233909019,610.6454625827909
761,33.753058379020146,-240.93483781870304,-93.25589909917525,-98.4076857911,550.9366054898571,-185.16160531873095,261.3824790012766,598.5749324445402
762,34.18067981136243,-240.35588401513178,-92.53309316341922,-88.58267696530233,543.4690720350196,-175.31837293697583,260.6442295084347,586.206067108864
763,34.77200440230255,-239.60931607432542,-91.83236603335202,-80.3707987582228,535.4438799358833,-163.99643789774942,259.7801851363327,573.636905695008
764,35.51124316846125,-238.70925661112258,-91.15852897420552,-73.83422097025058,526.8604008274483,-151.26388680218693,258.8026448495145,560.9617663387787
765,36.37937836683295,-237.67484467966028,-90.51552027020858,-69.00278863207758,517.7106115059473,-137.19931979138556,257.72785705070623,548.2706284460505
766,37.354925803890964,-236.52935210814286,-89.90652143693852,-65.87251001228525,507.9807342215895,-121.88982222297278,256.575358348028,535.6488425833165
767,38.41473402335641,-235.29918858269104,-89.33410202262876,-64.40516113890595,497.65320400296497,-105.42893990911375,255.3672254083156,523.1770901769761
768,39.534794730293434,-234.01284423935522,-88.800381884863,-64.52903961458422,486.7088302461662,-87.9147335933666,254.12727716090234,510.93150589777423
769,40.6910396990073,-232.6998190538099,-88.30719977224052,-66.1408381619842,475.12901919518913,-69.44798849695167,252.88026495350076,498.98387374226763
770,41.860100927747006,-231.38958650188584,-87.85627766115681,-69.10855012183792,462.89793122906667,-50.130650799047885,251.65108678882126,487.40181218797346
771,43.02001296895693,-230.11063498367372,-87.44937141145493,-73.27526922028801,450.00446115674475,-30.064554528319256,250.46405863108808,476.2488731643336
772,44.15083922039742,-228.88962470845877,-87.08839974528827,-78.46370711216234,436.44394974854424,-9.350489776767011,249.34227126538852,465.5844929452313
