time,ax,ay,az,gx,gy,gz,accmagnitude,gccmagnitude
0,3.0208629259420134,-248.98957422126534,22.04992471600119,18.941273697191065,-32.94329039680667,-16.712607751204708,249.98126941958319,40.51656674971577
1,2.817700259374721,-249.21783506840745,21.51280239000813,19.826629393485277,-32.105069486809604,-16.862635546953083,250.16756557686458,40.47983557807047
2,2.6115405792972277,-249.44014016479005,20.980578895227683,20.586505176762973,-31.334308521805408,-16.97988549416354,250.34825046896617,40.46300981131246
3,2.4027036939456647,-249.6545632123586,20.459534911257528,21.200318137553573,-30.648168136727396,-17.062167518748527,250.52186118982115,40.4721310818458
4,2.191588566817163,-249.85931501068927,19.955614999967356,21.649285979180444,-30.06328689274362,-17.10758236196524,250.68705034488127,40.51345116369675
5,1.9786902814397944,-250.05277679208535,19.474278975540518,21.916945189755555,-29.59543500143606,-17.11455514952662,250.84260904848287,40.59331977273178
6,1.7646103368568753,-250.23352939492088,19.02037676657417,21.989641378656366,-29.25916941370376,-17.081869308799206,250.98748730918936,40.71806132044951
7,1.5500587534778236,-250.40037747514006,18.598050413469753,21.856975893804243,-29.067499360565762,-17.008700169241997,251.1208112393213,40.89384324440771
8,1.3358471833992616,-250.55236797184574,18.210664599193468,21.51219312003234,-29.03157278416224,-16.89464729167069,251.2418963961422,41.12653983227767
9,1.12287305790157,-250.68880209401513,17.86076538589384,20.95249399344776,-29.160394733150937,-16.739764199234575,251.35025650494924,41.42159649057636
10,0.9120955839979693,-250.8092402157122,17.55006576830377,20.179262726617733,-29.460588530011965,-16.544583706639898,251.44560686915887,41.783899774604315
11,0.7045049878547062,-250.9134992559827,17.279456042599133,19.198195275374733,-29.936209525805662,-16.310136495428956,251.5278619228798,42.21765820103759
12,0.5010867424650292,-251.00164239714314,17.049036477984412,18.019319874464216,-30.588619844876327,-16.037960052329314,251.59712662330907,42.726298267597926
13,0.30278267442055834,-251.07396139072503,16.858169224388302,16.656902401417458,-31.41643086953117,-15.730094701890643,251.6536817336662,43.31237959965131
14,0.11045094866838534,-251.1309521933479,16.705545923058903,15.129232616072022,-32.41551833724539,-15.389063391901583,251.6979635029343,43.97753292155749
15,-0.0751729733275516,-251.1732852050354,16.589267287027095,13.458291390704272,-33.579112786264155,-15.017832326073867,251.73053876075195,44.72242457838517
16,-0.2535123177582939,-251.20177187499854,16.50693098815257,11.669303619844241,-34.89796573144896,-14.619750607616108,251.75207694056812,45.54675146335097
17,-0.42418006153827276,-251.21732980195316,16.45572438701715,9.790186276258206,-36.360589529202116,-14.198468688966484,251.7633209193366,46.44927026130029
18,-0.5870035772993449,-251.22094862415054,16.43251892618629,7.850905800330399,-37.95356657907975,-13.757837336540184,251.7650587507557,47.427864704304135
19,-0.7420417307250431,-251.21365895039813,16.433963487925922,5.882763432553586,-39.661921408171374,-13.301790666972552,251.7580983609915,48.4796538320989
20,-0.8895936451254118,-251.19650628992687,16.456574718500242,3.917630972150313,-41.46954727014002,-12.834218361620053,251.74324703563116,49.601142870862816
21,-1.0301987476157934,-251.17053137731455,16.49682301765269,1.987162531365262,-43.359677123773764,-12.358833334958733,251.72129701993208,50.78841625098644
22,-1.1646281847634956,-251.13675757220338,16.551213309853996,0.12200995902889596,-45.31538730373753,-11.879041853660429,251.69301787416092,52.03736964968572
23,-1.2938681738263966,-251.0961853185698,16.61635980588093,-1.6489294344247922,-47.32012102194231,-11.39782326460576,251.65915554306252,53.34397509561369
24,-1.4190962634489306,-251.04979304034862,16.689053875857446,-3.2992045740456573,-49.35821817808888,-10.917626034500403,251.62043748811718,54.70457050166514
25,-1.5416517806378642,-250.99854330906555,16.766323993251486,-4.805415343106365,-51.415437852112625,-10.440285812164582,251.5775826806692,56.11616289254538
26,-1.6630019280128499,-250.9433926977814,16.84548647546644,-6.14770752955317,-53.479460268718846,-9.966969863635413,251.5313148169798,57.57673340077643
27,-1.7847050435770107,-250.8853035603001,16.924185499768384,-7.310140458377526,-55.540355874021735,-9.498150671430441,251.48237692300884,59.08553196707473
28,-1.9083724077632,-250.82525611368314,17.000420804705286,-8.280916230659084,-57.59101022143134,-9.033609895890029,251.4315456482741,60.64335039515263
29,-2.0356296669943643,-250.76425960742714,17.07256175256266,-9.05246630102568,-59.62749425394735,-8.572472414805421,251.3796439666133,62.2527634203239
30,-2.168078482556308,-250.70336187817446,17.139346972467226,-9.621397382007126,-61.64936996270098,-8.113268862827786,251.32755154764106,63.91832814281535
31,-2.3072585081532315,-250.64365698014495,17.19986943960923,-9.988303724481774,-63.65992126026501,-7.654023972699429,251.2762124899461,65.64673226843047
32,-2.4546093925996275,-250.58629065208734,17.253547459689724,-10.157456493831887,-65.66629952455484,-7.192367055648899,251.2266402125044,67.44688127526071
33,-2.611432329766043,-250.53246314799017,17.300082619044844,-10.136383460766455,-67.67957309214285,-6.725660191441032,251.17991910158722,69.32991436333666
34,-2.778850765117513,-250.48342866828625,17.339406337729113,-9.935353990983426,-69.71467042180059,-6.2511392085118,251.1372022540871,71.30913935128349
35,-2.9577701099599163,-250.44049050261393,17.371617177349055,-9.566785790179411,-71.79020799255085,-5.766062361248788,251.09970456248416,73.39987792065703
36,-3.1488365709294728,-250.4049909981415,17.396911418844,-9.04459137272547,-73.92819637214602,-5.267861723427879,251.06869040907657,75.61921493439188
37,-3.3523954183062425,-250.37829545194325,17.4155095637813,-8.38348398998424,-76.15362126852149,-4.754292633608791,251.04545522570416,77.9856489455926
38,-3.568449213515626,-250.36176903427264,17.42758135521726,-7.598264891853688,-78.49390060161733,-4.223576952774329,251.03130017399945,80.51864528803114
39,-3.796616720376288,-250.35674608850715,17.433171810605007,-6.7031162666414135,-80.97822343341267,-3.674536327550814,251.02749942610834,83.23809798446233
40,-4.0360934538731685,-250.36449173061743,17.432130728482548,-5.710926722967581,-83.63678160543373,-3.106712017840774,251.0352600920765,86.16371168687265
41,-4.285615078733456,-250.38615650786141,17.42404812524633,-4.632678171294627,-86.4999097594503,-2.5204681409469893,251.055675666622,89.31431949216736
42,-4.543425122388372,-250.42272582201392,17.408197980625232,-3.4769237252780925,-89.59715372025882,-1.9170754939314598,251.0896747977011,92.70715636448816
43,-4.807248661508637,-250.4749667415083,17.38349254952604,-2.249385198134886,-92.95629074896343,-1.2987735870269514,251.13796807903884,96.35711081407153
44,-5.074273756455299,-250.5433756042311,17.348449423160652,-0.9526956271458994,-96.60232772106812,-0.668809272035884,251.20099633010307,100.27597933048906
45,-5.341142429786726,-250.62813032396758,17.30117347448002,0.4136930126600341,-100.55650466175702,-0.031451390357219965,251.27888432482936,104.47174881167255
46,-5.603952863377834,-250.729051429475,17.23935567840964,1.8534239839340547,-104.83533119047738,0.6080179072426739,251.37140402746115,108.94793190724896
47,-5.858274178989653,-250.84557552559693,17.160290465489187,3.3729677653129593,-109.449682357035,1.2433332476449084,251.47795102394196,113.70297892609321
48,-6.099174725677255,-250.97674413246028,17.060912756728296,4.981177587012736,-114.40397831340341,1.8672944425945388,251.59753706427819,118.72978791480405
49,-6.321264367276683,-251.12120987719214,16.937855151396132,6.688684372365897,-119.69546955418755,2.4718292060827878,251.72880060510195,124.01533185159478
50,-6.518750910856238,-251.27726094313383,16.787524812432938,8.507156475975858,-125.31364631897856,3.0480655882581913,251.87003611939997,129.54041869099632
51,-6.685510445751702,-251.44286363475533,16.606198344829505,10.448457839419444,-131.2397873020126,3.5864093566297,252.01924182597878,135.27959622225848
52,-6.815170867465412,-251.6157218943762,16.390131530899332,12.523744451675743,-137.44665910982079,4.076621871812624,252.17418439179863,141.2012093601272
53,-6.901207322127059,-251.79335153384713,16.135679480665893,14.742542808148432,-143.89837404108988,4.507894872780626,252.33247802007668,147.26761268741646
54,-6.937047923184502,-251.97316581188153,15.83942184203465,17.11185514956373,-150.55040991792777,4.868919956111487,252.49167416852973,153.43553608313158
55,-6.916187906566841,-252.15256795856754,15.498287313149651,19.635334666579734,-157.34979211748487,5.147952269440272,252.64935711665083,159.65659646215062
56,-6.8323102220143195,-252.3290455997313,15.109671805209205,22.312569875123607,-164.23543488224288,5.332869880042424,252.80323998979665,165.8779443853976
57,-6.67941026997859,-252.50026198133972,14.671545175009753,25.13851144417138,-171.13863656683455,5.411232216473389,252.95125585974702,172.04303079684877
58,-6.451922208853925,-252.66413942396133,14.182542427573146,28.10306736778318,-177.9837216514012,5.37034263938921,253.09163916109375,178.09247639335157
59,-6.144844202190273,-252.81893130081855,13.642036536690137,31.19088399883491,-184.68882091214047,5.197321297534132,253.2229936374041,183.96502395943327
60,-5.753860205971435,-252.9632797706823,13.05019134492026,34.38132165913741,-191.16677991347132,4.879194759127931,253.34434408798302,189.59855226144242
61,-5.275456273007587,-253.09625746209105,12.407994320507587,37.64862497804121,-197.32618496031185,4.403008392652851,253.45517026879173,194.9311288370962
62,-4.707029717426784,-253.21739240821304,11.71727034604548,40.96228044836263,-203.07249497264814,3.7559661669911026,253.55542251934645,199.90207846859468
63,-4.046989756495542,-253.32667679599663,10.980679160146565,44.287547380493706,-208.30926760947884,2.9256006430630843,253.64552006084287,204.4530445779312
64,-3.294848375499778,-253.4245613403328,10.2017002920357,47.58614370516014,-212.93946844633479,1.8999736997643013,253.72633424373112,208.52902240401252
65,-2.4513001281999407,-253.5119380497144,9.384609961740685,50.81706505129249,-216.86685295321138,0.6679062048550878,253.79916002313973,212.07934556827576
66,-1.5182895019886655,-253.5901146184321,8.534454262598135,53.93751428912582,-219.99741206764165,-0.7807674762397234,253.86567940723953,215.0586112349173
67,-0.4990645099013716,-253.66078360711612,7.657022063667205,56.90391917532307,-222.24087279648307,-2.454926508994347,253.92792051189997,217.42753304156224
68,0.6017846608707201,-253.72598899934337,6.758819750906605,59.673017459671634,-223.5122449667775,-4.361880711785353,253.9882152202427,219.1537147130653
69,1.7783029800142582,-253.78809176569146,5.847048486370836,62.20299111667221,-223.73340362655037,-6.507088365463201,254.0491574175847,220.2123402464747
70,3.023164980687476,-253.84973494330876,4.929583275361963,64.45463334855542,-222.83469369129043,-8.893887167361557,254.11356257112297,220.58677850270624
71,4.327687562878709,-253.9138077164164,4.014951792137683,66.39253272890926,-220.75653960426632,-11.523252445603529,254.18442831833082,220.2691009729095
72,5.681862723304804,-253.98340728830215,3.1123095903043936,67.98625762365222,-217.45103848521705,-14.393598079511298,254.26489494606372,219.26051153983505
73,7.074411786352776,-254.06179707682026,2.2314070752059765,69.21152065683388,-212.88351079682147,-17.500636280731545,254.35820429398953,217.57168632852597
74,8.49286257945791,-254.15235990203954,1.3825425989029814,70.05129791141792,-207.03397812229588,-20.83731212226688,254.46765566297225,215.22302031723
75,9.923650751276197,-254.2585452389118,0.5764954393485837,70.49687169862719,-199.89853337497502,-24.393827255175406,254.59655762744924,212.244775440811
76,11.352246092083906,-254.38381015976861,-0.17556756192832118,70.54876023658201,-191.4905649002821,-28.157764641447898,254.74817512442885,208.6771227896073
77,12.763304198358687,-254.53155415968496,-0.8622170866515544,70.21749345877993,-181.84179283140588,-32.1143224655709,254.9256716932071,204.57006958551412
78,14.140842985643793,-254.70504845367878,-1.4719216750636646,69.52419208274372,-171.00307416692425,-36.24666077237069,255.13204708468334,199.98326031978033
79,15.46844234712473,-254.90736042881937,-1.9932439993385263,68.50090735121636,-159.0449328810987,-40.5363589700163,255.37007051821487,194.9856411954847
80,16.72946388704928,-255.14127379007462,-2.415070365992351,67.19068178525545,-146.05777351654743,-44.963976419348434,255.64220969845354,189.654978308697
81,17.907286600157217,-255.40920473317982,-2.726867368947618,65.64729731734988,-132.15174160778938,-49.50970228550755,255.950555496851,184.07722332860848
82,18.985554082371937,-255.7131143382132,-2.918956720862729,63.93468691247054,-117.45620207171034,-54.15407499427343,256.2967420957348,178.34572611083001
83,19.94842941014014,-256.05441732702036,-2.982797087144439,62.12599951939846,-102.11881694094401,-58.87874620048247,256.68186241884774,172.5603014052134
84,20.780854824523107,-256.43388732346415,-2.9112603632361607,60.30232518153207,-86.30421553912262,-63.667259193495596,257.1063787754857,166.82616536809414
85,21.468814298399558,-256.85155881300386,-2.698889411075332,58.55110522100769,-70.19226227303966,-68.50580717861986,257.5700288203006,161.25276488588568
86,21.99959761880888,-257.30662631740785,-2.3421249203660195,56.964268454311174,-53.975938848912854,-73.38393308596629,258.07172736494715,155.95252654074494
87,22.36206457009521,-257.7973421737717,-1.8394907366409925,55.636145530843436,-37.8588687506573,-78.29512998308532,258.6094655518291,151.0395511110558
88,22.546907033657813,-258.3209158601849,-1.191729395180086,54.661218442657734,-22.05252260401939,-83.2373006114272,259.1802105228483,146.6282741807658
89,22.546905479331137,-258.87341986589826,-0.40188227404160454,54.13176186737504,-6.77315389302164,-88.21303684957122,259.77981080373587,142.83210551066097
90,22.357174841255823,-259.4497092240591,0.5246886395215945,54.13542962228354,7.761474982339507,-93.22968550348249,260.40291475367724,139.76205149794225
91,21.975393488478293,-260.04336344647453,1.580338100896791,54.75283584402608,21.335507305673595,-98.29917568194891,261.04291105078164,137.52531816377623
92,21.402007952665667,-260.64666027627476,2.7552329065858014,56.05517861710339,33.73847227148086,-103.43759458906813,261.6919008483623,136.22388798227902
93,20.640405211794334,-261.25059032174175,4.037502381163923,58.10195448307963,44.76875372843892,-108.66451198856625,262.34071085692585,135.95306335821522
94,19.697043743542736,-261.844920479954,5.413439935792001,60.93881518864983,54.236972179291435,-114.00206789153647,262.97895541677894,136.79997301646165
95,18.58153442239052,-262.4183123287785,6.8677503922182535,64.59562200194397,61.96920967350141,-119.47385228531289,263.5951538650701,138.84204468033136
96,17.306662742101743,-262.9584994364416,8.383836736400728,69.08475650256574,67.81001378634281,-125.10361921405693,264.1769072531434,142.14545726953065
97,15.888344830378575,-263.4525248420268,9.94411914394109,74.3997486424541,71.6251237085324,-130.91388962849427,264.71113577119525,146.7635971620584
98,14.34551125223338,-263.8870368665693,11.53037855758566,80.51428220852544,73.30386774510788,-136.92450750035997,265.184375153011,152.73555453650258
99,12.699914564509857,-264.24863802979075,13.124116757243643,87.3816342402736,72.76118738043948,-143.15122091576626,265.58312695844535,160.08470637064872
100,10.97585887412796,-264.5242783436669,14.706924645847407,94.93459853041419,69.93924943503399,-149.60436324486096,265.89425412377614,168.8174415242865
101,9.199852216926883,-264.7016808560246,16.260850328195186,103.0859342815391,64.8086156840795,-156.28770817980052,266.10540975074457,178.92208979194223
102,7.40018534496557,-264.76978423899425,17.76875850442661,111.72936940005229,57.36894888564412,-163.1975660075912,266.2054839865716,190.36812004326387
103,5.606443356315359,-264.7191846741414,19.214672765987533,120.74117362065017,47.64924483303945,-170.32217705510564,266.18505124012404,203.10567148300638
104,3.8489594337373334,-264.54255757256243,20.584092585565283,129.98229942677798,35.70759066224427,-177.64144244154073,266.03679817641887,217.0654755612279
105,2.158222765180995,-264.23503910919436,21.864277191196635,139.30106874975812,21.630459187938577,-185.12701322613916,265.75591226902935,232.15921368762145
106,0.5642554419719542,-263.79454832350996,23.044489210844084,148.53636180209006,5.531556944903543,-192.74273838000414,265.3404113606829,248.28033843365063
107,-0.9040244136751132,-263.2220325683739,24.11619194585278,157.52124304451846,-12.449750203760392,-200.44545168631282,264.79139661287843,265.305365334691
108,-2.2194341346470754,-262.52162207726786,25.073195147483418,166.08694007774014,-32.150405200999494,-208.18605947775973,264.1132141038387,283.0956211596248
109,-3.3571324050000104,-261.7006829446365,25.911745009877418,174.0670750940133,-53.385988823031994,-215.9108762891275,263.31351373079053,301.49941447180714
110,-4.295179381015896,-260.76976151160835,26.630554801028737,181.3020350900135,-75.9533725628662,-223.5631446612213,262.4031976456919,320.3545762737393
111,-5.015031942060697,-259.74241692706676,27.23077342084225,187.64335541682266,-99.63365372472182,-231.08466868935716,261.39625415721326,339.4913025398537
112,-5.501957017618627,-258.63494270027786,27.71589051823128,192.95798113404234,-124.19532603591634,-238.41748841726218,260.3094771037005,358.7352165408868
113,-5.745348822297498,-257.4659825674395,28.091578715618645,197.13226318071085,-149.39763382927083,-245.5055235777781,259.1620753571361,377.9105577011987
114,-5.738939486650177,-256.25605084490667,28.365475776089777,200.0755437660194,-174.99405273759672,-252.29612001584002,257.97518222727484,396.8433964468708
115,-5.480896864236494,-255.02697222580662,28.546911928744926,201.72318963697307,-200.73583529081452,-258.74143974539203,256.77127965646787,415.3647720821969
116,-4.973807947130586,-253.80126028203753,28.646589966315688,202.03894389436593,-226.3755563157538,-264.79964523046743,255.57355679436688,433.313653520448
117,-4.224550918350129,-252.60145750895612,28.6762281686872,201.0164864275436,-251.67059112601228,-270.43583945247565,254.4052265405188,450.5396303796137
118,-3.2440629524321696,-251.4494623983965,28.64817841384553,198.68011853972504,-276.3864595307335,-275.62273512142394,253.28882669018816,466.90525376455207
119,-2.047014131532168,-250.3658705008319,28.5750337097449,195.08451739881232,-300.2999708317158,-280.341038603412,252.24553410693917,482.28796105236376
120,-0.6514002469947774,-249.36935648651064,28.469240652800202,190.3135396483848,-323.20210922070015,-284.579546310091,251.2945205957839,496.5815365205845
121,0.9219310799080392,-248.47612265065953,28.342732884841222,184.4780909056358,-344.9006053185369,-288.3349628628379,250.45237767141734,509.69707957244816
122,2.649805582899018,-247.69943606324333,28.20660119149419,177.71311889801228,-365.22214794515065,-291.611460813556,249.73263411938387,521.563474450904
123,4.507283248967059,-247.04927178497945,28.07081412929161,170.17383061115063,-384.0142003188683,-294.42001087202436,249.14538525370392,532.1273785236439
124,6.468239648959436,-246.53207369302774,27.94399993113642,162.03127353790245,-401.14639628573616,-296.77751944456287,248.6970465254891,541.3527680816917
125,8.505952960518039,-246.15063816098518,27.83329623580036,153.46745261304767,-416.51150425323993,-298.7058166799914,248.3902373572482,549.2200984450537
126,10.593682562434687,-245.9041198426795,27.744269543566457,144.6701737723047,-430.0259585598562,-300.2305427473932,248.22379455372212,555.7251472314427
127,12.705225794397562,-245.78815362777777,27.680901975316868,135.8278109424793,-441.6299693749072,-301.37998231845484,248.1929089472129,560.877615565522
128,14.815440361413268,-245.7950826458676,27.645639455446872,127.12418675251206,-451.28723225647246,-302.18389699234166,248.28937430103917,564.6995625269041
129,16.900720983205513,-245.9142789578702,27.639493007844592,118.73374097180711,-458.98426663248364,-302.672402690406,248.5019339092024,567.2237443818883
130,18.939420245702244,-246.1325412339963,27.66218338530324,110.81713764050122,-464.7294183696981,-302.87493398314894,248.81670774690974,568.4919231823803
131,20.912205181715038,-246.4345522868684,27.712318644302243,103.51743468458008,-468.5515653395844,-302.81933017932255,249.2176814607794,568.553200166673
132,22.802342961667645,-246.80337883971472,27.787594349783994,96.95691063507209,-470.4985669878737,-302.53106940203594,249.6872379728671,567.4624191954341
133,24.595911255264372,-247.22099625953385,27.885006550857252,91.23461377498897,-470.63550002395425,-302.0326676689637,250.20671288585447,565.2786753594845
134,26.281931134570264,-247.6688218252572,28.0010682402472,86.42467128808539,-469.0427229140449,-301.34325103929484,250.7569558291971,562.0639547363664
135,27.852422542876162,-248.1282410131411,28.132020631855333,82.57537086365976,-465.81381197128184,-300.4783007433274,251.31888093465085,557.8819233188564
136,29.302384281947873,-248.5811120983673,28.274031364642557,79.70900488878715,-461.053411352012,-299.44956409430483,251.8739906179988,552.7968762199965
137,30.62970229641245,-249.01023527070137,28.42337276796721,77.82244726500345,-454.8750380736696,-298.26511798399554,252.40485797280903,546.8728521028469
138,31.834991826958685,-249.39977375550242,28.57657463484236,76.8884143110698,-447.3988812824406,-296.9295670114285,252.89555466905242,540.1729122536955
139,32.921380657482004,-249.7356162782336,28.73054753974299,76.8573438106454,-438.74963257601405,-295.4443549277569,253.33201343448727,532.7585788453307
140,33.89424200265041,-250.00567252616605,28.88267453321275,77.65981015095682,-429.0543815089049,-293.80816611541286,253.702316859698,524.6894228402559
141,34.76088644753362,-250.20009587113083,29.030870859751246,79.20937910462413,-418.4406078199513,-292.01739311779835,253.99690719382028,516.0227887969546
142,35.53022279318789,-250.31143040081415,29.17361294415506,81.40579377903133,-407.0342996739779,-290.0666465957892,254.2087148389825,506.81364164333246
143,36.212397863742886,-250.3346821458084,29.309939104908405,84.13837449221626,-394.95822529002885,-287.9492853489029,254.3332062906433,497.1145192387773
144,36.81842548672233,-250.26731707976464,29.439425215637183,87.28951089528404,-382.33038344215544,-285.6579461332545,254.36835511950656,486.9755741512231
145,37.35981496578513,-250.1091907849853,29.562138879236247,90.7381254043618,-369.262656001114,-283.1850558986447,254.31454202553772,476.4446883651409
146,37.848209206836025,-249.86241653270497,29.67857576486414,94.36299316424183,-355.8596824444419,-280.52331259767084,254.1743919195603,465.5676453480798
147,38.295042053617465,-249.53118000550742,29.78958184095456,98.04581501363623,-342.21797172681676,-277.66612457099603,253.95255748228124,454.38834475157665
148,38.71122335712977,-249.12151006622062,29.89626543197669,101.67395582970477,-328.4252609425467,-274.6080023221703,253.65545980242334,442.9490459062502
149,39.10685897775788,-248.64101580710263,29.99990313068831,105.14278075551766,-314.56012296648765,-271.3448999188549,253.29099745033412,431.2906272671337
150,39.49101143907546,-248.09860047913963,30.10184331156491,108.35754515773382,-300.6918170993861,-267.8745058933862,252.8682355677917,419.45285002363255
151,39.871505438307324,-247.50416271721136,30.203410293353286,111.2348187871217,-286.8803682269338,-264.1964849238736,252.39708617486593,407.47461485655316
152,40.25478092194762,-246.86829473637738,30.30581142644342,113.70344806357016,-273.17685180132423,-260.3126715220673,251.88798994848506,395.3942008743781
153,40.645794906777915,-246.20198599946679,30.410048995798704,115.70508045929725,-259.62385475262346,-256.2272156627766,251.35160838088575,383.24947496430053
154,41.04797163008101,-245.51633950792444,30.51683912755637,117.19429009918775,-246.25607685028825,-251.94667841601773,250.79853376772772,371.07805846579896
155,41.46319908256522,-244.82230665135953,30.626540802527735,118.138353334015,-233.10103356859887,-247.48007391679107,250.23902321885652,358.9174368243154
156,41.891868776371474,-244.13044566884415,30.739099162058423,118.51672760253723,-220.179820530895,-242.83885291428408,249.68276201154654,346.8049974204411
157,42.3329548807342,-243.45070823079232,30.854007941409623,118.32028774253267,-207.50790131866478,-238.03682295469312,249.13866106726746,334.7779818452642
158,42.78412852304516,-242.79225824989737,30.970295733327262,117.5503727961123,-195.0958847788895,-233.09000122189994,248.61469288030344,322.87334217007583
159,43.24190289133203,-242.1633264864698,31.086539920349068,116.21769471542066,-182.95026445377786,-228.0163983896072,248.11776955602494,311.1274964581024
160,43.70180465439273,-241.57110362240488,31.20091073706024,114.34115888656707,-171.07410038522292,-222.83573544937596,247.65366553781084,299.5759863447383
161,44.15856709408999,-241.0216732361221,31.3112461985559,111.94664502065739,-159.46763106739806,-217.56909990856437,247.22698612704352,288.25304780101584
162,44.60634015983607,-240.51998465619144,31.41515667767083,109.06579533640614,-148.1288097818647,-212.23855228593695,246.84118116967306,277.19111393230384
163,45.03891232795709,-240.0698640977667,31.510155828404365,105.73485470215937,-137.0537646746945,-206.86669772743204,246.4986013857012,266.4202749826104
164,45.44993864847672,-239.67406078143364,31.59381239904644,101.99360418278283,-126.23718606699168,-201.47624020950133,246.20059274646718,255.96772520973806
165,45.83316873593036,-239.33432290649918,31.66391536632196,97.88442474850847,-115.67264816835585,-196.08953780511487,245.94762208945548,245.85722876667367
166,46.18266785393576,-239.0514965341273,31.718643018808017,93.45152101742013,-105.35287588450494,-190.72817677291968,245.7394249926617,236.1086369717591
167,46.49302388638114,-238.8256389142518,31.756725502607203,88.74032521630558,-95.26997067076017,-185.41258005153728,245.57516517923807,226.73748726170876
168,46.759533048293996,-238.65613697502764,31.777590194213243,83.79708908165418,-85.41561203371947,-180.16166260910555,245.4535938583405,217.7547098635506
169,46.97835762703594,-238.54182190688786,31.78148009994633,78.66865703248298,-75.78125296904956,-174.99254256374056,245.37319774268906,209.16646226151107
170,47.146649705623766,-238.48107194532952,31.769537122811734,73.40239911535276,-66.35832806204597,-169.9203134669298,245.33232590409992,200.9741044840718
171,47.26263564706955,-238.47189718787297,31.743844281679795,68.04626874364024,-57.13849194346656,-164.95787986103025,245.32928771440982,193.174320722562
172,47.32565720881529,-238.51200224404934,31.70742360264528,62.64893988269284,-48.11390316772485,-160.11585526042296,245.36241654489794,185.75938543185416
173,47.33616664643391,-238.59882464504912,31.664189179726293,57.25997239646273,-39.27756443254325,-155.40251901426373,245.43009658824437,178.71756541636992
174,47.29567508619522,-238.7295492205999,31.618857559442844,51.92995333940269,-30.623724645917452,-150.8238259911313,245.5307530804589,172.03364388989087
175,47.20665565129709,-238.90110091675925,31.576819906189044,46.71056579049113,-22.148342073786417,-146.383460675544,245.6628091097365,165.68954835762437
176,47.072405057898045,-239.11012048884618,31.543982213619874,41.65454450011089,-13.84960119382646,-142.0829252375014,245.82461475028614,159.66506147980087
177,46.89686942373119,-239.35292890715414,31.52658110993149,36.81548796085424,-5.728469506150434,-137.92164967124762,246.0143561577473,153.9385927459836
178,46.6844417389512,-239.62548706052783,31.530983528609408,32.24750827589507,2.2107250849892934,-133.89711142665314,246.22995338796346,148.4879885849249
179,46.43973984658555,-239.92335747499877,31.563478626532824,28.00471224179727,9.959720188432044,-130.00495227488594,246.46895608922836,143.29135918742708
180,46.16737495303796,-240.24167435577496,31.630069892373186,24.140518443000857,17.505774977008585,-126.23908161796348,246.72844596796736,138.32790161896855
181,45.87172164555736,-240.5751273734424,31.736274623760046,20.706825212369974,24.831184402662075,-122.59175808531273,247.00495413136812,133.5787005703112
182,45.55670092941836,-240.91796335153055,31.886937106685032,17.753052708482233,31.912879039924814,-119.05364482921779,247.29440016064683,129.0274901147736
183,45.2255876025799,-241.26400851779147,32.086061041784745,15.325089005917851,38.72213593584417,-115.613837976594,247.59205816674367,124.66136180542462
184,44.88085223489577,-241.60671238204634,32.33666603595363,13.464174980072137,45.22442256144617,-112.25987165919236,247.8925532286201,120.47140601550966
185,44.52404630105575,-241.93921271735954,32.6406722376942,12.20576585680944,51.37939181816558,-108.97770643658981,248.189889655547,116.45327435039775
186,44.155736946499005,-242.25441973216138,32.998816344794044,11.578408573484314,57.14104144362133,-105.7517104612721,248.4775106762122,112.60765122695152
187,43.77549564126802,-242.5451165646552,33.4106011824454,11.602673641818773,62.45804647798711,-102.56464437337111,248.74838769929835,108.94062259007917
188,43.38194264926177,-242.80407286775463,33.87427983010896,12.290178161023086,67.27426891881012,-99.39766176519855,248.9951363787454,105.46392960192087
189,42.972846829231806,-243.02416845886157,34.386873939316935,13.642733153753799,71.52944428983827,-96.2303372536587,249.21015634019835,102.19509531543828
190,42.545277827699664,-243.1985245962884,34.94422452413497,15.651643697736453,75.16004048260695,-93.0407338391166,249.3857914151182,99.1574130460512
191,42.09580526734502,-243.32064118531665,35.54107216470381,18.29718478845916,78.10027993360262,-89.8055203542049,249.51450737409124,96.37978653279754
192,41.62073715183094,-243.38453893381285,36.17116232020934,21.548270086003726,80.28331212966171,-86.50014835393837,249.58908429825473,93.89641408204034
193,41.1163875174698,-243.38490600349905,36.82737051535053,25.36232534803531,81.64251967885413,-83.09909563611777,249.60282076116323,91.74631162433045
194,40.5793615002624,-243.31724883029526,37.501841792375146,29.685374003455678,82.11293765579458,-79.57618065838162,249.5497467655709,89.97267286393159
195,40.00684463127565,-243.17804635994526,38.18613909755307,34.45233932741693,81.63276243923846,-75.90494857226305,249.42484178335795,88.6220684256822
196,39.39688254565437,-242.9649059953949,38.87139605630441,39.58756612057195,80.14492266726408,-72.05912570077024,249.22425333492785,87.74349016781396
197,38.74863752387661,-242.67671826712146,39.5484705973394,45.00556440686752,77.59868124053592,-68.01313537500077,248.94551048249662,87.38725169478928
198,38.06260932843814,-242.31380582900908,40.20809685180212,50.61197775825933,73.9512336317739,-63.74266447958866,248.58772556084503,87.60376153158775
199,37.34080952968429,-241.8780610329801,40.84103356607959,56.304778454179754,69.16926433207868,-59.22526723218197,248.15177657034312,88.44219125597155
200,36.58688081810774,-241.37306518761014,41.43820790872171,61.97568984674032,63.23042043299329,-54.44099102504579,247.64046202737754,89.94906694997469
201,35.80615549085189,-240.80418174304816,41.99085400828341,67.51183240227043,56.1246596044997,-49.37300883590403,247.05861975206048,92.16681846819046
202,35.00565009375415,-240.1786150987125,42.49064581875208,72.79758367523254,47.85542958765951,-44.00824371432348,246.41320104900296,95.1323269393483
203,34.1939958493824,-239.50542650470436,42.92982394722905,77.71663397781855,38.440638011284484,-38.33797275507911,245.7132919571429,98.87551596767042
204,33.38130685867638,-238.79549866134212,43.30131583298849,82.15420896541288,27.913374652951145,-32.35840013710311,244.97007371132864,103.41803512199435
205,32.57899003249824,-238.06144130632728,43.59884815013777,85.99941817258909,16.322352638448503,-26.071190555318232,244.1967154482448,108.77208427818024
206,31.79950223318727,-237.31743164556426,43.817049730370734,89.14767539708242,3.732039929225352,-19.483955143372857,243.4081938545773,114.93942333507718
207,31.056061210830464,-236.57898611958043,43.95154299941555,91.50312388459884,-9.777542491535836,-12.6106814703378,242.62103714349635,121.91060379183554
208,30.36231776916424,-235.86266350407666,43.99902208961899,92.98098819223189,-24.11137389530068,-5.472097406726976,241.85299432334654,129.66444794024773
209,29.731997499555455,-235.18570326377997,43.95731633262705,93.50976739563868,-39.16035042050136,1.9040441208098153,241.12263477177697,138.1677902477453
210,29.178521640314585,-234.56560700312448,43.825438419225726,93.03318267736029,-54.802569149966686,9.48277578044167,240.44888722835717,147.37548618421098
211,28.714618108019963,-234.01967448849737,43.60361676888308,91.5117970283771,-70.9049741304549,17.221841486169094,239.85053110896257,157.2306875203315
212,28.35193517678852,-233.56450878280157,43.2933113791891,88.92423526210142,-87.32534719022766,25.071759305547193,239.3456561791686,167.6653796727049
213,28.100671329413256,-233.21550735118907,42.897211740809006,85.26794737550213,-103.91461326101741,32.97604525904223,238.95110889772798,178.60117458190032
214,27.9692353201405,-232.98635755007578,42.41921467733215,80.55947601094518,-120.51941605974875,40.87162118091026,238.6819451826535,189.950350372467
215,27.963950367111746,-232.8885557031891,41.86437957200243,74.834208216083,-136.984906416942,48.68942714222673,238.5509100199614,201.61712566752388
216,28.08881548074055,-232.93096891463514,41.23885855335403,68.14561194364464,-153.15767321153632,56.355253919549874,238.56796416562077,213.49915147634795
217,28.345335166198115,-233.11945785545922,40.54979982285566,60.56397790360497,-168.88873661729565,63.79080364643537,238.7398771653776,225.48919698987135
218,28.732426259241002,-233.45657715599597,39.8052233059665,52.17470661234116,-184.0365158027718,70.91497728735006,239.06990419520292,237.47699763145874
219,29.246407721370563,-233.9413679240389,39.01386898657186,43.07619795087472,-198.4696786895379,77.645376332473,239.5575619712227,249.35122473163958
220,29.881076015740703,-234.56925430302687,38.185019374010814,33.37741549700213,-212.0697799559875,83.89999378525422,240.1985161702364,261.00152678241085
221,30.627865303456275,-235.33205281946366,37.328298395878406,23.195209730251445,-224.7335952105568,89.59905692174355,240.98458935134926,272.32058313749206
222,31.476088253131408,-236.2180995753289,36.453449730692775,12.651492508298402,-236.37506428376713,94.66697232183257,241.90389433401947,283.2061032710224
223,32.413249903995215,-237.21249623721954,35.57009849238968,1.8703596724096323,-246.9267651689294,99.03431315501923,242.94109354983556,293.5626994718641
224,33.42542394357135,-238.2974713849044,34.68750149853051,-9.024741018081501,-256.3408526585161,102.63978030830623,244.07778022840355,303.30355934446516
225,34.49767812845438,-239.45284927175936,33.81429323018323,-19.91370328394717,-264.58941265447834,105.4320630219065,245.29297260518786,312.3518478273
226,35.614533484409456,-240.65661362021874,32.95823711001718,-30.682231342835752,-271.6642048853514,107.37152132608563,246.56370787714064,320.6417774403081
227,36.76044034725587,-241.88554982699765,32.125994813046304,-41.22400911363361,-277.5757933305831,108.43161171627622,247.86571846991103,328.11930029805916
228,37.92025318848741,-243.11594480065915,31.322929425240996,-51.4425057739108,-282.3520942120989,108.59997924965757,249.17416915206698,334.7423953209024
229,39.07968550750498,-244.32431950898084,30.55296013783875,-61.25236613376313,-286.0364039973618,107.87914406013093,250.46442939719617,340.4809473696496
230,40.22572600345862,-245.4881654432734,29.818485227180968,-70.58034845250208,-288.68500113729056,106.28671914884544,251.7128512910965,345.3162394357725
231,41.34699802080234,-246.58665341008648,29.120385282477326,-79.36579143755314,-290.3644407741933,103.85511055285117,252.8975200060781,349.24010226648346
232,42.43404593530034,-247.6012823937695,28.45811030127099,-87.56061961726428,-291.14867689941366,100.63067190490676,253.99894257511787,352.253786335664
233,43.47953425771547,-248.51643853569564,27.829844095045026,-95.12893270482454,-291.1161486553362,96.67231361589543,255.00064231369456,354.36663808998276
234,44.478347387794805,-249.31983988315147,27.232729993937014,-102.04626517255308,-290.3469571364709,92.04960180684776,255.88963117704685,355.59467496767826
235,45.42758076059083,-250.00285113462502,26.663135538591604,-108.298636747023,-288.92023999882537,86.84042123411702,256.65674053986413,355.95916001927367
236,46.32641900543538,-250.56066292350155,26.116932035464817,-113.8815305772026,-286.91182894790455,81.12831527424312,257.29680156823343,355.48527509149477
237,47.175904490257075,-250.9923402337419,25.58976734476177,-118.79892457766542,-284.3922541777092,74.99964846822566,257.8086778105275,354.2009806852986
238,47.97860950620723,-251.30075228701273,25.077315694701124,-123.06246220334133,-281.42514167863357,68.54075695545126,258.1951626659993,352.1361315150021
239,48.73823551129798,-251.49240049146175,24.57549486754844,-126.69079018286116,-278.0660332000859,61.835255012897534,258.46276125368473,349.32189086459834
240,49.45917128847803,-251.57716180388113,24.08064719526224,-129.70902725959874,-274.3616428016032,54.961650816355004,258.62137924629457,345.790455509245
241,50.14604691452904,-251.56796307921564,23.58968534663723,-132.1482755053967,-270.34954680959424,47.99139394715527,258.68394087827267,341.57506869412913
242,50.80332098287934,-251.4803990369841,23.10020633916966,-134.0450563078163,-266.05828495561883,40.98743627337136,258.6659556914111,336.7102662666904
243,51.43493435490202,-251.3323036305282,22.61057758542745,-135.44055248230922,-261.50783029018396,34.00334307285171,258.58504995995526,331.2322772458547
244,52.044055605937324,-251.14328269162257,22.11999762282525,-136.37956536009023,-256.710366334585,27.082948675591364,258.4604752595759,325.1794905276106
245,52.632932752737176,-250.9342150627641,21.628532329356524,-136.90914479783032,-251.67129456362537,20.26051493266621,258.3126039969408,318.5929054999322
246,53.20285445075713,-250.72672994954067,21.13712573120439,-137.07691062981704,-246.39038592758425,13.561323948349278,258.16242012780015,311.5165025398281
247,53.754213060086805,-250.5426696433221,20.647583508527923,-136.92914442580988,-240.8629880639306,7.002619506997627,258.03101268940986,303.99749330173785
248,54.286652857544716,-250.40354872562327,20.162527234221677,-136.50877998728902,-235.0812055963041,0.5948039939151986,257.93907996234896,296.08643429368465
249,54.79927999145008,-250.33002298561053,19.685318279764072,-135.85345253665534,-229.03498395840373,-5.657201982118145,257.9064528276889,287.8372067250637
250,55.290907076584524,-250.34138317947003,19.219952084615464,-134.99377679148503,-222.713045766588,-11.752523395233505,257.95164696816653,279.3068796482812
251,55.760304826145166,-250.4550900992577,18.770925786178925,-133.95201332031257,-216.10365003135232,-17.692893155397428,258.0914547439261,270.555481913501
252,56.20643560602775,-250.68636792522338,18.343084524556588,-132.74125333241892,-209.1951651322129,-23.481274582362296,258.34058858649405,261.64571150241386
253,56.628648669835556,-251.04787228358379,17.94145353126436,-131.3652083283263,-201.97646364661745,-29.12059119868742,258.71138827132205,252.64260834779026
254,57.02682318595131,-251.5494475971912,17.57106400078578,-129.81863773947063,-194.43715917828342,-34.61259736888439,259.213604031022,243.61320883732188
255,57.40145191847855,-252.19798496307254,17.236780502754886,-128.0883905344329,-186.56771207598428,-39.95691160958061,259.8542656618526,234.6261874387169
256,57.75366453839171,-252.9973868132298,16.943136237543065,-126.15498212311262,-178.35943340860288,-45.15022546724859,260.63764418254175,225.75147482673344
257,58.085194326562885,-253.94863827005378,16.694179991764337,-123.99458224406872,-169.80441653875192,-50.18569489898568,261.565307298328,217.05982541562526
258,58.398295283342726,-255.0499781030201,16.493335829491905,-121.58125851806459,-160.89542501983982,-55.052517727491185,262.63626356438766,208.62229441469484
259,58.69561856827165,-256.2971555315555,16.343274138186786,-118.88930754075481,-151.62576579511375,-59.735699329886316,263.84718379981217,200.509579809717
260,58.980058090326466,-257.68375379230304,16.245791254726612,-115.89551132890467,-141.98917840179533,-64.21600861747255,265.19268307310574,192.79119098334343
261,59.254575214633455,-259.20155808458617,16.201694813092278,-112.58117913952505,-131.97977367946402,-68.47012694055375,266.66564323055917,185.53442314905254
262,59.52201208359702,-260.84094441584944,16.210693113332027,-108.93386836576987,-121.59205816222956,-72.47099306903569,268.25755470076416,178.80314249825238
263,59.78490207484972,-262.59126669076505,16.271288895250102,-104.94871748354026,-110.8210813596966,-76.1883469652901,269.9588569075783,172.65641605735576
264,60.04528460647639,-264.4412215962647,16.38068047093377,-100.62936306768452,-99.6627410948908,-79.5894727151189,271.75925855981683,167.14704728989201
265,60.30453009530469,-266.379173952753,16.53467572967394,-95.98844688501677,-88.11427610762064,-82.64013584546534,273.6480219104381,162.3200987426304
266,60.56317961644258,-268.39342884376066,16.727626590910823,-91.04774465064862,-76.17496517808782,-85.30570183428387,275.6141984301185,158.21149331359638
267,60.82080286990135,-270.47244065754245,16.952392632130223,-85.83796351366277,-63.84703875482376,-87.55241102672797,277.646806894901,154.84678463864714
268,61.07587754759999,-272.6049529473342,17.200342530715435,-80.39826071101724,-51.1367935897831,-89.34877120048279,279.7349484374433,152.24017513702643
269,61.325693200355055,-274.78006670756065,17.461400485836386,-74.77553268735022,-38.05588434169381,-90.66701402991852,281.86785664455215,150.39383964573295
270,61.56628323167845,-276.9872383278001,17.72414213960827,-69.02351518658476,-24.622749473988236,-91.48454745349042,284.034884372898,149.2975869150978
271,61.79238951455912,-279.21621213117226,17.975941246802932,-63.20172384187296,-10.864112814773366,-91.78532437026713,286.22543259392666,148.92886477727643
272,61.99746497674242,-281.4568959763586,18.20316507700287,-57.37425486293188,3.183512420603342,-91.5610409331398,288.42883016320593,149.2530914451541
273,62.173719902003334,-283.6991918070338,18.391413727038916,-51.608458934721284,17.47240260157556,-90.8120763915793,290.6341767712814,150.22427803459632
274,62.312217322320784,-285.9327960758519,18.52579637483664,-45.97349971843433,31.942379747623384,-89.54809201157431,292.8301642249242,151.78589766990686
275,62.4030216286617,-288.1469874085336,18.591236030268327,-40.538811712706156,46.51984224922789,-87.7882195640547,295.0048933756322,153.87195483422403
276,62.43540254124218,-290.33042058045504,18.572793520261335,-35.37248010049718,61.11716473874473,-85.56078993458344,297.14570536528,156.4082141283414
277,62.398094069526145,-292.47094682937603,18.456001332969773,-30.539576014724098,75.63255130664744,-82.90257843447812,299.23904642385554,159.3135583045855
278,62.27960519019462,-294.5554805827493,18.22719854786357,-26.10049191509174,89.95040887355692,-79.85757359031643,301.27038512156815,162.50145846661493
279,62.068575756482296,-296.56993150837803,17.873859242954595,-22.10933046836888,103.94228406693966,-76.47530832749779,303.2241994300158,165.8815514095737
280,61.75416779844299,-298.49921805431524,17.384908200261993,-18.612403693102003,117.46837925832101,-72.80882407814961,305.0840478523389,169.36132719697065
281,61.32647918539765,-300.3273741382684,16.75101905653445,-15.646895524609086,130.37963395986426,-68.91236686497561,306.83273408162347,172.84793201112015
282,60.776963909227796,-302.037754444012,15.964890911095353,-13.2397305489295,142.52032917787486,-64.83893728344458,308.4525682339221,176.2500860169933
283,60.098841212770466,-303.6133362565495,15.021499589371947,-11.406676575497979,153.73114683793005,-60.63783116774298,309.92572006517946,179.48010377771112
284,59.287474572976826,-305.03710763289456,13.91831928285764,-10.15169246160532,163.85259563414255,-56.352312721386966,311.2346514475031,182.4559875464833
285,58.34070133719326,-306.2925239902908,12.65550936411357,-9.466518874232479,172.72869947026498,-52.017555967725855,312.36260780624383,185.103544872698
286,57.25909477767957,-307.36400903951,11.236060149525096,-9.330501230339097,180.2108352135891,-47.65897349232659,313.29414237218083,187.35846539810512
287,56.046142485154924,-308.23747225347245,9.665890620306975,-9.71063198291384,186.16160240012658,-43.29102470820341,314.01564383317304,189.16828082507752
288,54.708328189373326,-308.90081402450085,7.953890880435996,-10.561802981287196,190.45860815928617,-38.91656155694338,314.5158375213077,190.49412843127496
289,53.25510805265171,-309.3443911001603,6.111902495230026,-11.827265605293857,192.99805528658447,-34.52673101112344,314.78623237199673,191.31224190947492
290,51.698777095169525,-309.5614182719622,4.154630759307112,-13.439303827098302,193.69802946417212,-30.101414985513255,314.8214899891165,191.61510219531448
291,50.05422659905162,-309.54828695967433,2.09948438445318,-15.320130690963955,192.5013924608543,-25.610153303340464,314.6196975742997,191.412193396448
292,48.338598929842256,-309.30478666127834,-0.03365983877716772,-17.383020402991665,189.37820096991402,-21.013467447236923,314.1825325811761,190.73032333768143
293,46.57085187754899,-308.8342207766193,-2.2227671309693062,-19.533685908258278,184.32758477307928,-16.264484018573953,313.51531322921494,189.61348358071146
294,44.77124998662945,-308.1434137585698,-4.444026078515736,-21.67190569442069,177.37903251303848,-11.310748044375824,312.62693508116945,188.1222396303308
295,42.96080507218891,-307.2426116298234,-6.67229445853835,-23.693393758347767,168.59304814941802,-6.096117441877924,311.52969942042057,186.33265830740456
296,41.16069171331184,-306.1452823452302,-8.881599743141987,-25.491893194374256,158.06115613143416,-0.5626401142566556,310.2390438070874,184.33479594885233
297,39.39166527621393,-304.86782601577954,-11.045681916085888,-26.961456909550684,145.90524868106226,5.347667464442236,308.77318860085296,182.23078800319644
298,37.67350940512534,-303.4292074517976,-13.13856389409791,-27.998859492458006,132.27628452750736,11.6911990778665,307.1527151908607,180.13259697163934
299,36.024536918278194,-301.8505247618824,-15.135132603046776,-28.50606423357705,117.35236465865796,18.521329539159183,305.4000921549486,178.1594898552727
300,34.461163199457225,-300.1545279393789,-17.011711767524645,-28.392651579652718,101.33622626056417,25.887188285118878,303.53916477902817,176.435326071038
301,32.997565318731645,-298.3651007071604,-18.746606117450433,-27.578103192374208,84.4522099970452,33.8326264354792,301.5946216666124,175.08574048927474
302,31.645434100477267,-296.5067177357919,-20.320596469568166,-25.993832332031563,66.94276769557348,42.395353276401565,299.5914500486405,174.23530396079866
303,30.413820824018263,-294.60388815820454,-21.717366392717736,-23.584858555523812,49.06458769739287,51.60621025696721,297.55438942616064,174.0047377409372
304,29.309075519883432,-292.6805955449647,-22.923844000655382,-20.311043072224606,31.084424284012236,61.48854980013674,295.50739186898477,174.50825182724617
305,28.33486999091751,-290.75974451184925,-23.93044650918747,-16.14782892679416,13.274725930403955,72.05769186618994,293.47309698631983,175.85107259312883
306,27.492295726316385,-288.86262491846986,-24.73121992793523,-11.086464162747374,-4.090836107224479,83.32044182126754,291.47233025084984,178.12722209594585
307,26.780024808423853,-287.0084058188431,-25.323871016727878,-5.133722002422132,-20.74183367705312,95.27466675305972,289.52363458180827,181.41760803146298
308,26.194520825444062,-285.21367244092653,-25.709693086590022,1.6888344554735415,-36.415437638062556,107.90894167639067,287.6428463511808,185.78847705903573
309,25.730286732289546,-283.4920201619157,-25.89339132911647,9.345968116633925,-50.86056496711504,121.20228984080204,285.84272792830285,191.29027368469698
310,25.38013736543596,-281.8537195541791,-25.88281714627741,17.79017070665925,-63.841728292105095,135.12405062633613,284.13266934798355,197.95693222751026
311,25.135485552636535,-280.30546597162777,-25.68862432288326,26.96325019634423,-75.14251256665179,149.63391281972287,282.51847149290165,205.8056122317181
312,24.986632107063876,-278.85022561689345,-25.32386257566074,36.79800190741743,-84.56861950497766,164.68214952140028,281.0022220441426,214.83687029236995
313,24.92305122443286,-277.4871873582931,-24.803525714031437,47.21987237815113,-91.95043761907017,180.21008334663043,279.58227309767824,225.03524542691753
314,24.93366382429919,-276.2118257294646,-24.14407219636649,58.14854103670105,-97.14511289560782,196.1507976146091,278.25332571805103,236.37022145413775
315,25.007092269970997,-275.0160757982517,-23.362935366804884,69.4993635638442,-100.0381108478684,212.4300924484683,277.006622073454,248.7975179692095
316,25.13189088416721,-273.88861537225984,-22.47803937391415,81.1846398022439,-100.54427378231938,228.96766632430374,275.8302406515152,262.2606509319498
317,25.296747969478563,-272.8152448733569,-21.507334997113446,93.11468631157945,-98.60838725480671,245.67848589213745,274.7094849939045,276.6926946665233
318,25.49065667634171,-271.7793507590414,-20.468367662747003,105.19870821725924,-94.20527707314459,262.4742918348083,273.62735203008026,292.0181698928196
319,25.703053827527537,-270.7624350078164,-19.377888106043123,117.34547658818042,-87.33946325206563,279.265177639189,272.5650628438524,308.154978229243
320,25.9239273756295,-269.7446910204184,-18.2515144979114,129.46382629133876,-78.04440042179117,295.96117242148995,271.50263664323086,325.0163032589183
321,26.14389425268593,-268.7056052509006,-17.103453199181487,141.4629952649915,-66.38133573551346,312.4737588802772,270.4194877160322,342.51240224342286
322,26.354250840021432,-267.6245639121182,-15.94628335522029,153.25282959196062,-52.437815955653754,328.71726298047037,269.29502515502014,360.5522209466472
323,26.54699819040872,-266.48144517624894,-14.790808254474564,164.7438799451174,-36.32587607188553,344.6100623472833,268.1092361084746,379.04477628843466
324,26.714843657234823,-265.2571793469573,-13.645973969899806,175.84741448505957,-18.17994356475851,360.0755742710551,266.84323522140835,397.9002667087208
325,26.851180023915205,-263.9342623324064,-12.51885354439342,186.4753719020018,1.8455039241687308,375.0430002044673,265.4797656404027,417.0308869939946
326,26.950042993876927,-262.49721113792395,-11.414692997980667,196.5402769039968,23.578484027847214,389.44782029341684,264.00364025040545,436.3513417258079
327,27.006048422887773,-260.9329537965217,-10.337013775701628,205.95514004398848,46.8322076135397,403.23204762150357,262.4021155149625,455.7790684539363
328,27.01431214298242,-259.23114993559113,-9.287764985310552,214.63336538954812,71.40787194370931,416.34426635285513,260.6651941989458,475.2341974019002
329,26.97035737859316,-257.3844416691364,-8.267517962097656,222.48869396715688,97.09748763597871,428.73948976897987,258.7858569729502,494.63928843296145
330,26.870016948175067,-255.38863724999032,-7.275695352559482,229.43521819880556,123.68667854082321,440.3788824387686,256.7602259055632,513.9188977542335
331,26.709339055789105,-253.24283161956225,-6.310826903607146,235.38751170678262,150.95739939367886,451.22939489088924,254.5876647732052,532.9990360223102
332,26.484506252309338,-250.94946861765422,-5.370824235284417,240.26092803306335,178.69052614820242,461.26335901479683,252.27082188305184,551.8065855661885
333,26.191777128261283,-248.51434924755478,-4.453266865141491,243.97212854253715,206.6682863850297,470.45808830948124,249.8156207972397,570.2687466258609
334,25.827459525659542,-245.94658916346378,-3.5556916252115296,246.43990123798696,234.67650998522618,478.79551986542134,247.2312031040345,588.3125801066976
335,25.387922461906285,-243.25852675202844,-2.6758774478252554,247.5863257691533,262.50669143422317,486.2619258083872,244.5298254969682,605.864706950853
336,24.86965153659746,-240.46558132359235,-1.812117296804415,247.33832403442372,289.9578632751682,492.8477120868056,241.7267114037351,622.851211999221
337,24.269349489686007,-237.58605953043227,-0.9634687112222918,245.62961084607295,316.83828483551986,498.5473129462789,238.8398557838249,639.1977841652003
338,23.584080065205907,-234.64090748335946,-0.1299740302557492,242.4030276157629,342.966951976665,503.3591808536715,235.8897808032435,654.8301066467313
339,22.811449723976498,-231.65340621232002,0.6871589049502389,237.6132077077422,368.17493362580007,507.28586427375933,232.89923998829184,669.6744928509073
340,21.949818304992593,-228.64880908913366,1.4854246055467766,231.22948885212807,392.30654064895396,510.33415952756974,229.89286915602793,683.6587474415712
341,20.998526610024346,-225.65392151662127,2.2609445198754465,223.23895866169232,415.22033302098345,512.5153178449125,226.8967838431943,696.7132184769797
342,19.95812623621948,-222.69662540735425,3.0084549229479793,213.64949548286614,436.78997230501943,513.8452846291904,223.9381249390636,708.7719963438855
343,18.830595125395927,-219.80535352596692,3.7213624752411274,202.49264933653347,456.90492770259,514.3449449782803,221.04455659300578,719.774208034839
344,17.619521613821615,-217.00852151744374,4.391869202482836,189.82619696915555,475.47104464044344,514.0403478155447,218.24372310868165,729.6653509080526
345,16.330240449309194,-214.33392831237612,5.011165766888264,175.73620132840048,492.4109842480586,512.9628807223146,215.56267439391613,738.3986079365575
346,14.969906260215222,-211.80813853477076,5.569688814956041,160.33840952408482,507.66453961383183,511.1493687784751,213.02727255729621,745.9360861942245
347,13.547493141065356,-209.4558634445349,6.057435037520995,143.77883527461043,521.1888303544382,508.6420733201843,210.66159532218768,752.2499218276414
348,12.07371310289785,-207.29935957502363,6.464321641151577,126.23339293128357,532.95837139613,505.4885702402628,208.48735478806782,757.323198259536
349,10.560850819175194,-205.3578661609684,6.7805804951050295,107.90648111840962,542.9650061188001,501.74149186568707,206.52335226022564,761.1506302917912
350,9.022517053105009,-203.64710327037236,6.99717146840526,89.02845456113214,551.2176895595751,497.4581211579111,204.7849909369171,763.7389754442412
351,7.4733280194949065,-202.17885199239086,7.106199489812758,69.85197111011935,557.7421053241587,492.6998318398015,203.28386789160365,765.1071451351581
352,5.928522383779829,-200.96063608541132,7.101319651893997,50.647254554374996,562.5801006038075,487.53137314044363,202.02746498207893,765.2860014229259
353,4.403531393677506,-199.99552140992012,6.97811509631744,31.696369677144205,565.7889269448023,482.0200033275359,201.0189552954627,764.3178388787226
354,2.9135205531901107,-199.28204562716573,6.73443314036228,13.286661621220357,567.4402795367254,476.23448220087073,200.25713785490413,762.2555646721714
355,1.4729230409638694,-198.81428630350135,6.370665854975556,-4.296435907725474,567.6191340329191,470.2439393315176,199.73650883611057,759.1616021109032
356,0.09498561704119463,-198.5820707968602,5.88996217185362,-20.776973775709216,566.4223864268998,464.11664201501543,199.4474725757609,755.1065526088879
357,-1.208652878507008,-198.5713260680256,5.298360011799861,-35.896158590280905,563.9573074776877,457.9186944194079,199.37669021489575,750.167657563823
358,-2.428332021887975,-198.76456082828744,4.604829258755167,-49.41982066533368,560.3398282963758,451.7127067750561,199.50755794710534,744.4271049905263
359,-3.5566735521099937,-199.14146636005032,3.8212197094067237,-61.14537666290579,555.692678321593,445.55647999387014,199.82080073000787,737.9702270773939
360,-4.588806194004227,-199.679616317567,2.962112245548485,-70.90800027710215,550.1434015504927,439.50175597099997,200.29516137436295,730.8836354773354
361,-5.5225036272608685,-200.35524032748447,2.0445761208022404,-78.58574417065388,543.8222815905831,433.5930861171783,200.90815962684306,723.253341879191
362,-6.358232130049236,-201.14404170854195,1.087839961806914,-84.10339807635893,536.8602103457703,427.8668696990413,201.63689159708403,715.1629122165332
363,-7.099108492409981,-202.02202650588615,0.11288828158380748,-87.43491874117356,529.3865386374042,422.35060897872194,202.45883695578667,706.6917035303899
364,-7.750771983011654,-202.96630962522272,-0.8580014319149302,-88.60432416833193,521.5269503357924,417.0624198822469,203.3526400288532,697.913233071975
365,-8.32117646528885,-203.95586428336685,-1.8017638070657993,-87.68500428643594,513.4014056573047,412.01082520023505,204.29883136609044,688.8937298818694
366,-8.82031071413081,-204.9721830997699,-2.695074588652779,-84.79745994231645,505.12220445601804,407.194842807555,205.28045846441708,679.6909195027969
367,-9.259857124768391,-205.99982267023898,-3.5148855525121863,-80.10553986150038,496.79222529230685,402.6043653741819,206.28359786935724,670.3530915490494
368,-9.652801397920726,-207.02680820911473,-4.238949011549608,-73.81129963489889,488.50339806683934,398.2208122923521,207.29772571548742,660.9184958622956
369,-10.013008028209311,-208.04488069713486,-4.846318468404365,-66.14865716311144,480.3354640718562,394.0180208665869,208.3159297665216,651.4151043281233
370,-10.354778011200647,-209.04957579128515,-5.317815434555086,-57.3760646756879,472.3550657201829,389.96333354707207,209.33495300393088,641.8607614145832
371,-10.692405804576016,-210.0401313859166,-5.636455486249221,-47.7684568540179,464.61518978124127,386.01883171376613,210.35506658442205,632.2637278593837
372,-11.039752162710702,-211.0192289320116,-5.787828440312405,-37.60876424977345,457.154966214261,382.14266406176966,211.37977827611792,622.6236008543332
373,-11.409848104499439,-211.9925820002972,-5.760428183341996,-27.179296474148156,449.99980473371664,378.2904183685065,212.41539086966475,612.9325737879294
374,-11.814543177241704,-212.96839349498643,-5.545928016790704,-16.753297663353415,443.16183764749564,374.41648867105914,213.4704329539645,603.1769825916824
375,-12.264208645311724,-213.95670969172008,-5.1393979759844495,-6.586958771314704,436.64063218189773,370.4753950967808,214.55499117072108,593.3390762354185
376,-12.767503521295014,-214.96870421190476,-4.539461287294897,3.0878585193655628,430.4241366004472,366.4230201467617,215.67997793856398,583.3989454922374
377,-13.331208500882335,-216.01592767603566,-3.748387655950053,12.069969295905738,424.489827445348,362.2177323044093,216.85637117203567,573.3365439209431
378,-13.960129710227337,-217.10955907264844,-2.7721215480599675,20.194111120401534,418.80602604523017,357.82137467600694,218.09446268073853,563.1337351376044
379,-14.657070706442655,-218.25969323101373,-1.6202442478558496,27.33496243514042,413.3333498084658,353.20010267647024,219.4031501155858,552.7762998669792
380,-15.422867710398135,-219.47469562706817,-0.30586903557444023,33.40985672136245,408.0262594690587,348.3250607280546,220.78930396459538,542.2558359881737
381,-16.256480084709164,-220.7606513366418,1.1545311222545245,38.380161658097634,402.8346600773971,343.1728937209725,222.25723644324032,531.5714863675098
382,-17.155125901692927,-222.12092950503578,2.741364687873102,42.25133432617143,397.7055130603953,337.72609431873303,223.80829340868797,520.7314335562895
383,-18.114451114520215,-223.5558785909385,4.432234048197931,45.071700505496516,392.5844198543863,331.97319140091423,225.44058403700393,509.7541074671798
384,-19.128720443778587,-225.06266127467347,6.202323165480656,46.9300392158806,387.41714423612353,325.90878752389887,227.14885639574797,498.66906166317733
385,-20.191018918629833,-226.63523150562173,8.024864301392427,47.9520843020074,382.15104919884686,319.533454530597,228.92452050476413,487.5174853587892
386,-21.293455026584752,-228.26444961412335,9.871685720853204,48.296083788391,376.736432272026,312.853497292255,230.75581394020546,476.3523302496699
387,-22.42735880852551,-229.93832464340122,11.713837606128825,48.14758365200589,371.12774754761443,305.880596678247,232.62809832195202,465.23804168096143
388,-23.58347007964823,-231.64236645331832,13.52228653348002,47.713622184661034,365.28470262741286,298.6313440204804,234.52426839241184,454.24989115548675
389,-24.75211324769056,-233.360024626971,15.268660928980887,47.21653001506275,359.1732168264801,291.1266801278356,236.4252497328613,443.47291297814746
390,-25.92335658466911,-235.07318772733134,16.926022454810308,46.88752615670631,352.7662267977535,283.3912525287096,238.31055748265067,433.00045472436324
391,-27.087155618695597,-236.76271547862467,18.469632860528776,46.960282696582674,346.0443285406457,275.45270582652387,240.15888724682762,422.93236090899285
392,-28.233482248626075,-238.40897787664653,19.877683387654926,47.664604904644214,338.996248975045,267.3409222835597,241.94871060434085,413.3728210087479
393,-29.35244275598064,-239.99237856174489,21.131954243878877,49.220346922472324,331.61914385732786,259.0872326545051,243.6588507842355,404.4279250048162
394,-30.434388797495348,-241.49384433831491,22.218374391793816,51.83166168583968,323.9187213873784,250.72361995465462,245.26901853351998,396.2029807885036
395,-31.470025619377957,-242.89526779943853,23.127456549846496,55.68166950928452,315.90919345988294,242.2819402994427,246.76029332985112,388.7996581523676
396,-32.45052112676161,-244.1798949937145,23.854588713674964,60.927621529160184,307.6130599299557,233.79318463405176,248.11554032558342,382.31303374018444
397,-33.36761807184637,-245.33265445287742,24.40017126981796,67.69662927431307,299.06073501859333,225.28680314773047,249.31975822765696,376.82861961903853
398,-34.21374961893609,-246.34042737547512,24.76959701047894,76.08202796334888,290.29002803341115,216.79011091286196,250.36035730430882,372.41946417762483
399,-34.98215626718432,-247.19226127666016,24.973078996321387,86.14043798794219,281.34549248010853,208.32778921909627,251.22736967573343,369.1434174192627
400,-35.66700007599977,-247.87953110463658,25.02533744361112,97.88958629637392,272.2776588101608,199.92149235497916,251.9135960571691,367.04065352294236
401,-36.26347081186486,-248.39605284836406,24.945161232367568,111.3069465822152,263.1421671287,191.58956445609414,252.41469434415274,366.13154205063455
402,-36.767878299863476,-248.73815501959695,24.754862185952543,126.32925332737771,253.9988173871341,183.34686610972724,252.7292159141993,366.4149554354071
403,-37.17772593860424,-248.90471293851903,24.479641220735708,142.85293855075372,244.91055565898233,175.20470654687455,252.85859518335678,367.8670941412184
404,-37.49176177932412,-248.89714941769407,24.14688534389939,160.73552999315086,235.94241572272216,167.1708751320066,252.80709677829262,370.4409016445307
405,-37.71000535241472,-248.71940343290183,23.78541394897177,179.79803347635095,227.16043524802845,159.2497656116201,252.5817228859096,374.06612844334154
406,-37.83375009595347,-248.3778661450157,23.42469253528449,199.8282982811632,218.63056553000663,151.44258771860783,252.19208136090532,378.65008677709255
407,-37.865542515337424,-247.8812816775994,23.09403224808836,220.58533129002393,210.417593259812,143.7476623267466,251.65021347248558,384.07911484115493
408,-37.80914002812196,-247.24060873265122,22.82179446868546,241.80448369076413,202.58409272303984,136.16079745013417,250.9703791067024,390.2207406838729
409,-37.66944985486342,-246.46883878918476,22.63462058584189,263.20338594691736,195.18942745533104,128.67574242828525,250.168797108353,396.92650221621517
410,-37.45245127258425,-245.58076765780658,22.55670735597949,284.4884577014623,188.28882174121568,121.28471661934869,249.2633395527955,404.0353425954601
411,-37.16510304098805,-244.59271977127992,22.60914737524326,305.36177624090055,181.93252392634236,113.97900713576391,248.2731812486456,411.37746301882015
412,-36.8152370065487,-243.52222859869522,22.809351981775716,325.5280571468139,176.16508446485278,106.74962783097999,247.21840953103018,418.77848253412986
413,-36.41143807464244,-242.38768143044135,23.17057067260147,344.7014889700413,171.02477086196623,99.58802892135719,246.1196039365219,426.06373208706293
414,-35.96291019691216,-241.20794169991305,23.70151752145548,362.6121721539834,166.5431382545145,92.48684330576899,244.997399953258,433.0625016491887
415,-35.47932804411162,-240.00196604421635,24.40611183489633,379.011939770063,162.74476809035977,85.44065201839595,243.87205486740118,439.61206653905316
416,-34.97067490462922,-238.78843552376233,25.283337777458776,393.67938054621345,159.6471790321136,78.44674777159875,242.76303592486715,445.56134132650914
417,-34.44706905491713,-237.58542017235476,26.327225876384087,406.4239388781362,157.26090523607002,71.5058727827569,241.6886509549321,450.774044706014
418,-33.918582909334,-236.410093218223,27.526957720106324,417.0890269655327,155.58972890105764,64.62290546434792,240.66573903339727,455.1313025597547
419,-33.39506101977975,-235.27850633632028,28.867093101557046,425.55414425430945,154.6310474123265,57.807470226070976,239.70943395975334,458.53366304860975
420,-32.88594408519382,-234.2054310345765,30.327915859513798,431.7360506654185,154.3763509617809,51.07444544243946,238.8330070394791,460.9025389288718
421,-32.40010651783055,-233.20426489640644,31.885890939665323,435.58907507818736,154.81178398945556,44.444346326366706,238.04778904717608,462.18112083432925
422,-31.945714841825794,-232.28699606169408,33.51422150788675,437.1046559522556,155.91876253001703,37.94356189369089,237.36316552315515,462.33481743941513
423,-31.530113228465655,-231.46421584578687,35.18349206994162,436.31020921928916,157.67461911937826,31.604428438271576,236.78663560552576,461.35127611814244
424,-31.15974080684808,-230.74516801855046,36.862381743611,433.2674057190645,160.05324730573017,25.46512590994806,236.3239227053577,459.24002635643336
425,-30.84008325381066,-230.13782370174616,38.51843077604623,428.0699231483183,163.0257190805004,19.569387957043716,235.97912521247082,456.03177366924905
426,-30.57565890626442,-229.64897249219365,40.11884254112345,420.84072119597914,166.56085054505945,13.966020651060191,235.75489646708445,451.77735879956924
427,-30.370037438319,-229.284322630019,41.63130223549674,411.72887714028843,170.62569366819721,8.708228712459773,235.65264479423547,446.5463887775745
428,-30.22588700136923,-229.04860524905394,43.024792389767676,400.90601496539654,175.18593520922917,3.8527514875272257,235.67274594410074,440.4255449477402
429,-30.145043679233403,-228.9456795399211,44.27038447144868,388.56236461362084,180.20618835838937,-0.5411855574131508,235.81476145156896,433.5165789338524
430,-30.128595349567302,-228.97863674724218,45.3419856076021,374.9024983053501,185.65016901787314,-4.413093962054215,236.07765702943064,425.9340198623798
431,-30.176970771974382,-229.14990125695198,46.21701990932313,360.1408056048512,191.48075697937514,-7.702605226045808,236.46001514110463,417.80263274737143
432,-30.290024099210108,-229.46132682310173,46.87702491091181,344.4967848875378,197.65995174426456,-10.350993070709292,236.96023557904144,409.25468539742883
433,-30.46710520429703,-229.9142856629352,47.30814505251105,328.1902426411484,204.1487420787345,-12.30280826100339,237.5767176188823,400.4270958307501
434,-30.70710737847745,-230.50974823014764,47.50150593713094,311.43650099637074,210.90691639251813,-13.507593010006449,238.30801765895416,391.4585411009112
435,-31.008485989347335,-231.24835235611445,47.4534554730876,294.4417174558847,217.8928468080521,-13.921636266890856,239.15297760502557,382.48661074527433
436,-31.36924420603374,-232.13046211608858,47.1656610605654,277.39842090392256,225.06328278800692,-13.50972635715746,240.110821571002,373.64508520693255
437,-31.78688451286532,-233.15621869153898,46.64505556575536,260.48136800590424,232.37319024812038,-12.246853809927194,241.181221128469,365.06141442292716
438,-32.25832740932786,-234.32558682727563,45.90362883823896,243.84382673099455,239.7756695707649,-10.11981509592282,242.36433152238482,356.8544668700754
439,-32.77980173747182,-235.63840047421266,44.95806608392155,227.61439912199023,247.22198157844824,-7.128667673791875,243.66080234007416,349.1326153776164
440,-33.34671480175492,-237.0944094553814,43.8292397174138,211.89450075006056,254.66170486451534,-3.287988277927495,245.07176579010527,341.9922211715173
441,-33.953514842597166,-238.69332557252577,42.54156732590769,196.75661437660386,262.04304084262947,1.372110360658049,246.5988040754278,335.51656838406575
442,-34.593563012988746,-240.43486216370283,41.12225447391198,182.24342417598515,269.3132739369359,6.805244539561607,248.2438947463275,329.7752841163854
443,-35.259035828249274,-242.3187569714754,39.60044624056394,168.3679094400253,276.4193831161043,12.948341115921478,250.00933018469806,324.824252683912
444,-35.9408808475711,-244.34476578395146,38.00631474023728,155.11443119342385,283.3087878829865,19.721564763241116,251.89760558668212,320.70599896091517
445,-36.6288469631481,-246.51261485845853,36.370111276740005,142.44078493637096,289.9301982350365,27.02861486144152,253.91127002250997,317.4504796342881
446,-37.311605563279876,-248.82190389275445,34.72121184592919,130.2811267596,296.2345258377498,34.75741046489631,256.0527377939549,315.07618812542876
447,-37.97697015115799,-251.2719573610868,33.08718444368516,118.5496210474369,302.17580417002165,42.781175152784975,258.32406181211974,313.59145328318067
448,-38.612210547834685,-253.86162870216577,31.492906920610757,107.14461826642231,307.7120595883683,50.959924627544716,260.7266757222289,312.99579715963375
449,-39.20444521213392,-256.58906739009126,29.95976513846924,95.95315835432457,312.8060741040926,59.14234809490131,263.2611154598633,313.28121653252333
450,-39.74108394260887,-259.45146211414874,28.504962083900992,84.85560844030438,317.4259857226884,67.16806002251626,265.92673269111884,314.4332682798411
451,-40.21028582399425,-262.44477389053765,27.1409678484767,73.73027475848292,321.5456846251571,74.87018311840784,268.72141197537076,316.4318685227533
452,-40.60139517618536,-265.5634718387943,25.87513688630988,62.45786536264714,325.14498248972285,82.07820841477512,271.641301526846,319.2517537939233
453,-40.905321361828435,-268.80028312925197,24.70951288848981,50.92571181898768,328.20955484210003,88.62106660502445,274.6805658636603,322.86259213506554
454,-41.1148354949762,-272.14596839012063,23.640834096647634,39.03167936346297,330.7306786515726,94.33033820419055,277.8311686616815,327.2287678468325
455,-41.224766890128336,-275.58913465936195,22.660744062696626,26.687707281572397,332.704806266994,99.04352949619579,281.08269570531934,332.3088936198846
456,-41.23209297434888,-279.1160987373608,21.756205310761445,13.822929330228877,334.1330298457118,102.60734595025573,284.4222296838472,338.0551274779069
457,-41.13592684907806,-282.7108131729993,20.910105903744814,0.3863324896253107,335.0204957330573,104.8809028102594,287.83428905769375,344.4123884093928
458,-40.937415257396516,-286.3548642233334,20.102040919820556,-13.651077182155149,335.37582463294075,105.73882092352434,291.3008411359734,351.31757213037537
459,-40.63956514893244,-290.02754603871045,19.309241831651867,-28.294622301880676,335.21058151423176,105.07416133734658,294.8013946997686,358.69886620879583
460,-40.24701876978149,-293.70600899483185,18.507617060473926,-43.52482944802629,334.5388219854761,102.8011520759873,298.31317085345324,366.47525307898155
461,-39.765795633170306,-297.36547394612535,17.67285778601004,-59.2968452349086,333.3767237629496,98.85765364900519,301.81134383522357,374.5562737908825
462,-39.203016098839,-300.97949957961913,16.78155627115451,-75.54041065675744,331.742296822969,93.20729716542114,305.2693379068914,382.8421086496434
463,-38.56661725966493,-304.5202878799134,15.812281231652808,-92.16041614877557,329.6551555711707,85.84121334904302,308.6591633759334,391.2240153522976
464,-37.86506882310622,-307.9590132255353,14.746556927672183,-109.03806114336477,327.13632997116116,76.77925659530356,311.95177480635266,399.5851504961707
465,-37.10709539414684,-311.2661636031036,13.569699226163586,-126.03263744528925,324.20808810530497,66.07062053522156,315.11743745190705,407.8017853770698
466,-36.301411993010774,-314.41188728161046,12.271471739527751,-142.98394575185827,320.8937391958157,53.7937451331844,318.1260932975324,415.74491216747066
467,-35.456481243204,-317.3663441266126,10.846537207273363,-159.71533994903666,317.21738452714266,40.05543310055369,320.94772478815423,423.28222365496697
468,-34.58030264657871,-320.1000663629151,9.294692756418392,-176.03737423567765,313.2035854898744,24.989125313487524,323.5527209990921,430.28044007555
469,-33.68024594265318,-322.58433773353426,7.620891761951314,-191.75200275029815,308.8769238001861,8.75232791218241,325.91225618976875,436.6079494194191
470,-32.76294111599191,-324.7916015503923,5.835068626585013,-206.65725024394933,304.2614379948021,-8.476767201978236,327.9986930826464,442.1377199823581
471,-31.834236598673584,-326.69590650230674,3.951794393473774,-220.5522375805262,299.37993065133696,-26.503377284199185,329.7860220470976,446.75043227402296
472,-30.89923403358438,-328.2733944569606,1.9897989614493936,-233.24241123056217,294.2531507956655,-45.12080312234768,331.25034270870634,450.33775955464216
473,-29.96240234366382,-329.5028276878004,-0.02860164106001369,-244.54479559873877,288.89886548777736,-64.11551096713329,332.37038722246575,452.8057032459904
474,-29.02776629952287,-330.36614501851324,-2.078137392231267,-254.2930644374776,283.33084488129845,-83.272425973207,333.1280758064542,454.0778652371627
475,-28.099156678241357,-330.8490282636286,-4.131247861642322,-262.3422153337116,277.55779715193665,-102.38023046854678,333.5090863408876,454.0985188038702
476,-27.18050214459675,-330.9414529119725,-6.158759263316403,-268.572631751405,271.5823026630186,-121.23646324943863,333.503411885531,452.835327844981
477,-26.276138351136808,-330.63819113813787,-8.130566549078557,-272.8933334640495,265.39980762540796,-139.6522307164344,333.1058737235514,450.2815636346872
478,-25.391107858223116,-329.9392319378416,-10.016318713087456,-275.24425173455427,258.99774295267525,-157.45636405339275,332.31655393512995,446.457681896167
479,-24.531425180246256,-328.8500834805731,-11.786107720146362,-275.59742156130767,252.35483214709149,-174.49888577551522,331.1411115356745,441.41215221969185
480,-23.704284087381144,-327.3819273251584,-13.411159365077113,-273.95705611636856,245.44064334537333,-190.65368160618613,329.59095057415215,435.2214751920404
481,-22.918188541969325,-325.5516028462123,-14.864519053356636,-270.3585487642603,238.2154274233716,-205.82030846214582,327.68321718046576,427.98937431465316
482,-22.18299367697172,-323.3814120311688,-16.12171871578463,-264.86652278295077,230.63026924749903,-219.92490539628722,325.4406143123405,419.8452010366844
483,-21.509848585268383,-320.8987479557085,-17.161404775643,-257.57210571949054,222.62756505784733,-232.92021053668398,322.8910360866704,410.94163336891853
484,-20.911038005121494,-318.1355626687092,-17.96590298387306,-248.58963609644715,214.14182646237796,-244.7847218338213,320.0670360303877,401.4517761258647
485,-20.399724855797658,-315.1277001137709,-18.52169502169987,-238.05301273077325,205.10080021577951,-255.521071082812,317.0051535819835,391.5657827196109
486,-19.989599759201997,-311.9141260256737,-18.8197841415888,-226.11187462236575,195.42688201651606,-265.1537077858361,313.7451297174079,381.4871170459445
487,-19.69444727678145,-308.53608930026525,-18.855932252069532,-212.927760011145,185.0387916896279,-273.7260110885131,310.329045558465,371.4285639541108
488,-19.527641937023297,-305.03624860421115,-18.630757914005255,-198.6703473102479,173.85346700859355,-281.29696397888557,306.8004177283467,361.60808346453274
489,-19.501590556534328,-301.4577947510626,-18.149692646335243,-183.5138389669431,161.78812527382397,-287.93753430614214,303.20328177329986,352.24459231319213
490,-19.627140946532933,-297.84359464233717,-17.4228005868215,-167.633519820738,148.7624364867691,-293.72691225509044,299.58129105995124,343.5537500345871
491,-19.912980581207226,-294.2353774676577,-16.46447300800689,-151.20250703425472,134.70074948899298,-298.7487539717657,295.9768541484171,335.7438265831109
492,-20.365051655488564,-290.67297920960755,-15.293014030484983,-134.38870679205223,119.53431202721501,-303.0875762009633,292.43032946357226,329.0117326411077
493,-20.98601055235213,-287.1936575823738,-13.93013713314762,-117.35199827894938,103.2034266585652,-306.82543704888894,288.97929237913996,323.53929876287
494,-21.774759537638378,-283.83148619603384,-12.400394036279579,-100.24167236326856,85.6594866230855,-310.03902330991025,285.65788645277723,319.4898918379745
495,-22.72607625876466,-280.616833824395,-10.730558612745849,-83.19415708647077,66.86683969268434,-312.7972454005132,282.4962673929211,317.00545477359674
496,-23.830362515186504,-277.57593224004836,-8.948988872153375,-66.33106287838304,46.804433928979996,-315.15941738157136,279.52014552779764,316.20404704661547
497,-25.073528287207758,-274.7305342577941,-7.084989645427977,-49.757577398335016,25.46720708966431,-317.1740727332741,276.75043021569206,317.17795014053894
498,-26.43702072989541,-272.09766224074224,-5.168197155112129,-33.56123387879618,2.8671903933237437,-318.87843766797715,274.2029776550209,319.9923836622992
499,-27.89800125717409,-269.68944611650863,-3.2280042214442135,-17.81106884791413,-20.9656934295074,-320.29855422160455,271.8884416953119,324.6848562852826
500,-29.429667368276707,-267.5130488822865,-1.2930416737301968,-2.5571760549763387,-45.98314912715126,-321.45001672761794,269.8122255085959,331.2651521508333
501,-31.001709876372672,-265.5706768107893,0.609272227408983,12.169346040974153,-72.11834841008503,-322.3392592428121,267.97453055631365,339.71592992892727
502,-32.58089105282195,-263.8596711745396,2.4531067947628853,26.35606557957799,-99.28608649653323,-322.9653096365633,266.37049828740936,349.99389040934125
503,-34.131725228408385,-262.37267808023796,4.214515162330318,40.00853002662545,-127.38324638099398,-323.3219094555839,264.9904392602185,362.0314508574283
504,-35.61724077876583,-261.09789260638127,5.871652621166824,53.14925383424369,-156.28955650097154,-323.3998877219398,263.8201435841443,375.7388512490295
505,-36.999801122935274,-260.01937262206314,7.404921377821577,65.816425073104,-185.86862349440122,-323.18967137174894,262.84126551028777,391.006609002114
506,-38.24196214128136,-259.1174163784686,8.797049141583964,78.06238282687082,-215.96921902090926,-322.6838147065934,262.0317736195436,407.7082345897109
507,-39.30734389303594,-258.3689963435386,10.033111658796518,89.95191893675523,-246.42679853275513,-321.8794344450863,261.36645647370074,425.70311984471863
508,-40.1614952398514,-257.7482401106864,11.100511556147952,101.56045100855447,-277.06523075128786,-320.78044494876764,260.8174720681183,444.8395131578631
509,-40.772730623327305,-257.22694794833257,11.988927459576415,112.9720982349211,-307.698719416626,-319.3994990806284,260.35492829259465,464.9575004446724
510,-41.11291871860926,-256.7751359813848,12.69024798785943,124.27767051745296,-338.133902859127,-317.75955319060887,259.9474811556284,485.8919170085121
511,-41.15820309700552,-256.3615942564287,13.198504393479459,135.5725600462193,-368.1721204345294,-315.894989375676,259.5629378994517,507.4751224716158
512,-40.88963558032082,-255.95444999502325,13.50981311361268,146.95450890457968,-397.61183584682294,-313.8522440516544,259.1688533063895,529.5395781699953
513,-40.2937040207663,-255.52172791769542,13.62233563264117,158.5212210108514,-426.2512043926253,-311.6899087254868,258.73310927162277,551.9201737973989
514,-39.36273825254308,-255.03190120334335,13.536258526427966,170.36779378582483,-453.89076403931324,-309.47828645723985,258.22446976314524,574.456258319731
515,-38.09518115566259,-254.4544280629473,13.25379208761053,182.5839634575089,-480.33622022442916,-307.2984055999367,257.6131052824905,596.9933401647411
516,-36.49571592842708,-253.76026985315252,12.779182203157697,195.25118468597572,-505.4012833911297,-305.2405106556531,256.8710826446311,619.3844339262378
517,-34.57524532938472,-252.9223870290915,12.118727664022147,208.43959584230657,-528.9105087030033,-303.4020681197893,255.97281712312076,641.4910452104531
518,-32.350723422461435,-251.9162089946102,11.280793869176064,222.2049513050299,-550.7020808330094,-301.8853426854618,254.89548462717175,663.1838012479661
519,-29.84484492329131,-250.7200732005975,10.275813537512253,236.58562748197087,-570.6304841061531,-300.79461577793023,253.61939165054704,684.3427515292972
520,-27.0856013390967,-249.31562801039672,9.116265132213373,251.5998265992838,-588.5689993783285,-300.2331334548623,252.12830051813216,704.857378431817
521,-24.105716606418685,-247.6881932281923,7.816620137637184,267.2431093930743,-604.4119725943495,-300.2998833083251,250.40970725113797,724.6263705530946
522,-20.941977892037215,-245.8270719666039,6.393251315935014,283.4863839575785,-618.076804377116,-301.08630914978477,248.455069385549,743.5572194388
523,-17.634479610003467,-243.72580779854076,4.864295876282932,300.2744641079155,-629.5056141873582,-302.6730772512897,246.25998141924015,761.5657028356231
524,-14.22580033881992,-241.38238189330164,3.249470202165779,317.5252891785711,-638.6665364520705,-305.1270085242129,243.82429622852226,778.5753151199679
525,-10.760133033262024,-238.799345920566,1.569836154899839,335.1298714276823,-645.5546101865649,-308.4982874285176,241.15219161334474,794.5166996655108
526,-7.28238881114437,-235.98388757645222,-0.15247753533771494,352.95300984544866,-650.1922287193594,-312.81805101274637,238.2521817604266,809.3271300951003
527,-3.8372939702564364,-232.947826339054,-1.8945922173131917,370.83478135501986,-652.6291225061407,-318.09645061844833,235.13707357668886,822.9500783152815
528,-0.4684990130317974,-229.70753754218046,-3.6332256757832457,388.59279217743426,-652.9418556781285,-324.32126457536293,231.8238676267644,835.3348969586724
529,2.7822825965950693,-226.28380339683147,-5.345057322662725,406.02514382517387,-651.2328258449132,-331.4571227271683,228.33360318157574,846.4366324295419
530,5.876089434798587,-222.70159043798282,-7.007100696260295,422.9140413375898,-647.6287668095906,-339.44538312472827,224.6911469404215,856.2159728735757
531,8.77746568842231,-218.9897540447232,-8.597071561309189,439.0299482185027,-642.2787652673721,-348.20467835106336,220.92492538305683,864.6393242130603
532,11.45513945157527,-215.18067209101173,-10.093740454069426,454.13617478409657,-635.35181494346,-357.63212474710156,217.06660138967047,871.6789978059331
533,13.882613251513254,-211.30981134826504,-11.477259553489578,467.99377490098135,-627.0339443156445,-367.60516365209435,213.15069667675183,877.3134856913465
534,16.038655725335143,-207.41523189954242,-12.729455109915579,480.36662035479907,-617.5249663471369,-377.98398116101276,209.21416268800007,881.5277939972559
535,17.907684999546476,-203.53703647246044,-13.834078405400245,491.0265220942018,-607.0349101089074,-388.6144331860077,205.29590382608123,884.3138022796747
536,19.48003625422723,-199.71677322339116,-14.777010383053348,499.7582727326606,-595.7802047060811,-399.3313866746418,201.43625830497447,885.6706166274282
537,20.752108121619663,-195.99680210479386,-15.546417399992674,506.36449369102274,-583.9796955141146,-409.96237600008266,197.67644342587823,885.6048870695278
538,21.726384804761505,-192.4196364641121,-16.132857671836344,510.67018160217475,-571.850581096879,-420.3314657885921,194.05797364159375,884.1310644095477
539,22.41133298165137,-189.0272727599477,-16.529339686489607,512.5268608792428,-559.6043655175605,-430.2632077997602,190.62206115498412,881.2715771962972
540,22.821174732048966,-185.86052195949057,-16.731335091468093,511.8162623143998,-547.4429237061089,-439.586580049708,187.4090097150412,877.0569153869158
541,22.97554000855657,-182.95835611982233,-16.736749272453732,508.4534613434646,-535.5547756995553,-448.13880121532355,184.45761255165544,871.5256128406533
542,22.899004538300574,-180.3572828776389,-16.54585313277442,502.3894240969971,-524.1116583948394,-455.76892224141216,181.80456503593598,864.7241258645219
543,22.62052129293645,-178.09075923464144,-16.16117968512418,493.6129238598097,-513.2654719390397,-462.3411094005048,179.48390179669698,856.7066097038098
544,22.172755707244136,-176.1886543055204,-15.587389209431283,482.1518037732659,-503.1456641878751,-467.73754793597806,177.52646682801293,847.5345992777379
545,21.59133680913881,-174.67676875827303,-14.83110698899566,468.07357204569377,-493.85710299978285,-471.86091176745686,175.95942376185187,837.2766044218293
546,20.914038574634578,-173.57641669725754,-13.900737922068826,451.4853225581791,-485.47847376721836,-474.6363613215657,174.8058121329526,826.0076327700257
547,20.179908229592403,-172.904073911109,-12.80626255474423,432.5329765297938,-478.06122860428144,-476.0130470216192,174.084154308867,813.8086543131724
548,19.42836081763965,-172.67109494788374,-11.55901940804259,411.3998408700052,-471.62910334841365,-475.9651090989591,173.80811699201942,800.7660199447589
549,18.698261955997992,-172.88350057291177,-10.171478988195053,388.30447783042956,-466.1782082031321,-474.49217448925674,173.98623097255557,786.9708419486511
550,18.027022950758635,-173.5418368606813,-8.65701536999705,363.4978810131738,-461.6776869789763,-471.6193586638987,174.62167309588528,772.5183382953941
551,17.44973383621424,-174.64110737754245,-7.0296812660622185,337.2599576862375,-458.0709285707421,-467.3967847989958,175.7121150159554,757.5071365665364
552,16.998359999983293,-176.1707804591234,-5.303991726071439,309.8953297936597,-455.27730315858713,-461.8986354359347,177.24964401102105,742.0385296002038
553,16.701026629995074,-178.11487426517957,-3.4947201581414227,281.7284880341453,-453.1943853859203,-455.22175376262817,179.22076175328866,726.2156754742248
554,16.58141223638205,-180.4521228523529,-1.6167086771510397,253.098364451289,-451.70061781501283,-447.4838140889437,181.60646725830458,710.1427397099241
555,16.658268134251617,-183.1562266351606,0.31530661555115674,224.35242575790468,-450.6583601025369,-438.8210850238449,184.38243005106975,693.9239861076626
556,16.945075448641308,-186.19618992213034,2.2868555988398893,195.8404266963187,-449.9172620468587,-429.3858146355476,187.51925853247138,677.6628314517039
557,17.449845466316336,-189.5367463247273,4.28387968759949,167.90799416897315,-449.31789145397437,-419.3432742208119,190.98286624090358,661.4608853028377
558,18.175063467836083,-193.13886963359622,6.292863105441576,140.89023348041204,-448.69554055862733,-408.86850576893266,194.73493507755208,645.4169972742371
559,19.117770880806447,-196.9603636919395,8.300949666781756,115.10555427292745,-447.88412798007056,-398.1428274690291,198.73347005660494,629.6263305187538
560,20.269776023258995,-200.95652069104176,10.296044573673363,90.84990441890007,-446.7201077480401,-387.3501615617521,202.93343558764312,614.1794733828149
561,21.617980086628396,-205.08083382155002,12.266900541748974,68.39157686386532,-445.04629376794645,-376.67325933277465,207.28745936691715,599.1615939852541
562,23.14480244673397,-209.2857475846451,14.203187438893423,47.96672112561607,-442.71550807677255,-366.289908424631,211.746586919883,584.651637288187
563,24.828688005746812,-213.52342736369076,16.095544623512588,29.775652710828023,-439.59396504940725,-356.36921640072524,216.26106781162812,570.7215622676844
564,26.64467919767863,-217.7465291834471,17.935615534774865,13.980014856497712,-435.5643116739079,-347.0680696840109,220.78115368664368,557.4356179849359
565,28.565036385673544,-221.9089510500798,19.71606484291154,0.7008119323645565,-430.5282558629234,-338.52786716700393,225.2578887246581,544.8496608956202
566,30.55989203532317,-225.96654880833893,21.430579271507256,-9.982694770897231,-424.40872945302846,-330.87162251679166,229.64387465565568,533.0105205160618
567,32.597925592676766,-229.87780173902087,23.073853792211928,-18.033260287273965,-417.15154823487336,-324.2015187150032,233.89399473985458,521.9554251749825
568,34.64704719586265,-233.60441567241855,24.641565396642527,-23.45514710011469,-408.72654596570146,-318.59698313508784,237.9660836006174,511.71150242420765
569,36.675079362508235,-237.1118538027798,26.13033719994751,-26.29289638963912,-399.12817143519305,-314.11333229469227,241.82153212854777,502.29536873300503
570,38.650426732276244,-240.36978739308262,27.537695929173726,-26.62944955462521,-388.3755472144519,-310.78101382485875,245.42581858451618,493.71282059546405
571,40.5427246755089,-243.352460055152,28.8620254041056,-24.58369133799659,-376.5119966805594,-308.60545103405207,248.7489583543741,485.95863540617114
572,42.323457909703116,-246.03896039843443,30.102517313983366,-20.307482158257912,-363.6040533922124,-307.56747426257846,251.76586563035653,479.0164867441465
573,43.966540133878695,-248.41339892817567,31.25911897059934,-13.982243150831582,-349.7399746699222,-307.6243039937499,254.45662101764847,472.8589759197381
574,45.44884521191339,-250.46498658145032,32.3324766489892,-5.8151570267860295,-335.027789902222,-308.7110341755125,256.80664022744065,467.44778043400817
575,46.750679855099925,-252.18801443860406,33.32387311620741,3.964947890197732,-319.5929242777171,-310.74255132881603,258.8067409271025,462.73392107281774
576,47.856187337858515,-253.58173679326887,34.23515873637531,15.111956295965765,-303.575450672865,-313.61581662864154,260.4531073431904,458.6581530760417
577,48.75367168544897,-254.65016253762917,35.068676459991984,27.366986819609117,-287.12703576360053,-317.2124344866505,261.74715494092305,455.15149256908995
578,49.43583207563006,-255.4017623801043,35.827181633717515,40.46299124337709,-270.407659480826,-321.4014316896234,262.6953000676961,452.1358955494466
579,49.89989804208659,-255.8491015832203,36.513757889989826,54.129347641673654,-253.58219766901183,-326.0421747655827,263.3086417072302,449.5251111530927
580,50.147657643315426,-256.00840964909827,37.13173051370495,68.09636540625664,-236.8169646178624,-330.9873586871867,263.6025644609568,447.22573207962495
581,50.18537312708078,-255.8990996668146,37.68457870613831,82.0996246038551,-220.27631417758406,-336.0860061198335,263.5962735577223,445.1384621106798
582,50.023581686220744,-255.5432507993377,38.17584810981138,95.88407805496668,-204.11939527112406,-341.18642236423847,263.3122740134185,443.1596135647443
583,49.67678252031809,-254.96506754974152,38.609064846183124,109.20785124676797,-188.4971500964949,-346.1390565077051,262.77580691805304,441.18283684212423
584,49.16301539854666,-254.19032897592163,38.98765218549115,121.84568217738733,-173.5496317990248,-350.79922390385315,262.0142561514371,439.10107083613434
585,48.50334002591063,-253.2458399599575,39.314850908476814,133.59195030155567,-159.40370370959573,-355.02964886171355,261.05653861620306,436.8086879809975
586,47.72122960396429,-252.15889515121341,39.59364458878037,144.26325090692114,-146.17116540747082,-358.7027893653956,259.93249047765505,434.2037921826031
587,46.841896066283155,-250.95676460551647,39.82669153418437,153.70047832346472,-133.94733308929477,-361.7029079837114,258.6722612347042,431.19061294849064
588,45.89156852309635,-249.66620874694033,40.01626588340516,161.77038808262483,-122.81008422152411,-363.927855272917,257.3057269911633,427.68192576798805
589,44.89675011495204,-248.3130291976786,40.1642110554849,168.3666145591577,-112.81936016480515,-365.29053441455704,255.86193403912537,423.60141819279846
590,43.88348113815493,-246.92166115728867,40.27190909145379,173.41012737448355,-104.01710597787508,-365.72001909368504,254.36858354203594,418.88591412554234
591,42.876637416902796,-245.5148122248294,40.34026932127545,176.84911797556822,-96.42761421682931,-365.1623013858288,252.85156746879085,413.4873666560132
592,41.89929218935599,-244.11315180324232,40.36973924969738,178.6583184854745,-90.05822923480763,-363.58065351946766,251.33456492101652,407.374533573046
593,40.972167189167386,-242.73505452883978,40.36033951593632,178.83776880456946,-84.90036009401202,-360.9555974394896,249.8387066606871,400.5342601206587
594,40.113194175628664,-241.39640054499802,40.311723206485865,177.41106447978137,-80.93074371505227,-357.2844889462623,248.38231404597627,392.97231009965503
595,39.33720207825456,-240.11043489175904,40.22325794854024,174.42313524728445,-78.11289562267086,-352.5807375960455,246.98071682391154,384.7137069939532
596,38.655737644919014,-238.88768778737307,40.09412757233929,169.93762025113546,-76.39868407838803,-346.8726975723594,245.64615243446423,375.8025685982367
597,38.07701979203165,-237.7359570405471,39.92344903980966,164.0339194414749,-75.72996487806681,-340.20227641528186,244.38774770119804,366.3014391687668
598,37.60602065198486,-236.6603531334526,39.71039981644493,156.8040114707836,-76.04021871115701,-332.62331648664133,243.21158199686116,356.2901410043628
599,37.24466033695523,-235.66340658061372,39.454350794575596,148.3491371048504,-77.25614039597279,-324.199807883522,242.1208291660703,345.8641821668685
600,36.9920980742139,-234.74523596896225,39.15500011688225,138.77645417100328,-79.29913866961698,-315.0039914562939,241.11597366288723,335.1327687956311
601,36.84509962450887,-233.9037735967891,38.81250361465807,128.19577518232649,-82.08671528644517,-305.1144073489901,240.19509448155858,324.2164791903155
602,36.798459499818065,-233.13504381750252,38.42759788606254,116.71650112305603,-85.53370181885614,-294.6139390233548,239.35420843821095,313.24466253787597
603,36.84545610487398,-232.43348705134923,38.0017121878672,104.44486316048176,-89.55334117217676,-283.5878962191541,238.58766214169236,302.3526281013838
604,36.97831832012884,-231.79232005817826,37.53706528668452,91.48157697232827,-94.05820849843366,-272.1221739627142,237.88855965107408,291.67869156612784
605,37.18868313318173,-231.20392070808708,37.03674334765455,77.92000095828304,-98.96097340918911,-260.3015194999652,237.24921060530576,281.36114501926903
606,37.46802565032979,-230.66022350173373,36.50475509451053,63.844869259892285,-104.17501263787751,-248.20793523328194,236.66158191188964,271.53521657409254
607,37.80804511698304,-230.1531109096595,35.946061053985744,49.33164329921996,-109.61488968080265,-235.9192430598864,236.1177353405849,262.3300853486815
608,38.20099335124996,-229.67478560835565,35.366574660953425,34.44649267466183,-115.1967249744479,-223.5078331852474,235.61023394101755,253.86601722941833
609,38.639935090397415,-229.21811006165845,34.77313409519726,19.246880498553125,-120.83848607811622,-211.03961765754408,235.13250218723203,246.25168600597718
610,39.118933034541875,-228.77690246976996,34.173444639942694,3.782693681896403,-126.4602315496761,-198.57320491318353,234.67912792148147,239.58174232176538
611,39.63315384780069,-228.34618143814959,33.57599193373602,-11.902170468593036,-131.98434442778125,-186.15930639774876,234.24609806813967,233.9346888795889
612,40.17889505783494,-227.9223552813904,32.989926838517476,-27.76787052352757,-137.33579112221025,-173.8403801687424,233.8309642296537,229.37111420427945
613,40.7535364815131,-227.5033552626581,32.42492305533393,-43.776459965649515,-142.44243862650384,-161.65050986332758,233.43293826692988,225.93232897537186
614,41.35542313592651,-227.08871495753905,31.891009263765365,-59.88962028296931,-147.2354572737258,-149.61551111844358,233.0529214514577,223.6394388080613
615,41.98368935632956,-226.6795999806928,31.398378336205052,-76.06640310916357,-151.6498285595968,-137.7532520415885,232.69347336551277,222.49287609555344
616,42.63803606175386,-226.27879322404573,30.957176855424905,-92.2610844262157,-155.6249691386502,-126.07417015131944,232.3587280988447,222.47240201651604
617,43.31847479588908,-225.89064049896396,30.577278652883603,-108.42121854657333,-159.10547383982112,-114.58196555651637,232.0542654075876,223.53757859856537
618,44.025053185251984,-225.52096039701175,30.268046466950054,-124.48596355214427,-162.04197245286215,-103.27444878625975,231.786943683367,225.62869979709092
619,44.7575766899131,-225.17692080290198,30.038086217439975,-140.38473551226863,-164.39208657598962,-92.14452101234583,231.56470032692118,228.6681597153664
620,45.51534103335598,-224.8668832542872,29.89499889082818,-156.03623778253476,-166.12146362039343,-81.18126374519747,231.3963238861824,232.56222556202104
621,46.29688863358083,-224.6002155763899,29.845135669588885,-171.34790447631437,-167.20485537429408,-70.37111392291733,231.2912014581311,237.20317343232094
622,47.0998008753682,-224.3870731708358,29.893362725371034,-186.2157931077397,-167.62719916893712,-59.699098397785825,231.25904463577493,242.47173734384847
623,47.92053632778366,-224.23815012537457,30.042843018777827,-200.524958774419,-167.38465176674228,-49.15009919806099,231.3095978482447,248.23981655205316
624,48.754323121218185,-224.16440287710864,30.294843430496876,-214.1503387153825,-166.48552061686425,-38.710117983770274,231.45233424376406,254.37338265235783
625,49.59511161059106,-224.17675123954658,30.64857628991067,-226.9581690141127,-164.95103481949766,-28.367505468218038,231.6961459949047,260.73552535866895
626,50.43559105512447,-224.28576373132307,31.10108437108466,-238.8079425329356,-162.8158994362297,-18.114120004125926,232.04903752876967,267.1895731079877
627,51.26727135320731,-224.50133586033647,31.64717737655375,-249.55489819172485,-160.12858180194868,-7.946379723845687,232.5178312124541,273.60222130372426
628,52.08062810552279,-224.83237109580728,32.27942595801205,-259.05300747439225,-156.95128697048878,2.1338250543606825,233.1078952919634,279.846597273679
629,52.86530676099181,-225.28647468918163,32.98821678090944,-267.15839683354625,-153.35959065810692,12.118388090149947,233.8229034821583,285.80518743129096
630,53.610379565706026,-225.86967030854402,33.76186928359144,-273.73311725371354,-149.44171095314135,21.99243517816266,234.66463464213652,291.3725493092638
631,54.30464751508226,-226.58614867732152,34.586811781149734,-278.6491474049762,-145.29741335312647,31.733979967299337,235.63281952109682,296.4577297661448
632,54.93697831541241,-227.43805620488575,35.44781167936322,-281.7924969976107,-141.03655614622488,41.313796669418856,236.72503976449116,300.98631157481157
633,55.49667024477522,-228.4253301700943,36.32825221732853,-283.06726394474265,-136.777293906448,50.69551190468361,237.9366824338987,304.9020147471695
634,55.97383066807456,-229.54558551961227,37.2104467767384,-282.399493829065,-132.64396569595874,59.835912117646984,239.26095140342267,308.1677873352138
635,56.35975688476494,-230.7940568731612,38.075981548015406,-279.74069327076637,-128.76470196530002,68.68545859899514,240.68893529749994,310.76633389337564
636,56.64730609829417,-232.16359803468427,38.9060780698618,-275.07085959651505,-125.26879109798577,77.18899927479241,242.209730289014,312.70004849311425
637,56.83124071911882,-233.6447403550785,39.681968502008466,-268.40090626645576,-122.28385403544026,85.2866647888307,243.81061522455164,313.99034228694734
638,56.90853509378688,-235.2258106809216,40.3852779457922,-259.77438457691505,-119.93288394340982,92.91493542488335,245.47727614603255,314.6763811185456
639,56.878630219028864,-236.89310910250103,40.99840908482656,-249.26842474733579,-118.33121721309134,100.00786435818956,247.19407702590618,314.81327389877623
640,56.74362408987906,-238.63114590897928,41.50492440166863,-236.99384172799577,-117.5835112715684,106.49844081185421,248.94437300120705,314.46977489221314
641,56.508386995941244,-240.42293577872502,41.88992016062621,-223.09437215278697,-117.78081229133383,112.32007329528474,250.71086128054296,313.7255809884959
642,56.180593262131886,-242.25034516085498,42.14038459287149,-207.74502916105823,-118.99780053156012,117.40816796038898,252.47596313891782,312.66831787991873
643,55.770663605692874,-244.0944861066544,42.24553088098859,-191.1495824069668,-121.29030176632328,121.70177047475543,254.22222815976414,311.3903172243746
644,55.29161543407309,-245.93614679332762,42.19709421784224,-173.53719272008288,-124.69314980822901,125.14523240225039,255.93274951266366,309.98529130979
645,54.75882198978887,-247.7562461589895,41.98958181490221,-155.1582555236354,-129.21847793084174,127.68985587733283,257.59157710719296,308.54501348552145
646,54.18968512317404,-249.53629790216647,41.620465335718016,-136.27953456865242,-134.8545067935237,129.29546429874856,259.1841143579548,307.1561123121254
647,53.603230374683406,-251.25886782064964,41.09030658907517,-117.17869729049588,-141.5648839533474,129.931842604775,260.6974841412434,305.8970849022841
648,53.019636641150164,-252.90800819932244,40.402809060520944,-98.13839375236141,-149.28861545574196,129.57998905855635,262.12085029251716,304.8356294173826
649,52.45971568079848,-254.46965389498683,39.564789703365854,-79.44005056088226,-157.94061309107914,128.23312197608388,263.44568275109987,304.0263867819506
650,51.94435876327038,-255.9319670053608,38.58606726202373,-61.35757664644952,-167.41286130417828,125.89738999629145,264.6659572260101,303.5091660296376
651,51.49396855658789,-257.2856202981163,37.47926544038085,-44.15119643618573,-177.57618556136995,122.59224362174578,265.7782837725407,303.30770569096205
652,51.1278937334727,-258.5240133817276,36.25953188923622,-28.061634604752662,-188.2825804379787,118.3504388419914,266.7819624873424,303.42899625596783
653,50.86388204255239,-259.64341937963275,34.94417767122219,-13.30487207978747,-199.36803323586966,113.21766029595396,267.67896826140003,303.86315912863614
654,50.71756529047958,-260.643063170603,33.552246488498064,-0.06767239454426013,-210.65576059985545,107.25177069257994,268.47386983735856,304.58385058184115
655,50.70198747627589,-261.52513469582027,32.10402778483091,11.49596075220122,-221.95976374427318,100.52171350900213,269.17369091946034,305.5491401514752
656,50.82718578452967,-262.2947421549573,30.620531770777447,21.267288449553995,-233.08860315545832,93.10611525425075,269.7877224589359,306.7028045546545
657,51.09983359059531,-262.9598100764353,29.12294662523029,29.164263532751658,-243.84929472191888,85.09164962636731,270.32729537696025,307.97597945936093
658,51.52295501528265,-263.53092638332555,27.632098395895984,35.14190753833058,-254.05123379430697,76.57123682870308,270.8055220094399,309.28911751107984
659,52.09572151231895,-264.0211409647766,26.167932770646985,39.19172715289098,-263.5100593312144,67.64215599349379,271.23701274575365,310.55420592991663
660,52.813341790000834,-264.44571634653704,24.749035315578848,41.340305599709986,-272.0513754079932,58.404146827639664,271.63757207741963,311.6771963878344
661,53.66705617753509,-264.8218293954854,23.39220326352225,41.64722912596751,-279.5142513399209,48.95756886182142,272.0238760183165,312.56059293105767
662,54.64424461279781,-265.1682221829276,22.112077904509988,40.20251022352221,-285.75442497418203,39.40167442792911,272.4131311071153,313.10613314057235
663,55.728653503895394,-265.50480071312404,20.92084277276474,37.12364929346989,-290.6471377145756,29.833036601145714,272.82271451511457,313.2174880721179
664,56.90074108153296,-265.85218254342095,19.827989881838274,32.55244087522576,-294.0895362975545,20.344157842683387,273.2697956127799,312.8029016968232
665,58.13813410615567,-266.231198305436,18.840154677544277,26.651588325337,-296.00258661856634,11.022270803529107,273.77094175478123,311.7776922016434
666,59.41618169484732,-266.6623571608433,17.961020132242023,19.601152500710338,-296.33245947594975,1.9483311920706443,274.34171453011066,310.06654510122934
667,60.70858558507883,-267.1652912105486,17.191290947670318,11.594834844082214,-295.0513662793582,-6.803805197174948,274.99626634333,307.6055403041997
668,61.98808145401589,-267.7581976378445,16.528739272788542,2.8360885699910106,-292.1578428390701,-15.168032844208206,275.74694990886235,304.343870701401
669,63.227143710728924,-268.45729914350727,15.968322859388344,-6.465936617846968,-287.6764989464529,-23.086485636984367,276.60395441946935,300.2452268969973
670,64.39868655820965,-269.2763429926443,15.50237479174393,-16.10058547030685,-281.6572682511787,-30.509873176685282,277.57498182350275,295.28883907077363
671,65.47673666835529,-270.22615722955254,15.120860998789777,-25.859961501155308,-274.17420534307297,-37.397668203989355,278.6649752940489,289.47017990872536
672,66.43705689661432,-271.3142798952678,14.811698308320969,-35.54317247831102,-265.3238843966354,-43.71814457282091,279.8759100874891,282.8013399607783
673,67.25770530405471,-272.5446738127029,14.561122613364825,-44.96044248986557,-255.22345659791424,-49.44826181826075,281.2066548195571,275.3110882097705
674,67.91951851277737,-273.9175359483442,14.354094289282171,-53.9369641319088,-244.00842287180498,-54.57339102256222,282.65290878059534,267.04462752773065
675,68.40651249164189,-275.4292066945426,14.174726370338632,-62.316363772453684,-231.8301755686384,-59.08687789251515,284.20721827272286,258.06304986324426
676,68.70619709652712,-277.0721807904278,14.00672003088741,-69.96366257136499,-218.85335916186204,-62.98944288173276,285.8590721737789,248.44249247720242
677,68.80980323921781,-278.83521814711514,13.833791650314883,-76.76763427467245,-205.25309668012036,-66.28842461820553,287.5950741954627,238.2729965412153
678,68.7124235975994,-280.7035496385018,13.64007641695136,-82.6424857926813,-191.21212603030494,-68.99688122109013,289.39918673935784,227.65707388507576
679,68.41306926869414,-282.6591700191437,13.410495266533323,-87.52881619463969,-176.9178885899711,-71.1325733540286,291.25303892597213,216.70799641141585
680,67.91464556389154,-284.68120773760444,13.13107490119252,-91.393841939506,-162.55961118966454,-72.71686191388946,293.1362894355064,205.54783460914928
681,67.22385025724724,-286.7463598733985,12.78921429521943,-94.23090866715056,-148.32542152177277,-73.77356090303246,295.0270335616526,194.30528503312232
682,66.3509972576497,-288.8293799705733,12.373894875434528,-96.05834003031997,-134.39953598861638,-74.32779119815362,296.9022435780727,183.1133395804254
683,65.30976823534503,-290.9036070332934,11.875834997227853,-96.91769879089347,-120.95955830411405,-74.40488276859956,298.73823206344275,172.1068598354469
684,64.11689455631907,-292.94152483598106,11.287592263840242,-96.87155202143633,-108.1739270829129,-74.0293708782348,300.51112876049336,161.4201259070398
685,62.79177231221013,-294.91534128268785,10.603619635040575,-96.00083954789923,-96.19955087518835,-73.22412572544991,302.19736225965846,151.18442984616541
686,61.35601454039507,-296.7975774473554,9.82028296738722,-94.4019436814166,-85.1796685433578,-72.00964507058036,303.7741379848741,141.5257785219051
687,59.832946941521655,-298.5616552775215,8.935848335783648,-92.18355138420283,-75.24197028194021,-70.40352655543482,305.21990374836037,132.5627603727388
688,58.247056277404916,-300.18247210556854,7.950447085244658,-89.46339022136252,-66.49700935087169,-68.42012226264829,306.5147938206632,124.40461636817857
689,56.623403797438336,-301.6369493080097,6.866025220504863,-86.36490897359967,-59.03692695653722,-66.07036467972252,307.64104217522123,117.14954003738968
690,54.98701916221011,-302.9045418247059,5.686281815451388,-83.0139639165823,-52.93450337068673,-63.36174260576884,308.58335539134305,110.8832168203139
691,53.36229311751266,-303.96769505664645,4.416599000577631,-79.53556338727677,-48.242538169127954,-60.29839900323221,309.3292358445687,105.67760127814225
692,51.77238925968715,-304.81223620055823,3.0639640832262622,-76.05071728023565,-44.99355233330354,-56.881320772394595,309.86924651612225,101.58992343023775
693,50.238696186625816,-305.42768842758494,1.6368826885390295,-72.67343546639451,-43.1997958776672,-53.10859250501289,310.1972100272608,98.66191355117908
694,48.78034082456977,-305.8074983024545,0.14528057291787289,-69.50792025209216,-42.853537511881335,-48.97569153764193,310.310336150939,96.91923810682594
695,47.41378174632123,-305.94916928711956,-1.3996090220627924,-66.64600240021812,-43.927608111000744,-44.475808960237835,310.2092739191825,96.37114698832043
696,46.152498121776304,-305.85429704646924,-2.9853758906204475,-64.16487631488131,-46.3761673985862,-39.60018949831318,309.89808656814375,97.01034166217323
697,45.006785901163724,-305.5285055846354,-4.598584399647815,-62.125195268534156,-50.13566271362656,-34.338491280244504,309.38415002671366,98.8130824926037
698,43.98366810959992,-304.9812867947961,-6.224948376941445,-60.56958919700905,-55.12594929099194,-28.679173431481715,308.677978307947,101.73955855099493
699,43.086920748049906,-304.22574932179924,-7.849530454726962,-59.52166312035081,-61.25154254984298,-22.609924351338755,307.7929815396187,105.73454289555485
700,42.317209856275305,-303.2782852069043,-9.4569654369643,-58.98552232140515,-68.40297431758198,-16.11814571865096,306.74516397839807,110.72835049189021
701,41.67232922947132,-302.1581644398698,-11.03170551982307,-58.94585145751739,-76.45822709040046,-9.191506217553636,305.5527700649422,116.63810634223
702,41.14752273737132,-300.8870685309613,-12.558283338541868,-59.36855101726968,-85.28422390726904,-1.818574491429402,304.23588670022696,123.36932051184391
703,40.735870756137295,-299.4885749338312,-14.021586996002743,-60.20190917554839,-94.73835634678083,6.0104667471241005,302.81600991802287,130.8177565187861
704,40.428717342999946,-297.98760484896667,-15.407139746723834,-61.3782631017813,-104.67003886940351,14.303033376722134,301.315584309959,138.8715705352871
705,40.21611382299037,-296.409847587941,-16.701376209532018,-62.816082950777634,-114.9222828738363,23.063298250204184,299.7575239734874,147.41369043976587
706,40.087255611698964,-294.7811751134925,-17.891907032540388,-64.42239473451794,-125.33328698923734,32.29132525330095,298.16472429251405,156.324394989591
707,40.030892277248505,-293.12706052365525,-18.967764726356165,-66.09544505989967,-135.7380403198792,41.98221876970161,296.5595744736856,165.48404357004455
708,40.03569556812584,-291.4720141316125,-19.919624632598783,-67.72750147155408,-145.9699324001118,52.12533575025521,294.9634813963051,174.7758961601102
709,40.09057549894044,-289.83905028095216,-20.73999636934065,-69.20767758011924,-155.86235829159483,62.70361192980819,293.3964157108471,184.08895248810936
710,40.18493953186933,-288.24919692712086,-21.4233822459053,-70.42467349334721,-165.25030135167577,73.69305454394589,291.87649084108807,193.32073109609766
711,40.30889375142927,-286.721058340658,-21.966399791236974,-71.2693304002875,-173.97187206037407,85.0624511063279,290.4195845035445,202.3799058670634
712,40.45338779302215,-285.2704393783168,-22.36786563873992,-71.63691372348366,-181.86978089521259,96.77333747699696,289.0390108905931,211.1887213329538
713,40.61030771083063,-283.9100379730721,-22.62883777414105,-71.42906094526653,-188.79272723500785,108.78025855996742,287.74525022006395,219.68511864581168
714,40.77252328885626,-282.6492108715181,-22.752612898791114,-70.55535560152998,-194.59669340511167,121.0313415418868,286.5457410682693,227.82451896208548
715,40.93389822937866,-281.49381594987454,-22.74467557342597,-68.93451483647233,-199.14614050157437,133.46918510768765,285.4447395029059,235.58122608595934
716,41.08927261522153,-280.4461324292156,-22.61259600843699,-66.49520143027199,-202.31510781012022,146.03204963948485,284.44324720721966,242.94942179604607
717,41.23442673062968,-279.50485808780724,-22.36587419526794,-63.176490749066296,-203.9882193589714,158.65531440631494,283.5390086284073,249.9437338071048
718,41.36603390718971,-278.6651805183322,-22.015729980894864,-58.92803853630513,-204.0616002930505,171.27314949298827,282.72657514269736,256.59935885018797
719,41.48160793637037,-277.9189179092725,-21.574841685510606,-53.71000752118169,-202.44370411296416,183.8203339228126,281.99743267030226,262.9717242779627
720,41.579448127323126,-277.25472379481727,-21.05703927000119,-47.49281977822468,-199.05605074941525,196.23413841227386,281.34018812675043,269.1356730981879
721,41.658582583989926,-276.658349636371,-20.476960951569847,-40.256807089792986,-193.83387542951095,208.4561827892039,280.740809427768,275.18416077500245
722,41.718708046140094,-276.11295889282803,-19.849684041180723,-31.991832130846753,-186.72668927162417,220.43417537550806,280.1829133872656,281.22645834163075
723,41.760123042228315,-275.59948632512635,-19.190341748604286,-22.69694810414376,-177.69875424866223,232.12344514261463,279.6480957456915,287.385865964064
724,41.783650400445346,-275.09703654800103,-18.513738161985316,-12.380153108357607,-166.72947704348817,243.48818714394002,279.11629770679656,293.79695437947834
725,41.79054536334874,-274.58331614598467,-17.833973817825626,-1.0582784386311503,-153.8137274163149,254.50235691402935,278.56620363771765,300.6023682191664
726,41.78238643716693,-274.03509384451087,-17.164094229762796,11.24297152945096,-138.96208592854413,265.1501689159663,277.9756648139486,307.9492440181088
727,41.760947474170464,-273.42868308691885,-16.515773287887296,24.488834109642934,-122.20102276276148,275.42617604167265,277.3221440548415,315.98531526384926
728,41.728051241890135,-272.7404407913744,-15.899042417960112,38.63518735524527,-103.57300454941482,285.33492976575593,276.58317566094007,324.85479563997194
729,41.68540675599932,-271.94727507636696,-15.322074722401759,53.62818282217062,-83.13652084246777,294.89024199918674,275.73683424306904,334.6941481543729
730,41.634434714467254,-271.0271534995666,-14.79103104590393,69.40387514943869,-60.966017330818524,304.11408843467035,274.7622049423062,345.6278606047144
731,41.57608725922396,-269.95960202888216,-14.309972150284008,85.88791780137414,-37.151719589889865,313.0352081284805,273.63984633052286,357.7643555202306
732,41.51066990497032,-268.7261837579218,-13.880838158274381,102.99539322161327,-11.799329294888047,321.6874646845717,272.35223614807745,371.192164497197
733,41.43767471514096,-267.31094555652584,-13.503493454196866,120.63083822898632,14.970425629566932,330.1080407304461,270.88418923864856,385.9764925089678
734,41.35563449907152,-265.7008206698186,-13.175832671196744,138.68851305276385,43.022404449288,338.3355398967687,269.2232368222757,402.1562876773556
735,41.262007768227186,-263.8859758747006,-12.89394143350473,157.05294641142936,72.20784592301835,346.40806994236624,267.35995671391265,419.7419168742863
736,41.153103321380016,-261.86009313676857,-12.652304075975618,175.5997712484955,102.36535167947817,354.3613776594589,265.28824520114904,438.7135283546335
737,41.02405165122616,-259.6205776328987,-12.444049470366984,194.19684809445752,133.32206944640652,362.22710120990854,263.005522897485,459.02016050584893
738,40.868828024689165,-257.1686862988958,-12.261225306874133,212.70565699967906,164.89508116061296,370.0311988432541,260.51286879717924,480.5796317722047
739,40.68032933666067,-254.50957352680953,-12.095090774633917,230.98292507738608,196.8929965297778,377.79260465390456,257.815078814648,503.2792216264872
740,40.450504005135095,-251.6522531889645,-11.936417588689377,248.88244474161127,229.11774696005142,385.52215219304156,254.9206472585218,526.9771266398375
741,40.17053161556918,-248.6094788359354,-11.775789653691978,266.2570277833311,261.36656778175904,393.22179547661744,251.84167204032548,551.5046499458118
742,39.83104696635471,-245.39754670564443,-11.603892241753169,282.9605333878838,293.4341487466375,400.8841446504958,248.59368697859546,576.6690580480081
743,39.42240164755696,-242.0360289286656,-11.411782391652691,298.84990549756867,325.11492446680387,408.4923210820561,245.1954271764451,602.2570178809399
744,38.93495522908405,-238.54744673335895,-11.19113337697885,313.78715767189055,356.2054685703841,416.0201248267116,241.6685358355537,628.0385110931813
745,38.359387503906596,-234.9568953060341,-10.934447535057279,327.6412518665082,386.5069486966718,423.4324969007073,238.0372227830464,653.7711127182752
746,37.6870229963807,-231.29163312301012,-10.635233361000692,340.28983038093037,415.82759491244826,430.6862498755126,234.32788629553067,679.2045179064637
747,36.91015896634499,-227.58064890417097,-10.288144394420177,351.62077608675145,443.9851324078706,437.73103304300906,230.56871033676603,704.0852027450665
748,36.022388182565166,-223.85421862485708,-9.889078979468177,361.5335931411105,470.80913065462113,444.5104927076904,226.78924882430414,728.1611123935791
749,35.01890762529891,-220.1434631698251,-9.435241408904798,369.9406166005973,496.14322508065766,450.96358404313077,223.02000687778346,751.1862802390804
750,33.89680399772801,-216.4799144854973,-8.925166186775076,376.7680723004595,519.8471725804714,457.02598865736127,219.29202642867176,772.9252936032326
751,32.65530662020318,-212.89509505791955,-8.358708129587027,381.9570158056455,541.798707494497,462.63159192381426,215.63648066746313,793.1575328238164
752,31.295998149821497,-209.42011278151864,-7.737001834371139,385.46417958250873,561.8951691286559,467.71397641764594,212.08427915898903,811.681119917798
753,29.822973802360075,-206.08527114243756,-7.062394689407862,387.26275020876795,580.054875318811,472.207892221008,208.66568344735205,828.3165199482452
754,28.24294045237739,-202.9196933229327,-6.3383579661831275,387.3430830757011,596.2182195664864,476.05067085039735,205.40993180650236,842.9097429409082
755,26.565248051701943,-199.95095850039664,-5.569380504929721,385.7133426267739,610.3484725845587,479.1835563477474,202.34487160375943,855.3350975210186
756,24.801847023901388,-197.2047493382792,-4.760849204026898,382.40003493605184,622.432272741209,481.55293393387564,199.4965985672572,865.4974501935784
757,22.967166619169554,-194.7045113102524,-3.9189201991033076,377.44838011701796,632.4797930591336,483.11144308019016,196.88910394698826,873.3339469402703
758,21.07791089578241,-192.47112671171797,-3.050384386307024,370.92245789466335,640.5245741982325,483.81896768066997,194.54393282519337,878.8151569809883
759,19.15277136695089,-190.5226085748381,-2.1625306693922024,362.9050527007937,646.6230134040508,483.6435009190828,192.4798592988435,881.9456028754327
760,17.212058572021043,-188.87382187261994,-1.2630097681943855,353.4971259465801,650.8535004439725,482.56188592998217,190.7125866063955,882.7636479731909
761,15.277258715546012,-187.5362411249953,-0.3597004936581665,342.8168534316768,653.3151952956971,480.5604349365777,189.25448222804846,881.340723180913
762,13.370525543481447,-186.5177545880801,0.539420902129801,330.9981855811875,654.1264498324449,477.6354290165464,188.1143592628131,877.7798909324144
763,11.514121174119898,-185.8225253959146,1.4264091549754176,318.1889166895177,653.422885982919,473.7934982481737,187.29731567169284,872.2137642467591
764,9.729822345169383,-185.4509191481795,2.2934782906223097,304.5482841203591,651.3551536145176,469.05187837232216,186.80464205041275,864.8018204315224
765,8.038310591402885,-185.3995054538598,3.1331325106937276,290.24415536807544,648.0864008689425,463.43853621255187,186.63380643652684,855.727169600428
766,6.458566514795855,-185.66113802070845,3.938302223283844,275.44989539252884,643.7894974876609,456.9921529798068,186.77852148608207,845.1928559216024
767,5.007289619090071,-186.22511437131837,4.702486929543217,260.34103473415536,638.6440586955273,449.7619531105448,187.22889555638804,833.4177839021537
768,3.698365905734656,-187.07741255886617,5.419905156922754,245.09187791364712,632.8333246830485,441.8073668242079,187.97166520446598,820.6323733417172
769,2.542405201188087,-188.20099866408984,6.085649490640654,229.87220008062917,626.540959234439,433.197516977717,188.99050267947896,807.0740551382878
770,1.5463686739242977,-189.5761955766883,6.695842341369537,214.84417737864283,619.9478400679652,424.0105245784289,190.26638837743243,792.9827256973198
771,0.7133039409203458,-191.18110067774555,7.247785904414885,200.159683467647,613.2289213964705,414.33263202768615,191.77803506306188,778.5962795440608
772,0.04220056584250344,-192.99203758318973,7.740098084227207,185.95806211610585,606.550253907203,404.2571485073766,193.50234802391572,764.1463368786457
773,-0.47202685293184454,-194.9840252498158,8.172825030895828,172.36445503686645,600.0662467920329,393.88322776000746,195.4149033783674,749.8542744235127
774,-0.838426574927225,-197.13124684145814,8.547520566786767,159.48872668329415,593.917249534535,383.3144947010344,197.4904258519978,735.9276537614098
775,-1.0697725214128475,-199.40750115327867,8.867283544946634,147.4249856084182,588.2275181625207,372.6575434326825,199.70324780903857,722.5571220575415
