time,ax,ay,az,gx,gy,gz,accmagnitude,gccmagnitude
0,13.908513683472952,-226.0464182069263,75.86867963738327,-80.82668062653181,16.08242218154628,22.28042618601129,238.85010547519107,84.81006023547351
1,13.7458591219394,-226.15275476614207,75.873165612611,-77.72988811413964,14.506677846612087,23.528936578345615,238.94849318777375,82.17523107426767
2,13.585240290595333,-226.2669522660025,75.88837509630487,-74.71035182868172,12.944889904373296,24.689080364468456,239.057547597259,79.59482396271964
3,13.429144155993454,-226.38623038816706,75.91093096483735,-71.7987472052127,11.424915578487633,25.735367244595462,239.1736062610782,77.09511685095356
4,13.279966466082797,-226.5077599826842,75.93747820698037,-69.02446405013521,9.97455667897709,26.643549446941172,239.2929718554004,74.70191443171731
5,13.139944830914294,-226.62873869651222,75.9647938119698,-66.41504553058923,8.62097517308535,27.39121570848877,239.4120179678925,72.44010818272707
6,13.011100039214943,-226.7464639236861,75.98988221880539,-63.995662795906675,7.390136985784832,27.958351226504337,239.52728777898494,70.3332466396541
7,12.895187500221503,-226.85840092012808,76.0100518381468,-61.78863946503023,6.3062988651728435,28.32784744441062,239.63558214654415,68.40312542990773
8,12.79365970076403,-226.96224422804943,76.02297019788236,-59.813039328838684,5.391550058297602,28.485947028292447,239.73403454130326,66.66940619512411
9,12.707639596644691,-227.05597100066348,76.02669776646424,-58.08432891684352,4.665417074862479,28.422611250451702,239.82017150960638,65.14927261542995
10,12.637904047640221,-227.1378854616809,76.0197025184227,-56.61412407119039,4.144536246499668,28.13179920416152,239.8919585930413,63.85713038035601
11,12.584875841991668,-227.20665445718618,76.00085829299562,-55.41002653609536,3.842395304689163,27.6116508345996,239.9478326214862,62.80435631541184
12,12.548622560229253,-227.26133462891391,75.96943018143281,-54.475553109016126,3.7691419692540884,26.86456865715937,239.98672187797663,61.9991002012463
13,12.528860510089626,-227.3013920597871,75.92505009444862,-53.8101564698099,3.9314547875460497,25.89719612329805,240.0080559013272,61.44614130392428
14,12.524962198979686,-227.32671536331662,75.86768566416923,-53.40933369264547,4.332469449899091,24.720293691749163,240.0117668102703,61.146800345374196
15,12.535966203450155,-227.33762311290073,75.79760573054465,-53.264815728927346,4.971752753186064,23.34851662156863,239.99828400516563,61.098906525249525
16,12.56058874607365,-227.33486613879955,75.71534555490884,-53.36482867341995,5.845316438968235,21.80010128338594,239.96852374190826,61.29681810099841
17,12.597236741375742,-227.31962449135293,75.62167426969997,-53.69441513861542,6.945664308442159,20.09646937366292,239.92387420821325,61.73149373158267
18,12.644022484337919,-227.2934978755012,75.51756594015288,-54.23580142909082,8.261868125937026,18.26176174108647,239.866175460295,62.390610129720834
19,12.698780485187621,-227.25848739026486,75.40417438756349,-54.9687935934073,9.779670495053898,16.32231550020725,239.7976922912397,63.258719598569805
20,12.759087147653352,-227.21696580547254,75.28281098874473,-55.871183354428695,11.481615646713244,14.306099675947317,239.72107724716008,64.31743912063554
21,12.822283998959014,-227.17163357553318,75.1549241194984,-56.9191441156441,13.347211400963964,12.242125790757964,239.63932080137835,65.54566142036623
22,12.885505062248875,-227.12545831860672,75.02207868011392,-58.08759840501048,15.35312701959726,10.159850535741516,239.55568611551737,66.91977845537969
23,12.945708861625972,-227.08159652052686,74.88593413289648,-59.350541655911755,17.47343202214898,8.088587880533204,239.47362678327326,68.41390953519054
24,12.999715510177616,-227.0432977070854,74.74821963518433,-60.681313091507555,19.679880249068038,6.05694761144979,239.39668740555246,70.00012978743499
25,13.044249198164973,-227.01379309051472,74.61070523047202,-62.052812117731946,21.942241563636244,4.092316311132706,239.32838863078044,71.64869957663345
26,13.075986024837265,-226.99617243176894,74.47516879205507,-63.437667070639556,24.228680701597575,2.2203951831536117,239.27210015419362,73.32830089013842
27,13.091606583764925,-226.99325433751667,74.34335945364256,-64.80837121490694,26.50617915947645,0.4648068896941282,239.2309068731164,75.00629157254822
28,13.087852244266955,-227.00745638484767,74.21695936000324,-66.1374073138644,28.740992083801043,-1.1532191946264712,239.2074748304434,76.64899152000108
29,13.06158380354809,-227.04067239023163,74.09754646437266,-67.39738576094629,30.899128410969734,-2.615077025925521,239.20392471935168,78.22201562106063
30,13.009841096830845,-227.09416476519237,73.98656158272871,-68.56122136780613,32.94683953402473,-3.9049262663841224,239.2217214601588,79.69066586765626
31,12.929902197655858,-227.16847996356069,73.88528282043785,-69.60237012853825,34.851099993634044,-5.0097475431412715,239.26158839020593,81.02038981695881
32,12.81934098808931,-227.26339417778098,73.79480979157853,-70.49513987362927,36.58006347114301,-5.919314902079991,239.32345359352172,82.17730524853789
33,12.676082056281308,-227.3778945392875,73.71605894569686,-71.21507854305374,38.10347890559552,-6.626093720284521,239.40643375552312,83.12878260656112
34,12.498452010803529,-227.510198316181,73.64977003764251,-71.73943227668714,39.39305479361837,-7.125076302430277,239.5088579132576,83.84406890407334
35,12.285226425937685,-227.6578094349311,73.59652244940577,-72.04765444820438,40.42276429955435,-7.4135711179328725,239.62833005603488,84.29493031005543
36,12.035671828701567,-227.81760858046516,73.55675879461195,-72.12193797019513,41.169089187283504,-7.490964861059446,239.76182622234023,84.45628653993835
37,11.749582361653093,-227.98597052785107,73.53081218616168,-71.94773814348441,41.61120625509358,-7.358478901676925,239.90581894716843,84.30680912343799
38,11.427310921043253,-228.15890050645757,73.51893290772686,-71.51425286997134,41.73112539601662,-7.018942902235861,240.0564199538745,83.82945803684761
39,11.06979472624942,-228.33218050335276,73.52131005885191,-70.81483124519016,41.51379312646605,-6.476608155793188,240.20953107540697,83.01193698240236
40,10.678575518055634,-228.50151649002495,73.53808402297967,-69.84728959657991,40.947179017871754,-5.737021421676856,240.36099354365513,81.84705609282643
41,10.255814882600115,-228.66267838877758,73.569346369446,-68.61412449464768,40.02236462928437,-4.8069766811169785,240.5067268063949,80.33300082996222
42,9.804305425323692,-228.81162595257888,73.61512508618836,-67.12262342697497,38.733655037708424,-3.694557383756556,240.64284970881204,78.47351586135434
43,9.327478552666234,-228.94461552631964,73.67535473090742,-65.38488406725097,37.07873171995784,-2.4092755907733316,240.76577908550044,76.27802130601145
44,8.829409407746715,-229.05828479856132,73.74983289964219,-63.417761047112236,35.05886230302633,-0.9623072522083727,240.87230337349376,73.76168475081276
45,8.31481908208041,-229.14971485987522,73.83816607427045,-61.24276382865959,32.67917770160909,0.6331848669258842,240.95963142867222,70.94547497665955
46,7.789073681551533,-229.21647079330802,73.93970924373907,-58.88593006914704,29.949020709545845,2.36165682709402,241.0254189105798,67.85622190795328
47,7.258179291363311,-229.25662343416332,74.0535045423399,-56.37769573090889,26.88236261550799,4.20474108194295,241.06777616217425,64.52670193349802
48,6.728771460547931,-229.26875579252356,74.17822441257916,-53.752776742500885,23.49827631294969,6.140785300326557,241.08526237034098,60.99575903939257
49,6.208097483965436,-229.2519578673507,74.31212450298277,-51.05006838882554,19.82144616772276,8.144406033952349,241.07687089572818,57.30846122174838
50,5.703989405372272,-229.20581320470978,74.45301074040319,-48.312559138726925,15.882687214261068,10.186093050957634,241.0420100415349,53.51627978614074
51,5.224825333181912,-229.1303797834959,74.59822387796042,-45.587246613237404,11.71943977913365,12.231900247194172,240.9804824333893,49.67726786880929
52,4.779476535640041,-229.0261669635904,74.74464349515408,-42.925035954068434,7.376201030830887,14.243257046791394,240.89246496561532,45.856205174573944
53,4.3772380050298,-228.8941095027391,74.88871215402308,-40.38059575584848,2.9048527058008102,16.176930232003286,240.7784901983571,42.12466952154858
54,4.027740721212832,-228.73553906965185,75.02647933481678,-38.012144431663955,-1.6351553730059423,17.985160416347806,240.63942923523493,38.56099289080337
55,3.740844598044279,-228.55215321563384,75.1536638555794,-35.88114050428738,-6.1768033349871105,19.615990249512755,240.47647542598224,35.250060429070075
56,3.526512012278896,-228.34598144529275,75.26573263520449,-34.05185358556224,-10.64571265202913,21.013793381066098,240.2911277243237,32.28291490381773
57,3.3946628521209083,-228.11934795159388,75.3579929002222,-32.59079810843739,-14.960594935831635,22.12000471020837,240.0851722897117,29.75613572050705
58,3.3550130526864312,-227.8748308028233,75.4256944188845,-31.56601842578207,-19.033952814592073,22.874044005441494,239.8606610463763,27.77096983512717
59,3.4168994625535585,-227.61521781861222,75.46413828068354,-31.046220927147445,-22.773037227165435,23.21441708025932,239.61988639834564,26.432200807204364
60,3.589094537791444,-227.34345991477275,75.4687891869625,-31.099755726760673,-26.081054933722196,23.079971780321447,239.36535203454773,25.846751117906365
61,3.879614729890779,-227.06262319714452,75.43538896398701,-31.793456803672928,-28.858609960146385,22.41128030976972,239.09974054736378,26.122021316678893
62,4.295526463717207,-226.7758414421591,75.3600697038328,-33.19135499139374,-31.00535358579773,21.152114907298383,238.82587922384644,27.363977494748553
63,4.842753370681643,-226.48627080436458,75.23946538855378,-35.3532829163351,-32.421809731417035,19.250980450887923,238.54670577869427,29.675006269073748
64,5.525888177370405,-226.1970487197826,75.07082111022405,-38.333395109856475,-33.01133645610142,16.662665104688685,238.26523607570877,33.151564378515886
65,6.348012493605384,-225.91125909685536,74.85209916609858,-42.17863046482675,-32.68217984573259,13.349768589927054,237.98453612589879,37.881658679604065
66,7.310527611223357,-225.63190597078435,74.58208136312207,-46.92714836858379,-31.34957387626382,9.284167100625035,237.70770081341462,43.94220214236144
67,8.412999149043914,-225.36189776090038,74.26046669958374,-52.60677443762034,-28.937838783229402,4.448374301346805,237.43784176870315,51.396302374324655
68,9.6530179628826,-225.10404409508428,73.8879631319167,-59.23349673518644,-25.3824308789217,-1.1632408709170392,237.17808654062677,60.29055076160369
69,11.026079442358565,-224.8610668739415,73.4663713926731,-66.81005828972486,-20.63189830470735,-7.543416926704855,236.93159074840912,70.65239159197782
70,12.525483432326602,-224.63562671586305,72.99865789709503,-75.32469598494524,-14.649699416278532,-14.671177976074318,236.70156413811932,82.4876602731172
71,14.142257533778391,-224.43036481908877,72.48901285466023,-84.75007859395134,-7.4158428464620965,-22.511259490136737,236.49131016647038,95.77838658314418
72,15.865107173408093,-224.24795842167237,71.942888992735,-95.04249696895123,1.0716896188028433,-31.01381086138584,236.30427677016175,110.48096150100426
73,17.680396390643878,-224.09118580457528,71.36701586422969,-106.14135643071735,10.795774467177514,-40.114400656335945,236.14411371572072,126.52476365889925
74,19.5721637732122,-223.96299485069542,70.76938450502506,-117.96901486723819,21.719267676723387,-49.73434670836652,236.0147299984123,143.8113335296953
75,21.52217835153353,-223.86656793767804,70.15919724966601,-130.43100011525607,33.78444930902577,-59.78138883441973,235.92034354677395,162.2141704449478
76,23.510040415457585,-223.80537534174456,69.54677792758783,-143.41662755682992,46.91282246259886,-70.1507167866031,235.8655149617405,181.5792102977525
77,25.513332018814868,-223.7832091918857,68.94343860487923,-156.80002465328474,61.0052938528529,-80.72635980757741,235.85515705441802,201.726021526667
78,27.507821305562004,-223.80419033509838,68.36130067206125,-170.44155481174184,75.94275805763567,-91.38293652523411,235.89451258657792,222.4497350906848
79,29.467723693018097,-223.87274135516316,67.81307047859345,-184.18962002989264,91.5871004170052,-101.98775462211223,235.9890939794918,243.52370199053794
80,31.366021412004805,-223.99352048112817,67.3117726727493,-197.88281133319543,107.78262460391566,-112.40323863981989,236.14458082597855,264.7028505257242
81,33.17484099465409,-224.17131320058866,66.87044745082264,-211.35236860664713,124.35790018506792,-122.48965155728628,236.36667364923684,285.72769547560483
82,34.86588608100338,-224.41088097884253,66.50182064083955,-224.42490686578307,141.12801347969193,-132.108061814508,236.66090530281156,306.328932867078
83,36.41092047675725,-224.71676942905682,66.21795781682644,-236.9253635626482,157.89719216434162,-141.1234929374628,237.03241453095842,326.2325366835246
84,37.78229388981046,-225.09308135196812,66.029915451372,-248.68011993092333,174.46176079351707,-149.4081788191288,237.48568931219327,345.16525724811083
85,38.9535003524462,-225.54322301233788,65.9474033191311,-259.52024707176093,190.61337115535775,-156.84483513442245,238.0242904327097,362.86040447636356
86,39.89975709393815,-226.06963461560653,65.97847270823696,-269.2848230140365,206.1424387664704,-163.32984740517463,238.65056801293633,379.06378246825994
87,40.59858966796034,-226.6735179684172,66.12924432070264,-277.82425956672256,220.84170566654404,-168.77626982629616,239.3653852079508,393.5396254710441
88,41.03040761553011,-227.35457550532644,66.40368805388374,-285.00356770202995,234.5098409460568,-173.11652681576538,240.16786382243927,406.0763704238309
89,41.179054004073436,-228.11077506791844,66.80346426540378,-290.7054788554338,246.95498500342697,-176.3047117852817,241.0551660205744,416.4920900711888
90,41.03231192080395,-228.93815407995078,67.32783281378613,-294.8333290920547,257.998142117009,-178.3183850107811,242.022324786305,424.639405247826
91,40.58235146046582,-229.83067532558482,67.9736323908832,-297.31360605839586,267.4763290886338,-179.15978461677187,243.06213361735504,430.40969746813056
92,39.82610192695498,-230.78014465253312,68.73532875552233,-298.098057270068,275.2453956993772,-178.85638120276198,244.16510343245386,433.7364548849889
93,38.765535786640456,-231.77619867088484,69.60512686968679,-297.16526419742354,281.1824452482328,-177.4607269098021,245.31949200195254,434.5976066040811
94,37.40785320719266,-232.80636788276124,70.57313908488601,-294.5216005924791,285.1877996855698,-175.0495729649967,246.511408435632,433.01673187728545
95,35.76555857363008,-233.85621767821974,71.62759970461548,-290.20151542755883,287.18647244543433,-171.72225511086572,247.72499241987055,429.0630705390589
96,33.85642303434617,-234.90956640286484,72.75511543379808,-284.2671095440829,287.12913132996607,-167.59837296762103,248.94266507388062,422.85030699326745
97,31.703329903755073,-235.94877649354714,73.94094122333887,-276.8070084436415,284.99255204384576,-162.81481636319384,250.1454456751245,414.53414916891006
98,29.33400273456603,-236.95511175934362,75.16927163508691,-267.9345685415168,280.77957896306947,-157.5222179388258,251.3133263038832,404.30877277629946
99,26.780619050254977,-237.90915138141582,76.42353890012876,-257.78548715406436,274.51862276191014,-151.88093572032335,252.42569473308106,392.4022465036119
100,24.07931590425046,-238.79124908859166,77.6867101325076,-246.5149140933358,266.2627344052233,-146.056690618756,253.4617945227936,379.07109241691063
101,21.269596389183718,-239.58202421484887,78.94157758423098,-234.2941822018338,256.0883018339824,-140.2160007948845,254.40121018406072,364.594165343838
102,18.39364882218739,-240.26287002151142,80.17103732002398,-221.3072838286602,244.0934196936314,-134.52156635831437,255.22436447930653,349.26605398285614
103,15.49559253078922,-240.8164638201175,81.35835311699775,-207.7472199516844,230.39598404844844,-129.12776299929607,255.91301443787964,333.39021460727304
104,12.620665986422093,-241.22726305915734,82.48740362389393,-193.81233957209673,215.13156362889742,-124.17640123626512,256.4507324619745,317.27204633160443
105,9.814374558551037,-241.48197168362603,83.54291182490314,-179.70277116578288,198.45109723303145,-119.79289891758013,256.8233590444948,301.21210650038057
106,7.121616460292899,-241.56996186395565,84.51065664190325,-165.61702765153743,180.51846393752885,-116.08299893553354,257.01941425977907,285.4996476834229
107,4.585806545865323,-241.48363765736786,85.3776670110176,-151.74884371696388,161.5079693655086,-113.130142689801,257.03045635603644,270.4066359026804
108,2.2480184703570547,-241.21872910540043,86.13239894005898,-138.2842813858252,141.60178811077657,-110.99358374447017,256.8513772837849,256.1823848280461
109,0.14616623099084158,-240.77450736733041,86.76489590971327,-125.39911815259887,120.98740016039578,-109.70729653456813,256.4806265561153,243.04891422013532
110,-1.6857539205176009,-240.15391359459207,87.26693252639265,-113.25651347615695,99.85505809543598,-109.27970324165216,255.92035633215903,231.1971139467182
111,-3.218340997300491,-239.36359646877835,87.63214055739844,-102.00493550629848,78.39532181994717,-109.69420959003939,255.17648215477845,220.7837682155307
112,-4.427367714298323,-238.41385579204118,87.85611545641761,-91.77632203213935,56.79669793172103,-110.91050892207218,254.25865553004195,211.92946880361612
113,-5.294243892899041,-237.31849217622369,87.93650041350057,-82.68444864951886,35.24342064791958,-112.86658513035084,253.18014653616422,204.7174214822517
114,-5.806352206210556,-236.09456549656412,87.87304406803504,-74.82348294352458,13.913409488489318,-115.48132041952536,251.95763676172933,199.1931269832404
115,-5.957247502197654,-234.76206718586846,87.66762753328713,-68.26671485341227,-7.023564881947184,-118.65759466525562,250.61092500870745,195.36489713775447
116,-5.746715099413712,-233.34351364701587,87.32425652001501,-63.06546821367151,-27.4074812037941,-122.28574997836498,249.16255042021868,193.2051485384796
117,-5.180687706600978,-231.8634700871154,86.84901518103409,-59.24821427399499,-47.08941682606529,-126.2472870643757,247.6373400416437,192.65240047673933
118,-4.271024837981092,-230.34801588313982,86.24997958450653,-56.81992254961499,-65.93263670676457,-130.41865886062214,246.061890151111,193.61389137627617
119,-3.035162670055482,-228.82416417664908,85.53709009729656,-55.76169589582423,-83.81342283998421,-134.6750312896479,244.4639928521864,195.96871900491925
120,-1.495646096852917,-227.3192498371554,84.72198327347436,-56.03074390858744,-100.6216543837512,-138.89389011238194,242.87202140245245,199.57140479178116
121,0.32044188267293733,-225.86030117437448,83.81778516504515,-57.560750618272834,-116.26115812467056,-142.95838595419266,241.31428950755998,204.25578169238426
122,2.3821355845303627,-224.47341158918022,82.83886934964653,-60.26268836001669,-130.64985739835595,-146.76032576298493,239.81840112400047,209.83910797636116
123,4.655307065912843,-223.18312758445654,81.80058437933022,-64.02611961370432,-143.7197543523575,-150.2027374545623,238.41060802936522,216.12631546246482
124,7.103430625602383,-222.01186929150137,80.71895676145749,-68.72101303034741,-155.41678450908285,-153.20195449726458,237.11519260633153,222.9143090852567
125,9.688370184982332,-220.97939904718706,79.61037685250461,-74.20007984032412,-165.70058309842275,-155.6891877586263,235.95389305076532,229.99624388429336
126,12.3711690570951,-220.1023526199028,78.49127592926764,-80.30161385091057,-174.54419917515682,-157.61157206645677,234.94538752034478,237.16571411083945
127,15.112823123698899,-219.39384639279194,77.37780308186585,-86.85279402586482,-181.93378637238843,-158.93269367401058,234.10485251513938,244.22079599172469
128,17.875020366347982,-218.86317211237682,76.28551056829582,-93.6733849028443,-187.86828914788472,-159.63262142300252,233.44360900974132,250.9678901757881
129,20.620831768062892,-218.51558862465464,75.22905602369521,-100.57974829185407,-192.35913181867537,-159.70747837609875,232.9688675296419,257.2253120269121
130,23.31534078620763,-218.35221733017306,74.22192944477888,-107.3890609879165,-195.4299059552597,-159.16860176758934,232.68358049205068,262.8265782756287
131,25.926200867903145,-218.37004498397215,73.27621212947383,-113.92361862718901,-197.11604118612797,-158.0413472291408,232.58640679792188,267.623338108384
132,28.42411276072097,-218.5620340596855,72.40237372712238,-120.01509621257053,-197.4644362886534,-156.3635985162954,232.671789980177,271.4878968539226
133,30.783215645393692,-218.91733727515077,71.6091122724195,-125.50863198282904,-196.533022347436,-154.1840466559018,232.93014728751152,274.3152823079854
134,32.981388397807486,-219.42160920575586,70.90324060233527,-130.26660362462312,-194.39022800421102,-151.56030287514213,233.34816310525468,276.02480839134205
135,35.0004595711368,-220.05740449999143,70.28962096130998,-134.17197422637412,-191.11431826101753,-148.55690820727787,233.90917640769584,276.5610987246236
136,36.82632697864883,-220.80464937631245,69.77114794494298,-137.13109919180707,-186.7925824913196,-145.24329964970607,234.59364882570213,275.89454373286816
137,38.448990032231094,-221.64117100258676,69.34877831756803,-139.07590353982496,-181.52035363214972,-141.6917884592812,235.3796976000526,274.0211784820511
138,39.86250014391968,-222.54326807246838,69.02160481188378,-139.96536044914268,-175.39984829940485,-137.9756008155643,236.24367623137195,270.9619837406839
139,41.064836361035695,-223.4863053336783,68.7869698437829,-139.7862254455877,-168.53882624325612,-134.1670248971763,237.16078496058427,266.76162891149124
140,42.05771482751284,-224.4453148854393,68.64061409548731,-138.5530053039105,-161.04907683462426,-130.33570169365078,238.1056931715405,261.48669184808256
141,42.846341538629616,-225.39558762186505,68.57685410836852,-136.30716568448207,-153.0447500137364,-126.54708986923497,239.05315624869118,255.2234066399184
142,43.439118132930076,-226.31323910253923,68.58878248066442,-133.1156058934146,-144.64055917565298,-122.86112782576753,239.97861021376974,248.07500559962705
143,43.847310189417236,-227.17573524189694,68.66848410644717,-129.0684520276939,-135.94989347909086,-119.33110882809521,240.85872850886506,240.15873511246824
144,44.08468683458907,-227.96236450598226,68.80726212619054,-124.27624028971128,-127.0828865366043,-116.00277779859803,241.67192659139687,231.60263587005915
145,44.16713961196082,-228.65464492709833,68.99586774801702,-118.866579855253,-118.14449674124256,-112.91365140816727,242.39880167624227,222.5421856393177
146,44.11228767122305,-229.236656380739,69.22472866095956,-112.98039912919255,-109.23266086492396,-110.092556584304,243.02249714362694,213.11690662278184
147,43.93907550494659,-229.695291286611,69.48417129409641,-106.76789051185246,-100.43658624710372,-107.55937659792764,243.5289838786306,203.46703929434864
148,43.667368765744335,-230.0204200859267,69.76463268265213,-100.38427698425217,-91.83524722749935,-105.32498857534299,243.9072540216535,193.73038021651192
149,43.317553076011464,-230.20497127423462,70.05685823021362,-93.98552891355405,-83.4961481296439,-103.39137182693334,244.149426063426,184.0393729533313
150,42.910140074816645,-230.24492914513704,70.35208220026271,-87.72416130379294,-75.47440813823967,-101.75186306278647,244.25076361482428,174.51852924749033
151,42.46538426468409,-230.13925543952055,70.64218826719622,-81.74523982582592,-67.81221322561511,-100.39153263458657,244.20961323482126,165.28224276462265
152,42.002913725183554,-229.88974360664648,70.91984791210422,-76.18271772234685,-60.53866746282268,-99.28765561580752,244.02726926213154,156.43304072643488
153,41.54137760051056,-229.50081632376998,71.17863500291,-71.15621448019967,-53.670061308504586,-98.41025289713332,243.7077756903076,148.06030063998332
154,41.098113422232885,-228.97927827112852,71.41311565958846,-66.76833063057941,-47.21055856313115,-97.72268040278448,243.2576767606543,140.2394411931723
155,40.688837676465496,-228.33403682137052,71.61891335695798,-63.102571340669044,-41.15328730711844,-97.18224871624261,242.6857289758256,133.0315793379259
156,40.32736346797934,-227.57580323432987,71.79274990234275,-60.22192550747542,-35.48180389114922,-96.7408604671735,242.00258752762863,126.48363054152163
157,40.025349635492056,-226.71678627030587,71.93246329394763,-58.16811852238606,-30.171883484492103,-96.34565838470274,241.2204797496907,120.62881664387105
158,39.79208617778047,-225.77038896162256,72.03700357835785,-56.96152791185222,-25.193576515884953,-95.93968252837028,240.35287726560637,115.48753566960698
159,39.63432119265364,-224.7509175943871,72.10640781767685,-56.601723982530515,-20.513458376230467,-95.46254038388668,239.41417700074467,111.06853990567366
160,39.556134503153814,-223.67330978028124,72.14175520717382,-57.068574520911675,-16.09699069975003,-94.8510977879721,238.4193991730999,107.37036217703422
161,39.5588626539699,-222.55288607959923,72.14510325800936,-58.32383512630987,-11.910906797598047,-94.04020162358721,237.38390798708485,104.38292545001256
162,39.64107906342567,-221.4051272794175,72.11940583659124,-60.31313574339342,-7.925531488264505,-92.96344658677064,236.32315834415152,102.08926793773598
163,39.79863196319115,-220.2454773371915,72.06841384826232,-62.96826946687868,-4.116946643478374,-91.55399785847995,235.25246970825967,100.46731526844701
164,40.02474152616424,-219.08917027587822,71.9965595293791,-66.20969118961455,-0.4689182544018248,-89.74547915290056,234.18682647064682,99.49163350483114
165,40.31015640670398,-217.95107802505154,71.908825621248,-69.94914025123697,3.025491280624037,-87.47293149507732,233.14070281473917,99.13510216801248
166,40.64336883534078,-216.84557537432298,71.81060107006911,-74.09231168680165,6.362690753217597,-84.67384259719766,232.127909202952,99.3704548442586
167,41.01088634037756,-215.7864178540968,71.70752532943783,-78.54151341375538,9.527758556133426,-81.28924042851592,231.1614571937242,100.17164585571831
168,41.39755693491614,-214.78662846254,71.60532389377458,-83.19825994756222,12.494106191187246,-77.26483807953872,230.2534393202776,101.51501377540266
169,41.7869430882029,-213.85838962900323,71.50963838284113,-87.96576520564128,15.223622729845424,-72.55221076321064,229.41492112816644,103.38022485397619
170,42.161738090852154,-213.01293753821477,71.42585525069315,-92.75130609834295,17.667296736453192,-67.10998013194244,228.65584306943393,105.75099026315058
171,42.50421677121814,-212.26045686178978,71.35893786015028,-97.46843390164258,19.766292921953795,-60.9049762838922,227.98493071047906,108.61555927780478
172,42.79671108747512,-211.6099749833328,71.31326711925546,-102.03901163452176,21.453442730322326,-53.91334402666814,227.40961254918378,111.96699548792328
173,43.02209989729838,-211.06925589872554,71.29249606978628,-106.39505349378629,22.65509214721481,-46.12155719157087,226.9359455810801,115.80324496549223
174,43.16430114413665,-210.64469509329336,71.29942373062678,-110.48033827836457,23.29323710339022,-37.52730301672991,226.56854956421589,120.1270049067485
175,43.20875384193631,-210.34121780488925,71.33589305833551,-114.25176455590494,23.287867651906662,-28.14019783696927,226.31055166141905,124.9454001367248
176,43.14287671783786,-210.16218413856672,71.40271703872192,-117.68041293828892,22.55943714170596,-17.98229565375259,226.1635437585886,130.26947474696672
177,42.95649028330583,-210.10930551216202,71.49963579448729,-120.75228159205734,21.031372000464692,-7.08835287355311,226.12755533235395,136.11350849532715
178,42.642189464430395,-210.1825778528019,71.62530642808393,-123.46866561668887,18.632541059606638,4.494184119343848,226.20104531933913,142.4941731046047
179,42.19565472515941,-210.3802376604784,71.77732620376378,-125.84615900117564,15.299609664516357,16.705496667037135,226.38091688907485,149.42955190559368
180,41.61589086980466,-210.69874727907333,71.9522884957286,-127.91626867691542,10.979211824407088,29.474037798266945,226.6625590994702,156.9380561115133
181,40.90538439145168,-211.13281532206108,72.1458696352643,-129.72464244713242,5.629882115411061,42.71751440928,227.03991896096403,165.03728058774848
182,40.07017227607243,-211.67545714858736,72.35294352726751,-131.32992486966515,-0.7763028479348987,56.34420886397378,227.50560644582845,173.74284943112437
183,39.119817485478,-212.31809864725275,72.56771986038527,-132.80226619689603,-8.252415998114385,70.25462893762014,228.05103355336863,183.06730541046173
184,38.06728878183913,-213.0507245547607,72.7839009453601,-134.2215182816906,-16.795739717805358,84.34346154891105,228.6665868391034,193.01909627323963
185,36.928744945087175,-213.8620703263473,72.99485163958694,-135.67515758337055,-26.387221473731437,98.50179136678605,229.34183097905617,203.60170476502293
186,35.723225680876645,-214.73985429293296,73.19377646075712,-137.25597940191184,-36.99134349622698,112.61953060786779,230.06573905137546,214.81295848819522
187,34.472253701327006,-215.67104456830612,73.37389790611894,-139.05961011571512,-48.55641389632368,126.58799196222215,230.82694338262968,226.64454174147022
188,33.199354747358825,-216.64215311336855,73.52863018033578,-141.18188656358143,-61.015273745756815,140.30252374797647,231.61399924889793,239.08171594447995
189,31.929504767929362,-217.63954778127666,73.65174295646264,-143.71615471759955,-74.28640032855294,153.6651163361843,232.41565268199207,252.1032399442486
190,30.688515975585076,-218.64977216049883,73.73751041597421,-146.75054396704326,-88.27537202414244,166.58688267042834,233.22110317658237,265.6814679940323
191,29.502375952228153,-219.65986253090765,73.78084161116686,-150.365278613618,-102.87664633602951,178.99031412462236,234.02025213364058,279.7825926575029
192,28.39655636212688,-220.65765117275703,73.77738914220483,-154.63009388704552,-117.97559057299672,190.81121650115904,234.80392832968747,294.3669930190698
193,27.395310062990657,-221.63204563186864,73.72363420474268,-159.60182879347977,-133.45069549640732,202.00023984478713,235.56408256405066,309.3896456422595
194,26.520977258660473,-222.5732744004224,73.61694720033437,-165.32227104903296,-149.17589644151127,212.52392972780927,236.29394491659855,324.8005566120013
195,25.793322552662197,-223.473090834417,73.45562428229232,-171.81632883008876,-165.02292429060142,222.36524611251969,236.9881397220202,340.5451772652931
196,25.228925172369024,-224.32492892677715,73.23890139273111,-179.09059885449784,-180.86361026459969,231.5235177315525,237.64275534904067,356.56477305471003
197,24.8406441191808,-225.12400663565055,72.96694843456339,-187.13238959962183,-196.57207367892815,240.01382367813707,238.25536799467054,372.7967233760274
198,24.637178484654957,-225.86737461592006,72.64084709056506,-195.90924217269412,-212.02673035199652,247.86581791643832,238.82502073238888,389.1747391012673
199,24.62274068279178,-226.55391020518994,72.26255636308129,-205.36897019378551,-227.11207089646155,255.1220351654753,239.35216077622664,405.62899314816116
200,24.79685696585895,-227.18425823635675,71.83487011532256,-215.4402155819227,-241.72017200379236,261.8357368964644,239.83853921524306,422.0861670958843
201,25.154305368177713,-227.76072163589035,71.3613706909601,-226.03349170492183,-255.75191899593,268.0683732950131,240.28707828354794,438.4694233209574
202,25.68519628109275,-228.28710582572467,70.84638199580222,-237.04266188617,-269.11793303403357,273.88675067488214,240.70171155431012,454.6983174065396
203,26.37519552053528,-228.76852173474003,70.29492423068737,-248.34678275373443,-281.73921012852225,279.36000395491567,241.0872023493105,470.6886700673198
204,27.20588440641609,-229.21115282999727,69.71267093092494,-259.812230850472,-293.5474904917822,284.5564804646641,241.44894528495104,486.35242221329656
205,28.155246304688102,-229.6219920708928,69.1059074339771,-271.2950287283146,-304.48538531469023,289.5406445077821,241.79275540668598,501.5975017712563
206,29.1982644336056,-230.0085551367244,68.48148869837276,-282.6432934407662,-314.5062936875273,294.3701117287367,242.12464895922585,516.3277368961602
207,30.30761169138148,-230.3785767758159,67.84679364813447,-293.6997444952627,-323.57414535294885,299.0929183970589,242.45061963832092,530.4428570204209
208,31.454410112908697,-230.73969779704805,67.20967281926055,-304.3042273678866,-331.663005584547,303.74512331177283,242.77641429146294,543.8386298585383
209,32.60903555041507,-231.09915117837033,66.57838594697418,-314.29622939589643,-338.75657700159064,308.3488292325442,243.1073125856457,556.4071874379691
210,33.74194232425095,-231.4634570151032,65.96152632721702,-323.5173838924698,-344.84762975167473,312.9106967342649,243.4479161900544,568.0375956262116
211,34.824482735335884,-231.83813742972134,65.36792945528138,-331.81397273573384,-349.937386414599,317.4210065281749,243.80195443159184,578.616717905908
212,35.829697244329004,-232.22746383229412,64.8065645760564,-339.039445475874,-354.0348815754471,321.85330722458247,244.172114888928,588.0304145654031
213,36.73305264092472,-232.63424973392978,64.28640913481435,-345.0569734531176,-357.1563089514944,326.16466505156427,244.5599086146197,596.1651033663626
214,37.51310757965056,-233.05970238595486,63.816307427264974,-349.74205102633937,-359.3243621833629,330.29651109421644,244.9655802675704,602.9096884673335
215,38.15208740415941,-233.5033456459498,63.40481596714577,-352.98514410435115,-360.5675700039787,334.17606109474644,245.38807320013217,608.1578428774321
216,38.63635311897096,-233.96302463698922,63.06003939073531,-354.69437037709156,-360.91962347611087,337.71826361325714,245.82505849186802,611.8106080295087
217,38.956752544754075,-234.43500013620212,62.789462208536904,-354.7981775281245,-360.41869294730583,340.8282150914792,246.27303522119735,613.7792538532935
218,39.10884498049264,-234.91413739977918,62.599783173110545,-353.2479666820746,-359.10673525625646,343.4039655631806,246.72750701928115,613.9883250009681
219,39.09299399619721,-235.39419039913642,62.4967599848508,-350.0205897014731,-357.02879672670355,345.3396266991264,247.18323709729395,612.3787839750266
220,38.91432621736797,-235.8681782708217,62.48507215275412,-345.12063196641515,-354.2323232261589,346.52868471560333,247.63458042501728,608.9111497380297
221,38.582557114744276,-236.32884629043284,62.568209031339485,-338.5823782752638,-350.7664935095285,346.8674144761095,248.0758876646083,603.5685207779203
222,38.11168792101215,-236.76919899701525,62.748388477579205,-330.47134993182897,-346.68159489599094,346.25828785927996,248.50197099094362,596.3593646223791
223,37.5195809157032,-237.18308833237174,63.026509305824035,-320.8852974033673,-342.0284601426246,344.6132690627004,248.90861720454134,587.3199518218436
224,36.82742346745852,-237.56583501906502,63.40213791428084,-309.95453645380525,-336.8579807630022,341.85689182569234,249.293128794709,576.5163120758083
225,36.05909435368205,-237.91485723831053,63.87352639040731,-297.8415272821899,-331.22070509492795,337.9290184521138,249.65486923476993,564.0455941815982
226,35.240448908401476,-238.2302773877168,64.4376564168253,-284.7396161533753,-325.166519829196,332.78718789992837,249.99578523586237,550.0367204700608
227,34.398542415415584,-238.515475577702,65.09030074472152,-270.8708866124309,-318.7444027739601,326.40847004242875,250.32087628798513,534.6502407259886
228,33.56081381686173,-238.77755772253443,65.82609223200028,-256.48310104260753,-312.00222417293264,318.7907556137487,250.63858080914332,518.077310356096
229,32.754254123548414,-239.02770677385683,66.63858974688715,-241.8457509421114,-304.98656595528576,309.95342669137796,250.96104883627513,500.5377427178479
230,32.004585611013276,-239.28138804288565,67.52033067543393,-227.24527372889742,-297.7425246679186,299.9373713498115,251.30427361711637,482.2771159875065
231,31.335478556366514,-239.55838375906387,68.4628611515611,-212.9795333112816,-290.31346564012233,288.8043286842571,251.68805871073175,463.56295046678383
232,30.767831547657845,-239.88263789987465,69.45673729044348,-199.35169949044123,-282.7407033027221,276.6355766171636,252.13580310769703,444.6800119948628
233,30.31913914632329,-240.2818996662024,70.49149379830833,-186.6636957764624,-275.0630947283867,263.5300039945763,252.6740942804453,425.92483947653625
234,30.002967066068003,-240.787162575777,71.55558064187237,-175.20941428107764,-267.31654893293006,249.6016390063426,253.33210791771802,407.5996368752829
235,29.828550388441027,-241.43190575508913,72.63627392348036,-165.26791744828742,-259.5334715803784,234.97673584128026,254.14082318693778,390.0057091102275
236,29.800525020916474,-242.2511540639114,73.7195730245554,-157.09685668450157,-251.74218178708136,219.7905481820013,255.1320730082693,373.43665368264936
237,29.91879693182051,-243.2803833427882,74.79010136518201,-150.92633468473102,-243.96635315258982,204.1839390018196,256.3374589193499,358.171542383446
238,30.178548009663107,-244.55430555577982,75.83103181712626,-146.9534194762678,-236.22454348338383,188.29998879383035,257.7871686613182,344.46833776607247
239,30.570372123425688,-246.10557536363044,76.82405928769124,-145.337484028319,-228.5298854691232,172.2807672237438,259.50874096551894,332.5577860408943
240,31.080530559521883,-247.9634643299057,77.74944193086864,-146.19649870602152,-220.89001228808942,156.26442571505328,261.52582576446895,322.63801147135683
241,31.691312789208787,-250.15255138356605,78.58612881913727,-149.6043504103776,-213.30728618889452,140.38275116577904,263.856989087281,314.87000751854254
242,32.38148654038986,-252.6914785064831,79.31198610511846,-155.589208662491,-205.77938328098617,124.7592949940467,266.51461052210556,309.37417762531885
243,33.12682030299432,-255.5918192263148,79.90412635389755,-164.1329115447727,-198.30026373626418,109.50815834657497,269.5039178414347,306.22802577475164
244,33.900661529530616,-258.8571046502028,80.33933751511526,-175.1713081748671,-190.86152443461106,94.73347512941803,272.82219862559464,305.4650383866559
245,34.67455469171232,-262.48204762266926,80.59459967954402,-188.59547191535137,-183.4540934790213,80.52959155576886,276.4582227948678,307.0747414539714
246,35.41888469265896,-266.45200020286336,80.6476701911342,-204.25369003906388,-176.07018709710496,66.98189669064371,280.3919031116789,311.00386681156164
247,36.10353251393007,-270.74267305331153,80.47771163416076,-221.95413920049154,-168.7054142042394,54.16821584046342,284.5942131095122,317.15852357460943
248,36.698531118137616,-275.3201375643227,80.0659331514109,-241.46816856211598,-161.36088728068293,42.1606404577895,289.02737369343765,325.4072466519684
249,37.174710507965834,-280.141122804332,79.39621365564182,-262.5341299186551,-154.04518422089788,31.027637233856694,293.64531109902435,335.58478322054464
250,37.50432160490624,-285.1536099915949,78.45567579988561,-284.8617126398146,-146.77600670913,20.836257600727013,298.3943803307664,347.49647824759177
251,37.661629372523315,-290.2977173642255,77.23518202044455,-308.13675684473503,-139.58139653117604,11.654258673456338,303.21433986529684,360.92312878346274
252,37.623466391309925,-295.50685830284556,75.72972845101602,-332.0265274420747,-132.50040002430657,3.551948570405696,308.0395554717694,375.6261902607474
253,37.3697388746485,-300.709145737647,73.93871878476352,-356.1854316852258,-125.5831090325515,-3.3964169970082407,312.80040375168574,391.35323234259636
254,36.88387785245061,-305.82900677045967,71.86610768191295,-380.2611518672115,-118.89004993756079,-9.111834832189503,317.42483970635357,407.84355285968627
255,36.15322882362526,-310.7889634539823,69.5204111969712,-403.9011423127699,-112.4909362135898,-13.510464263388618,321.8400873395992,424.83386265763835
256,35.16937342321145,-315.51152901057986,66.91458898968965,-426.75940733766254,-106.4628406865652,-16.504318022007062,325.9744078689639,442.06394980532764
257,33.928376498993,-319.92116358428154,64.06580911764554,-448.5034376752696,-100.88787826856309,-18.00275775144739,329.75889649097735,459.28221870268163
258,32.43095161853719,-323.9462300307378,60.99511066482431,-468.8211419670014,-95.85051624628308,-17.914768435638024,333.12925592666505,476.2509805909273
259,30.6825378379687,-327.5208884109393,57.726982243864,-487.4275732089155,-91.43464586213877,-16.151937128915804,336.0274934007133,492.7513513470355
260,28.69328108928784,-330.5868679439688,54.28887553957581,-504.0712235602215,-87.7205554253721,-12.632015978655414,338.40348759813145,508.58759615686574
261,26.477915227654297,-333.09505731428993,50.71067268990124,-518.5396496736691,-84.78194205568728,-7.282910543569645,340.2163737664229,523.5907547059289
262,24.055540706866076,-335.0068584038424,47.02412478076229,-530.6641977782638,-82.68308799842133,-0.04690428555169678,341.4356986032053,537.6213894789142
263,21.44930264796612,-336.2952546540203,43.26227654724357,-540.3236237341911,-81.47631060855213,9.115089439646951,342.04230189896066,550.5713256424006
264,18.685974147419824,-336.9455533734957,39.45888992688325,-547.4464462771194,-81.19977506839648,20.219464674600694,342.02888913986834,562.364292849317
265,15.79545459131477,-336.955771471544,35.647876608178485,-552.0119276467349,-81.87573770430468,33.25626268614821,341.4002685000236,572.9554335521141
266,12.81019630325974,-336.3366462213951,31.862747250582085,-554.0496394272134,-83.50926665366188,48.18611271750777,340.1732367897585,582.3297037290004
267,9.764575929739898,-335.1112662782797,28.136082771550388,-553.6376370904871,-86.08746618970616,64.93794662457557,338.37611154486467,590.4992544170735
268,6.694229296244715,-333.31433246968106,24.499031361610236,-550.8993292051347,-89.57921149695176,83.40762558696544,336.0479197652269,597.4999404274446
269,3.635369686840741,-330.9910719086074,20.980834185745106,-545.9991819680387,-93.93538234650633,103.4575748586876,333.2372669603267,603.3871509108515
270,0.6241094084895897,-328.19584197729273,17.60838329947069,-539.1374428451843,-99.08956734189407,124.91747547034392,330.0009223908994,608.2311905933425
271,-2.3041967680240885,-324.99047212674026,14.405816877592319,-530.5440961737887,-104.95919576144215,147.58601312148392,326.40216715125223,612.1124574026546
272,-5.115569835354363,-321.44240083019287,11.394158770096057,-520.4722779034647,-111.44704209968631,171.23363741068093,322.5089605870536,615.1166608329131
273,-7.777972746340031,-317.62267217960436,8.591010980219952,-509.1913773599316,-118.44303953744219,195.60624168358837,318.3919872293055,617.3303069839852
274,-10.261814087108947,-313.603861426245,6.010308444355867,-496.98004328910446,-125.82633269195873,220.4296371387928,314.12265084210657,618.8366437520908
275,-12.540382152414487,-309.45800109483844,3.6621452985049463,-484.11929217927667,-133.46749686700926,245.4146660245903,309.7710841936664,619.7122171738539
276,-14.590205642145872,-305.25457887987903,1.5526806709844605,-470.88589152467125,-141.23085055104204,270.2627791035733,305.40424251449303,620.0241419268357
277,-16.391340044980744,-301.05867515276185,-0.315869910452185,-457.54616147818746,-148.97679034785386,294.6718929075835,301.0841451020653,619.8281399382549
278,-17.927580987705575,-296.929301586887,-1.9451540226790385,-444.3503072193281,-156.56408328084925,318.34234273616096,296.86632318887587,619.1673550185916
279,-19.186607328406268,-292.9179933954237,-3.3405124529409607,-431.5273634476533,-163.8520606339067,340.9827569662988,292.7985232575363,618.0719117503861
280,-20.160057549200186,-289.06769638926033,-4.510723158421243,-419.2808040900939,-170.70266960770323,362.3156951957578,288.91970386930257,616.5591557688495
281,-20.843543176770805,-285.4119770786893,-5.467666052751002,-407.78484691690284,-176.98235264773595,382.0829145529953,285.2593513397822,614.6344909398914
282,-21.23660281490865,-281.974570125274,-6.2259191613000855,-397.1814659658059,-182.563737397049,400.0501525230573,281.83712600538473,612.2927162874106
283,-21.342600284883886,-278.7692634728599,-6.802299737080351,-387.5781149848639,-187.3271310500318,416.01133859263615,278.6628372410929,609.5197604305679
284,-21.16857066661972,-275.80010830273824,-7.2153661937210885,-379.0461617811071,-191.16182034563326,429.7921694794729,275.73673266098604,606.2947120543292
285,-20.7250189256491,-273.0619293309744,-7.484898163146338,-371.62003470271856,-193.96718237495804,441.2530031820433,273.0500758187702,602.592050014924
286,-20.025677274721623,-270.54110147230284,-7.6313726516950835,-365.29708623141016,-195.65361250012305,450.2910456601413,270.5859777886773,598.3839848079941
287,-19.08722908016624,-268.21655178505284,-7.675454005403559,-360.0381823947141,-196.14327536779706,456.8418208570614,268.3204414494093,593.6428332107499
288,-17.929008391192763,-266.06094080418,-7.637514012399682,-355.7690281777911,-195.37068491845923,460.87993005604994,266.22357296679985,588.3433589651039
289,-16.57268463041762,-264.0419746527015,-7.537195981921627,-352.382236484614,-193.28312084189486,462.4191200340662,264.26091262041047,582.4650234336423
290,-15.041941601774377,-262.12379856650693,-7.393033319800904,-349.7401401912175,-189.84089269579454,461.5116907630177,262.39483661656465,575.9941002208998
291,-13.362158910311026,-260.26842360791557,-7.222129437820956,-347.6783329082438,-185.0174683653548,458.24728218251,260.5859828298559,568.9256158408658
292,-11.560102280630735,-258.43714119108904,-7.0399023310912,-346.00990455305333,-178.7994892269089,452.7510857438327,258.794656345956,561.2650839139546
293,-9.663627211697188,-256.5918842323545,-6.859894229763661,-344.5303138209366,-171.18669847200195,445.18153015975423,256.9821748880223,553.0300027548635
294,-7.701398079096693,-254.69649886697536,-6.693644456462694,-343.0228127788664,-162.19181013612555,435.72749238578734,255.11211930564042,544.2510856827564
295,-5.702622404753139,-252.71789643346426,-6.550621865155207,-341.26431112989656,-151.84034388042207,424.60508474503024,253.15145999437297,534.9731906519966
296,-3.696797749904997,-250.62706159296962,-6.438211935173479,-339.03154156051386,-140.17044466676415,412.05406791732787,251.0715361845247,525.2559121699156
297,-1.7134667205594702,-248.3998987494782,-6.361752798613162,-336.1073653283681,-127.23269773510201,398.3339379729449,248.84887122630354,515.1737955427858
298,0.21802587550402794,-246.017904981029,-6.324614150628267,-332.28704077806884,-113.08993855748392,383.71973441458033,246.46581292715888,504.8161327707688
299,2.068780362695387,-243.46866312702986,-6.328312914723663,-327.3842680043569,-97.8170457831903,368.4976158823561,243.9109933129643,494.2863020905874
300,3.810600417954201,-240.74615334239934,-6.372659480395608,-321.23682093868456,-81.50069398215217,352.96025132148407,241.1796067292018,483.70062010495735
301,5.416267399608792,-237.85088536460137,-6.455928192853603,-313.7115836697646,-64.23903384865974,337.4020774581262,238.27350901137712,473.1866871059566
302,6.859834010706418,-234.78985709497428,-6.575045569387982,-304.70882039960395,-46.14126204336548,322.1144785080642,235.2011436878042,462.88122253580286
303,8.116937845685278,-231.57634807595824,-6.725789569307836,-294.1655275202093,-27.327042186091916,307.3809507960067,231.97730404163948,452.92740789026726
304,9.165132240358732,-228.22955923591113,-6.902993355890065,-282.0577413106481,-7.925742921366493,293.47232255356056,228.62274254297898,443.471777589444
305,9.984228634683335,-224.77411290494052,-7.100747485121758,-268.40170513317673,11.9245323522261,280.64210649616143,225.16364170081582,434.6607228912953
306,10.556641795607511,-221.2394294282007,-7.312595274064951,-253.25383509416602,32.078138174119495,269.12206879493857,221.63096262958325,426.6366981547664
307,10.867727053203174,-217.6589985680625,-7.531717110641918,-236.7094620996671,52.38330406462591,259.1181019157666,218.05968943163106,419.53424108088194
308,10.906097269853456,-214.06956530485465,-7.751100640650344,-218.9003700070984,72.68376632717744,250.8064898959184,214.48798888679136,413.4759374922831
309,10.663906483506052,-210.51025071699806,-7.963695130245039,-199.99119281014387,92.82059486881168,244.3306526176906,210.95630601963566,408.56847535392166
310,10.1370869203259,-207.0216293971917,-8.162549746234337,-180.17477689368332,112.63418642617681,239.79845046981364,207.50641693417114,404.8989407461165
311,9.32552639639227,-203.6447853358064,-8.340936765033469,-159.6666556038891,131.9663872819286,237.28012275932377,204.18046085268395,402.5315091308571
312,8.233174169443727,-200.42036836357923,-8.492461557804312,-138.6988209888086,150.6626999825407,236.8069229054045,201.01997355312187,401.50467750752995
313,6.8680651481901,-197.3876730856052,-8.61116148160369,-117.51301011299577,168.57451935682386,238.370501389606,198.06494435629978,401.8291664218282
314,5.242255037310534,-194.583761711525,-8.691595567321508,-96.35374948856978,185.56133386237377,241.92307401589386,195.35291842418565,403.4865954387351
315,3.3716625113438994,-192.0426511742154,-8.7289262837046,-75.46141911482229,201.49282056099895,247.37839830120453,192.9181652784912,406.4290026040483
316,1.2758187861272179,-189.7945833021503,-8.718993862362096,-55.065604766893784,216.25075809926471,254.61356456728467,190.7909329951862,410.5792396781571
317,-1.0224703465703995,-187.86539455196333,-8.65838280801018,-35.379000570092224,229.73068414232947,263.47159025584693,188.99680541753045,415.8322340545751
318,-3.4975403599090478,-186.27599905037798,-8.544479299643099,-16.59210151811935,241.84323316507357,273.76478600546426,187.5561770332358,422.0570699843079
319,-6.1213480785268155,-185.04199562650734,-8.375517238103535,1.131112577781331,252.5151074414033,285.27884022967254,186.48385702892546,429.09981057391525
320,-8.86399949027457,-184.1734062647611,-8.150609872499452,17.6563520088117,261.68965720844966,297.7775457115196,185.78881059636785,436.7869607053796
321,-11.694307296962787,-183.67455001882212,-7.869763487541558,32.88096279106482,269.3270728316674,311.0080678240899,185.47404190701806,444.9294594844939
322,-14.58036032499655,-183.54405291656326,-7.533869773151194,46.73462123517599,275.4042189800904,324.7066306450775,185.53661938220947,453.32708663532094
323,-17.490088441107865,-183.77499080357788,-7.144674302961631,59.178821814741426,279.9141645548672,338.6044762122511,185.96784007845488,461.7731668589149
324,-20.391809130082425,-184.35515848381309,-6.704719863727449,70.20526364875711,282.8654789265727,352.43393546615494,186.75352627043395,470.059456287544
325,-23.2547448439777,-185.26745496494476,-6.217264875078128,79.83329276687657,284.2813725171138,365.9344388355965,187.87444367463647,477.98109382562575
326,-26.04950311034601,-186.49037118620583,-5.686178560741251,88.1065972656378,284.19875705560855,378.8582911023487,189.30682725424765,485.3414970515517
327,-28.748513782466844,-187.99856351052114,-5.115815853948516,95.08937890106935,282.6672887837461,390.9760395310316,191.02299735294056,491.9570785318458
328,-31.32641947707464,-189.76349380251511,-4.51087632926234,100.86223704473574,279.7484388903007,402.0812760677301,192.9920462963863,497.6616558402984
329,-33.76041612682105,-191.75411531163758,-3.876252731396008,105.51799939146167,275.5146131147684,411.99473310479436,195.18057378859635,502.310429549646
330,-36.03054084351625,-193.93758288454157,-3.216875764267405,109.15771889755533,270.0483208468072,420.56755691537694,197.5534484791086,505.7834098730821
331,-38.11990426484825,-196.27996617344826,-2.5375625529859547,111.88702908766271,263.4413767083436,427.6836720085811,200.0745729572646,507.988185457166
332,-40.01486460144384,-198.74694537850237,-1.8428764914583995,113.81301159420627,255.7941066898177,433.26118170984694,202.70763009010705,508.8619469138285
333,-41.7051410073605,-201.3044705497268,-1.1370059278153841,115.04168285509719,247.21452682149678,437.25278360996475,205.41679000590125,508.37270186410865
334,-43.18386479957709,-203.91936749998814,-0.42366821788456804,115.676154423585,237.8174639781213,439.6452117646853,208.16735909065957,506.51964569171747
335,-44.44756836754623,-206.55987591703771,0.29395589892784446,115.81546715477982,227.72359375306783,440.4577495956278,210.92635507388013,503.3326807432418
336,-45.49611310969781,-209.19610828523267,1.0132547589432999,115.5540477284811,217.05837732631147,439.7398875194548,213.66299556555177,498.87110441245926
337,-46.33255919877061,-211.8004216617879,1.7321847360243086,114.98169048062535,205.95088632109605,437.56822668658623,216.34909115303756,493.2215119466623
338,-46.96298134619593,-214.34769807466446,2.4492381128411402,114.18393169460268,194.53251091393244,434.0427540911223,218.95933823077806,486.4949820528271
339,-47.39623602835967,-216.8155331589858,3.1633849462818846,113.24265981265854,182.93555163574075,429.28263393532177,221.47151094897197,478.8236321838263
340,-47.6436867944746,-219.1843364312101,3.873996219005173,112.23679496752865,171.29169955136297,423.42167472500006,223.86655580641363,470.3566459805482
341,-47.71889513440357,-221.43735007162616,4.580756893822744,111.24287538036317,159.73041340085368,416.60364040832604,226.12859618973218,461.25588830121126
342,-47.637284834745856,-223.5605959398038,5.28357763729069,110.33540604250801,148.37720666106213,408.9775762515924,228.2448572471209,451.69123413212424
343,-47.415787830860964,-225.54276255425697,5.982512956000998,109.5868548949855,137.35186313027555,400.69331544802805,230.20552365981268,441.8357465312393
344,-47.072479409622574,-227.375045027781,6.677691689277672,109.0672203218835,126.76660691062999,391.8973203414678,232.0035442605035,431.86084500673013
345,-46.62621035859024,-229.05095182423133,7.369263735930597,108.84313722957302,116.72426126069898,382.728992856556,233.63439841343995,421.9316082691901
346,-46.09624330926956,-230.56609284772952,8.057364800279194,108.97653322066442,107.31643982542155,373.31756320994657,235.09583976649853,412.2023529191617
347,-45.501900019729895,-231.91796350510424,8.742098867945067,109.52288779700478,98.6218220036172,363.77963575359394,236.38763311768628,402.812621436979
348,-44.862225655603396,-233.105738565215,9.423536231184293,110.52918339372378,90.70457043474607,354.2174377097262,237.51129928251373,393.8836985000582
349,-44.19567529851046,-234.13008771348058,10.101723451917785,112.0316656144989,83.61295180173855,344.71778253866324,238.46988086070388,385.5157546049487
350,-43.51982697758895,-234.99302184553704,10.776700813381243,114.05355052992236,77.3782218785438,335.35172662871634,239.26773886992171,377.785691451089
351,-42.85112448974383,-235.69777567158067,11.448522493196414,116.60282929473414,72.01383205269111,326.1748676237714,239.91038665040745,370.74573634620606
352,-42.20465216330685,-236.2487284226237,12.11727475602776,119.67032501255105,67.51500789420656,317.2282064249121,240.40436355729895,364.42280498439305
353,-41.593942612050924,-236.6513606670087,12.78308784929696,123.228154057249,63.858741423242705,308.5394738081828,240.75714706637558,358.81862510149176
354,-41.03081758335816,-236.91224173386507,13.446137974223802,127.22873394084277,61.00422824472215,300.12480751367,240.97709832579292,353.91058913620293
355,-40.52526138257236,-237.03903921935247,14.106636640520545,131.60446206797891,58.8937691325436,291.9906571632745,241.0734331349934,349.65328314279526
356,-40.08532612097473,-237.04053970710717,14.764805797440891,136.26816425910883,57.454143070374826,284.13579272730607,241.05620801306978,345.9806224537372
357,-39.71706818928778,-236.92666832185134,15.420838307319164,141.11437913256566,56.59844498884283,276.5532973655026,240.9363095837435,342.8085122013212
358,-39.4245158819527,-236.70849418123336,16.074844623641326,146.02150525759458,56.228366157730754,269.23243681624666,240.72543507746386,340.0379425679999
359,-39.20966889360346,-236.39820930842242,16.726788003598696,150.85479397414224,56.2368782559674,262.1603142967053,240.43605241262625,337.5584239621163
360,-39.072531246664425,-236.00907012383135,17.37641213020587,155.47012404170218,56.511263892825106,255.32324107890884,240.08133003035718,335.25166534954434
361,-39.01117973776345,-235.55529312825126,18.023166352293295,159.71844743445396,56.9364177319392,248.70777725848214,239.67502922594838,332.9953986607833
362,-39.02186986793003,-235.05189959854053,18.66613456226488,163.4507515984205,57.39832475892203,242.30142314803317,239.23135485034058,330.6672523895038
363,-39.09918030399977,-234.51450777044843,19.3039739222144,166.52334542706507,57.78760717233734,236.0929673140737,238.7647636543599,328.1485772129589
364,-39.23619533078647,-233.95907480732532,19.934869358162267,168.80324701194058,58.00302031721096,230.07252056952896,238.2897329795531,325.32812528319664
365,-39.42472279871036,-233.40159457216805,20.556509180031966,170.17343322780317,57.954772174212586,224.23128450842967,237.82049575237386,322.10548323057554
366,-39.65554312646268,-232.85776053569697,21.166086487059037,170.5377059355895,57.5675408673679,218.56111715528507,237.37075058300135,318.394158226141
367,-39.918683314593004,-232.34260580682044,21.760330192610542,169.82493775623527,56.78307069345574,213.05396629979978,236.95335799878075,314.1242185958944
368,-40.203708825592734,-231.87013416472809,22.335568419219655,167.99248205100938,55.56223915640152,207.70124304298804,236.58003537310367,309.24439755166185
369,-40.500025562729284,-231.4529571416506,22.887825481918007,165.02856634611888,53.886504928444204,202.4932045717551,236.26106396748915,303.72358228624154
370,-40.797183904571675,-231.10195264713903,23.412951620911617,160.95353459221292,51.75866875660552,197.41840725097458,236.00502166246628,297.5516317221888
371,-41.08517671127368,-230.82596023098662,23.906782242900988,155.81985914750283,49.202905010392584,192.46327999577656,235.81855430335867,290.7394940722835
372,-41.354723398171195,-230.6315268076436,24.365321039999383,149.71090516655448,46.264049631766405,187.61185469516482,235.70619711111306,283.31862820006967
373,-41.59753262078562,-230.52271464157369,24.78493927493728,142.7384943128155,43.006159622408845,182.8456761423036,235.6702554682194,275.33976757236076
374,-41.806536830951615,-230.50098082297123,25.162581864312628,135.039376974994,39.51038895059772,178.14389927492599,235.71075179770048,266.8710986869174
375,-41.97609285990259,-230.56513450170058,25.495969663894904,126.77077796511517,35.87225481392488,173.48356727720673,235.8254423523011,257.9959534317634
376,-42.1021436495828,-230.71137493222497,25.783786601068098,118.10522600223243,32.19839508898792,168.84005102672646,236.00990464619818,248.8101336145174
377,-42.1823372006843,-230.93341009726555,26.025840150436117,109.22490905934367,28.602940745763725,164.18761932547002,236.25769317700355,239.41899381365448
378,-42.216099691205976,-231.22265250898383,26.223184283902352,100.31581400845651,25.203644264734784,159.50010107697975,236.5605582008285,229.93440542906959
379,-42.20466057463485,-231.5684858391075,26.378195497815547,91.56190941731657,22.117915370248404,154.75159553500984,236.90871975851184,220.47171203819605
380,-42.15102839033974,-231.95859337517933,26.49459470544202,83.13961559521195,19.458918048560516,149.91718511563784,237.2911869844414,211.14676732754577
381,-42.05991708593477,-232.37933706878758,26.577410502628613,75.21277794292753,17.331877921271104,144.97360698972523,237.6961110802428,202.0731262708732
382,-41.937623848128915,-232.81617421611273,26.63288240043163,67.92832113118202,15.830737216805712,139.8998445776593,238.11115925869217,193.35944180408936
383,-41.79186068709521,-233.254097503004,26.668305877150164,61.41271600860188,15.035276726197441,134.6776077874868,238.52389632850168,185.10710549888645
384,-41.631543236316936,-233.67808318837274,26.691824326899642,55.769342028023644,15.008801233422098,129.29168071378635,238.9221602850326,177.40816226821252
385,-41.466541359550696,-234.07353179023485,26.712176011117343,51.07677887795076,15.796458087183133,123.73012661383505,239.29441845457646,170.34352493744626
386,-41.30739718666064,-234.42668609911206,26.73840681445896,47.38801512553068,17.42422918791098,117.98435126013001,239.630091701341,163.98151265263294
387,-41.16501717581618,-234.7250127469115,26.77956178479128,44.730521744385385,19.8986062632421,112.04903627922397,239.91983600439116,158.3767354596736
388,-41.05034579227199,-234.95753562686374,26.844369883367825,43.10710638288707,23.20692945716575,105.92196302406386,240.15577306443424,153.56934422211248
389,-40.974029396346516,-235.1151118267178,26.94093694704252,42.497441115215196,27.31834135245162,99.60375421516126,240.33166413811597,149.58465920508092
390,-40.946079828137016,-235.1906432302548,27.076461570261117,42.86014219917314,32.18528380287949,93.09756450294526,240.44302383668145,146.4331816758612
391,-40.975547881085305,-235.1792195445714,27.25698751277238,44.135274243881305,37.74544450469867,86.40875200924565,240.48717314938224,144.11098101729434
392,-41.07021740309745,-235.07819115388025,27.487204376771295,46.24715190296532,43.92404514263397,79.54456094334256,240.46323340916405,142.60043610845426
393,-41.23633113389065,-234.8871727282785,27.770305760039257,49.10731827375893,50.6363540769252,72.51384103912093,240.3720651638993,141.87129566446558
394,-41.4783593728541,-234.6079808168404,28.107911062562316,52.61758901776486,57.79030441292507,65.3268234892244,240.2161578244993,141.88200960514575
395,-41.7988219030569,-234.2445107147945,28.500053789753952,56.67306322286331,65.28910289559052,57.99496596072237,239.99947749113744,142.5812737989423
396,-42.19817212059647,-233.8025597076255,28.945235637702474,61.16501477882735,73.03372572839815,50.53087183068151,239.72728148772447,143.9097245195388
397,-42.67475003448883,-233.28960525542786,29.440541951437336,65.98359055569395,80.92521289672416,42.9482815859848,239.40590876573017,145.80171682042663
398,-43.22480785950524,-232.71454762394643,29.981810559581653,71.02025355512856,88.86669136669413,35.26212791183271,239.04255534857555,148.1871224973918
399,-43.84260860159642,-232.08742686811556,30.56384284120094,76.16992045903905,96.76507812811882,27.488640772638377,238.6450434194751,150.99308783446017
400,-44.52059462474716,-231.41912410126156,31.18064347310953,81.33275376507326,104.53243512244934,19.645485103900448,238.22159175293612,154.14569822969534
401,-45.249619883201895,-230.721056780972,31.825673876041545,86.4155790960794,112.08696855142408,11.751911781371698,237.7805941572283,157.57150534804532
402,-46.01923645661769,-230.00487728829896,32.49210406649164,91.33290848310251,119.35368406212797,3.828902251409032,237.33041146562564,161.1988820277887
403,-46.81802344701647,-229.28218336179054,33.173048461192764,96.00756084167892,126.26472624423016,-4.100711768309482,236.87918143963222,164.9591803895716
404,-47.63394439000482,-228.5642481299209,33.86177314845297,100.3708820851286,132.75944533866723,-12.012170301783256,236.4346499383458,168.7876793503887
405,-48.454718193196804,-227.8617767599264,34.551865115476254,104.36257991225057,138.78424572132252,-19.87876352677378,236.00402607768072,172.6243190366809
406,-49.26818826103256,-227.18469612647013,35.23735759356918,107.93020250915256,144.2922791794829,-27.67187919406626,235.5938638458934,176.41423123852937
407,-50.062674911494696,-226.5419832185395,35.9128095993408,111.0283059523968,149.24305058543834,-35.36112969564011,235.209972528171,180.10808641091208
408,-50.82729741991782,-225.94153703987908,36.573341481217085,113.61737118455652,153.60200345124073,-42.91456745344058,234.85735806020665,183.662287662759
409,-51.55225394945072,-225.39009742617338,37.21463153028775,115.66254674979902,157.3401473348419,-50.298995048486496,234.54019693266036,187.0390492279983
410,-52.22905010509686,-224.89321249484212,37.832881294350884,117.1323063921446,160.43377804234729,-57.480373587974185,234.2618434458672,190.20639968209326
411,-52.85066972063465,-224.45525438494545,38.42475898716177,117.99711944390077,162.86432575684353,-64.42432885373258,234.02486993656635,193.13814770584045
412,-53.41168459521931,-224.07948064934584,38.987331153362916,118.22823526244973,164.61834721386992,-71.096749678573,233.83113811786856,195.81384041108336
413,-53.90830305337852,-223.7681363552474,39.517992435926,117.79668003201125,165.68765807077642,-77.4644670719675,233.68189805009698,198.21873217310653
414,-54.33836015815018,-223.52258985968808,40.01440197633069,116.67255505938972,166.0695831350856,-83.49599655936493,233.5779096630865,200.34376769079438
415,-54.70125486160401,-223.34349349361221,40.47443297849444,114.8247109193986,165.76728732516705,-89.16232082236266,233.51958028832559,202.1855692896279
416,-54.997841068091375,-223.23095909619622,40.89613976021262,112.2208523389733,164.7901406758591,-94.43768564552926,233.5071104189895,203.74640766466004
417,-55.23028041035931,-223.184737573632,41.27774460842876,108.82810541711845,163.15406702103593,-99.3003796556974,233.5406390141631,205.0341287545041
418,-55.40186463497622,-223.20439149357438,41.61764512323199,104.61405254623644,160.88182799976138,-103.73346733896763,233.6203792393809,206.0620076183128
419,-55.516815201095696,-223.2894502166836,41.914441456912584,99.5482122674975,158.00320099571806,-107.72544511230778,233.74673571594238,206.8485026628684
420,-55.580067366686556,-223.4395382337747,42.16698181501796,93.60391250931225,154.55502041991403,-111.27079151767884,233.92039522496512,207.4168894445876
421,-55.59704582078204,-223.6544692314325,42.374423626027024,86.76047770112564,150.58106495791537,-114.37038466660943,234.14238439780445,207.7947613347716
422,-55.57343873712917,-223.93430089190417,42.53630678080832,79.00562483752924,146.1317873942933,-117.03176283261276,234.41409012601437,208.0133932949015
423,-55.51497680504887,-224.27934834481235,42.652634364523536,70.33794257417276,141.26389680227138,-119.26920768172295,234.7372410230195,208.10697381686242
424,-55.42722324919658,-224.69015722009846,42.7239556100295,60.769312714845945,136.0398138886973,-121.1036342563093,235.11385099310985,208.11171815190755
425,-55.3153801427354,-225.16744009501295,42.75144559542392,50.32712651447104,130.52702808592926,-122.56227772180567,235.5461285626279,208.06488318064788
426,-55.18411558858348,-225.71198255819922,42.73697647672681,39.056150040478755,124.79738891639471,-123.67817423328044,236.03635791621716,208.00371092056488
427,-55.03741568355082,-226.32452702830167,42.68317564631592,27.019903751474242,118.92636393942072,-124.48944203890689,236.58675945427086,207.9643340671392
428,-54.87846460739531,-227.00564386619573,42.593467033197804,14.3014411856696,112.9922913542954,-125.03837867554053,237.19933913423182,207.98068320291415
429,-54.709555687660206,-227.75560024122098,42.47209280078593,1.00343925912665,107.07564763299388,-125.37039998693565,237.87573690601465,208.0834409574642
430,-54.532035870041206,-228.5742376097076,42.32411391116942,-12.752453452722209,101.25834031138626,-125.53285566916321,238.61708514808393,208.29909247578766
431,-54.34628564964743,-229.4608683644043,42.15538923948498,-26.82702610564767,95.6230244601612,-125.57376317400437,239.42388794839187,208.64912268703094
432,-54.15173617373572,-230.41420102998217,41.97253395247056,-41.06564876491342,90.25242970876938,-125.5405063661687,240.2959311333194,209.14940759854997
433,-53.94692488892196,-231.43230133539535,41.782858652557955,-55.30108707420125,85.22867434266269,-125.47854680578264,241.2322311312465,209.8098379525679
434,-53.72959067607791,-232.51259385279945,41.59429131765828,-69.35689157191251,80.63253517733051,-125.43019355639807,242.23102829176847,210.63419859306728
435,-53.49680869296926,-233.6519059931259,41.41528423866796,-83.05123678912643,76.54263771010959,-125.43347199824798,243.28982742716207,211.62030673961848
436,-53.24516394784216,-234.84655328478001,41.2547078442688,-96.20106609205615,73.03453131821033,-125.52112382252571,244.40548531966692,212.76038986342445
437,-52.97096093870395,-236.0924622647448,41.12173250226623,-108.62638955129583,70.17961961021251,-125.71976030509722,245.57434196572618,214.0416632927094
438,-52.670464640099965,-237.3853251413984,41.02569830542632,-120.15458453887558,68.04392676208366,-126.04918051380922,246.79238962748323,215.44705349422367
439,-52.34016587702869,-238.72077875453792,40.97597184733251,-130.62456164486738,66.68669664244908,-126.52185672621559,248.0554715377783,216.95600828429028
440,-51.977061901646636,-240.09459932805265,40.981788391359956,-139.89067999962393,66.15884189896347,-127.14258225159797,249.35950051965736,218.5453408007317
441,-51.5789410339649,-241.50290407105877,41.05207776282687,-147.82632325899004,66.50128321046469,-127.90827284169016,250.70068689317634,220.19006830114003
442,-51.14465876460218,-242.94235074871804,41.19527274710276,-154.3270767323692,67.74324212452214,-128.80791208039338,252.07576481118673,221.86422633016343
443,-50.67439187020754,-244.4103268394385,41.41909975078357,-159.31347360545337,69.90057136776609,-129.82263306837146,253.4822065441066,223.5416592446233
444,-50.169856949003,-245.90512073987023,41.730352943453326,-162.73330054003915,72.97422130095052,-130.9259324586853,254.91841515764486,225.19680537408613
445,-49.63448045348742,-247.42606846706104,42.134654878636525,-164.56346764688908,76.94894789170715,-132.08401744618823,256.38388729516447,226.8055061097701
446,-49.073508806071445,-248.97367013929156,42.63620843748886,-164.81145370531613,81.79236484881636,-133.2562907429528,257.8793390626587,228.3458713493459
447,-48.494049373522586,-250.54967103225508,43.23754660706727,-163.51633474192334,87.45443041646922,-134.39598211692288,259.40678908970665,229.7992289310805
448,-47.90503568315536,-252.15710230233424,43.93928791697664,-160.7493942433079,93.86743911740103,-135.4509371957747,260.9695937108601,231.15117418493898
449,-47.31711305725781,-253.800276729227,44.739906207160715,-156.61429901317595,100.94656281299706,-136.36457470669222,262.57242999135815,232.39271953831624
450,-46.74244364727265,-255.48473513683692,45.63552375104535,-151.2468092136762,108.59095667650114,-137.07702212942382,264.2212230480419,233.52152559053872
451,-46.194432507186114,-257.2171395562811,46.6197366032387,-144.8139775739882,116.68541693114706,-137.52643692537123,265.923014814073,234.54317646323426
452,-45.687378793152476,-259.0051099036019,47.68348040286568,-137.51278354306174,125.10255094802699,-137.65051606780804,267.68577226074325,235.47244544357912
453,-45.23605854951081,-260.85700227013206,48.814943898803875,-129.56814481963397,133.70539823843444,-137.38819057002345,269.5181344799445,236.33448346175985
454,-44.855248040644355,-262.78162901874794,49.99953643406536,-121.23025192443832,142.3504239085288,-136.68149421138742,271.4291001800987,237.16585390392302
455,-44.55919924296092,-264.7879235302828,51.21991468346109,-112.77118149016196,150.89079456463273,-135.47758684092437,273.4276598847635,238.01533341174456
456,-44.36108179269574,-266.884555150109,52.456072989258786,-104.48076071244809,159.17984036787087,-133.73090262194927,275.5223799295508,238.9444000786585
457,-44.27240826775849,-269.07950221779964,53.6855004709244,-96.6616789217142,167.0746054707653,-131.40538255969645,277.72094776505577,240.02733799409506
458,-44.30246205961652,-271.37959297037185,54.883406600219715,-89.62387253335795,174.43939156775804,-128.47673895994643,280.0296900130262,241.35090034050995
459,-44.457749084037545,-273.7900258040926,56.02301523717457,-83.67824641064901,181.14920459031828,-124.9346875985343,282.4530763892357,243.0134916637132
460,-44.741495897967454,-276.31388199962885,57.07592535646749,-79.12983667857266,187.0930213350038,-120.78507207453441,284.9932241166516,245.1238521579406
461,-45.15321710058523,-278.9516455370846,58.01253486386039,-76.27056462128644,192.17679971531376,-116.05179517066404,287.64941874154835,247.79925061973893
462,-45.6883739513685,-281.70074602395937,58.80252192695932,-75.37177449893665,196.32616251574728,-110.77846544076017,290.4176682674397,251.16321554996128
463,-46.33814388497121,-284.55514205132727,59.41537611978919,-76.67678518739311,199.48869010532073,-105.02966497973344,293.2903082626903,255.3428536951981
464,-47.08931717146609,-287.50496345599527,59.82096961621326,-80.393711885742,201.63576365325832,-98.89174720091654,296.25567612050065,260.46582144731957
465,-47.92433253658452,-290.5362318542529,59.99015706338308,-86.68882615803447,202.7639083816718,-92.47308165586844,299.297872919787,266.6570276898595
466,-48.82145828261624,-293.63067915433083,59.89539194489188,-95.68071820580441,202.89559689613066,-85.90367626894344,302.39663117123695,274.0351581684208
467,-49.755119610040765,-296.76568319514644,59.51134714266911,-107.43550417180957,202.07948483611776,-79.33412533491482,305.5273058039005,282.7091219244749
468,-50.696366917207975,-299.9143378562827,58.81552758357147,-121.9632848548232,200.39006305172273,-72.93385348910667,308.6610036794949,292.77452913167485
469,-51.613474434202175,-303.0456717415414,57.788862807874885,-139.2160134243084,197.92672026124706,-66.8886505569665,311.7648634802852,304.3103150710842
470,-52.472654085269305,-306.1250249087092,56.4162667957896,-159.0868726674365,194.812216744159,-61.39751842322961,314.80249305588836,317.3756249128804
471,-53.23886614774989,-309.11458737765497,54.687151580912754,-181.41120156835473,191.1905736595016,-56.668877417195,317.7345655489429,332.0070669306634
472,-53.87670598095178,-311.9740966530383,52.595880419363034,-205.96895089088648,187.22438585926082,-52.91620486919666,320.5195692439973,348.21642744951083
473,-54.351344574849186,-314.66168456080015,50.142145856759804,-232.4885912643702,183.09157089165757,-50.35320142200245,323.11469941159316,365.98892032217094
474,-54.62949961585486,-317.13485657400975,47.33125803407559,-260.6523472739082,178.98157533664872,-49.18860070077284,325.47687365340323,385.2820192942929
475,-54.68041294068238,-319.35157972699176,44.17432903599077,-290.10258858202684,175.09107306150267,-49.620754624445865,327.56384556719445,406.0248960947658
476,-54.47680955340065,-321.27144842053644,40.68834017414216,-320.4491751864522,171.61920885990904,-51.832139676961866,329.33538515912477,428.1184632789797
477,-53.99581285695975,-322.8568911514424,36.89608102506787,-351.277529499934,168.7624646280784,-55.98393865540147,330.7544885962188,451.4360010173408
478,-53.219790452688244,-324.07437576835173,32.82595186605057,-382.15719361481706,166.70925212154748,-62.21085764976345,331.7885749125506,475.82433247055565
479,-52.137104804667125,-324.89556670176944,28.51162478033398,-412.65062580039825,165.63436404720878,-70.616339077172,332.41062354805814,501.10550339709596
480,-50.74274332265192,-325.298385284308,23.99156310655082,-442.32199523870435,165.6934410115519,-81.26832807073703,332.60020462276384,527.0789176545594
481,-49.03880320618047,-325.2679243012401,19.308404157751035,-470.7457469944194,167.01763297117108,-94.19574084929967,332.3443541817403,553.5238802436031
482,-47.034808049263376,-324.79717068272475,14.508216159265515,-497.5147285574005,169.70864812330413,-109.38576941807055,331.6382497067509,580.2025021704402
483,-44.74783605610619,-323.88749594548074,9.639646729796679,-522.2476930081147,173.83438824075645,-126.78213696765987,330.48564715262256,606.8629252092229
484,-42.20244392995761,-322.5488825606586,4.752986267179489,-544.5960199560549,179.42536669788464,-146.28439300611512,328.89904953772515,633.2428282049632
485,-39.43037601549955,-320.79986555404656,-0.10082540158041188,-564.2495222486772,186.47209365455967,-167.7483074261944,326.8995883400909,659.0731786401336
486,-36.47005490575669,-318.667181690727,-4.871217242942669,-580.9412329722209,194.92359168297438,-190.987389687889,324.5166119633902,684.0821928824681
487,-33.36585719875782,-316.18513257741193,-9.508996396258304,-594.4510930610812,204.6871736843905,-215.77552469349772,321.7869893818995,707.9994653995543
488,-30.167186021989522,-313.3946817951059,-13.967314880970868,-604.6084851711057,215.62957236340952,-241.8506824243386,318.7541506494084,730.5602214812736
489,-26.92735984293724,-310.34231871331957,-18.20256163567881,-611.2935852313932,227.57945696775462,-268.91962550686077,315.46689825286825,751.509640586198
490,-23.702344519987992,-307.07873212128226,-22.175151819676945,-614.4375305469557,240.33131066811262,-296.6635087245532,311.9780335307376,770.6071897797634
491,-20.549362279112838,-303.65734470535153,-25.85019110435445,-614.0214337232442,253.65057521733377,-324.7442377611391,308.3428500700565,787.6309003734463
492,-17.525417185574707,-300.1327645101496,-29.197999674872943,-610.0743055342799,267.27990404300743,-352.811431462764,304.6175509681517,802.3815167687292
493,-14.68578147336574,-296.5592119336344,-32.194487952689535,-602.6699862390104,280.94630630400104,-380.50981284840316,300.85764914335704,814.6864446029439
494,-12.082490422682538,-292.98898067844857,-34.821382852290306,-591.9232211733082,294.36891716335117,-407.48683927891756,297.1164095906596,824.4034244962846
495,-9.762894992516799,-289.4709885107663,-37.06630920177344,-577.9850489400318,307.2670964060126,-433.400372101616,293.443389655643,831.4238564382848
496,-7.768320930629872,-286.0494688040591,-38.92273553108257,-561.037695295922,319.3685396975291,-457.92618136895055,289.88312818543227,835.6756969568726
497,-6.132880541803029,-282.76284693812016,-40.389796729095,-541.2891799327883,330.4170841378571,-480.7650825225212,286.47402712418716,837.125846629764
498,-4.882478751306515,-279.6428370085999,-41.47200832562179,-518.9678452707589,340.1799016176707,-501.64950956955937,283.2474601647299,835.7819404354184
499,-4.034048717244104,-276.71378431747087,-42.178888738032,-494.31700603359167,348.4537990334866,-520.3493431108826,280.2271328817597,831.6934499841112
500,-3.5950442342016418,-273.99226822356144,-42.52450690984949,-467.58989684754636,355.070382826683,-536.6768310592705,277.42870786692384,824.9520072245904
501,-3.563206748032034,-271.4869688383642,-42.52697323857603,-439.0450644683257,359.89989543431284,-550.4904642761692,274.8596974405707,815.6908660094423
502,-3.926614286606022,-269.19879060680216,-42.20789143066999,-408.9423143046189,362.85359130241915,-561.6976978619534,272.51961632160345,804.0834324960776
503,-4.664008565464672,-267.1212267000554,-41.591788059528895,-377.5392808772397,363.884587516568,-570.2564406945671,270.4003778211686,790.3408183393456
504,-5.745385761013105,-265.24094065032654,-40.70553532213658,-345.08865197836167,362.9871954149121,-576.1752703396644,268.48690989712577,774.708401480323
505,-7.132826822975343,-263.53853578381825,-39.57778082258466,-311.83603951372083,360.19481074677554,-579.5123669755183,266.7579616814738,757.4614165380071
506,-8.781535333386927,-261.9894787615845,-38.23839616121701,-278.0184586214418,355.5765068953417,-580.3731975922213,265.1870668159988,738.8996380472837
507,-10.641045000535692,-260.5651409268612,-36.71795387013319,-243.86335214516455,349.2325345943715,-578.9070192186008,263.74362712772927,719.3412622441429
508,-12.656554841074621,-259.2339200613294,-35.04724010757575,-209.58808055425655,341.28897912686324,-575.3023059244746,262.39407879528517,699.1161338291071
509,-14.770347911388209,-257.96240535039465,-33.25680866355781,-175.39978783005813,331.8918594061633,-569.7812374743821,261.10310304642627,678.5585002908388
510,-16.923249086293172,-256.7165496425919,-31.376580182491793,-141.4955507868426,321.2009705106003,-562.5934163761142,259.83484441879665,657.9995052787725
511,-19.0560787184989,-255.46281530291012,-29.43548893910464,-108.0627212003781,309.38377108088986,-554.0090032142592,258.55410157600113,637.759651851674
512,-21.11106181457282,-254.16926296525557,-27.461177971126936,-75.27937505977752,296.6095995901511,-544.3114763049093,257.227458490977,618.1414745664256
513,-23.03315638696002,-252.8065561174755,-25.479741967094164,-43.3147895136306,283.0444701378451,-533.7902301220169,255.82432735702173,599.4226557617112
514,-24.7712696028123,-251.34885847712218,-23.515516068714156,-12.32987456115321,268.84665151695543,-522.7332276057922,254.3178786536084,581.84980670009
515,-26.279335891007783,-249.77460526900182,-21.59090755380359,17.522507050095214,254.1631763139727,-511.4199148902281,252.68583809021962,565.6331100548673
516,-27.517236899091575,-248.06713354709555,-19.72626619554754,46.09739150290081,239.12736398004836,-500.1145939360443,250.91113439676363,550.9419885746773
517,-28.451548755777896,-246.21516047209514,-17.939788279833127,73.25778896439472,223.85737784166756,-489.06042979276594,248.98238597251438,537.9019276228812
518,-29.056107259312093,-244.21310197515876,-16.24744921248609,98.87502359000173,208.45577553200104,-478.47424547564117,246.89421826326137,526.5925384856015
519,-29.312386354415647,-242.06122764780082,-14.662960339409347,122.82936680136427,193.009959359668,-468.54222953984964,244.6474075362419,517.046906569448
520,-29.20968970358042,-239.7656511792189,-13.197746578891238,145.01097558353072,177.59339069259363,-459.41665038196794,242.24885061673746,509.2522255874207
521,-28.745159368195612,-237.33815931525135,-11.860942294803591,165.32112797829842,162.26740227377707,-451.21363833533087,239.71136420387728,503.15167731715314
522,-27.923609499359216,-234.7958860785878,-10.659403444740176,183.67372640332874,147.08342498219824,-444.012063061654,237.05332151039877,498.6474781098422
523,-26.757196366501283,-232.16084273222378,-9.597734649401104,199.99701740350355,132.08544022994226,-437.85350077580875,234.29813802623573,495.60497923255156
524,-25.264939032825346,-229.45931759376734,-8.678330656318542,214.23545557715437,117.31247441747077,-432.7432544876557,231.4736221022252,493.85767907211243
525,-23.472107663831405,-226.72116323526427,-7.901432588276821,226.35162116042147,102.80096569716773,-428.65236153044503,228.61120971217738,493.2129815697951
526,-21.40949889289299,-223.97899166265353,-7.265200022647919,236.32808625417817,88.5868537301809,-425.5204967966332,225.74510599396027,493.4585171164743
527,-19.112619685775936,-221.26730054099593,-6.765800125617554,244.1691149175283,74.70726842144184,-423.2596577078679,222.91135873627368,494.36882955607524
528,-16.620802425926165,-218.62155527804916,-6.3975147960188785,249.9020782896482,61.20172246094919,-421.758498162865,220.14689069344226,495.71222601569843
529,-13.976274302600626,-216.07725276084636,-6.15286624275027,253.5784685123794,48.112743997267955,-420.88716361734816,217.48851842810396,497.25758529099664
530,-11.223203637603728,-213.66899272904874,-6.022760928528022,255.27440531937023,35.48591926469515,-420.5024682977737,214.97198530033748,498.7809259426897
531,-8.406744822008259,-211.4295821369397,-5.99665159718002,255.09054705280755,23.369349713003828,-420.45324879141396,212.63103525771984,500.07154749158923
532,-5.572102263978836,-209.38919645175082,-6.0627170468441305,253.15134311921733,11.81256298462349,-420.5857263696932,210.4965523105749,500.93757702319124
533,-2.763632216241089,-207.5746197894564,-6.208059057803822,249.60359622713617,0.8649502582809387,-420.74871370762446,208.5957881369851,501.2107783301985
534,-0.02399954438826086,-206.0085832145025,-6.418915262076637,244.61433816105216,-9.426168150675176,-420.7985102576087,206.9516972752634,500.75051005270086
535,2.606595538972524,-204.70921747048186,-6.6808859181519304,238.36805974619077,-19.01772389744992,-420.6033442511704,205.58239589128218,499.4467513642996
536,5.091107915839188,-203.68963290266146,-6.979171762007481,231.06337107532926,-27.873188633630527,-420.04723762203895,204.50075621620704,497.2221466911913
537,7.396244554468623,-202.9576354809272,-7.2988194123164805,222.9091990340535,-35.9648241526494,-419.033192206285,203.7141445564289,494.03305297695505
538,9.492959774101285,-202.51558376786292,-7.624970183252191,214.1206531866773,-43.27575482399991,-417.48562032020067,203.2243064358581,489.86960280742665
539,11.356843125375605,-202.36038755441405,-7.943107636384516,204.91470653649267,-49.801736616959104,-415.35196920472333,203.027398119113,484.75482359670013
540,12.968397245219501,-202.48364492821153,-8.239298859999677,195.50584391870856,-55.552518632063,-412.6035159388961,203.1141597272629,478.7428768200221
541,14.313206394237296,-202.87191100143207,-8.500424303451434,186.10182811954266,-60.5527197521439,-409.23533642638307,203.4702216511959,471.91650195763145
542,15.381999803701618,-203.50708853727167,-8.714390977966335,176.8997232868546,-64.84217186483578,-405.26547819004287,204.0765331021156,464.38376734700194
543,16.17061712639575,-204.36692824567203,-8.870323984139977,168.08229842034052,-68.47570911954155,-400.73339135625986,204.90989935481133,456.2742444704062
544,16.6798859082772,-205.42562448301518,-8.958731668747852,159.8149126773876,-71.52240752613578,-395.69769485852606,205.94361241907583,447.7347333132628
545,16.91542279361539,-206.65449038161526,-8.971640191631792,152.24296096700323,-74.06429979140735,-390.23337496733853,207.14815837495217,438.9246743304524
546,16.887370909924496,-208.02269490556714,-8.90269384397519,145.48993469060608,-76.19460695237149,-384.42853001842093,208.4919832490556,430.011387228569
547,16.61008548951759,-209.49804286415633,-8.74721818836015,139.65612993484882,-78.01554241943006,-378.38078775850784,209.94229796926513,421.16527805969747
548,16.10177843418982,-211.0477775211653,-8.502244151841197,134.81801470848922,-79.6357569823086,-372.19352916809794,211.46590163950358,412.5551537390096
549,15.384130533262983,-212.6393842416389,-8.16649266345749,131.0282480552591,-81.16750606061015,-365.97205437877204,213.03000127152418,404.3437767397998
550,14.481877811299166,-214.24137281669542,-7.7403211510313135,128.31632665590885,-82.72363286931886,-359.8198223284827,214.60300540891424,396.6837821805351
551,13.42237647212225,-215.8240159457027,-7.225634903973921,126.6898182188608,-84.41447204983544,-353.834886578419,216.1552690251637,389.714064753776
552,12.235149497551978,-217.36002203655107,-6.625767713743668,126.13612505289322,-86.34478585881554,-348.1066361684166,217.65976787373083,383.5567241678005
553,10.9514172890632,-218.82512210160462,-5.945337215340168,126.624705617643,-88.6108472989775,-342.7129336745686,219.09268220448547,378.3146355357503
554,9.603614707741043,-220.19855311732124,-5.1900808919284405,128.10966689939661,-91.29778022633222,-337.71772388697406,220.43387246846336,374.06968631492833
555,8.224897245303264,-221.46342380943128,-4.366678658942196,130.5326268689838,-94.47725511183047,-333.1691666870238,221.66723332710797,370.8816950586921
556,6.848639589413803,-222.6069533157664,-3.4825673527900936,133.82573508609707,-98.2056216713107,-329.09832757766105,222.78091684350602,368.78800073620346
557,5.507930345141507,-223.62057821394433,-2.5457516000989453,137.91473201835274,-102.52253793236528,-325.51843969247267,223.76742080850102,367.80368627232525
558,4.235067117996122,-224.49992854618364,-1.5646147511310662,142.72192511869855,-107.45013183042025,-322.4247327117441,224.62354331763345,367.92237782983966
559,3.0610566494359372,-225.2446784308578,-0.5477329054618489,148.16896301872495,-112.99270828376444,-319.79480751828186,225.3502096789344,369.1175434754088
560,2.015125304694355,-225.858281421294,0.4963055573630171,154.17929859811463,-119.13699345706421,-317.58952101587374,225.95218230427142,371.3442020725479
561,1.1242459718593152,-226.34760469212264,1.5590731099594408,160.68024683472302,-125.85288937217103,-315.75433353373717,226.4376681549657,374.5409458800173
562,0.41268837121214313,-226.7224791127413,2.6324674171735847,167.60456340039602,-133.09469625087826,-314.22106176305806,226.81784128714145,378.6321782877542
563,-0.09839909900393971,-226.9951841935787,3.708865428134299,174.89149382858457,-140.80274666763304,-312.9099732351721,227.10629996240752,383.5304709104669
564,-0.39136666391325786,-227.17988789586263,4.781265383295455,182.48726958693516,-148.90538437165097,-311.7321538390918,227.31847878650981,389.13895117155243
565,-0.452389303692299,-227.29206163865857,5.843414383006873,190.34505549490234,-157.32121124927386,-310.59207751916364,227.47103667059065,395.35364173160565
566,-0.2717308713933033,-227.3478907309999,6.889918889293137,198.4243815836046,-165.96151829888498,-309.3903067584743,227.581241291912,402.0656857908972
567,0.15606446290845957,-227.36369991474248,7.91633570543978,206.6901204197858,-174.73281096880135,-308.0262534288385,227.66637018145394,409.16340654083047
568,0.832063047890264,-227.355412525456,8.919241458612182,215.1110964846742,-183.53933644399365,-306.4009317581719,227.74314738882168,416.5341639431856
569,1.7529225158393507,-227.33805977049107,9.896279112644525,223.65843552382194,-192.28552140472326,-304.4196382030328,227.8272326767758,424.0659866950953
570,2.910967377328144,-227.32535382711205,10.846180425573504,232.3037769388974,-200.87823430200882,-301.99449668274696,227.93277741657496,431.64897097715686
571,4.294361033130965,-227.32933511379522,11.76876358049545,241.01747968621405,-209.22879677232322,-299.04681186135974,228.07205801793813,439.17644994561147
572,5.887372197530888,-227.3601004337852,12.66490550415378,249.766950919466,-217.25468424977183,-295.5091779647009,228.25519406950653,446.5459486942675
573,7.670730169522302,-227.42561496970984,13.536488632578454,258.51521682092914,-224.8808751403543,-291.32729593528916,228.48995460838603,453.659948330679
574,9.622060167163376,-227.53160759853142,14.386322139604209,267.21983762653787,-232.0408293897001,-286.4614574197223,228.78165234900962,460.4264894468761
575,11.716387257561403,-227.68154596850138,15.218038098713729,275.832245407253,-238.67709875607392,-280.8876601205517,229.13312256133486,466.75964912257245
576,13.926695350512516,-227.87668541172343,16.035963859633874,284.29755584582216,-244.74159045322577,-274.59832569929256,229.5447807902107,472.57992643441156
577,16.22452628658411,-228.11618407458107,16.844973014939992,292.554876281173,-250.19552136483196,-267.60259919436004,230.0147517761027,477.81456942734104
578,18.580603197237675,-228.39727548089164,17.650318458904614,300.53810371891353,-255.00911076924262,-259.9262182222779,230.53906061524563,482.39787211247676
579,20.965461949639092,-228.71548889212667,18.457452033847776,308.17718004662817,-259.1610651537246,-251.6109510758379,231.11187617782846,486.2714638816927
580,23.35007453360546,-229.06490717021833,19.27183613213104,315.39974868060267,-262.6379095269351,-242.7136148376774,231.72579597569822,489.38460637743077
581,25.70644869357111,-229.4384513285614,20.09875338673626,322.13313811366356,-265.4332164827349,-233.30469719534156,232.37216099981825,491.6945049338975
582,28.008188944419896,-229.82818052398784,20.943121089785656,328.30658353383285,-267.54677840490683,-223.46661807100767,233.0413884802565,493.1666337545634
583,30.231005262229502,-230.22559587887437,21.809317006404008,333.85358752058363,-268.9837610591813,-213.29167867342326,233.72331002728313,493.7750663345923
584,32.35315713551981,-230.62193634339943,22.701022718850158,338.71431418538987,-269.75386958256394,-202.8797553398686,234.40750230390145,493.5027953253463
585,34.355822313953084,-231.00845508419087,23.621089694286493,342.83790741095765,-269.8705512757811,-192.33580293645983,235.08359755150406,492.3420190200241
586,36.22338158710749,-231.37666591598702,24.571432192195083,346.1846227635246,-269.35025389786466,-181.76723735409396,235.74156227865114,490.29436502787166
587,37.94361332857893,-231.71855119095824,25.552950069700483,348.7276643575105,-268.21175325098517,-171.2812688782978,236.3719343674067,487.3710159262513
588,39.50779430467709,-232.02672516891778,26.565483469125446,350.4546230692128,-266.4755594279909,-160.98225823088634,236.96601159157703,483.59269750008207
589,40.91070621013458,-232.29454992443024,27.607800271648696,351.36842202394513,-264.1634069384844,-150.96916516841205,237.51598777001772,478.98948866989605
590,42.15055034318892,-232.51620403971364,28.677616226302785,351.48769030467474,-261.29783007062156,-141.33315584373028,238.01503621347982,473.60041461784255
591,43.22877560844063,-232.68670743438483,29.771646954996378,350.8465071256685,-257.9018215733535,-132.1554297773663,238.457343501848,467.4727920500326
592,44.149827573360994,-232.80190842434817,30.885690546628414,349.4934863526235,-253.99857038090767,-123.50532036029566,238.8380996673137,460.6613085264625
593,44.920828567039926,-232.85844125598405,32.0147390006971,347.4902043027836,-249.61127280869394,-115.43871456619533,239.15345330755088,453.22683596557846
594,45.55120071665735,-232.8536638128743,33.15311616470452,344.9090102515819,-244.76301133708716,-107.9968283645043,239.40044185664505,445.2350003637113
595,46.05224526463151,-232.7855859124733,34.29463892566247,341.83029626578156,-239.4766954218575,-101.20536455737268,239.5769081349159,436.75455317746844
596,46.436692423196824,-232.6527985757799,35.43279728631414,338.33933778738566,-233.7750592326214,-95.07406961150775,239.68141434033342,427.85561194871013
597,46.71823637507479,-232.45441380948867,36.560947680397874,334.5228457238074,-227.6807113995733,-89.59669558972642,239.71316378139414,418.6078558373453
598,46.91106983294017,-232.19002277041213,37.672512616973066,330.4653919112909,-221.2162315968119,-84.75136263622797,239.67193888791118,409.0787734390997
599,47.02943184972414,-231.8596778187176,38.76117873035861,326.24588067642117,-214.4043082787996,-80.50130691318876,239.55806153861633,399.33206410956734
600,47.08718132879339,-231.4639012268047,39.82108477169911,321.9342387888148,-207.2679114789616,-76.79598876286057,239.37237885456577,389.4262895082658
601,47.097406944510546,-231.00372058549118,40.8469910540621,317.5884844192512,-199.83049466403483,-73.57252649326509,239.11627471751797,379.4138596860757
602,47.072082072804854,-230.480728514967,41.83442226870228,313.25231382796204,-192.1162205084885,-70.75741285409843,238.79170466413504,369.34041899499306
603,47.02177107506787,-229.8971622194257,42.77977642533647,308.95331423525204,-184.15020721299638,-68.26846423738291,238.40124960124714,359.24467307973595
604,46.95539116499728,-229.25599668992584,43.68039402109886,304.70187503284154,-175.95879442456246,-66.01694704261189,237.9481820267952,349.15867097966714
605,46.88003237959646,-228.5610439633147,44.534583375247415,300.4908298895339,-167.5698303080604,-63.90982153034634,237.4365371720432,339.10852756817627
606,46.80083695549475,-227.8170498697307,45.341600220159144,296.2958223498628,-159.01298291825668,-61.85204092601393,236.87118077201475,329.1155427720164
607,46.7209385002381,-227.02977928317534,46.10158205118172,292.07635027168703,-150.32007864179644,-59.7488427127365,236.25786511223805,319.1976469512674
608,46.64146044285114,-226.20608114155047,46.81544044413395,287.7774127128729,-141.5254671668153,-57.507970219053064,235.60326565172585,309.3710783518729
609,46.561572154194955,-225.35392539868235,47.48471742256685,283.3316588071878,-132.66640568468648,-55.04176599483643,234.91499179658524,299.6521805384428
610,46.47859986235212,-224.48240543059455,48.111414623238765,278.6619229310019,-123.7834451009531,-52.26908421679501,234.20156704571926,290.0591967734077
611,46.38818823057463,-223.60170104265478,48.69780607440196,273.68402420391703,-114.92078916443641,-49.11697743690658,233.472375507544,280.61393551289336
612,46.28450742628004,-222.72299897343598,49.24624665203397,268.30971041898795,-106.12658566708896,-45.522123087224294,232.73757355375022,271.34318695716934
613,46.16049981512885,-221.8583695180175,49.75898864533148,262.4496356166732,-97.45309965048034,-41.43196672788414,232.00796700357176,262.2797846287991
614,46.00816005143224,-221.020599470956,50.23801833848273,256.0162750895081,-88.956714172807,-36.80557133056521,231.29485559832563,253.46322733799778
615,45.8188421626601,-220.22298308954652,50.68492315878599,248.92669983740743,-80.69770636629262,-31.614174053834947,230.60984768653518,244.93980425816125
616,45.5835870748931,-219.47907447101346,51.10079789544828,241.105152494769,-72.7397560736917,-25.841462994190895,229.96464924806241,236.7621974097884
617,45.29346380708508,-218.80240678220738,51.486195959356536,232.48538652708183,-65.14916103095224,-19.483595243405063,229.37083281247675,228.98856943329767
618,44.93991722112431,-218.20618598735888,51.84112879915804,223.0127480471517,-57.99375494452858,-12.54898340587339,228.83959330951728,221.6811775092806
619,44.51511471149527,-217.7029686861245,52.16511349016573,212.64599320160622,-51.3415504212256,-5.057880210375809,228.38149904766965,214.9045838803687
620,44.01228362165853,-217.30433509478476,52.457265255399335,201.35884255979667,-45.2591543684295,2.9582096803848206,228.00624658641058,208.72355706211246
621,43.426030653279575,-217.02056896743665,52.71642848906238,189.1412768188556,-39.810025935257755,11.457264313412827,227.7224282189108,203.20077350054143
622,42.752634193727715,-216.86035632099717,52.94133704827647,176.00057563087137,-35.05266366787518,20.387603236657938,227.53732015963885,198.39443609669482
623,41.99030032826447,-216.8305141866674,53.13079241803165,161.96209437507414,-31.038817745595864,29.68885258096082,227.45669838143814,194.35592389443022
624,41.13937338142656,-216.93575936652573,53.283847000761504,147.06976386525915,-27.81182449352414,39.29300266908877,227.48468752395107,191.1275778674564
625,40.202492301728206,-217.17852551846892,53.39997934679992,131.38628750055017,-25.405154113733314,49.125547540082,227.6236466487382,188.74071370683382
626,39.18468515153699,-217.55883498894846,53.479248683731775,114.9930016495062,-23.841249338841628,59.106697603078416,227.8740940422589,187.21393672303358
627,38.09339535040804,-218.0742297965076,53.5224175683437,97.9893602010858,-23.1307133191583,69.15265694495979,228.23467188041727,186.55181889341105
628,36.938435138078454,-218.71976417541381,53.53103367906361,80.49200449695346,-23.271880899833814,79.17695562839504,228.7021504487133,186.74398494824578
629,35.73186405868395,-219.48805921692517,53.50746444262446,62.633385517659896,-24.250780848503705,89.09182486499462,229.2714708096687,187.76464291584944
630,34.48779314132543,-220.36941846865693,53.45488119203381,44.55991563588129,-26.041470683405553,98.8095996341261,229.93582435728544,189.57258334997195
631,33.222118678738646,-221.35200194821076,53.3771928337999,26.42964152216668,-28.60670374977023,108.24412966117919,230.68676761977505,192.1116590265052
632,31.952192734803155,-222.42205492116153,53.27893247191383,8.40944707619639,-31.898872538937518,117.31217625975168,231.5143708977601,195.31174253674033
633,30.69644038926377,-223.5641868740384,53.165103825019145,-9.328184852796758,-35.86116403016106,125.93476992934715,232.40739961331641,199.09014337187122
634,29.47393603082269,-224.76169515282345,53.04099714325056,-26.60880080933801,-40.42886172098742,134.03850217241052,233.35352723220976,203.35344989468797
635,28.30395264373243,-225.99692653003535,52.91198628538417,-43.25991936660783,-45.53073355943091,141.5567249296385,234.33957800715513,207.9997459591391
636,27.205498969944006,-227.25166844393405,52.78331951560168,-59.11518634523329,-51.090453217657746,148.430632290353,235.35179649287605,212.9211370933086
637,26.19685968818248,-228.50755990402453,52.65991648255177,-74.0186155798115,-57.028012116224076,154.61020151016763,236.37613892676268,218.0065068309887
638,25.295153374891473,-229.74651027370666,52.546182799491646,-87.82876624197151,-63.261089847729835,160.0549736273433,237.39857938879618,223.14440995838635
639,24.515921993365424,-230.95111262606665,52.44585170357728,-100.422692250763,-69.70636026791229,164.73465796183157,238.40542148347717,228.22599712917386
640,23.87276393898195,-232.1050374389474,52.361859701244086,-111.69949315868448,-76.28071908317362,168.6295494418592,239.38360450392568,233.14785661320005
641,23.37702024775832,-233.1933922222483,52.29626039489679,-121.58330126423955,-82.90242610127545,171.73075301187507,240.32099192657134,237.8146566049204
642,23.037520611486084,-234.20303328356613,52.25017822634945,-130.02555768402235,-89.49216140820597,174.04021533794815,241.20662977594733,242.14147796034095
643,22.860392666823717,-235.1228172738927,52.223801706968224,-137.00646041100885,-95.97399960909463,175.57057061308612,242.03096296792128,246.05574366607948
644,22.84893502761163,-235.9437824773169,52.21641371263564,-142.53550801547573,-102.27630987537167,176.34481426960602,242.78599925369,249.49867709798386
645,23.003551979994274,-236.65925297536342,52.22645468667363,-146.65111004248527,-108.33259171704739,176.3958253067442,243.46541283745108,252.42625352204138
646,23.32174574212739,-237.26486262409378,52.251613436956845,-149.4192846471712,-114.08225693212711,175.7657638956984,244.06458299621895,254.80964414225676
647,23.798160728087232,-237.75849996318155,52.288939921906646,-150.9315106180821,-119.47136685919338,174.50537494040316,244.58056689092123,256.6351845665838
648,24.424673464366414,-238.14017947727788,52.33497500617129,-151.301840332477,-124.45333069252176,172.67322947631956,245.01200999206807,257.90392560669943
649,25.19052183749786,-238.41184876470686,52.38589328722269,-150.66340938053312,-128.98956516093236,170.33493364380874,245.3590018148001,258.6308409666689
650,26.082468170294476,-238.57714476677975,52.437656204665686,-149.16449628455283,-133.05010858949808,167.5623294230395,245.62288848760733,258.84377254268475
651,27.084991918710834,-238.64111489764534,52.48617334443226,-146.96429223767058,-136.61417397171994,164.4327028972078,245.8060565854593,258.58219056255905
652,28.18050912052708,-238.60992046759876,52.52747007525556,-144.22853768165615,-139.67061730362974,161.02800560279312,245.91170436891474,257.8958349950791
653,29.34961681796163,-238.49054021912193,52.55785955325863,-141.1251722084467,-142.21829042742843,157.43408384988913,245.9436170941548,256.8432897537832
654,30.571361467865636,-238.29049125928546,52.574116856398355,-137.82012932570643,-144.26624325392672,153.7399008956656,245.90596258174563,255.49052535609698
655,31.823530929556,-238.01758336387144,52.57365262540234,-134.4733904233894,-145.83373921563887,150.03672832927407,245.80312195973374,253.90943125761294
656,33.08297002525713,-237.67972066564985,52.55468308550584,-131.23539445936171,-146.95005019211675,146.4172765590179,245.63956854622253,252.17634741567264
657,34.325919814049406,-237.28476215467865,52.51639269442634,-128.2438821491183,-147.6540025348309,142.9747304043657,245.41980522580175,250.37059624521282
658,35.528380406759446,-236.8404492116731,52.459084891084565,-125.62123571084237,-147.99325369183276,139.80165497518018,245.14836737318805,248.5730110267205
659,36.66649616508645,-236.35440456584263,52.38431548756956,-123.47235714996711,-148.02328884284415,136.98873966274314,244.82989435462275,246.86445486962833
660,37.716960454733375,-235.83420265238271,52.29500223689808,-121.88310967785074,-147.8061384471553,134.6233543858781,244.46926794317704,245.3243253747569
661,38.65743510865221,-235.28750655787275,52.195503234161386,-120.91932876945248,-147.40883011799866,132.78790218049483,244.07181091607805,244.0290439912947
662,39.4669779713453,-234.7222620796898,52.09165627261339,-120.62639270097137,-146.90160110317885,131.5579654323479,243.64353425596644,243.05053544370912
663,40.12647071136283,-234.1469354764977,51.99077120884334,-121.02932847074898,-146.35591019930524,131.0002588825984,243.1914174005234,242.4547111234945
664,40.619038484901324,-233.5707786272939,51.901567920973896,-122.13341885480712,-145.84229958052407,131.17042014745758,242.72370326859246,242.2999805378973
665,40.93045276264083,-233.0041036283906,51.8340537227793,-123.92527042974784,-145.4281673528553,132.11068701704033,242.250188418341,242.6358262585268
666,41.04950843421299,-232.4585482418789,51.79933624357057,-126.37430037247505,-145.1755203207022,133.8475294077671,241.78248856017416,243.50148964675623
667,40.968366000163606,-231.94731391306246,51.80937080142115,-129.43460065982904,-145.1387831299979,136.38932163166248,241.3342605809006,244.92482594078777
668,40.682849225024526,-231.48535918904255,51.87664498517003,-133.04714035836895,-145.36274421270352,139.7241564299831,240.92136407722887,246.92139657014954
669,40.192688197859646,-231.08953324639495,52.01380713031584,-137.14226811249029,-145.88072033472213,143.81791448745057,240.561948023213,249.4938718751395
670,39.501697532087306,-230.77863679939432,52.23324918883389,-141.64247569966352,-146.71301958979814,148.61271023917632,240.27645146181266,252.63181662092634
671,38.61787961454416,-230.57340072277563,52.54665780488026,-146.46537786275672,-147.86577694285003,154.02583521722062,240.08751077942975,256.31192188645457
672,37.553443526424346,-230.4963759591527,52.964550021987776,-151.52685256105352,-149.33022650144466,159.94931296503285,240.01976986142827,260.4987288740073
673,36.32473157265343,-230.5717313297095,53.49581181872477,-156.74426955752168,-151.08246040128944,166.25016436190293,240.09959287411695,265.1458629466515
674,34.95204722337915,-230.8249585124103,54.147258291430234,-162.03971557063255,-153.08370582525,172.7714593960691,240.35468229972625,270.1977613174649
675,33.45938060811916,-231.28248573079148,54.9232333995856,-167.3431040743231,-155.28113009614682,179.33420193613813,240.81360710936656,275.5918384193748
676,31.87403050703426,-231.97120384062893,55.825264752314936,-172.59504108224715,-157.60916033091084,185.74005937240912,241.50524781622693,281.2609934711881
677,30.226125072531094,-232.91791073905344,56.851785421052334,-177.74930876727453,-159.991280513315,191.77491119236572,242.45816692719188,287.13633006908265
678,28.548047168605496,-234.14868235283745,57.997930812428145,-182.77482954844066,-162.3422469166928,197.2131521483818,243.69991510522527,293.1499323227417
679,26.87377397578501,-235.68818068586728,59.25541467558746,-187.65698590495015,-164.57064437072142,201.82264944839847,245.25628501341467,299.2375294343435
680,25.238144096577148,-237.55891136989146,60.61248472407848,-192.39819563692188,-166.58169229123132,205.37022202216713,247.15052622023828,305.3408823039337
681,23.676068594266216,-239.78044493541645,62.05395549205971,-197.01767714316762,-168.28020141851596,207.62748552357328,249.40253582097364,311.4097416244626
682,22.221705111529445,-242.36861784344688,63.56131414490234,-201.5503820102267,-169.57357982528748,208.37689057812457,252.02804085790663,317.40325537825447
683,20.907616485596943,-245.33473145640107,65.11289400084019,-206.04511955042102,-170.37478921875962,207.41777411587032,255.03779048234492,323.2907417991184
684,19.763937158154896,-248.6847696470896,66.68411031266018,-210.5619461436982,-170.60515862674393,204.57224383240617,258.436778160283,329.05178796537473
685,18.817572043370266,-252.4186584054883,68.24775326410982,-215.16893730173908,-170.19697087150374,199.6907228058154,262.22351683546583,334.6756800875535
686,18.09145304223818,-256.52959317039824,69.77433408691958,-219.93849825134205,-169.09574674400065,192.65699385950052,266.38939239298406,340.1602152699055
687,17.603877806136236,-261.00346128603474,71.23248150595892,-224.94339594328002,-167.2621619370657,183.39260024382716,270.9181225756424,345.5099827510573
688,17.367953655830366,-265.8183876990362,72.58938690936156,-230.2527092441972,-164.67354241608092,171.86047954139357,275.7853493377083,350.7342331057397
689,17.391166952178118,-270.9444316036723,73.81129717510728,-235.92789390293737,-161.3248950428229,158.06773040677862,280.9583922029956,355.8444755849861
690,17.675094925142552,-276.343460106673,74.8640536328349,-242.0191459460995,-157.22944208054184,142.06743593745054,286.3961883600909,360.8519567708489
691,18.21527321519712,-281.9692220799211,75.71367415378526,-248.56222437770978,-152.41864088786247,123.95949228376291,292.04944193968765,365.7651787881165
692,19.001228308545816,-287.7676411605942,76.32697303872088,-255.57586515412035,-146.94168372459706,103.89041576300251,297.8610001919107,370.5876133583193
693,20.016679612352334,-293.6773412329776,76.67221061034682,-263.0598868411965,-140.86448699385377,82.05212566248284,303.7664680990419,375.3157597184453
694,21.239910906103468,-299.63041062989777,76.7197616477462,-270.99405659623136,-134.2681941398322,58.679722796852246,309.69506536126937,379.9376803163776
695,22.644305137697977,-305.55340295259094,76.44278927408999,-279.33775433614875,-127.24723153217305,34.04830566434811,315.5707209450375,384.4321284705617
696,24.199030079314028,-311.36856337137266,75.81790869033563,-288.03044324665206,-119.90697178416494,8.468886770605003,321.31339101441165,388.7683568909735
697,25.86985562131059,-316.99526021301887,74.82582332669475,-296.99292570460074,-112.36107381563988,-17.71650869034952,326.8405767418344,392.90666507987015
698,27.620077048241324,-322.3515931446563,73.45191480097546,-306.1293349129156,-104.72858311178523,-44.14046141306351,332.0690098298595,396.7997073369329
699,29.41151302862001,-327.3561416899577,71.68676783492862,-315.3297843533614,-97.13088826323573,-70.4163772763083,336.91646599543907,400.39454211734795
700,31.205542632313318,-331.92981133128484,69.52661216016607,-324.4735704725052,-89.68863991685492,-96.14517740092731,341.3036603913816,403.6353594230725
701,32.96414281210123,-335.99772913701185,66.9736653510684,-333.43280016226413,-82.51874446546122,-120.92231884319392,345.15617404321875,406.4667782133317
702,34.650886800890255,-339.4911367538117,64.03636314930202,-342.0762949402389,-75.73154592433389,-144.34499907509235,348.40635687441994,408.8375635206433
703,36.23186500637034,-342.3492257566642,60.72946686448135,-350.2736093749969,-69.4283044188791,-166.01939407646745,350.99515077645395,410.7045761304144
704,37.67649325881361,-344.52085881543,57.07404063265711,-357.89899297256534,-63.69906775851975,-185.567779779049,352.87377549667207,412.036739036139
705,38.95817857581497,-345.9661200645567,53.097294619470745,-364.8351229107884,-58.62101343606772,-202.6353896811936,354.00522101914595,412.8187865931269
706,40.05481970391566,-346.6576397212732,48.83229370741662,-370.97644012040917,-54.25731271175254,-216.89686779703263,354.3654928697335,413.05455607270704
707,40.949128157679354,-346.5816417159815,44.3175347993604,-376.23193386487634,-50.65653792252824,-228.06218593161634,353.94456166961976,412.7695884795506
708,41.6287647645217,-345.73866909708585,39.59639936580666,-380.52724081006687,-47.852601213117595,-235.88190771916376,352.74697540457936,412.0128267998373
709,42.08629627996749,-344.1439501757849,34.716490860700574,-383.80595396904556,-45.86518000565887,-240.1516988225172,350.79210206093154,410.85723528059106
710,42.31898584653609,-341.8273783980528,29.72886887576448,-386.03007471113943,-44.700553927643114,-240.71600278918407,348.1139810082045,409.3992120434636
711,42.32843917733781,-338.83309029844366,24.687193493209,-387.17958642294553,-44.352751715809276,-237.47082457508668,344.76077324090784,407.7567275894451
712,42.120134576601,-335.21863826145017,19.646794603156422,-387.25117960026944,-44.80488719804071,-230.36558751414003,340.7938129516151,406.06619077054273
713,41.70286876870337,-331.05376796827653,14.663682397362527,-386.2562120384696,-46.03055360554311,-219.40405298953533,336.28627568389226,404.4781176456916
714,41.08815197786548,-326.41882410629466,9.793517077558812,-384.2180401300245,-47.99514791031777,-204.64431370784655,331.32149133190495,403.15175260947973
715,40.289585121254035,-321.40282183116676,5.0905579755282755,-381.1689033283095,-50.65701334275339,-186.1978901308969,325.9909432564262,402.2488605435561
716,39.32224977259644,-316.10123510849996,0.6066145351700835,-377.14657909491996,-53.96831835110102,-164.22797462531423,320.3920073502289,401.9269690864044
717,38.202138103921456,-310.6135657447386,-3.6099763011791364,-372.1910463861492,-57.87563092490656,-138.94687900652193,314.6254963854472,402.33238729681784
718,36.94564566415112,-305.04076779820855,-7.515320091830238,-366.3413993130469,-62.320192898100835,-110.61274848373812,308.7930846161117,403.59335696138584
719,35.569144859145545,-299.48261023401005,-11.070855117467264,-359.63323767823795,-67.23794283185183,-79.52560897140725,302.99469453105723,405.8137018608343
720,34.08865149675023,-294.03506539733667,-14.244135660261543,-352.09672771693783,-72.5593720339773,-46.02281603497268,297.32593114873777,409.06732576191416
721,32.51959091579517,-288.78781168172884,-17.009482327628135,-343.7554761140918,-78.20932170087208,-10.473973371171406,291.8756489385313,413.39387088683304
722,30.876664312314855,-283.82193546612865,-19.34847600581655,-334.62629634839425,-84.10683800276031,26.72461210809352,286.72373224661015,418.79578674313956
723,29.17381020064327,-279.20791000683363,-21.25027625882333,-324.7198732371803,-90.1651964154158,65.1558715004621,281.9391621077457,425.23697869365856
724,27.424250729282193,-275.0039178674011,-22.711750619887944,-314.042255078463,-96.29218879355697,104.38824232679383,277.5784309468623,432.64311294841417
725,25.640608055655235,-271.2545693443419,-23.737407732962456,-302.5970296645567,-102.39073982895788,143.98219029974368,273.68435260999274,440.903557601842
726,23.83507244542893,-267.99005295803164,-24.339134259098063,-290.38797756448207,-108.35988739627814,183.49690318652355,270.28529916425686,449.8748461088484
727,22.019601409304087,-265.2257361935742,-24.535742614455334,-277.42194990728456,-114.09612758732833,222.49706583306292,267.3948787128602,459.3854677682266
728,20.206128108579513,-262.9622162277522,-24.35234374918526,-263.71169380760773,-119.49509330471133,260.55961436171725,265.01205095982317,469.24172560643376
729,18.40675742509813,-261.1858024847092,-23.819566098821856,-249.2783501327099,-124.45350781064126,297.28035650571445,263.1216604648711,479.2343599508271
730,16.63392939640319,-259.86939670307237,-22.972648223808786,-234.15337665548867,-128.87133346926802,332.2803359213073,261.69535251676336,489.1456181088483
731,14.900532032872995,-258.97372284043627,-21.850437930371278,-218.37970296837193,-132.6540221316882,365.21181313605933,260.69282425122856,498.75645640352036
732,13.219948756421717,-258.4488493328765,-20.494334151068276,-202.01199691797333,-135.71476760566364,395.7637360063287,260.0633546657519,507.8535869668139
733,11.606029728945645,-258.2359402437198,-18.94720914281659,-185.11600804979608,-137.97666235910847,423.66657863553166,259.7475517618221,516.2361222720806
734,10.072980989215957,-258.2691695172084,-17.2523476788629,-167.76704213118828,-139.37466937557673,448.69643909751744,259.6792530438185,523.7216180498748
735,8.635170327060543,-258.47773344414657,-15.452437188230235,-150.0477024260791,-139.85733438144294,470.6783018156255,259.78751662720595,530.1513627217824
736,7.306853982029088,-258.78789994072525,-13.588638622364527,-132.04509937550066,-139.3881810244272,489.48838874096646,259.99864370637647,535.3948032218068
737,6.101833421720995,-259.1250386480386,-11.699762648255312,-113.8477744039666,-137.94674903792463,505.05554346776194,260.2381784599501,539.353030244494
738,5.033056375382749,-259.4155824280659,-9.821570061457548,-95.54260249139615,-135.52925033868513,517.3616133818559,260.43283790374454,541.9612707782045
739,4.112180474716681,-259.5888778480316,-7.9862094539878195,-77.2119318729372,-132.1488288320532,526.4408164269586,260.5123310255846,543.1903548184011
740,3.3491207386805875,-259.5788891839403,-6.221799309587131,-58.93119043380511,-127.83541635473519,532.3781008792603,260.4110332225669,543.0471400336687
741,2.751603430158453,-259.325727041096,-4.552155867935338,-40.76714157363852,-122.63518091611714,535.3065285736955,260.0694883297974,541.5738962235413
742,2.324748536907965,-258.776978721464,-2.996662453403841,-22.77691293216995,-116.60956628465682,535.4037342618221,259.4357162471383,538.8466728173976
743,2.0707015234997312,-257.88882286304016,-1.5702708223197568,-5.007855052013731,-109.83392627435944,532.8875359432459,258.4663092640868,534.972698006367
744,1.9883323905726769,-256.6269156560986,-0.28362077360523724,12.501780607113155,-102.3957646881787,528.0107925332179,257.1273046905958,530.0868865384383
745,2.0730168192531657,-254.96704031777807,0.8567389780677216,29.721418662098618,-94.39260383329336,521.0556253076899,255.3948255415123,524.3475629604752
746,2.3165105915169812,-252.89551576179088,1.8480477263116397,46.62612154355811,-85.92952087994301,512.3271372728594,253.25548507493409,517.9315359215709
747,2.706924774435583,-250.40936463490135,2.6909674655943197,63.19410922173676,-77.11641107369535,502.14677894133325,250.70655504740435,511.0286846981378
748,3.228805458241472,-247.51624499010293,3.3891752893904066,79.40403950301707,-68.06505798935407,490.84551901336044,247.7559015021607,503.83623914909253
749,3.8633182438109346,-244.23415375630984,3.9489326324676064,95.2322654553281,-58.88611105995419,478.7569834044132,244.42169567609696,496.55294703146006
750,4.588534273203191,-240.59091396754008,4.37864895568082,110.65028505309422,-49.686086711492855,466.2107254407572,240.73191131641954,489.37332671996444
751,5.3798114186508155,-236.6234615494057,4.6884551577161915,125.62258226427163,-40.56451896197866,453.525783674518,236.72362345675583,482.4821982672597
752,6.210261270555808,-232.37695122797848,4.889799031806501,140.10503055621177,-31.61138630069986,441.0046718320111,232.44212741379687,476.0496715938391
753,7.051289815612307,-227.90370457271572,4.995071796073095,154.04399180223007,-22.904932985711266,428.9279285271839,227.93990017218286,470.2267484105051
754,7.873197293531582,-223.26202608464916,5.017271497774849,167.3761986907685,-14.509984605257898,417.54933358481645,223.27542919643724,465.141665914729
755,8.645820811670058,-218.51491545496788,4.969706189825867,180.02945984739574,-6.476831002510271,407.09187442484773,218.51193590613684,460.89707732879833
756,9.339201989196988,-213.72870558360773,4.865737318054809,191.92417674779293,1.1592832297446034,397.74452128543345,213.7160225181555,457.5681287967259
757,9.924261311932103,-208.97165667504225,4.718561783145021,202.97561275687295,8.378056231348713,389.6598452650495,208.95627172434487,455.2014554702651
758,10.37346109102067,-204.31253675142142,4.541029712633243,213.09680975177554,15.173444711098844,382.9524891970074,204.30182878001182,453.81508294980335
759,10.661439836879467,-199.81921821376437,4.345494152927184,222.2020090805686,21.552458839916625,377.6984790821706,199.8209950042102,453.39918488469294
760,10.765602243044677,-195.55731861877052,4.143688596138165,230.21040318392957,27.533520030881984,373.93534400998965,195.57986041049455,453.91761523005
761,10.66665066421663,-191.5889117270596,3.9466283034291045,237.05002386457625,33.14448002597751,371.6629959307296,191.64100129685178,455.3101065827262
762,10.349045972204616,-187.97133232899893,3.7645316547027505,242.66156414572666,38.42040590763645,370.84530784196045,188.0622663382322,457.49500631976946
763,9.801388011432575,-184.75609560387957,3.606758218432569,247.00193327867117,43.40123483120685,371.41232009919116,184.89567228030944,460.3724114080501
764,9.016708468599111,-181.9879490226209,3.4817608169459886,250.0473582100614,48.1293964862272,373.26299938003143,182.1864279174593,463.8275611316544
765,7.9926716041607655,-179.70407214888115,3.3970494334346015,251.79586841973762,52.64749271968396,376.26847268690676,179.97210270436676,467.7343539015463
766,6.731680717666046,-177.9334370661212,3.3591653576561495,252.26903262094754,56.996114300048326,380.2756588573882,178.28195400411207,471.9588682557508
767,5.240890273832148,-176.69633943770074,3.373664613993616,251.5128531033826,61.21186581496929,385.11122149878406,177.13642447573838,476.36278707725904
768,3.532125252319756,-176.00410728524733,3.4451104918796083,249.59776407284883,65.32566176476153,390.58576919676017,176.54681833385862,480.8066456361991
769,1.6217105147754778,-175.85899136359674,3.5770757514062765,246.61772192857293,69.36134984291085,396.4982304723776,176.51516208014024,485.1528460485571
770,-0.46978613994120316,-176.25423747413024,3.7721556093779576,242.6884161351142,73.33471038799611,402.64033172276197,177.03425176212065,489.26840126391784
771,-2.717892949563569,-177.17433721836744,4.031992809559514,237.94466769891594,77.25287289538792,408.8011061025308,178.0878848873823,493.0273894260144
772,-5.094650446313213,-178.5954496780081,4.357315875770039,232.5371169231441,81.11417998755623,414.77136027518424,179.6512709454599,496.31311359804357
773,-7.5690998199942,-180.48598252706103,4.747991007972548,226.62833172587105,84.90851514600031,420.34802489643704,181.69161028409496,499.01997206291344
774,-10.107837701031885,-182.80731736276573,5.203087117188382,220.38849103113486,88.61809206848206,425.3383144944251,184.1688270845674,501.0550507423503
775,-12.675630987259032,-185.51466082867478,5.720952472295019,213.99081352534677,92.21868093748073,429.56362386903754,187.03643863471788,502.3394520935676
