time,ax,ay,az,gx,gy,gz,accmagnitude,gccmagnitude
0,27.109454177527486,-257.920407696857,2.912599634935003,46.1977863947593,33.12307186074085,-0.4065305593068393,259.35789322474835,57.187745079815706
1,27.101539060932822,-257.8437583019092,3.0056193340564965,45.662474731257994,35.675145367272314,-2.433049665984349,259.28408115985934,58.96241617751606
2,27.09395836095346,-257.7741009155403,3.106292860829162,45.1174108387166,38.148766172620846,-4.435111579882247,259.21739415435457,60.67459546611225
3,27.087118667282972,-257.71166052002496,3.213323051980521,44.56533189230729,40.521772325279954,-6.399663361355712,259.15805667202756,62.309968572892664
4,27.081354632814502,-257.656568321685,3.3253380709065072,44.00831942660504,42.77286950598188,-8.313353688368352,259.1061909720226,63.85420702053125
5,27.076923485149603,-257.6088637903026,3.4409152198948214,43.447704707183405,44.88199450354892,-10.162658428784834,259.06181934932465,65.29313215239604
6,27.074000298075667,-257.5684959249123,3.558605231041355,42.88402027487724,46.83069351369433,-11.934045286108255,259.0248656905677,66.61293565091931
7,27.072673706745665,-257.53532315855136,3.6769569828896764,42.317002661715605,48.602509403458676,-13.61417904103663,258.9951557201966,67.80045813834424
8,27.072942150410444,-257.5091116531389,3.7945426439949106,41.74564785962272,50.18336922459321,-15.190166160653105,258.9724156945989,68.84352206304644
9,27.074711198924813,-257.48953224677837,3.90998322192422,41.16831761438273,51.561960715916506,-16.64983476121271,258.95626986148847,69.73130984737502
10,27.077792938228637,-257.4761568421712,4.021974454736421,40.58289139926094,52.73008445695466,-17.982043184859343,258.94623756901177,70.45477353174594
11,27.08190866082492,-257.4684554063202,4.129312903812211,39.98695623798625,53.68296687120787,-19.1770078827041,258.9417313146126,71.00705822515216
12,27.086696133699427,-257.46579489149667,4.230921924597692,39.378024497481846,54.41951865410291,-20.22663907856258,258.9420571609706,71.38391887096576
13,27.091722454935677,-257.46744125807095,4.325876907629303,38.75376835038034,54.94252365946181,-21.124871040820498,258.94641878397897,71.58410841035044
14,27.096503012529986,-257.47256542605385,4.413428904837112,38.11225876467288,55.25874494573559,-21.867972820763374,258.9539260073731,71.60971548446138
15,27.100526396366917,-257.48025350647674,4.493025630053798,37.4521966094452,55.378937502158756,-22.454824992918418,258.96360813208236,71.4664313199343
16,27.103284319130147,-257.4895211583859,4.564328932415853,36.7731237955183,55.31776088543557,-22.88714820159733,258.97443178321356,71.16372819167847
17,27.10430475497959,-257.4993314336445,4.6272281452164155,36.075603179923775,55.09358915309004,-23.169670184026433,258.9853224337789,70.71493544269488
18,27.103185824063143,-257.50861506604497,4.681849072170958,35.36135692418172,54.72821955020822,-23.310219449906377,258.99518829795306,70.13720288961854
19,27.099627689798506,-257.51629192375464,4.728558664323134,34.63335377940117,54.24648495363828,-23.319735978333398,259.0029450308542,69.4513450564443
20,27.09345999932351,-257.52129236405756,4.767965602225703,33.895836386017294,53.6757779170535,-23.21219212188873,259.0075397242684,68.68156291651054
21,27.084663087584904,-257.52257754773365,4.800916982614534,33.15428064566863,53.04549644155112,-23.004420292462044,259.0079730775925,67.85504303684563
22,27.073382078392164,-257.5191583476958,4.828491066593655,32.415281411250035,52.386423729395624,-22.71584778293215,259.00331928910526,67.00143791054784
23,27.059933934436994,-257.5101131525492,4.851985578784601,31.68636288037606,51.73005655337651,-22.368143020297502,258.9927439634288,66.1522364360685
24,27.044808209972143,-257.49460533011035,4.87290048909585,30.97571829853929,51.10789951792804,-21.984781319888047,258.9755208574774,65.34003994998407
25,27.02866257621834,-257.4719011489184,4.892913851572902,30.29189124640637,50.550744942751834,-21.590541403303366,258.9510483479838,64.5977661218387
26,27.012314137687763,-257.44138857533216,4.913849411573619,29.643418642669154,50.087959642779055,-21.210946181026568,258.91886612370087,63.957808993445234
27,26.996727322214717,-257.40259679426794,4.937635363007668,29.038462057759165,49.74679989364025,-20.871662415996227,258.8786720286474,63.45118704931431
28,26.982998901955014,-257.3552157823707,4.966254562831727,28.484457491791588,49.55177410536524,-20.597873986876472,258.8303384626377,63.106711459506826
29,26.972340591782913,-257.29911491089416,5.0016873624595775,27.987813378968248,49.524069355029575,-20.41364291642427,258.77392740252134,62.95020342501685
30,26.96605965773767,-257.23435935702105,5.045848910945448,27.55368191658693,49.68105353197493,-20.341271635218828,258.70970292344987,63.003783752566235
31,26.965537912756908,-257.1612229921356,5.100523405533695,27.185820359671794,50.035860331620135,-20.400679623075796,258.63813999738477,63.28525095121844
32,26.972209242252855,-257.0801963600382,5.167298297843481,26.886547936715896,50.597060697265036,-20.608807910747835,258.5599282779216,63.80755787269532
33,26.98753541196949,-256.99198838255813,5.2475017853369375,26.656792377722567,51.36842227214928,-20.97906590581695,258.47596957071266,64.57839222044268
34,27.01297954731187,-256.89752061419574,5.342146943609984,26.49620972257845,52.34875812294604,-21.520836286021147,258.3873678332881,65.59986337598
35,27.049976523174806,-256.79791327473276,5.451885574199576,26.40335384349256,53.53186699004308,-22.23905472723463,258.29541092947966,66.86829671657301
36,27.09989963856213,-256.6944628558487,5.576974315319785,26.37586912049715,54.90656882544272,-23.133881432062147,258.2015439284928,68.37413662797083
37,27.164023344168875,-256.58861167127765,5.7172549432426125,26.410681273997707,56.456840523745754,-24.20048042836317,258.10733433521756,70.10196046483463
38,27.243482391223043,-256.4819102286238,5.872150226224366,26.504166867203654,58.16205679184383,-25.428920318173088,258.0144301934981,72.03060733644872
39,27.339228508630995,-256.3759737862416,6.040676143023165,26.652290026390695,59.997339628497414,-26.80420668688919,257.92451255194595,74.13342707706177
40,27.451986452595087,-256.27243493668425,6.221470539823594,26.85070360499357,61.934016960952576,-28.306452018809804,257.83924432011355,76.37865523890707
41,27.582211797012153,-256.172894447578,6.412837259764585,27.09481942828902,63.94018714529815,-29.91118418256985,257.7602179652352,78.72991877285594
42,27.73005298827565,-256.0788727709877,6.612803605110661,27.3798569683623,65.98138207286487,-31.589789887196574,257.688904672001,81.14687414515525
43,27.895320008281676,-255.99176454275843,6.819188012536352,27.700881243207466,68.02131820730425,-33.31008534269671,257.6266074584648,83.58597544811406
44,28.07746164921247,-255.91279807133287,7.029674244461309,28.052839184712056,70.02272221927471,-35.03700278050857,257.57442036942075,86.00136521263377
45,28.275553004019844,-255.84300132590212,7.24188817731375,28.430599990916136,71.94821573159003,-36.73337837930884,257.5331953288466,88.34587547759276
46,28.488294262373145,-255.7831753156395,7.4534732668524,28.829000125955776,73.76124160671107,-38.36082434452206,257.5035175573896,90.57212131646182
47,28.714021247604745,-255.73387507917803,7.662161009480313,29.242888754257038,75.4270118952756,-39.88066533928897,257.4856897238374,92.63366355797304
48,28.95072748273792,-255.6953979250406,7.865833320424336,29.667165446295026,76.91345496433377,-41.25491717360888,257.4797243696615,94.48621210779368
49,29.196097100829302,-255.6677782276455,8.062574677277643,30.096799644816855,78.19213665378349,-42.44728365944889,257.4853437865832,96.08883650574927
50,29.447547600912618,-255.65078803911453,8.25071288658186,30.52682098126178,79.23912801712957,-43.42414591628658,257.50198647699256,97.40514671371604
51,29.702281160029983,-255.64394294399509,8.428848215361041,30.952271110198346,80.03579081800859,-44.15551735865438,257.5288194842758,98.40440521373647
52,29.95734289011469,-255.64651279187407,8.59587135971756,31.368111013116852,80.56945188902792,-44.6159373529909,257.56475606916837,99.06253168615383
53,30.209684130084515,-255.65753703463537,8.75097133219098,31.769082187311984,80.83393891165584,-44.78527722041173,257.6084782808479,99.36296386600934
54,30.4562286450806,-255.6758443624733,8.893634806380536,32.14952511101417,80.8299531524836,-44.64943383373479,257.6584639249717,99.29734237150473
55,30.693939496075032,-255.70007633242528,9.023638670800553,32.50316321062218,80.56525905316997,-44.20088837831449,257.71301742122574,98.86599294460704
56,30.91988435722881,-255.7287148500219,9.14103744308596,32.82286474282041,80.05467608280267,-43.43911084043168,257.77030420297143,98.0781862408221
57,31.131297171424116,-255.76011362491758,9.246146801064011,33.1003981827916,79.31986467082112,-42.370794465907686,257.8283885658976,96.95216275235545
58,31.325634208749317,-255.79253382805024,9.339523938849227,33.3261985917821,78.38890510456412,-41.00990879887567,257.8852749767965,95.51491839025535
59,31.500622828728325,-255.8241839242209,9.42194496031546,33.48916278461628,77.29567569907606,-39.37756486804609,257.9389526099493,93.80175435951108
60,31.65430157709457,-255.85326305750516,9.494379236779272,33.57648980670575,76.07904395448506,-37.50169144157902,257.9874423140867,91.85560283580674
61,31.78505069644172,-255.87800666063242,9.557960612998466,33.57358035210986,74.78189145595042,-35.41652679608154,258.0288445632089,89.72614724188949
62,31.89161269169651,-255.8967324271027,9.61395546608991,33.46400467670813,73.44999968344128,-33.161935941707775,258.06138648806245,87.468762410668
63,31.973103230543753,-255.90788461210494,9.663727789063229,33.2295438656941,72.13082948663306,-30.7825685619029,258.0834659975606,85.14330550201703
64,32.02901330852545,-255.91007484270526,9.70870163359348,32.8503046232589,70.87223155644095,-28.326877915438025,258.09369129800274,82.81279311752017
65,32.059204147514926,-255.90211809283673,9.75032145580296,32.304903587847825,69.72112859174268,-25.846025433629176,258.09091466418533,80.54200351487803
66,32.063896568755816,-255.8830630119724,9.79001121116852,31.57071394168252,68.7222118314395,-23.39269956535156,258.07425989231325,78.39604506826177
67,32.04365651747966,-255.85221623330165,9.8291333821914,30.62416503061593,67.91669506517287,-21.019880461813713,258.04314330578364,76.43893312335716
68,31.9993781175038,-255.80916057512366,9.868949393930283,29.441084871381374,67.3411680679339,-18.77958424438186,257.9972884476698,74.73221713573602
69,31.93226526526631,-255.75376718587273,9.910583045323353,27.997075616650367,67.02658854652964,-16.721621750261942,257.9367346943195,73.33369837904905
70,31.84381240624698,-255.68620167425215,9.954988659161756,26.26791294515901,66.9974470863035,-14.892406730257118,257.8618399770819,72.29627544574879
71,31.73578478339463,-255.606924153989,10.002925558754281,24.229961490445923,67.27113332362626,-13.33384744278856,257.7732776444676,71.66695014840082
72,31.610198138052013,-255.51668301347712,10.05494011297121,21.860599285538516,67.85752393424724,-12.0823534027302,257.6720273295939,71.48602028426
73,31.469297602152622,-255.416502188376,10.111355970514726,19.1386443344114,68.75880448007668,-11.167985674668861,257.55935960434664,71.78647825146102
74,31.315535348211004,-255.30766180693703,10.172272388397225,16.04477567827978,69.96952819297994,-10.61377462241248,257.4368142452265,72.59362610365577
75,31.1515464960867,-255.1916722889065,10.237569919676092,12.561940005737931,71.47690581079871,-10.435223631431834,257.3061721128777,73.92490884677771
76,30.980122850111417,-255.0702422927339,10.306922248353336,8.675733623451071,73.26131193142942,-10.64001123657767,257.16942094942635,75.78995918776427
77,30.80418418902758,-254.9452412569608,10.379812683166788,4.374749150032783,75.29698525282902,-11.227897513272977,257.02871575300264,78.19083898327884
78,30.626746916299584,-254.8186575422618,10.455553771655996,-0.3491229832446243,77.55289273023448,-12.190833717354055,256.8863346540923,81.12245554441326
79,30.450889878499165,-254.69255325318773,10.533308631538043,-5.50044621438932,79.99372138307643,-13.51326721469307,256.74463129266627,84.57312486845707
80,30.2797172142719,-254.56901671256824,10.612112807700424,-11.080047809745023,82.58095665671043,-15.172626979655853,256.605984600614,88.5252490098158
81,30.116318316448115,-254.45011335460836,10.690895657483876,-17.084888710705474,85.27400341513201,-17.13996857609019,256.4727467183157,92.95607149803239
82,29.963725310946568,-254.33783559267349,10.768500413932331,-23.50799119826962,88.0313051940173,-19.380751733535643,256.34718960543705,97.83847323858765
83,29.82486871719366,-254.2340521545426,10.843702194753584,-30.338418832883427,90.8114193059315,-21.855718697536524,256.2314508744297,103.14177177823863
84,29.702532068716152,-254.14045765190372,10.915223381214423,-37.56130049090721,93.57400939348146,-24.521838213107763,256.12747966230495,108.83248913993685
85,29.5993062909139,-254.05852382217145,10.98174605236313,-45.15788943234537,96.28072246979433,-27.333279436111283,256.03698403107524,114.87505763166196
86,29.517544656251108,-253.98945473198015,11.041921492447308,-53.10564983882209,98.89592386196085,-30.24238298595307,255.96138224493433,121.23243913769998
87,29.459319202784364,-253.93414887564705,11.09437706751954,-61.37836674954345,101.38727060814371,-33.20060213790735,255.9017609273094,127.86664116234796
88,29.42637959950549,-253.89317125215513,11.137720904087054,-69.94627933681275,103.72611174554568,-36.15939399230521,255.8588432637043,134.73912151693835
89,29.420115606989516,-253.86673811232185,11.170544844316229,-78.77624043150179,105.88771235921472,-39.071046546657826,255.83297004438867,141.81108188460345
90,29.44152458285899,-253.85471621443463,11.191426238034367,-87.83190640862011,107.85130678827747,-41.889432098356814,255.82409552881305,149.0436576857668
91,29.49118587453261,-253.85663721265877,11.198929363112399,-97.07396128980177,109.5999945691649,-44.57068043976355,255.83179896193943,156.3980174832071
92,29.569244199387196,-253.8717264361131,11.191607582911539,-106.46037811584365,111.12050023895499,-47.07376744189421,255.8553112605527,163.8353899202763
93,29.675403949680746,-253.89894413673164,11.168007532577766,-115.94672020643853,112.40282472050494,-49.36101648259141,255.89355521011,171.31704029345227
94,29.80893564981124,-253.93703649606198,11.126676495589676,-125.48648543583668,113.4398212108184,-51.398512280072694,255.9451966530128,178.80422252610614
95,29.96869473377253,-253.9845931459076,11.06617377704997,-135.0314982315288,114.22673178007427,-53.15642932770343,256.00870349779643,186.2581354536767
96,30.153151860010652,-254.04010743484125,10.985086586004424,-144.5323562973546,114.76072187763334,-54.60928015646335,256.08240875937514,193.63991458417433
97,30.36043348504919,-254.1020352282558,10.882050838289384,-153.93894130724385,115.0404484995585,-55.736091495438,256.1645733566781,200.91069122380603
98,30.588371296904043,-254.16884800122034,10.755777205268336,-163.2010039818704,115.06569401924006,-56.520518333450866,256.25344435891355,208.03174927785767
99,30.83455904266738,-254.23907658822034,10.60508245022226,-172.2688330027575,114.83709190934614,-56.95090647167196,256.34730495618703,214.9648054724085
100,31.09641510945453,-254.31134311972514,10.428925666472592,-181.094013363308,114.3559631786258,-57.0203134358851,256.44451354910063,221.67243084819717
101,31.37124901105472,-254.38438015862673,10.226448638519576,-189.63027277594108,113.62427382299033,-56.72649595057378,256.54353078049814,228.11862034469956
102,31.656329805635117,-254.45703756400306,9.997019190928691,-197.83440515363327,112.64471459282562,-56.071869977888674,256.6429348003649,234.26950394715763
103,31.948954457119108,-254.52827893032702,9.740275941656058,-205.66724914664533,111.4208955461439,-55.06344686287784,256.74142633900294,240.094178531336
104,32.24651426472179,-254.59717047921689,9.456172347967279,-213.0946887682379,109.95763965724325,-53.71274650396379,256.83782616991044,245.5656256832619
105,32.546557738781594,-254.6628660045279,9.145017495812215,-220.08863378095302,108.26135250674797,-52.03568576077563,256.93106826843507,250.66166878189898
106,32.84684867347136,-254.7245918695079,8.80751084466879,-226.62793100336862,106.34043914333823,-50.0524377367399,257.02019239679004,255.3659137804347
107,33.14541857142952,-254.78163605820635,8.444768075782445,-232.69915496010512,104.20573503085373,-47.78725546750974,257.1043398912077,259.66861347299414
108,33.440612889210634,-254.83334479603693,8.058335339074727,-238.29722776396298,101.8709159651837,-45.26825217992919,257.1827559836317,263.5673951832493
109,33.73113066664324,-254.87912921865427,7.650189687931462,-243.4258236385706,99.35285207109075,-42.52712976938885,257.25480098931916,267.06779667953884
110,34.01605689950043,-254.9184830577085,7.22272432666377,-248.09752239669473,96.67187330042276,-39.598847516376686,257.3199711939856,270.1835640220174
111,34.29488658598589,-254.95101056824365,6.778718278892567,-252.33368746443975,93.85191798659032,-36.5212243922811,257.3779285191656,272.9366769334378
112,34.56753895417141,-254.97646227572235,6.32129107654531,-256.16405662946363,90.92054166461067,-33.33447057691102,257.4285363834974,275.3570810466726
113,34.83436018503276,-254.99477487188332,5.853844039802156,-259.62604688840923,87.90877010287241,-30.080646731435202,257.471897938344,277.48212113428133
114,35.09611304642185,-255.0061109198157,5.3799905737642355,-262.7637882802389,84.85078773919862,-26.803052605020223,257.50839222513565,279.3556845746638
115,35.35395218161616,-255.01089393934382,4.90347850528506,-265.6269151095285,81.78345993352082,-23.545549276912002,257.53870376572087,281.0270792903614
116,35.609384298238055,-255.00983478504378,4.428107820900474,-268.26915570979065,78.74569433880295,-20.35182173550361,257.56384150148006,282.5496843630248
117,35.864213169605186,-255.00394582988744,3.9576473390663245,-270.74677258749557,75.77765331522403,-17.26459092952362,257.5851436759165,283.9794233541205
118,36.12047013384622,-254.99454021240794,3.4957538357800395,-273.1169119869985,72.919836092704,-14.324787361844589,257.6042660890855,285.3731188995466
119,36.38033151938208,-254.98321426585846,3.0458968209385735,-275.43592454656374,70.21205683715715,-11.570702041036819,257.6231520919852,286.7867916002451
120,36.64602503492412,-254.97181230271983,2.611291522748817,-277.75771651396656,67.6923530246147,-9.037135053590758,257.64398379846443,288.2739663843833
121,36.91972767344624,-254.96237426123682,2.1948418333684456,-280.1321846778643,65.39586689761776,-6.754566516004455,257.6691153627612,289.88404575394844
122,37.203458200976385,-254.9570682644709,1.79909420950774,-282.6037791814436,63.35374977897233,-4.748378184682128,257.70099075382257,291.66080244885904
123,37.498967854697014,-254.95811167208154,1.4262029762073882,-285.2102283555527,61.592142891723746,-3.038155574828643,257.74205003600053,293.6410351037773
124,37.80763336878223,-254.96768541302416,1.0779071374331515,-287.9814500295154,60.13128783228972,-1.637099547160421,257.79462942514044,295.8534205861149
125,38.13035680113518,-254.98784693426038,0.7555183612423155,-290.93866528938327,58.98481468624123,-0.5515730398855646,257.8608609884943,298.3175869042444
126,38.46747684162906,-255.02044683617868,0.45991904575465636,-294.0937236128653,58.15924658018117,0.2191964939494626,257.94257765042966,301.0434215189005
127,38.81869631475081,-255.06705348613914,0.1915685591463284,-297.44864271971073,57.653747358481226,0.6832445762433385,258.04122843544485,304.03062196822486
128,39.18303033594257,-255.12888909287545,-0.04948458654839218,-300.99536246696186,57.460125371273016,0.8558192798590835,258.1578080733889,307.2684893208091
129,39.558778918594165,-255.20678000614083,-0.26358655192674796,-304.71570997542057,57.563092411701895,0.7591513056127652,258.2928042991717,310.73596053599164
130,39.94352673176667,-255.30112315996564,-0.4514591764539791,-308.58157302325765,57.94076390407036,0.42204852796228226,258.4461651839835,314.4018735569032
131,40.334171278240504,-255.41186954606604,-0.614178561410801,-312.55528020576486,58.56537541491205,-0.12067645556362662,258.6172876015341,318.2254585776389
132,40.72697916591617,-255.53852458383156,-0.7531509809503414,-316.5901884160123,59.404181776181694,-0.8289337813416005,258.80502668387965,322.15704943405524
133,41.11766855554169,-255.68016439505854,-0.87008557416899,-320.63147941024005,60.42049853202851,-1.6582242856302136,259.0077250304332,326.13900906783454
134,41.50151445768871,-255.83546630975513,-0.9669632782107449,-324.61716623177296,61.574841052695966,-2.5606313610257847,259.2232595405632,330.10686123220904
135,41.87347250384606,-256.00275145323224,-1.0460015961017637,-328.479306285753,62.82611474094348,-3.4859175814273478,259.4491031018412,333.9906163782369
136,42.228316279965775,-256.18003706207674,-1.1096149060656704,-332.1454108978639,64.13281047960182,-4.3827035589712695,259.6823980740273,337.7162730957756
137,42.56078329851982,-256.3650962184247,-1.1603701300060016,-335.5400320279672,65.45416266016947,-5.19970230741514,259.9200385391022,341.20746835411853
138,42.865724967245995,-256.555522790689,-1.2009378231827417,-338.5864965388698,66.75123234586401,-5.886978332488208,260.1587584211007,344.3872410993638
139,43.13825608464162,-256.7487993126103,-1.234039210985247,-341.2087479255714,67.98788489358031,-6.397197992211843,260.3952225439929,347.17986529559886
140,43.373899198370246,-256.94236529690676,-1.2623903554879194,-343.3332454492135,69.13163920592464,-6.686837090748317,260.6261174269938,349.51270087581076
141,43.568718785151034,-257.1336832798747,-1.2886454094925297,-344.89086248459125,70.1543740059644,-6.717312859848142,260.84823835574696,351.3180053719468
142,43.71944012773413,-257.32029999347,-1.3153416862501985,-345.81872160280875,71.03288410135183,-6.456009446775783,261.05856935218003,352.5346469173679
143,43.82354830915899,-257.49990054010317,-1.3448498225215502,-346.06190533774134,71.74928543676714,-5.877167997433772,261.25435322590414,353.1096624024746
144,43.87936388324342,-257.67035416707586,-1.3793324147465982,-345.57498911690544,72.29127123201465,-4.962614392703125,261.433149786927,352.9996130725486
145,43.88609323539057,-257.82975102941197,-1.4207140694891258,-344.323354771945,72.6522229895501,-3.7023002665253566,261.592881318135,352.1717022204989
146,43.84385307063545,-257.97643011844605,-1.4706649108426082,-342.28425625081616,72.83118063291467,-2.094636738812311,261.7318654161514,350.60463301067085
147,43.75366956601131,-258.1089993185527,-1.530598438632592,-339.4476206020947,72.83267648837347,-0.14660551057736249,261.84883625983196,348.2891960931107
148,43.61745339749914,-258.2263493082932,-1.60168348487303,-335.8165753610262,72.66643870112053,2.1263617180059873,261.9429562100453,345.2285849879949
149,43.437952198613175,-258.327663609264,-1.6848690652860732,-331.4076981910947,72.34697099930507,4.700737618770524,262.01382026534617,341.43844224804894
150,43.21868222133741,-258.41242727671556,-1.7809202397081196,-326.2509871358159,71.89301743704306,7.545482351658635,262.06145610357623,336.946642179431
151,42.96384121411478,-258.48043632854683,-1.8904626541301481,-320.3895513890204,71.3269228925799,10.622843166483271,262.08632206938773,331.79281763861326
152,42.67820484795604,-258.531808992405,-2.0140332147024087,-313.8790239826131,70.6739026282496,13.889350924948369,262.08930450028356,326.0276399542245
153,42.367009333774725,-258.56699837774187,-2.152134374049973,-306.7866997231088,69.96123690985951,17.29698651514111,262.07171436839144,319.71186277161615
154,42.035823136149915,-258.58680458515556,-2.305289770237708,-299.1904045150703,69.21740918212406,20.79448265406351,262.03528167345513,312.9151429077849
155,41.690410968517874,-258.5923829601302,-2.474099269958209,-291.1771063784222,68.47120824166244,24.328719519868795,261.98214476912386,305.7146545164865
156,41.33659358139125,-258.5852444976232,-2.659291636320028,-282.8412843437028,67.75081601132548,27.846166705393497,261.91483115417896,298.193517300788
157,40.98010709533374,-258.5672443918081,-2.8617730345373706,-274.2830789729486,67.08290293155588,31.294320009233328,261.8362262747159,290.439065228971
158,40.626465622272704,-258.54055528516676,-3.08266949289404,-265.6062571121262,66.49175287852295,34.6230804638144,261.749527423258,282.54098900738944
159,40.28083063526874,-258.50762275960005,-3.323361361906038,-256.9160330389702,65.99843906088307,37.78602525637881,261.6581807427762,274.58939305696026
160,39.94789006928934,-258.4711019765558,-3.5855078584316296,-248.31679778327026,65.62007146180395,40.74152571378827,261.5658006107637,266.6728154283791
161,39.631749584163316,-258.4337760731735,-3.8710599531692353,-239.90981739097083,65.36913488043196,43.45367567461392,261.4760722705743,258.87626636754374
162,39.33583793019712,-258.3984587836648,-4.182260062724186,-231.7909684355282,65.25293437565568,45.89300349318089,261.3926403421528,251.27934728283623
163,39.06282798589197,-258.3678854713001,-4.521627179193071,-224.04858394969338,65.2731619556738,48.03695161837654,261.31898748562503,243.95451545783055
164,38.81457471648344,-258.344598039264,-4.89192627346729,-216.76148366651745,65.42559479953344,49.87011820494514,261.25830871589477,236.965559496527
165,38.59207096373631,-258.330829900222,-5.296121132884623,-209.99725776902537,65.69993131174992,51.38426490151335,261.2133875293698,230.36634498871567
166,38.39542167457394,-258.32839731072363,-5.737310284152504,-203.810862946277,66.07976715435845,52.57810357205505,261.1864801010501,224.19987904391368
167,38.223836996052796,-258.3386029614772,-6.218646358272825,-198.24357434910877,66.54270939547182,53.456882141124744,261.17921340108745,218.49772713218667
168,38.075644572879774,-258.3621568584624,-6.743240205000277,-193.32231882784828,67.06062338299554,54.03179582507969,261.19250226121886,213.27979782146178
169,37.94832122161087,-258.39911837803277,-7.314052176693808,-189.05939574557294,67.60000414583476,54.31925453019495,261.2264893108053,208.55449249332906
170,37.83854377657143,-258.4488620820646,-7.933774121486963,-185.45257373780746,68.1224621376697,54.3400400983198,261.28051042141715,204.3191998221255
171,37.742258276680154,-258.51006858095417,-8.604706594153356,-182.48553672874843,68.5853118350357,54.11838843386828,261.35308698091296,200.56110023192983
172,37.65476589605109,-258.5807405502258,-9.328636419954437,-180.128641471073,68.94225073949737,53.68103154303713,261.4419450873941,197.25823470739792
173,37.570823320349014,-258.65824299918665,-10.106719911783118,-178.3399423591565,69.1441153610019,53.05623346699889,261.54406069091004,194.38078568900377
174,37.48475479831168,-258.73936608085484,-10.939376814089643,-177.06643713369533,69.13969965007226,52.27285236249488,261.65572886130286,191.89251530069458
175,37.390572857616014,-258.8204081569685,-11.826199531458096,-176.2454886466299,68.8766202345633,51.359458867812116,261.77265476152735,189.75230735364133
176,37.28210459701012,-258.8972765075355,-12.765881388806735,-175.80638198782088,68.30221191543757,50.34353850853663,261.8900635640742,187.91576356031425
177,37.153120524688546,-258.965602911902,-13.756166614533402,-175.67198170913503,67.36443628141647,49.25080318660274,262.00282637264047,186.33681003343065
178,36.997463107173736,-259.02087115725624,-14.793823663068844,-175.76045937747622,66.01278593804439,48.10463358382568,262.10559903978395,184.9692762315576
179,36.80917249716883,-259.05855328919847,-15.874642610247209,-175.9870662423301,64.19916658356811,46.925670403835866,262.1929705462361,183.76841403147407
180,36.582607216510034,-259.07425125047473,-16.99345664556326,-176.26592881635077,61.878739008763816,45.731567657389014,262.259617454906,182.692328964489
181,36.31255773609607,-259.063840601292,-18.144186960318326,-176.5118465278269,59.01070325007323,44.53691567165882,262.3004609856642,181.70329878315675
182,35.99435091965454,-259.02361318117147,-19.319909487007934,-176.64207064223442,55.55900786824003,43.35333526759434,262.310823374919,180.76895679715477
183,35.62394336827988,-258.9504156114658,-20.512941104052363,-176.57804298018468,51.492968914814455,42.18973770987302,262.28658017424164,179.86331944094638
184,35.19800195574294,-258.84178033548284,-21.714942302642218,-176.24707221595415,46.7877857699879,41.052737717459635,262.2243049243935,178.96763989424494
185,34.713970245297155,-258.69604557263494,-22.917033045711147,-175.58392509065632,41.42494473871645,39.94719927345511,262.1214023420387,178.07107254887086
186,34.17011996257531,-258.5124603662875,-24.109918569263883,-174.53230971926956,35.39250593676959,38.8768866365392,261.9762260048595,177.17113658394817
187,33.56558727234083,-258.2912710075523,-25.284021988802298,-173.04622817315396,28.685274261527017,37.84518643849679,261.7881766790434,176.27397057817416
188,32.90039424286315,-258.0337854998363,-26.429620645702006,-171.09117571387654,21.304860686926048,36.85586169426557,261.5577778706751,175.3943738008408
189,32.17545641959283,-257.74241324176893,-27.536983195543947,-168.64516471942204,13.259645244092527,35.91379552553931,261.28672573475194,174.55563368084702
190,31.39257766516458,-257.42067767771687,-28.596504590070836,-165.69955279198018,4.56465730383236,35.02568183757923,260.97791105326485,173.78914313031805
191,30.55443329713615,-257.07320037103904,-29.59883634816517,-162.25965683855972,-4.758608340516092,34.200622282900625,260.63541166669904,173.13381589419697
192,29.664542198246263,-256.7056558514943,-30.53500979943059,-158.34513779919635,-14.682419889565184,33.45059345342014,260.2644545810578,172.63531261428795
193,28.72722817926404,-256.32469756791403,-31.396550269143212,-153.99014367719923,-25.173062228439345,32.79075489854341,259.87134789123326,172.34509434127148
194,27.747570607454435,-255.9378561674393,-32.17558044843302,-149.24320114300392,-36.191098546210114,32.239576581089054,259.4633835111503,172.31932329981564
195,26.731344297839822,-255.55341206490115,-32.864911487324264,-144.16684799032365,-47.69162543365012,31.81877296862857,259.0487124420948,172.61763245982274
196,25.684948926352007,-255.18024491899823,-33.4581206898679,-138.83700018049998,-59.62451051733891,31.553039403844824,258.63619500760456,173.30178581521668
197,24.615328644343148,-254.82766324174577,-33.94961511235197,-133.3420485202242,-71.9346054520641,31.4695942933405,258.23522917243423,174.43425053195466
198,23.5298829682761,-254.50521789642588,-34.33468089978287,-127.7816818499854,-84.56193086599039,31.597537994620858,257.8555606904587,176.07670098956496
199,22.43637028253989,-254.22250359163488,-34.60951879799255,-122.2654366953472,-97.44183355005893,31.967046314303428,257.50707927979397,178.2884740457611
200,21.34280543986924,-253.988952602022,-34.771266821374866,-116.91097813725362,-110.50511986134946,32.608423483160024,257.19960523491955,181.12499526641724
201,20.25735299903215,-253.8136249380686,-34.81801146846444,-111.84212327108874,-123.67817312081095,33.55104636431465,256.9426709465988,184.63619768440464
202,19.188217554655132,-253.70499926012846,-34.74878922854254,-107.18662675168272,-136.88306690545215,34.82223824816289,256.745301926898,188.8649578346458
203,18.14353231421599,-253.67076911674337,-34.56358050782747,-103.07375705455453,-150.03769063075566,36.446116461756304,256.61580226427475,193.84557806723595
204,17.13124656525601,-253.71764949787195,-34.26329849077301,-99.63170165430516,-163.05590850555825,38.442462646996894,256.56154987236005,199.6023489946799
205,16.15901206789847,-253.85119901117116,-33.84977572751445,-96.98484878300552,-175.84777734939513,40.825667416152584,256.5888072216628,206.14823077104205
206,15.234067900806707,-254.07566304918268,-33.325751382618044,-95.2510022824678,-188.31985226124996,43.603801712329144,256.7025533034968,213.48369605147116
207,14.363123084108697,-254.39384308953268,-32.6948621260565,-94.53859383988559,-200.3756111166296,46.77786523750866,256.90634236032184,221.59578030253826
208,13.552236503266869,-254.8069968128225,-31.961639465552548,-94.94396316558377,-211.91602886688963,50.34125757321208,257.2021944695491,230.4573860845898
209,12.80669423078401,-255.3147730604767,-31.131515641865732,-96.54878103729368,-222.84033025991465,54.27951011401145,257.5905223777131,240.02688655618385
210,12.130885174716663,-255.91518471691165,-30.21083891463447,-99.4176922069176,-233.04694469831634,58.570306873496136,258.07009795475307,250.24806943037441
211,11.528176924589479,-256.6046212963241,-29.20689731812142,-103.59625451130763,-242.43467955206378,63.18381003061786,258.6380601933974,261.050455792638
212,11.000794566074708,-257.3779014090799,-28.12794804619657,-109.10924667948865,-250.90411861089297,68.08329239203603,259.289964904989,272.35001857363795
213,10.549706044942932,-258.22836360746993,-26.98324775722414,-115.95940985266523,-258.35924083194413,73.22606449795317,260.0198744126807,284.0503131291178
214,10.174518490769831,-259.14799256376017,-25.783077453151108,-124.1266763817937,-264.70924144191116,78.56466959064917,260.82048383854413,296.044017416323
215,9.873390922985397,-260.12757617328714,-24.53875441421101,-133.56792378731595,-269.87052318820247,84.04830567365016,261.683279113618,308.21486186860903
216,9.642969966434492,-261.15688802526233,-23.262623179017698,-144.21727181854789,-273.76881066863746,89.62442099702511,262.5987206545198,320.4399096898394
217,9.47835638404303,-262.22488882429224,-21.968017795898614,-155.98691684174244,-276.3413259728248,95.24041827741767,263.5564458185194,332.5921277263613
218,9.373111019446137,-263.3199398655823,-20.66918844081283,-168.76847179917988,-277.53895027972567,100.84539477110445,264.54548283243406,344.54316762424395
219,9.319308712200373,-264.43002159862937,-19.381186948663064,-182.43475437151852,-277.32828469204395,106.3918409644868,265.55446890377624,356.16625853384414
220,9.30764757172637,-265.54295068363393,-18.11970785133197,-196.84194416462014,-275.6935158022252,111.8372209566618,266.57186568912397,367.33909868216494
221,9.327618612391035,-266.64658987735953,-16.900884081548117,-211.8320149571479,-272.6379888458885,117.14536306196999,267.58616633758857,377.9466264907435
222,9.367737416035782,-267.7290467296489,-15.74103936722904,-227.23534223184723,-268.1853953224472,122.28759958736562,268.5860900825383,387.8835548312555
223,9.415835591571037,-268.7788592990304,-14.656402259081396,-242.87338932114213,-262.3804935945178,127.2436090107621,269.56076267755907,397.05656512794786
224,9.45940565678438,-269.78516933216747,-13.662789528485943,-258.56138553791527,-255.2893000624829,132.00192994643737,270.4998832802445,405.38607980055286
225,9.48598878447291,-270.73788481768696,-12.775269206224182,-274.1109236806507,-246.99871350801538,136.56013227627042,271.39387989603955,412.80755873819203
226,9.483590913085283,-271.6278339510055,-12.00781561543624,-289.33241984411495,-237.6155632922789,140.92464531067816,272.234055630914,419.2722943683683
227,9.441109514385083,-272.4469112348498,-11.372970070610272,-304.03739465153933,-227.265099783415,145.11025547979816,273.0127266658668,424.7477075361159
228,9.34875140999919,-273.1882141066838,-10.881521084069256,-318.0405524614374,-216.08896943713654,149.1392971238609,273.7233504806808,429.21717143313475
229,9.19842172539,-273.84616590709146,-10.542216743813645,-331.1616545508815,-204.24273518243186,153.04056969466555,274.3606402124533,432.67941282459697
230,8.984065185973343,-274.4166189709354,-10.361519621932823,-343.22720284931427,-191.8930143223164,156.84802288194794,274.920658945263,435.1475580975665
231,8.70194312035987,-274.89693057126897,-10.343411649647024,-354.07196912869694,-179.2143113526291,160.5992572267475,275.4008866468567,436.6479041766226
232,8.35083254182037,-275.28600438271343,-10.489253325577463,-363.5404158948548,-166.3856230558215,164.33389106258375,275.8002524230875,437.21849827881084
233,7.932137497689336,-275.58429091352053,-10.797698793156336,-371.4880559093754,-153.5868896470663,168.09184494948332,276.1191256207821,436.90760399668056
234,7.44990736741085,-275.79374196618323,-11.264666172783771,-377.78278696297633,-140.99536079003207,171.91159265684755,276.35926105889746,435.772115378631
235,6.910761539273875,-275.9177166497937,-11.883361419202922,-382.3062206935995,-128.78194128944165,175.82842438026066,276.52369631227674,433.87595984625875
236,6.323724266251225,-275.96083959492216,-12.644353802922737,-384.9550045631108,-117.10758013104851,179.8727646475763,276.61660227553074,431.2885109001605
237,5.699976952027341,-275.928815418939,-13.535701356594208,-385.6421198184592,-106.11976913359443,184.068585423751,276.6430917445102,428.08301766649544
238,5.052537551564392,-275.82820675811126,-14.543124778342646,-384.2981282832222,-95.94922330058802,188.4319548329966,276.60899404703474,424.3350528235875
239,4.395878430691766,-275.66618595532987,-15.650228196734242,-380.8723373576325,-86.70682241794015,192.96976346067913,276.520606483391,420.12098278122636
240,3.745495127742252,-275.4502723604101,-16.83876493255075,-375.33385383423536,-78.48090044716521,197.6786722603072,276.38443511702275,415.51647143125246
241,3.117439104548754,-275.18806784565544,-18.088945888201767,-367.67250034765135,-71.33497380758546,202.54432697323995,276.20693797671464,410.595037666073
242,2.527827946226448,-274.8870025677942,-19.379787288363534,-357.8995710730885,-65.30600013192364,207.5408820608033,275.99428299687287,405.4266939530451
243,1.9923468121073098,-274.5541015137998,-20.689493155787485,-346.04840451365453,-60.40325438319879,212.6308714758542,275.75213133257034,400.0766968368814
244,1.525755338237091,-274.19578028479566,-21.995866313069747,-332.17475104420697,-56.60789858641439,217.76545400302487,275.4854543844931,394.6044402163543
245,1.1414144923077583,-273.81767615371,-23.276740026020537,-316.35691200119265,-53.87330450327992,222.88504801827537,275.19839021657185,389.06251936148084
246,0.8508478776406883,-273.4245179494801,-24.51042071158272,-298.69562586064046,-52.12616553299234,227.92035569755438,274.8941423187012,383.4959886547995
247,0.6633515757973182,-273.02003613004575,-25.67613055147508,-279.31367542181255,-51.26840575293396,232.79376158829,274.5749212280226,377.9418294882264
248,0.5856657497574761,-272.6069128300355,-26.754437683384804,-258.3551883256031,-51.17986174560457,237.42107633443288,274.2419277284092,372.4286372498234
249,0.6217197856953459,-272.1867707529812,-27.72766122520925,-235.98460298720212,-51.721678679533305,241.71358363724218,273.89537528568917,366.97652872632364
250,0.7724606245730268,-271.7601992175852,-28.580238914198056,-212.38527485204,-52.740328403048096,245.58033689945088,273.534548773923,361.5972642372706
251,1.0357711151433426,-271.32681508644123,-29.299046564859378,-187.75770509529414,-54.07212655060111,248.93064099109972,273.15789603967437,356.29457268646195
252,1.406481823197115,-270.8853556013524,-29.87366060948631,-162.31738582921335,-55.54810013740603,251.67664432679427,272.7631483147141,351.0646624554077
253,1.8764760282984299,-270.433799497235,-30.296557328942786,-136.29227193907758,-56.99903875515573,253.73595787085034,272.3474650544416,345.8968966829711
254,2.434883995935113,-269.9695123503753,-30.563244681084974,-109.91990837942888,-58.26055273598057,255.03421205738698,271.9075985839683,340.7746080545048
255,3.0683593463587524,-269.4894119438217,-30.67232465520768,-83.44426096130111,-59.17796132894904,255.5074609623482,271.440073945929,335.67602575981226
256,3.7614276328109533,-268.9901493546746,-30.625485760165066,-57.11231579174275,-59.6108429834827,255.104345934318,270.94137940373685,330.57528569997953
257,4.496895127067943,-268.4683013123823,-30.4274267489169,-31.170525315324372,-59.43709729619732,253.78793837909205,270.4081630084934,325.44349441862835
258,5.256304202433057,-267.9205690634635,-30.085714201030843,-5.861186117569839,-58.55639235339784,251.5371932508103,269.83743043481707,320.24981799814367
259,6.020420484717128,-267.3439785109327,-29.610578133845745,18.58116468279273,-56.892899983726544,248.3479604324645,269.2267389382206,314.962569763729
260,6.7697360753100595,-266.7360757877769,-29.014651236773148,41.933250655342825,-54.39725262295514,244.233519583557,268.57438177898166,309.5502751364465
261,7.4849727055557045,-266.09511170806945,-28.312658552382533,63.98637777349009,-51.047686964332094,239.2246237954565,267.87955682389867,303.9826977231338
262,8.14756872610388,-265.4202078382082,-27.521065514141338,84.54950879674328,-46.850369424198576,233.36905692697556,267.14251240871045,298.23181652182865
263,8.740134378832208,-264.7114964257472,-26.657693165329498,103.45203323857972,-41.83892529650747,226.73072729969005,266.36466310313546,292.27274864823363
264,9.246860906674502,-263.9702263201801,-25.741309994826484,120.5461866172649,-36.07321665238266,219.38833541565435,265.5486679674733,286.0846142459267
265,9.65387090127248,-263.1988275458518,-24.791210138637332,135.70908197009382,-29.6374335332827,211.43366497288505,264.6984644648949,279.65133967758624
266,9.949499964249274,-262.40092849711607,-23.826787912231946,148.84432325892152,-22.63757892419379,202.96955469136907,263.8192525826562,272.9623916269771
267,10.124503120148729,-261.58132179396665,-22.86711886713592,159.88317412887082,-15.198440308521565,194.10761371097283,262.91742590303403,266.0134288316551
268,10.172183172561704,-260.7458774993319,-21.930557640051067,168.78525746037803,-7.460149005958631,184.96574611371935,262.00044916172124,258.8068508407193
269,10.088442027583602,-259.90140546481956,-21.03436252005159,175.53876298120613,0.4255673084354942,175.6655509111808,261.07668500659275,251.3522159221501
270,9.871759592141363,-259.055471837538,-20.194355760367404,180.16014379176045,8.299333503102561,166.3296629561296,260.15517599175934,243.66649479408449
271,9.52310783893144,-258.2161779607077,-19.424627220597113,182.69328978269905,15.9981756067578,157.07909799114296,259.2453910295409,235.77412512409487
272,9.045809745274545,-257.3919126712937,-18.737287068531895,183.20817791423664,23.359573911637447,148.03066174866217,258.35694821172746,227.70683538127128
273,8.445353979149921,-256.5910909416055,-18.1422712160004,181.7990165891851,30.225433416049018,139.29447889118993,257.4993277193347,219.50321640493095
274,7.729176494733077,-255.82189264352797,-17.64720116203612,178.5819230283313,36.44589304323204,130.97169267623977,256.6815892071938,211.20803437995255
275,6.906419712288731,-255.0920148340233,-17.257298192228465,173.6921965585574,41.8829032666699,123.1523805000886,255.9121075012449,202.8712978529906
276,5.987678782140893,-254.40844939400222,-16.97535060676203,167.281274080189,46.41350902251752,115.91372398790347,255.19833872678416,194.54711116163097
277,4.9847427124742465,-253.77729521009257,-16.80173186104622,159.51347336982346,49.93278091487619,109.31846545332625,254.54662621466375,186.2923641281079
278,3.910336129357492,-253.20361065728017,-16.734467034228928,150.56264231035198,52.35634286677809,103.41367607077005,253.96205199106788,178.1653205554638
279,2.7778654715532287,-252.69130845432207,-16.769344638660858,140.60883559732392,53.622448955088025,98.22985565142079,253.4483358664402,170.2241744570499
280,1.6011717942147858,-252.24309164049592,-16.900070297365573,129.83513418209407,53.69356682615216,93.78037953196039,253.00778070944912,162.52564265190964
281,0.3942911944562493,-251.86042685441654,-17.118458211249738,118.42470719679604,52.55743064765555,90.06130407017025,252.64125981331267,155.1236559744551
282,-0.828776795309888,-251.54354935629323,-17.41465562249332,106.5581931925487,50.227533930358184,87.05153767015479,252.3482404077594,148.06820048852558
283,-2.05429261345973,-251.29149327494804,-17.777394716198707,94.4114501585566,46.74304247851012,84.71337855611692,252.12683629452084,141.40434708520607
284,-3.2689911401982696,-251.1021403667804,-18.19426571250614,82.15369534775785,42.16812040365976,82.9934135058079,251.97388228066188,135.17149486022242
285,-4.460285468424816,-250.97228110963616,-18.652004433163896,69.94602933257983,36.59067715042861,81.82376347000454,251.8850235237873,129.40284196901567
286,-5.616456905444454,-250.89768308401278,-19.136787470408432,57.94031594650468,30.12055996781947,81.12365268201859,251.8548139550754,124.12508751839219
287,-6.726826880744089,-250.87316312100901,-19.634528174633477,46.278371949801716,22.887233113654897,80.80126813577822,251.8768194112044,119.35835921693611
288,-7.7819054857559875,-250.8926614343081,-20.131166855217963,35.09140786116556,15.037001154922736,80.7558671662721,251.94372279132793,115.11635361609494
289,-8.773510844684392,-250.94931774482546,-20.612948862930978,24.49965440566927,6.729847998821096,80.88008323733429,252.04743030869372,111.4066685271384
290,-9.694853471017833,-251.0355511117627,-21.06668475907287,14.61210708256665,-1.8640250446980768,81.06237442136553,252.17917960858324,108.23130037857095
291,-10.540580364821826,-251.14314666787956,-21.479987590188838,5.526323988490055,-10.567870405516217,81.18955550481839,252.32965205565594,105.58727291465769
292,-11.30677506741009,-251.26335356959007,-21.84148319117859,-2.671781116349337,-19.202178038589395,81.14935310113722,252.48909271084338,103.46735821006305
293,-11.990912235925224,-251.38699904131724,-22.140990350998216,-9.908197757909411,-27.588474468155653,80.83292352521413,252.64744225611688,101.86084729967234
294,-12.591768196050474,-251.50462329121856,-22.369668696906132,-16.121162910349582,-35.553042887843645,80.1372752853489,252.79448525571493,100.75432648032994
295,-13.109291802480229,-251.60663932203548,-22.52013330167356,-21.261607268291897,-42.93047687151504,78.96754154000153,252.92001865069372,100.13241674575221
296,-13.544442311435883,-251.68352041226157,-22.58653608723951,-25.29370337104706,-49.56698972753718,77.23905243817606,253.01404337257893,99.97843765942554
297,-13.899002708593853,-251.7260164642051,-22.564614882655814,-28.195498569463403,-55.32341263677336,74.87916274809179,253.06698056544894,100.27496284869345
298,-14.175378143831136,-251.72539859745967,-22.451711527343296,-29.95960036874937,-60.07782636838178,71.82879646410252,253.06991222297336,101.0042417200431
299,-14.376389920526496,-251.67372931465013,-22.246760889356914,-30.593868106082734,-63.72778267168572,68.04367699260997,253.01484410868804,102.1484703761017
300,-14.505075889265155,-251.56415319919736,-21.950253200155174,-30.122053730758548,-66.19208179928675,63.495218850848055,252.8949865628415,103.68990349530165
301,-14.564508026367056,-251.39120034374164,-21.56417262046369,-28.584326174902607,-67.41208177443865,58.17106440479984,252.70504611762766,105.6108076929561
302,-14.55763731292003,-251.15109170708214,-21.09191531946529,-26.0376089471185,-67.35252306658235,52.075256874023395,252.44151787977552,107.893265367812
303,-14.48717466432149,-250.8420328336132,-20.538190520471037,-22.55565951955206,-66.00185966164426,45.228048449159154,252.10296586079315,110.51884610994574
304,-14.355514565019757,-250.46448038019355,-19.90890797583879,-18.22882202412923,-63.372094642220596,37.66534974383946,251.69027638041874,113.46817035401791
305,-14.164705314378415,-250.02136495169228,-19.211055233092534,-13.163391969909686,-59.498125860817325,29.43783400935333,251.2068686179837,116.72039722588873
306,-13.916466577282549,-249.51825381969235,-18.45256783077901,-7.480543476222101,-54.43661551717528,20.60971694633814,250.65884631938738,120.25267568521723
307,-13.61225153450243,-248.96343806988813,-17.642195123186294,-1.3147859932649673,-48.264406652601885,11.257240940641681,250.05507546855142,124.03960507443202
308,-13.253347622219055,-248.36793056301516,-16.78936369678753,5.188061774781593,-41.076519674552266,1.4669011073891847,249.40717437547468,128.0527573247566
309,-12.841006857134218,-247.74536387987888,-15.904039395462211,11.873368852003233,-32.98377265840723,-8.66654091147796,248.72940520985682,132.26031698705634
310,-12.376594273371014,-247.11178121600935,-14.99658809336369,18.580621363509067,-24.11007979571742,-19.042201665890662,248.0384596090413,136.62689535306586
311,-11.861741334536255,-246.48531791404608,-14.077634810316814,25.14671800372625,-14.58949236376793,-29.555319032770225,247.35313556101133,141.1135696095143
312,-11.298490662993077,-245.88577674217402,-13.157920623627383,31.409538310495467,-4.563055367863166,-40.099529183361845,246.69390810243226,145.67818575093457
313,-10.689419295341407,-245.334105822924,-12.248157005641525,37.21166679772428,5.824440018331757,-50.56911068160367,246.08240217331937,150.27594422743323
314,-10.03772995520738,-244.85179386789045,-11.358877628236149,42.40413823873561,16.4277233411241,-60.861129795631264,245.5407818212705,154.86026145992923
315,-9.347303284143234,-244.4602025825544,-10.500288338244422,46.85005939045635,27.10424381397104,-70.87742514309626,245.0910753448347,159.38387232589025
316,-8.622708088673534,-244.17986034727176,-9.682116970493459,50.427961015398196,37.717213789849026,-80.52637696693687,244.75446045399943,163.80011340280913
317,-7.869170803923309,-244.02974432688097,-8.913465860681905,53.03474105678942,48.13841075215677,-89.72441601190597,244.5505368252466,168.06430787761067
318,-7.092508932087498,-244.0265799464768,-8.202671114487808,54.58807460901957,58.25065510598099,-98.39723825931291,244.49661541682497,172.1351622958935
319,-6.299035726173696,-244.18418720645326,-7.5571735954458115,55.028188207808874,67.94988668263215,-106.48070387138203,244.60705456181887,175.9760831182903
320,-5.495444600720774,-244.51290259139444,-6.983406985321191,54.318924226229534,77.14677193484945,-113.92141099244002,244.89267215938554,179.55632725621894
321,-4.688681728182945,-245.01910324032474,-6.486707982848033,52.44805457390662,85.7677875318664,-120.67694713982372,245.3602611385447,182.85191488883336
322,-3.885814428309943,-245.70485642407502,-6.071252625595725,49.42683919067845,93.75574539841331,-126.71583251901069,246.01223163692643,185.84625376607903
323,-3.0939017435696288,-246.56771220983194,-5.740020829985567,45.28886071894519,101.06974924595978,-132.01718044736327,246.84639804006952,188.53044980699164
324,-2.319872248309219,-247.60065075002683,-5.494788696104943,40.08819864711887,107.68460190006815,-136.57010976540008,247.8559224529632,190.90330611972823
325,-1.5704127008816378,-248.79218839926185,-5.336145290178309,33.89703137055502,113.58971320446486,-140.37295209233557,249.02941882284537,192.9710381093732
326,-0.8518696781995109,-250.12663942062517,-5.2635281437804675,26.802772000255324,118.78758606357903,-143.43230241640543,250.35121439201237,194.74675285381502
327,-0.170164994835608,-251.58452294025,-5.275270383671583,18.904854275606738,123.29197963759252,-145.76196424277322,251.8017579919727,196.2497541022449
328,0.4692753232143367,-253.1430984710952,-5.368652742131407,10.311290644696966,127.12586135662082,-147.38184004534057,253.35815833060298,197.50473900216278
329,1.0615793859994123,-254.77700803547089,-5.539955593499341,1.1351273287576094,130.3192623040753,-148.31681422031872,254.99483015505007,198.5409491177569
330,1.6024762748456107,-256.45899884945214,-5.7845090461068045,-8.509078249858469,132.90714417989778,-148.59566977762609,256.68422216224826,199.39132772191584
331,2.088332579470239,-258.16069782234393,-6.096742334450239,-18.50863433243309,134.92737234557492,-148.25007268968747,258.3975978870185,200.09171999314182
332,2.516179797924753,-259.85340785892834,-6.470236749921819,-28.755828353979112,136.4188710296773,-147.31365033888187,260.1058395904307,200.68013558870928
333,2.8837336886827085,-261.5088961183775,-6.897788655010642,-39.15067010236201,137.42001641358704,-145.82118388227224,261.7802453669591,201.19607720272768
334,3.1894065225837713,-263.1001458548359,-7.371490381286695,-49.60317380395876,137.96730336715686,-143.8079291435202,263.3932911520759,201.6799267657963
335,3.4323128278735675,-264.6020460730268,-7.882836762357526,-60.0351106774298,138.09430368828018,-141.30907676954143,264.9193318773249,202.17237446167155
336,3.612268556621252,-265.9919968279596,-8.422863533780685,-70.38119080024836,137.8309186937362,-138.35935919842322,266.33521954828865,202.71387492027995
337,3.729782677246823,-267.2504124428788,-8.982320894638452,-80.58966352045627,137.20291720850003,-134.9928085896433,267.62082038443026,203.3441187370054
338,3.7860392581121243,-268.3611100329143,-9.551881666653681,-90.62235629456963,136.23174135679963,-131.24266559405402,268.7594181844763,204.10151404136138
339,3.7828675527844298,-269.31157623592674,-10.122379541606682,-100.45419964775625,134.934556766622,-127.14143345748278,269.7379965057868,205.0226801443575
340,3.7226977406186093,-270.0931106987697,-10.68506954129289,-110.07230821955986,133.32452026396356,-122.72106561355824,270.5473978076663,206.14196144358786
341,3.6085007207760444,-270.7008504755939,-11.231900175062894,-119.47470279333831,131.4112360229018,-118.0132679933821,271.18236323395615,207.49097333340646
342,3.4437113394414567,-271.1336848336462,-11.755784765623256,-128.6687652592708,129.20136964877574,-113.04989018049127,271.6414619669568,209.09819214420943
343,3.232135509073965,-271.39407455151934,-12.250858142957588,-137.6695181611114,126.69938832673103,-107.86337271077642,271.92692360588575,210.98859818443634
344,2.977843036746844,-271.48779308931717,-12.712704653931617,-146.49781392230088,123.90839394892141,-102.4872118440851,272.0443902838155,213.18337547372343
345,2.68504976128659,-271.42360872496914,-13.138544189325339,-155.1785072781647,120.83101538573463,-96.95639886721348,272.0026069607544,215.699664837782
346,2.3579946762813564,-271.2129269093075,-13.527364373593644,-163.73866917856665,117.47032620971319,-91.30778945024183,271.8130685332961,218.55035994084193
347,2.000819717045761,-270.8694108568753,-13.879988970408448,-172.20588295909607,113.83075539954433,-85.58036060257122,271.48964123734004,221.74392963828467
348,1.6174613681737242,-270.408595948013,-14.199074965913855,-180.60664562209115,109.91896067353953,-79.81531857377755,271.04817347952275,225.28424541254498
349,1.211563909786011,-269.84751010718725,-14.489033870560915,-188.96488062361348,105.74463670675391,-74.05603007162647,270.5061079666065,229.17039001839012
350,0.7864238984476385,-269.2043082870895,-14.755876664813647,-197.3005559334372,101.32123310404666,-68.34776040472809,269.882103177015,233.3964233923484
351,0.34497433878755085,-268.49792498921585,-15.006986396197231,-205.62839463167782,96.66655931625216,-62.737214544457856,269.1956683031873,237.9510853936139
352,-0.11018523285853049,-267.7477449276297,-15.250827204561157,-213.95666653612594,91.80325568926742,-57.27188980403993,268.4668122951666,242.81742317406443
353,-0.5767100215896398,-266.9732889855715,-15.496602777608297,-222.2860584877793,86.75911182396408,-51.999261206013124,267.7157049913296,247.97234440774483
354,-1.0523844430426441,-266.193910805385,-15.753880371525893,-230.60863647498184,81.5672158056161,-46.965832029464565,266.9623467642557,253.38611547629955
355,-1.5349567244400328,-265.42849876602077,-16.0321983846576,-238.90693201076954,76.2659209367064,-42.216091807753784,266.2262426890204,259.02184397057636
356,-2.0219455233177914,-264.6951787718038,-16.340676096614185,-247.15320469170325,70.89862055332334,-37.79143149099733,265.52607798281167,264.83500467036083
357,-2.5104346313226547,-264.0110152074691,-16.68764369497739,-255.30894907252392,65.51332653035017,-33.729069996178566,264.8793933753369,270.77308437486295
358,-2.9968746680312064,-263.3917104272053,-17.08030917166202,-263.3247235469987,60.16205352796457,-30.06104751054667,264.3022619728032,276.77543070139507
359,-3.4769117103085665,-262.85130680776956,-17.524476115976945,-271.1403792155401,54.90001923680186,-26.81333846602087,263.8089726538104,282.7733910802202
360,-3.9452618902428194,-262.4018991292871,-18.024323027020547,-278.6857562889441,49.784680773392886,-24.005131039837575,263.41172852931356,288.6908194476113
361,-4.395648295155085,-262.053368258607,-18.58225089610901,-285.88189438949223,44.87463811277353,-21.64831051652132,263.12037195082803,294.44500939555616
362,-4.820812351780418,-261.81314930129383,-19.19880194684922,-292.64277265895873,40.228445404593096,-19.747171268168586,262.9421494931921,299.94808469036184
363,-5.2126066353353115,-261.68604826849236,-19.87264896691542,-298.8775588523646,35.90337831507217,-18.29836730579357,262.8815309981972,305.10884334160636
364,-5.562170076740245,-261.6741207949325,-20.600651863244494,-304.49330772760896,31.954208714324444,-17.29109574937269,262.9400960712132,309.8350133608739
365,-5.860180258173638,-261.7766245218562,-21.37797595743804,-309.3980126033506,28.432036604759872,-16.707493053091714,263.11649934515674,314.03584146412453
366,-6.097171388360972,-261.9900533941295,-22.19826493617988,-313.50388401106585,25.383223774982405,-16.523212304285252,263.40652231376004,317.62490464806217
367,-6.263901230247236,-262.3082574919579,-23.053860048107566,-316.73070869127014,22.84846557980389,-16.708142742457547,263.8032147441752,320.5230121299367
368,-6.351746306545658,-262.7226466708552,-23.936056028412093,-319.00913195332384,20.86202782380221,-17.227230290703595,264.29712315224117,322.6610532176535
369,-6.353102511713,-263.22247090531545,-24.83538347642753,-320.28370637833206,19.45116582267164,-18.04135990421814,264.8765982759187,323.9826452571167
370,-6.261767861569173,-263.79516533314563,-25.741907155814935,-320.51555885993434,18.635732715039136,-19.108265720154808,265.5281684628229,324.44644377085217
371,-6.073285344536967,-264.42674390215626,-26.645529896651404,-319.68454471661977,18.427974272739707,-20.38344178224591,266.23696174403045,324.0279928060104
372,-5.785226464257774,-265.10222250251906,-27.536292255667437,-317.7907810048734,18.83249838438953,-21.821033138302084,266.98715637149127,322.7210161299886
373,-5.397399799224903,-265.80605081154266,-28.404658640351826,-314.8554803447732,19.846400045049002,-23.374693551018748,267.76243801807226,320.5380782676962
374,-4.911973418845482,-266.52253206504463,-29.241781189632338,-310.92104034815287,21.459518146097412,-24.99840159840977,268.5464419435103,317.51057723274613
375,-4.3335049592915995,-267.23621175278595,-30.03973346479818,-306.0503801712035,23.65479926055308,-26.647231428413164,269.3231603639948,313.6880662194903
376,-3.6688782880349757,-267.93221968197844,-30.7917070911347,-300.32555223693856,26.408745771811134,-28.27807771020155,270.0772988935043,309.13693691971383
377,-2.927150711001314,-268.5965545811349,-31.492165913047536,-293.845691159922,29.691930073479483,-29.85033619849834,270.79457085595715,303.938529818341
378,-2.119319342342553,-269.21630590797105,-32.13695386222358,-286.72439107552043,33.469561647383266,-31.3265416418949,271.4619239558171,298.1867644135263
379,-1.2580192919503619,-269.77981311229087,-32.723354442047174,-279.0866250974204,37.70209803333317,-32.67296348808872,272.06769955179846,291.9854028323939
380,-0.3571694422807157,-270.2767675199309,-33.250101368781486,-271.0653352069864,42.3458928302263,-33.86015714322391,272.601729822704,285.4450723748807
381,0.568416476331238,-270.6982656461224,-33.7173413688372,-262.7978269607714,47.35387338783615,-34.86346487244312,273.0553818409283,278.6801755299756
382,1.503435165332837,-271.03682491456124,-34.12655138218068,-254.42210126386118,52.67623807228032,-35.66345645058355,273.42155978616825,271.8058103286047
383,2.432497626001052,-271.286373583127,-34.48041356699655,-246.07324610819936,58.261158960066574,-36.246296112974704,273.6946774006123,264.9348107477186
384,3.340515461216403,-271.4422263729982,-34.78265267981627,-237.87999624608457,64.05547198501675,-36.60401984139786,273.8706125580807,258.1749982349953
385,4.2130559262405685,-271.5010560193454,-35.03784161683298,-229.96155041279607,70.00533434294613,-36.73470600241117,273.9466546609595,251.62671388078655
386,5.036655151827244,-271.46086884407754,-35.25118198936174,-222.42471635655681,76.05682930457054,-36.642523110590744,273.921453607489,245.38067918928328
387,5.799082372767818,-271.32098972157644,-35.428267452955616,-215.36143580386982,82.15650172900158,-36.33764112979532,273.79497649094327,239.5162143043107
388,6.489551349126282,-271.0820588712117,-35.57483815234986,-208.84672609613108,88.25181301760855,-35.83599721467245,273.56847539526655,234.09982747461885
389,7.098878205191117,-270.746040272742,-35.69653514188573,-202.93706308534124,94.29151100775549,-35.15891293001359,273.24446713819947,229.18417879848644
390,7.61958746067658,-270.31623949514056,-35.79866391478326,-197.669220540088,100.22591721351365,-34.33256733381342,272.82672389351666,224.80741407927655
391,8.045969994704379,-269.7973273414795,-35.8859760380193,-193.0595738443587,106.00713988597555,-33.387338149754676,272.3202722551282,220.99285962175543
392,8.374098096522117,-269.19536476272935,-35.96247721579947,-189.103869264889,111.58922599431249,-32.35703062666616,271.73139729404016,217.74906476819942
393,8.601803719827041,-268.5178239058886,-36.03126896206255,-185.7774539894062,116.92826825219649,-31.278019595242778,271.06764744188695,215.0701751798389
394,8.728626571784769,-267.77359998482206,-36.09442967948405,-183.03595636121386,121.98248493798074,-30.188333963493942,270.33783568851925,212.9366161692766
395,8.7557386254665,-266.97300892861284,-36.15293951919959,-180.8164002870828,126.712290948752,-29.126714230881166,269.5520326598941,211.31606203977822
396,8.685851040625858,-266.1277664130949,-36.206651970210736,-179.0387326058457,131.08037875823666,-28.131672875334832,268.7215475912904,210.16466466348527
397,8.523108502772876,-265.25094476785694,-36.25431363721577,-177.6077370049487,135.05182788387958,-27.240585295564397,267.8588938783916,209.4285124099676
398,8.27297485546033,-264.35690519632846,-36.29363208204443,-176.41530254796058,138.5942608860109,-26.488835929005415,266.97773659999876,209.0452887001993
399,7.9421127088041965,-263.4612036550224,-36.321389961521156,-175.34300887712794,141.67806238982055,-25.90904054289184,266.0928200716614,208.94609752794713
400,7.538258544570582,-262.5804696067913,-36.333602033922446,-174.2649837120007,144.27667476793619,-25.530361686341617,265.219874112601,209.0574209975299
401,7.070093855446144,-261.73225766078923,-36.32570996522092,-173.0509814993977,146.36697983423727,-25.377930039079907,264.37549826544085,209.30317119639855
402,6.547112199181171,-260.93487273437336,-36.292808295607905,-171.56962520164439,147.92977036670837,-25.472380108020527,263.57702360495557,209.60679571287085
403,5.979481766303015,-260.2071697298641,-36.2298934633791,-169.69174661609017,148.95030888223462,-25.829504750586903,262.84235192527524,209.89339321570534
404,5.377903105124526,-259.56832882358856,-36.132126489155795,-167.29375481981396,149.4189642624775,-26.46002977395731,262.1897720243881,210.09179326019407
405,4.753461977509872,-259.0376074550332,-35.99509900500308,-164.26095793128854,149.3319099837527,-27.369507686200716,261.6377526775342,210.1365534276665
406,4.117477991979038,-258.63407018901154,-35.815092105042154,-160.49076091412178,148.69186119414172,-28.558328557095667,261.20471196638414,209.96982747490756
407,3.48135069385639,-258.37629799791773,-35.589318212474275,-155.89566180682365,147.50882202804584,-30.021845558069895,260.90876313669474,209.54306046102678
408,2.8564058917934014,-258.28207933811154,-35.31613764624311,-150.4059701743063,145.80080968143326,-31.750612617219556,260.76743822453676,208.81847047071264
409,2.253745666848331,-258.3680867469337,-34.99524336503538,-143.97217394732695,143.59451825896764,-33.73073133301567,260.797392306509,207.77028091057946
410,1.6841054822947574,-258.6495444184315,-34.62780907803549,-136.56688343284998,140.92588357777768,-35.94430357527163,261.01409318253775,206.38567182795407
411,1.157721230838387,-259.1398939908244,-34.21659746931247,-128.18628411726556,137.84051009393957,-38.36998486095634,261.4315032561048,204.66542309036808
412,0.6842082273844442,-259.850467253256,-33.76602675480949,-118.85103391242528,134.39392269658407,-40.98363138296413,262.0617620179077,202.62422687820884
413,0.2724533262918487,-260.7901754344907,-33.28219514353703,-108.6065473763481,130.6516088452331,-43.75903030163423,262.91487864994883,200.29065244920258
414,-0.06947934847626941,-261.96522512102797,-32.772863893686605,-97.52262080664843,126.68882005953306,-46.66869865834763,263.99844478327094,197.70675327259207
415,-0.3344290927100373,-263.37887073588684,-32.247400463132266,-85.69236882582011,122.59010616021891,-49.6847315183527,265.3173774232238,194.92731591615532
416,-0.5162061781295927,-265.0312129512987,-31.7166837310493,-73.23046489165132,118.44856135769656,-52.77967554301176,266.87370155901766,192.0187615148406
417,-0.6096471002833663,-266.9190513646095,-31.192973417706263,-60.27070379357415,114.3647688497268,-55.92740109239839,268.6663809584949,189.0577236574385
418,-0.6106586533840819,-269.0357981286727,-30.689745653055223,-46.962931835075,110.44544033303369,-59.103944844283724,270.69120400945997,186.1293400073051
419,-0.5162521065093515,-271.3714569660501,-30.221496151485297,-33.469418263016735,106.80175856630738,-62.28829588755349,272.9407291788362,183.32530756044702
420,-0.32456866339896284,-273.91266928667204,-29.80351176659013,-19.960768027933117,103.54744412438976,-65.46310085875193,275.40429191113554,180.74176165700467
421,-0.03489709294840842,-276.6428263650713,-29.451610630561067,-6.611499647255761,100.79658070990295,-68.6152671816455,278.0680720049305,178.47704521783524
422,0.35231600200298685,-279.5422442108455,-29.18185098625519,6.404568954112334,98.66124573644443,-71.73644704790776,280.9152182230022,176.62943591666453
423,0.8354632609283108,-282.5883962729193,-29.010209462285562,18.91897127824082,97.24900336408892,-74.82338785654824,283.9260255255449,175.29489454141896
424,1.4117813781343949,-285.75619853425343,-28.95223105952367,30.773120431155697,96.66032492941912,-77.87813720354376,287.0781599627342,174.56488832702806
425,2.0773643725800857,-289.0183416086657,-29.022655419969695,41.82256074161959,96.98600621469937,-80.90809235583522,290.3469266434125,174.52433067337753
426,2.82718625733382,-292.34566468820094,-29.2350266003516,51.94080330996298,98.30465203302447,-83.92588587585914,293.7055768002985,175.24966628984808
427,3.6551341178057486,-295.70756619750006,-29.60129599459975,61.022627553636866,100.68029632390076,-86.94910125138858,297.12565031641356,176.8071209428383
428,4.5540525296436485,-299.0724455603939,-30.131429917858828,68.98675690876776,104.16022092289437,-89.99981567223801,300.5773498918651,179.25112889777296
429,5.515800133454967,-302.4081695121473,-30.833034704133553,75.77784438118118,108.77302941418552,-93.10397197492607,304.0299422572132,182.62294876007536
430,6.531319157523848,-305.6825549715208,-31.711013093455925,81.36772976950145,114.52702533921317,-96.29058831766807,307.4521805671832,186.94947878322105
431,7.590718796282208,-308.86385884736194,-32.76726614861251,85.7559531527545,121.4089377716391,-99.59082194260434,310.8127405600331,192.24228471293858
432,8.683373611589701,-311.9212636309268,-34.0004547158545,88.96952799565204,129.3830325896112,-103.03691173521221,314.0806615555036,198.4968560742901
433,9.798038446616273,-314.82534650969313,-35.405833282519374,91.0619925481117,138.39064462945768,-106.66103243193638,317.22578215277053,205.69211003810966
434,10.922981497874307,-317.5485192159185,-36.97516694091959,92.11177136074774,148.35016355064465,-110.49410051931044,320.2191597521963,213.7901652629261
435,12.046136876438258,-320.06542606081035,-38.69673922793038,92.21989095565118,159.15750349221656,-114.56457742628643,323.03346293479643,222.7364107939843
436,13.155277061320746,-322.35328878008227,-40.555455112715855,91.50710579422558,170.6870820624743,-118.8973188615463,325.6433264813022,232.45989622418082
437,14.238204249836691,-324.39218899771754,-42.53303951553412,90.11050315053974,182.79332648134874,-123.5125194662617,328.0256604790292,242.87406773565453
438,15.282958030735937,-326.1652821632359,-44.608327643880855,88.17966882003009,195.31271269815736,-128.42479905474656,330.1599074289807,253.8778695842673
439,16.27803523358102,-327.6589403982769,-46.75763948880682,85.87251022286753,208.06632669531703,-133.6424709600523,332.0282442284051,265.3572220643965
440,17.212616279939187,-328.86282535624457,-48.95522751052023,83.3508492105129,220.86291666494088,-139.16702525872986,333.6157289715499,277.1868755042484
441,18.076790976545382,-329.769895537486,-51.17378418997789,80.77591231620387,233.5023819290245,-144.99285076079022,334.91039531627393,289.2326257968897
442,18.861775770981627,-330.37635522090835,-53.384994759492486,78.30385867752427,245.77962146863584,-151.10721004350785,335.9032994512258,301.35386052312623
443,19.56011441273649,-330.6815540940082,-55.560119858465434,76.08149244824692,257.4886438897013,-157.49047155993878,336.5885263076232,313.406386320132
444,20.16585481838804,-330.6878477094867,-57.67059282825252,74.24230511438492,268.4268234861073,-164.11659202849975,336.96316250532647,325.2454691496648
445,20.67469647260057,-330.40042910793017,-59.68861660808259,72.90298327354415,278.3991752330866,-170.9538312423132,337.0272436124202,336.7290017496077
446,21.084104545932373,-329.8271414124613,-61.587745524626435,72.16050026062598,287.2225160368921,-177.96567078401893,336.78368268421985,347.72069925112277
447,21.393388782919278,-328.97827997043066,-63.34343759469869,72.08988757680662,294.7293808995688,-185.11189869670451,336.23818575759987,358.0932166073412
448,21.603746858253807,-327.866390747705,-64.93356332246124,72.74275654432952,300.7715708455056,-192.34981463522843,335.39915806496174,367.73108101103605
449,21.71827310222684,-326.50606936500725,-66.33885748466638,74.14661348305508,305.2232238977592,-199.63550479772093,334.2776023996771,376.53333867829144
450,21.74193415735659,-324.913762707105,-67.54330118497435,76.30498366556462,307.98331989048563,-206.9251330854582,332.88700863290916,384.41582714352666
451,21.68151326860026,-323.10757269490773,-68.53442265971685,79.19833060013104,308.9775529389255,-214.17619435643562,331.24323114404217,391.3130000024919
452,21.54552465019,-321.10705973904123,-69.30350713969051,82.78572832267142,308.15953044171926,-221.34867723526767,329.36434909377823,397.1792493129793
453,21.34409893970989,-318.93304171798735,-69.84570872538418,87.00721649326294,305.51128321639374,-228.40608772062646,327.27050323253184,401.98969031230047
454,21.088840419481222,-316.60738318860194,-70.16006073342581,91.78674265986595,301.04309665383795,-235.3162908261156,324.98370246364607,405.74039272483355
455,20.792656642231403,-314.1527690659491,-70.24938508544552,97.03557420528452,294.7926967618656,-242.05213567513965,322.5275937535574,408.44806198226684
456,20.469561390862584,-311.59245733748725,-70.1201056688164,102.65604470137053,286.8238469770169,-248.59183968634608,319.92719024898116,410.1491916139478
457,20.1344525108584,-308.95000665995207,-69.7819747516008,108.54548581121738,277.22443099724904,-254.9191193735132,317.20855466707025,410.89872435655866
458,19.802867082077636,-306.24897697527496,-69.24772498601827,114.60018706837866,266.10411282971796,-261.02306819092325,314.3984380981876,410.7682735969089
459,19.4907177167928,-303.5126044227589,-68.53266194393058,120.71922318219184,253.59167683257706,-266.8977948318803,311.523878082834,409.8439680830999
460,19.21401545290887,-300.763455482889,-67.65421345758858,126.80799371005622,239.83215690361155,-272.5418473667409,308.61176386184366,408.22399122731343
461,18.988586343089175,-298.0230689690784,-66.63145244037722,132.78133415411523,224.98386460153037,-277.9574586662605,305.688380574774,406.01589202265535
462,18.829789775868807,-295.3115976134235,-65.48460946439735,138.56608056339803,209.21542076522155,-283.14965606464995,302.77894731352626,403.33374804428684
463,18.752246453443256,-292.6474630592751,-64.23459023293825,144.10299983679775,192.70288432570027,-288.1252828073426,299.90716581359635,400.29526239951036
464,18.76958292511004,-290.04703873937854,-62.90251129513447,149.34803236367458,175.62705590853292,-292.89198030992173,297.0947968860535,397.0188755564993
465,18.894197982668008,-287.52437434833223,-61.50926507905679,154.27282927158146,158.1710132254798,-297.45717862073866,294.36128048728324,393.62096915963167
466,19.137054411996893,-285.0909737463335,-60.07512276773118,158.8646004746832,140.51791138293103,-301.827138049464,291.72341297876636,390.2132318761151
467,19.507497896859853,-282.7556356630712,-58.619380935836006,163.1253196925937,122.8490560096441,-306.0060783951778,289.19509220085087,386.90024725867255
468,20.01310357963129,-280.52436386132285,-57.16005552552747,167.070357271342,105.34223315551787,-309.99542445276757,286.78713789728954,383.77735144491453
469,20.659550034420295,-278.4003505616641,-55.713625019492554,170.72663046208788,88.17026025738139,-313.79318828557825,284.50719194755663,380.92879555112256
470,21.450520108416125,-276.38403391804013,-54.29482372058282,174.13037383809478,71.49970980631996,-317.3935008179558,282.35969981122116,378.42623525848046
471,22.387628001413464,-274.47322728153665,-52.91648569634234,177.32463994821256,55.489753229252834,-320.78629833093777,280.3459716217605,376.3275594841022
472,23.470371858952962,-272.66331512329566,-51.5894398258888,180.35664220093963,40.29107678104457,-323.9571640654789,278.46431861594675,374.6760617025124
473,24.696110954859478,-270.9475079988502,-50.322456173802564,183.27504845677421,26.044832137952813,-326.8873216078621,276.7102581626309,373.49995115204865
474,26.060066283527544,-269.31714697693997,-49.12224343490021,186.12732541219978,12.88159898101885,-329.5537748034913,275.07677867860264,372.812195989986
475,27.555343196389046,-267.76204671836086,-47.993496361339446,188.95722178669553,0.9203520064043291,-331.9295880296598,273.5546543742308,372.61068562216474
476,29.172974715795547,-266.2708660051783,-46.93899086320032,191.80246429254794,-9.732562046582558,-333.98430007795116,272.132799193343,372.87869454054527
477,30.901984401841688,-264.83149486315574,-45.95972292166198,194.69272623550276,-18.98442202637135,-335.68446403401106,270.7986493973345,373.5856251796641
478,32.729468121901604,-263.4314481144705,-45.05508576651858,197.64791592389952,-26.75708328635971,-336.99430393361934,269.53856465889453,374.6880029781904
479,34.64069471689627,-262.05825583309104,-44.223078213746874,200.67682164858113,-32.987857547485476,-337.87647642250295,268.33823791340666,376.13069341741544
480,36.619226309544466,-260.6998415276056,-43.46053583792741,203.77614161051918,-37.63029643157346,-338.29292223551334,267.1831043756071,377.8483084171678
481,38.64705981535822,-259.34487897942523,-42.763375882081625,206.92991985062932,-40.65485342648087,-338.20578828938653,266.058740114558,379.76676785990173
482,40.70479200457335,-257.9831187196813,-42.12684656523921,210.10940189658493,-42.04939935367974,-337.5783969192717,264.9512405913192,381.80498085866327
483,42.771810997355125,-256.6056753610351,-41.54577177509817,213.273315726823,-41.81956690067395,-336.3762348207661,263.8475697970377,383.87661059978154
484,44.82651709521155,-255.20526759946196,-41.01478297421663,216.36857429604478,-39.988900875953576,-334.56793128571735,262.7358712230386,385.8918863694943
485,46.84657525810466,-253.7764038437229,-40.52853136261911,219.33138487972522,-36.598793125516764,-332.1261940739839,261.6057329841999,387.7594269817179
486,48.8092003390649,-252.315508239451,-40.08187474291876,222.08873764576649,-31.708184912913953,-329.02867233895194,260.448401090644,389.38804146403436
487,50.69147433006543,-250.82098423872372,-39.67003493890877,224.5602315409367,-25.393025050909973,-325.2587196269902,259.2569369888092,390.6884756366633
488,52.470692382964806,-249.29321546614977,-39.28872290315229,226.6601811544472,-17.74547888823217,-320.80603563820875,258.02631770367987,391.5750770687761
489,54.12473164338805,-247.73450604528657,-38.93422980971652,228.2999356915715,-8.87289090455414,-315.6671720961977,256.7534788755621,391.9673555283535
490,55.632434594229835,-246.14896459607726,-38.60348353958709,229.39033222492466,1.1034884426121059,-309.8458946245917,255.437302637419,391.7914210574257
491,56.97399705308203,-244.5423378171933,-38.294071078454245,229.8442005043376,12.049993580669815,-303.353398449526,254.07855372906513,390.98128685008174
492,58.13135021348283,-242.92180093113979,-38.00422844629557,229.5788352092282,23.822228389708123,-296.2083811115165,252.6797685126275,389.4800288857329
493,59.08852600861177,-241.29571326155812,-37.73280081835225,228.5183527514771,36.26691686613493,-288.436980313157,251.24510259198223,387.24079849329064
494,59.8319955506816,-239.673347905602,-37.479176378731644,226.59585314805142,49.22389149465968,-280.0725893792734,249.7801436116999,384.22768748631137
495,60.350971434914065,-238.06460498767927,-37.243198033162685,223.7553130615805,62.52819255086056,-271.1555662001332,248.29169662508625,380.4164481093062
496,60.6376661046751,-236.47971831990344,-37.02505736670524,219.95314389262597,76.0122542162936,-261.7328536217892,246.78755011697504,375.79507167553675
497,60.687499960627726,-234.92896528324107,-36.82517531876402,215.15935883817951,89.50815538100532,-251.85752971314946,245.2762311406391,370.36423031976386
498,60.499254265895175,-233.42238922097738,-36.644074165184726,209.3583052628746,102.84991290088855,-241.5883048840566,243.76675790912188,364.1375856677059
499,60.07516510809609,-231.96954256657673,-36.48224564765554,202.5489336947911,115.87579214356026,-230.98897941542813,242.26839753698943,357.14196655799094
500,59.42095577871627,-230.57925743033866,-36.340020414305855,194.74459200007456,128.4306040495179,-220.12786994444417,240.79043557145096,349.41741546168765
501,58.545805992418025,-229.25944865880894,-36.21744411783462,185.97235193444482,140.36795064504457,-209.07720742456607,239.34196266689585,341.0171000241295
502,57.46225742898683,-228.0169526605417,-36.11416531320081,176.27189399058574,151.55237347449872,-197.9125027605908,237.931682402772,332.00708219890254
503,56.18605615264266,-226.85740371228525,-36.0293396074111,165.69399401242745,161.86135335627483,-186.71187058664387,236.567742947867,322.4659330656392
504,54.73593356069424,-225.78514815524002,-35.961553432050515,154.2986707228269,171.1871065635051,-175.55529757418518,235.25759417479776,312.48417755931604
505,53.13332860906181,-224.80319597096857,-35.908769529313425,142.15306693731563,179.43812283718623,-164.5238402428872,234.00787104821887,302.16355125793353
506,51.402055120029644,-223.9132087048262,-35.86829499576058,129.32914881608775,186.5403946036305,-153.6987392540381,232.82430368168784,291.61605204907346
507,49.56791905741343,-223.11552247705984,-35.83677176421903,115.9013168556774,192.438293676631,-143.16044296001198,231.7116543279342,280.96277319735566
508,47.65829187953649,-222.40920472901323,-35.81018892744656,101.94402892486251,197.0950606701852,-132.98754218231863,230.67368164164662,270.3325105824306
509,45.701647498739185,-221.79214323407476,-35.78391638705739,87.5295387730048,200.49288284532483,-123.2556292712947,229.71313270225764,259.8601446414118
510,43.7270719293604,-221.2611655890684,-35.7527598270819,72.72585231794994,202.63254814160908,-114.03610515528126,228.8317633120653,249.68480568972348
511,41.76375626902401,-220.81218672788367,-35.71103765412909,57.5949979299791,203.5326766199774,-105.39496634391479,228.03038675986863,239.94783899468976
512,39.84048501580871,-220.44038089448648,-35.652680947305484,42.19169532806409,203.22854491979328,-97.39160887472308,227.30895039194894,230.79059293272067
513,37.98513257162332,-220.1403730453706,-35.5713574016011,26.562490559658215,201.77053373705803,-90.07768811730215,226.66663793570015,222.35205993237435
514,36.22418081747292,-219.9064429900767,-35.460619718626845,10.745402416729746,199.22224196746555,-83.49607267275974,226.1019936935452,214.76640615041396
515,34.58226969739941,-219.7327339643059,-35.31407797020894,-5.229900633533195,195.6583234665606,-77.67992786304866,225.61306270277112,208.16043249229193
516,33.081790911826225,-219.61345610542466,-35.12559414713799,-21.34140365169862,191.1621129379916,-72.65196003501953,225.19753911534784,202.65101710674364
517,31.74253251579765,-219.54307487796325,-34.889495327713725,-37.57357160003533,185.82311588560822,-68.42384768998204,224.85291386844665,198.34259799881337
518,30.581379994103802,-219.51647520104902,-34.60079958431083,-53.91577539178421,179.73444347663934,-64.99587995362113,224.57661259577614,195.3247635163966
519,29.612077607220662,-219.52909389379735,-34.25544604276708,-70.36042553106672,172.9902762034267,-62.35681775279338,224.36611578683682,193.67002693216003
520,28.845052495060777,-219.57701577383688,-33.850517990961016,-86.90094560109699,165.6834401427379,-60.48398849321542,224.21905522104888,193.4318670541545
521,28.28730301672727,-219.6570318788318,-33.38444645468386,-103.5297291722956,157.9031762750635,-59.343620576314315,224.13328334821347,194.6431173344335
522,27.942351963092104,-219.76666146407754,-32.85718180991138,-120.23621786476716,149.73317662616984,-58.89141886713295,224.10691525995315,197.3147794792994
523,27.810264569356086,-219.90414230301857,-32.270322628083086,-137.00521599364032,141.2499507104184,-59.0733756054796,224.13834582024865,201.43532336603866
524,27.88773058566646,-220.06839594734905,-31.627193295374315,-153.8155239053506,132.5215718413073,-59.8268033847024,224.22624684427507,206.970513456513
525,28.168208838590637,-220.25897567216612,-30.932864280012783,-170.63893470789688,123.60683595134172,-61.08156850455308,224.3695504824789,213.86377426485265
526,28.64213160878197,-220.47600480741642,-30.194111090735458,-187.43960301798361,114.55484698714282,-62.76149515546922,224.56742510680567,222.0370765070414
527,29.297164837601418,-220.720112158388,-29.419310352512763,-204.173763233473,105.40502422873703,-64.7859041778044,224.8192491923425,231.3922952716835
528,30.118518828773613,-220.99236938653218,-28.618274381771155,-220.78975158470607,96.1875091282784,-67.07124503883509,225.12458715379543,241.81296633476376
529,31.089302822789815,-221.29423280783845,-27.80202908373351,-237.2282730375564,86.92393319448641,-69.53277663492072,225.4831690663188,253.16635042717365
530,32.19091558168691,-221.627489486023,-26.982543442233258,-253.42285177820068,77.6284947280277,-72.0862518316779,225.89487399569649,265.30571000945196
531,33.403462900976876,-221.99420521255846,-26.172421738492098,-269.3004114815986,68.30928153523148,-74.64956209765742,226.3597146356194,278.0727088640529
532,34.70619179471978,-222.3966703234546,-25.384571453899543,-284.7819464021686,58.96976971560636,-77.14430148751919,226.87781937989388,291.29985956122795
533,36.07793012059295,-222.83733848817909,-24.63186041155062,-299.7832631470582,49.6104256369073,-79.49721279540506,227.44940703418618,304.8129642506476
534,37.49751983454959,-223.3187536911473,-23.926776206505036,-314.2157919465392,40.230339316343944,-81.64148239370658,228.074749233016,318.4335162899456
535,38.9442320023513,-223.84346161872287,-23.28109963114122,-327.9874815921735,30.82882200011607,-83.5178539532706,228.75411635183292,331.9810499665203
536,40.39815210230433,-224.4139034569315,-22.70560200567871,-341.00380108027537,21.406907439284307,-85.07553506319948,229.4877042345714,345.2754397407709
537,41.840525012754526,-225.03229240889414,-22.209774515173244,-353.1688719452456,11.968703589903322,-86.27287505217498,230.2755411634845,358.1391571966597
538,43.254050535963685,-225.70047565829944,-21.801596093553627,-364.38674865443096,2.522548081982514,-87.07779747888645,231.11737685242673,370.3994932783246
539,44.623122507983076,-226.41978667241688,-21.487345069389896,-374.5628522367664,-6.91807333307436,-87.46797722533114,232.01255752803604,381.8907472350494
540,45.9340073685216,-227.1908943981431,-21.271458553341848,-383.6055474042675,-16.33388019225109,-87.43076008374607,232.95989310063678,392.4563747628469
541,47.174961136697206,-228.01365692022628,-21.15644222846248,-391.42783867293554,-25.69945008105113,-86.96283187519691,233.95752380197848,401.9510787929997
542,48.33628662222035,-228.88698751680073,-21.14283164274834,-397.94914855870377,-34.98318847372855,-86.06965356427806,235.0027943762744,410.24281901510255
543,49.41033507597957,-229.80874087125693,-21.22920430357392,-403.09713185227747,-44.14762103266661,-84.7646872413573,236.09214399186004,417.21471109038265
544,50.39145816577404,-230.77562663426602,-21.412240065987007,-406.80947422575855,-53.149999746838695,-83.06844414220349,237.22101961853863,422.7667832057693
545,51.27591711141728,-231.78315667999996,-21.68682575721163,-409.0356204238576,-61.94320041598098,-81.0073897850593,238.38381980148762,426.81755551269055
546,52.061756174139056,-232.82563125494084,-22.0461988198922,-409.7383765442339,-70.47687710805235,-78.61274343932165,239.57387458566924,429.30540685369255
547,52.74864775638472,-233.8961677024028,-22.48212403060565,-408.8953321957659,-78.6988304246926,-75.91921045855945,240.78346579810437,430.1896931912396
548,53.33771639072201,-234.98677355032655,-22.985097045764636,-406.50005161609926,-86.55654057698955,-72.96368714308656,242.00389002226498,429.45158359803906
549,53.83134896935889,-236.0884635533845,-23.544568499964022,-402.562988214635,-93.9988123883217,-69.78397880138704,243.22556448057034,427.0945827319975
550,54.232998613438305,-237.19141792036018,-24.149182437308806,-397.11208461406204,-100.97747628357457,-66.41757225143147,244.43817377595636,423.1447135001523
551,54.54698944625613,-238.28517666389075,-24.78702296151903,-390.1930301627597,-107.44908640854918,-62.9005036992194,245.63085321696875,417.650340135711
552,54.77832904128291,-239.35886309125263,-25.445863250289893,-381.86915995985095,-113.37655403190804,-59.26636120053218,246.79240253299454,410.6816200354198
553,54.93253437774818,-240.40142815827355,-26.11341150930405,-372.2209931816571,-118.73065145963304,-55.54545714567558,247.91152239638708,402.329582003936
554,55.01547584235985,-241.4019068261645,-26.777548937807968,-361.3454228498477,-123.49131943257585,-51.76419998078546,248.97706540378147,392.70483820091613
555,55.03324234838225,-242.34967768345143,-27.426555301879112,-349.3545825014882,-127.64871058113128,-47.94468570951723,249.97829305652348,381.9359459928199
556,54.99202916178728,-243.23471785333885,-28.049318364457438,-336.37442579806043,-131.20390466605738,-44.104519148457626,250.90513079819027,370.16744322031343
557,54.898048653124434,-244.04784642110414,-28.635524317299595,-322.5430618726309,-134.1692396651698,-40.25686336742243,251.74841417942153,357.55758602472764
558,54.75746300993914,-244.78095094015106,-29.175827466521177,-308.00889210329024,-136.56821711004483,-36.41070421888081,252.5001204018846,344.27582307337303
559,54.576336948966905,-245.42719256954987,-29.66199850735127,-292.92859377774334,-138.4349601121604,-32.5713060863746,253.1535803905021,330.5000448529101
560,54.36060764242015,-245.9811857789041,-30.087051460607693,-277.4649939297616,-139.8132269242815,-28.74082544335089,253.70366684161368,316.413652527442
561,54.11606844424816,-246.4391484299717,-30.4453495405601,-261.78487376848756,-140.75500967653255,-24.919040986669486,254.1469534758955,302.20249811051724
562,53.84836260260524,-246.79901781069682,-30.732689955563565,-246.05674188865547,-141.31877460869927,-21.104153610719234,254.48184039359313,288.0517563024921
563,53.562982939183726,-247.0605282607464,-30.946367135112617,-230.44861382574854,-141.5674238940272,-17.29360696187009,254.70864039713115,274.1427976232517
564,53.265273386392884,-247.22524661233197,-31.085213302440916,-215.12583657284273,-141.56607757177534,-13.484880146476028,254.8296216334945,260.65014110495264
565,52.9604283163901,-247.29656281303915,-31.149614790763486,-200.2489982734825,-141.37978579410273,-9.676208214841862,254.84900296990145,247.73857101690885
566,52.65348591589618,-247.27963466561428,-31.141502255662687,-185.9719636375909,-141.07128627617865,-5.867192540785965,254.77290007988356,235.56050406709033
567,52.34931252903094,-247.1812873492811,-31.06431322716637,-172.44007322318433,-140.69891981271948,-2.059270988413073,254.60922207448587,224.2536899716332
568,52.052575757243986,-247.00987001664967,-30.9229262679896,-159.78853915745267,-140.3148084472432,1.7439743062976951,254.3675203791845,213.939318853299
569,51.767704948339066,-246.77507314754666,-30.723567036374643,-148.14106176734762,-139.96338698646326,5.536686202225915,254.05879320590753,204.72059430659607
570,51.49883845874902,-246.48771145547397,-30.473687510632324,-137.6086822233332,-139.68035991186724,9.310786390438292,253.695250321269,196.68181259039883
571,51.249757839620756,-246.15947803755492,-30.181820491834216,-128.28887709490274,-139.49213334850057,13.056214157180294,253.29004393746658,189.88796796711526
572,51.02381002092175,-245.8026762986718,-29.857412284815588,-120.26489286736818,-139.41574667431962,16.76134295403982,252.85697264421592,184.3848832181
573,50.82381971791613,-245.4299371680611,-29.510637060527156,-113.60531275075229,-139.4593018577475,20.41355984339114,252.41016655840187,180.19984405079225
574,50.651995588849644,-245.0539302769868,-29.152196734532357,-108.36384482507927,-139.62286221792763,23.999984778517405,251.96376328209067,177.3426974316221
575,50.50983494172576,-244.68707882653604,-28.79311035646235,-104.57931942818233,-139.89976760137762,27.50829840291185,251.53158555689345,175.8073574195085
576,50.39803285269543,-244.34128859520325,-28.44449719095997,-102.27588372059175,-140.27829137567977,30.92763908252092,251.12683243071191,175.57364794832935
577,50.31640232979055,-244.0277019109592,-28.1173579373974,-101.46338110953293,-140.74354732611323,34.24952305208965,250.76179629663096,176.60940009909726
578,50.26381253190318,-243.75648751685569,-27.822358758191253,-102.13790140259574,-141.27954244521953,37.46873670523855,250.4476183627815,178.87271188840944
579,50.23815190100683,-243.53667695569894,-27.569622877228245,-104.28248368161525,-141.8712653467693,40.584147730007864,250.19409479745076,182.31427215842243
580,50.236322333310135,-243.37605705057678,-27.368534500705575,-107.86794831330236,-142.5066997333606,43.59938220396897,250.00954463163504,186.87964762949565
581,50.254269288454715,-243.2811260020536,-27.22755966517874,-112.85382816191218,-143.17865750796238,46.523317890776795,249.90074824933853,192.5114340102765
582,50.28705118253878,-243.25711757501716,-27.154088208024817,-119.18936296465154,-143.88633571180853,49.37034961016979,249.8729619853369,199.15117799527312
583,50.32894967101701,-243.30809406922006,-27.15430037116657,-126.8145158465876,-144.6365142592162,52.16039034351482,249.93001025838848,206.74098628508094
584,50.3736205339845,-243.43710459335006,-27.233060701641417,-135.66096775236724,-145.4443264992177,54.918581304828244,250.07445214178665,215.22474977581382
585,50.41428278949249,-243.64640084835415,-27.393841014131908,-145.65304463858854,-146.3335516847695,57.67469523777784,250.30781456817996,224.5489255944396
586,50.44394139272636,-243.9376983588696,-27.638673344274622,-156.70853395623146,-147.33639770375862,60.462229554570534,250.6308796793829,234.66283697767597
587,50.45563657114171,-244.3124671796844,-27.96813317029146,-168.73935159713912,-148.49276415024525,63.31719965154041,251.04400950438347,245.51847149536252
588,50.44271071789967,-244.77223304498727,-28.381352732265555,-181.65202850492614,-149.84899964505829,66.27665778186942,251.5474877089127,257.0697818595519
589,50.399081989022655,-245.31886819363075,-28.876063880679133,-195.3479978921262,-151.456192031884,69.37697874012382,252.14185608350144,269.27151983283915
590,50.319512386611095,-245.95485091902017,-29.448669342666417,-209.72367926211894,-153.36805377667002,72.65196920834333,252.8282229337415,282.0776609442986
591,50.19985722233497,-246.68347422019903,-30.094340558271703,-224.67037316682908,-155.63848561673814,76.130871494916,253.60852157638945,295.4395036510532
592,50.03728265589309,-247.50898653742343,-30.807139445126538,-240.07399914017705,-158.31891781322904,79.83634327521965,254.48569955704718,309.3035491001894
593,49.83043882728677,-248.43665109895716,-31.58016079188784,-255.8147267279302,-161.45553957507903,83.78250195685078,255.46382274528526,323.60928515555116
594,49.57957815553351,-249.4727145826577,-32.405691592999595,-271.7665645847165,-165.08653319448547,87.97312502337743,256.548082894743,338.28700998132206
595,49.28661153905457,-250.6242804457926,-33.27538352953501,-287.79698439427364,-169.23943017283585,92.40009606397619,257.7447024011674,353.25583590869064
596,48.95509908703636,-251.89908732722708,-34.180434830362124,-303.7666644678186,-173.92870208317635,97.04218027974066,259.0607356851531,368.4220135374608
597,48.590176183142944,-253.30519823282873,-35.1117777097497,-319.52944200259896,-179.15368909466048,101.86420329461744,260.50377260669114,383.6777091086555
598,48.19841967359883,-254.85061147597088,-36.06026735362954,-334.9325627505581,-184.896954222066,106.81669338190329,262.0815551801371,398.90035515910824
599,47.78766237957748,-256.54280919870166,-37.016868024134546,-349.8173116353647,-191.1231322022625,111.83603012255115,263.8015241657015,413.9526752925476
600,47.366766766896966,-258.3882634487185,-37.97283139734649,-364.02009690131683,-197.77831977669175,116.8451226109454,265.67031655610685,428.6834585835822
601,46.94537046598965,-260.3919230022588,-38.9198620048325,-377.3740431538054,-204.7900308453128,121.7546185012525,267.6932383716218,442.9291280631654
602,46.533617372747,-262.5567062259918,-39.85026490045784,-389.7111253134794,-212.0677172323683,126.46462258242359,269.8737393925917,456.51611197091296
603,46.14188808862881,-264.8830261673027,-40.757071539137755,-400.86484702040303,-219.5038349748715,130.86688134268238,272.2129174013057,469.26398763642754
604,45.78054236214939,-267.36837371249305,-41.63414122772988,-410.67343491428505,-226.97541772596247,134.8473691235585,274.7090791149428,480.9893278223057
605,45.459684097146834,-270.00698301076875,-42.47623706949801,-418.9834862243271,-234.34610319751312,138.2891927951726,277.35738320688756,491.5101399509562
606,45.18895664260134,-272.78960036721094,-43.27907659866151,-425.6539729978799,-241.46854571031508,141.07571623452154,280.1495875483061,500.6507517039768
607,44.97737265063961,-275.7033734519514,-44.039357936979435,-430.56047378488904,-248.18713843716938,143.09379426111545,283.0739180247038,508.2469640579934
608,44.833178943126846,-278.73187212347625,-44.75476235660291,-433.5994741928334,-254.340963786105,144.23699929773747,286.11507019361983,514.151267041352
609,44.763752933451755,-281.8552457873265,-45.42393399660158,-434.69255273629574,-259.76689064433873,144.40872407177,289.2543481243597,518.2378963569948
610,44.775523778850065,-285.0505154152357,-46.0464375885435,-433.7902491665563,-264.30274354585043,143.52505084015175,292.4699375492301,520.407502141229
611,44.87390907863024,-288.29199146706134,-46.62269572698946,-430.8754008184083,-267.7904809123774,141.51729160982885,295.73730341241424,520.5912056385365
612,45.063256845438026,-291.55180229855796,-47.15390864485155,-425.96573109826744,-270.0793356185049,138.33412319085056,299.0296954058905,518.7538360690354
613,45.34678275015741,-294.80051153400785,-47.64196145582284,-419.1154863106699,-271.0288881525835,133.94326335236175,302.31873944962916,514.8961686103403
614,45.726494228317094,-298.0077976699767,-48.08932575995777,-410.4159456035888,-270.51205683285696,128.3326572582038,305.57508852118224,509.05602500897
615,46.20309577372337,-301.14316522990964,-48.49896348442263,-399.9946753982124,-268.41799761669904,121.51116446071468,308.76910296074624,501.3081500831476
616,46.77587341269657,-304.1766545412256,-48.87424027151989,-388.0134629156622,-264.65490618550155,113.50875449208577,311.87152866549735,491.7628382109271
617,47.44256062917543,-307.07951703390177,-49.21885370229074,-374.6649385459618,-259.15270714768866,104.37623285588415,314.8541417720223,480.5633497582244
618,48.19919239179222,-309.82482501776707,-49.53677871311655,-360.1679762288558,-251.86560077767206,94.1845290547145,317.69033066520404,467.8822222637831
619,49.03995781469246,-312.38798901598875,-49.83222944091974,-344.7620361023606,-242.77441897470376,83.02358469336676,320.35559028727226,453.91663825370335
620,49.9570648665537,-314.74716148736024,-50.10963411116749,-328.7006769453995,-231.88872183748873,71.00088336788001,322.82790935298476,438.8830551410901
621,50.94063214786904,-316.88351271103767,-50.373617966434075,-312.2445125212759,-219.24854752555527,58.23966575247254,325.088037801977,423.0113297991898
622,51.97862300333477,-318.78137239983175,-50.628988787764506,-295.6539136286127,-204.9257142566617,44.876873802920706,327.11962933656173,406.5385811065797
623,53.056836182942206,-320.4282388928154,-50.88072016683553,-279.1817662018856,-189.02456747738603,31.060868080431916,328.9092618602592,389.70303035314447
624,54.158965074010574,-321.81466598885555,-51.13392912987305,-263.0665862065872,-171.6820695899132,16.94896254230297,330.44634650029826,372.7380453943244
625,55.26673440522997,-322.93404489298,-51.39384674628244,-247.526266599499,-153.06714465923469,2.704822113499234,331.72294295289913,355.86659358136745
626,56.36011946064541,-323.78230469820966,-51.66578261855194,-232.75269362295364,-133.37921505382084,-11.504230150267716,332.73350445938064,339.2962837875275
627,57.417648447229304,-324.35755889196287,-51.95508618581894,-218.9074230757451,-112.84589859128334,-25.509947965804386,333.47457934312814,323.2151510290038
628,58.416784099837905,-324.65972737137554,-52.267109124661495,-206.1185556481022,-91.71987069688164,-39.14588950115445,333.94449750584886,307.7883087011267
629,59.33437638383257,-324.6901633828212,-52.607173434024205,-194.47889680641492,-70.2749336816863,-52.250088627943036,334.1430696175877,293.15556279850637
630,60.147174664473035,-324.4513128366093,-52.98054889792231,-184.04543294825777,-48.801372070697305,-64.66762186108294,334.0713241434628,279.43004857443685
631,60.832385009943465,-323.94642988623104,-53.39244170859875,-174.84010279837318,-27.600706773595068,-76.25302563811798,333.7313031669647,266.69791180308374
632,61.368256132952155,-323.1793679243678,-53.84799354156905,-166.85179227440315,-6.979989949860724,-86.87252222912714,333.12593264458496,255.0190136513581
633,61.734675642148574,-322.1544597183623,-54.352287820333565,-160.0394335328381,12.754194804270984,-96.40601709100031,332.2589767856964,244.42859091103307
634,61.91375690558215,-320.8764946491237,-54.91035779362551,-154.33604621828874,31.30184704074114,-104.74883565061454,331.13508015845724,234.93975445489122
635,61.89039628086163,-319.35079510015186,-55.527189771004444,-149.6535229799697,48.375592173682165,-111.81317316846527,329.75989517441474,226.54666246317862
636,61.652780947822244,-317.5833881205786,-56.20771460420193,-145.88793392073546,63.70646834559524,-117.52923748114668,328.140287023716,219.22816643610213
637,61.192829049352,-315.58126282406454,-56.956781233228504,-142.92510716838748,77.04928601725835,-121.84607115237516,326.2846031772485,212.95170217491642
638,60.506546157750826,-313.3526988249248,-57.77910767778841,-140.64623590609915,88.18741101843726,-124.7320470127219,324.2029904290313,207.67718806517925
639,59.594285052122586,-310.90764642938416,-58.679206930995015,-138.9332660624182,96.93685216693189,-126.17503918297876,321.90773910175335,203.36070003739272
640,58.460899192960575,-308.2581353134381,-59.66128736322958,-137.67383304971108,103.14957043085421,-126.18227998908048,319.41363136548676,199.95771501846372
641,57.11578387907724,-305.41868514239206,-60.72912914172796,-136.76553967257223,106.71596433436368,-124.77992084919306,316.7382686126249,197.42574931323273
642,55.57280266893367,-302.40668922467603,-61.88593978859061,-136.11939957396055,107.56652212695276,-122.01232135007245,313.9023516293298,195.72626136418296
643,53.850100129481504,-299.24274111906766,-63.13419347794241,-135.66231020259934,105.672662050079,-117.94109471260987,310.92988716265427,194.82573630414745
644,51.96980532973462,-295.9508744489658,-64.47546006214756,-135.33846501706577,101.04680580192093,-112.64393950153774,307.8482957079857,194.69591999139834
645,49.95763371176842,-292.5586882345822,-65.91023103369857,-135.10966501777523,93.74174613267941,-106.21328699740029,304.68839811593773,195.31322081943313
646,47.84239789351777,-289.09733384469155,-67.43775060213095,-134.95454289984622,83.84937765209584,-98.7547916000796,301.4842629060124,196.6573468918195
647,45.65544032802756,-285.6013451085786,-69.05586075701042,-134.8667668739684,71.49886162252925,-90.38568855473414,298.2729018380474,198.70929247463766
648,43.430002414683116,-282.10830009953696,-70.76086946985224,-134.85234274540613,56.85429252617521,-81.23303983511317,295.09380816700263,201.4488289666259
649,41.20054569855118,-278.65831130608217,-72.54745084984656,-134.92617907845678,40.11192840005207,-71.43188585527588,291.9883397768953,204.85168952934097
650,39.002041412926644,-275.29334979818174,-74.40858500393242,-135.1081181867684,21.497040031455388,-61.12331832859739,288.9989575427257,208.88666043104263
651,36.869245011614694,-272.0564179743817,-76.33554365116417,-135.4186628807217,1.2604276354305708,-50.45248830664601,286.16833727805687,213.51280390549607
652,34.835972521315746,-268.990594068672,-78.31792540339958,-135.87464396447052,-20.32535105278496,-39.566563285946565,283.5383810817942,218.67703557539318
653,32.93439537632831,-266.1379793978076,-80.34374224714556,-136.48507590260644,-42.969999279892306,-28.61264830971488,281.1491604362257,224.31226377206764
654,31.194369799826962,-263.53858590340917,-82.39955629704058,-137.24743783026784,-66.36970329918631,-17.7356881935505,279.0378286374732,230.33626858232617
655,29.6428158483043,-261.22920645903116,-84.47066342025596,-138.14459426093472,-90.21151128812151,-7.0763711233381645,277.23754368591136,236.65145621152303
656,28.30315998539945,-259.2423133370565,-86.54131788870022,-139.14253478686032,-114.17781771160631,3.2309426239394994,275.7764443433574,243.14557198221874
657,27.194853448040796,-257.6050309473214,-88.59498993367366,-140.18906576212464,-137.95089704190966,13.06023989639751,274.6767215282016,249.69339773012126
658,26.33297677105473,-256.3382273422043,-90.61464628177313,-141.21353152535707,-161.2174273322143,22.295792634935363,273.9538245824809,256.1594020174185
659,25.727938888463797,-255.45576501071093,-92.58304283048041,-142.12758160500354,-183.67294216704548,30.833984423480096,273.6158373683544,262.4012585235542
660,25.385277437803232,-254.96394531993926,-94.48301876584414,-142.8269381244454,-205.02614835373075,38.584995569519805,273.6630529142548,268.2741007574025
661,25.30556523862115,-254.86117295811889,-96.29778249680106,-143.19405940826977,-225.00304538463587,45.47431734181312,274.0877677601865,273.63533987688663
662,25.484426202280506,-255.1378573203558,-98.01118144062012,-143.10154650075444,-243.3507804784053,51.44406670378563,274.87430854918955,278.34983717830625
663,25.91266196662211,-255.77655743245657,-99.60794958417657,-142.41610295884223,-259.84116997527076,56.45407346480182,275.9992940924073,282.29519538412876
664,26.57648825221497,-256.75236632439515,-101.07392854749547,-141.0028374890237,-274.27381507759634,60.48271252398786,277.4321265203309,285.36691609312885
665,27.457877271402147,-258.0335204296448,-102.39625931202067,-138.7296945635721,-286.47873924229145,63.5274553580044,279.13569573429646,287.4831676212407
666,28.53499942684275,-259.58221023093483,-103.56354269730076,-135.47180875640777,-296.3184780304191,65.60511757156918,281.0672726961786,288.5889196291721
667,29.78275402058982,-261.355560475689,-104.56596716098389,-131.1156009358163,-303.68956151357696,66.75178332592476,283.1795596031168,288.6592280351506
668,31.173375000445493,-263.30674216549664,-105.39540283658992,-125.56246439628075,-308.5233450329155,67.02239266568806,285.42185909645764,287.7014935648674
669,32.67709434671882,-265.3861743679806,-106.04546115934912,-118.73192245170864,-310.7861656677924,66.48998405931856,287.741320637651,285.7565667308122
670,34.26284297159981,-267.5427717943669,-106.51152001587666,-110.56417289354226,-310.4788277573186,65.24459187439747,290.0842201762175,282.89862771506665
671,35.898967178571326,-269.7251940606198,-106.79071504852065,-101.02196721065512,-307.6354492896703,63.39180707538793,292.397229265013,279.2338284569844
672,37.553937831119086,-271.8830545514519,-106.88189855111906,-90.09180273286462,-302.3217297756824,61.051019022649164,294.6286318065087,274.8977433780297
673,39.19702938694827,-273.96805063990575,-106.7855682838279,-77.784433581034,-294.6327270284504,58.353366445147785,296.72945046302044,270.05173175093705
674,40.79894694126093,-275.9349823468757,-106.50376938796848,-64.13473126863744,-284.69025253822747,55.4394358058169,298.65445010707015,264.87836561336434
675,42.33238154063365,-277.7426329503541,-106.03997330093031,-49.20094763412289,-272.6400102009191,52.456754633067675,300.3629921522461,259.57611895501225
676,43.77247734532917,-279.35449213143477,-105.39893819979156,-33.06345088867944,-258.6486085811092,49.557135205289704,301.81972082187025,254.3535433477281
677,45.09719860690019,-280.7393095152396,-104.58655612085984,-15.823019154771885,-242.9005709744933,46.89392949362014,302.9950699849709,249.42316954923916
678,46.28758956447168,-281.87147356231327,-103.6096924726951,2.401215886478376,-225.59544996013312,44.619258783259895,303.86558672617457,244.9953725998474
679,47.327925767158625,-282.7312175256599,-102.4760240605748,21.474080381143345,-206.94512541794617,42.88128049968089,304.4140750532365,241.27242044262678
680,48.20576052065248,-283.3046605836823,-101.19388188260842,41.24683377539562,-187.1713305259585,41.82155066830183,304.6295699490456,238.44289658578526
681,48.91187486338079,-283.5836981598538,-99.772104783837,61.5597268440154,-166.5034137224898,41.572533937947576,304.5071581582185,236.67665117376444
682,49.44014360845082,-283.56576044594084,-98.2199095100527,82.2445742024369,-145.1763108549012,42.255305158641924,304.04766725556425,236.12039771046364
683,49.78733334545735,-283.2534617083612,-96.54678177593257,103.1272888433001,-123.42867456105144,43.977477715127634,303.25724812505416,236.89403880200868
684,49.95285051876243,-282.65416468502286,-94.76239167723821,124.03034223245949,-101.50108950530823,46.83138429918095,302.1468775627235,239.0877756458924
685,49.93845855227003,-281.77948418438086,-92.8765352132559,144.7751285244649,-79.63429302640131,50.8925256127394,300.73180720732887,242.76003269870947
686,49.74798260129715,-280.6447519967863,-90.89910208666224,165.18422441608323,-58.06732069013346,56.21829209650849,299.0309826064277,247.93621001578973
687,49.387019189987434,-279.2684617165513,-88.84006864611204,185.08354580360958,-37.03550437110755,62.846954157976846,297.06645237588253,254.6082596013298
688,48.86266586573786,-277.6717076688038,-86.70951395046849,204.30440729583216,-16.76826570148466,70.7969088262029,294.8627827417928,262.73506689234677
689,48.18328300780227,-275.87762772650643,-84.51765625806254,222.6854896854232,2.513331450683248,80.06616662857378,292.44648801997437,272.24360263230676
690,47.358296198980504,-273.9108561756088,-82.27490645648422,240.07471379303354,20.599281094651896,90.63206278276374,289.8454834432716,283.03079323725194
691,46.398043582897884,-271.79699032018425,-79.99193380804958,256.33100827354355,37.29357255154432,102.45118170420312,287.08856354844767,294.9660399797691
692,45.31366886539584,-269.56207323358956,-77.67973782447729,271.3259468237809,52.417322484977085,115.4594923548543,284.20490715676027,307.89430059549
693,44.11705725422198,-267.2320948106441,-75.34971830404258,284.9452200358375,65.81203236939687,129.5727021873666,281.22360877675504,321.63963335552813
694,42.82080862095176,-264.832513840197,-73.01373405121804,297.0899016657313,77.34287845097232,144.68684723162204,278.17323594550675,336.0090951083395
695,41.438239488487525,-262.3878049021745,-70.68414006214441,307.6774697080258,86.90192169595791,160.67914351270753,275.08141245786294,350.79688229778014
696,39.98340318131771,-259.9210351509182,-68.37379324850944,316.6425490744993,94.41111122609111,177.40912945121426,271.9744283573701,365.788607384008
697,38.471115752837754,-257.4534771394907,-66.09601812500192,323.9373532665501,99.82494721292146,194.720129745969,268.87687868256086,380.7656112807457
698,36.91697425885091,-255.00426452046491,-63.86452631087723,329.5318150199836,103.13266857321176,212.4410683750959,265.8113340646416,395.5092236248212
699,35.337353718575635,-252.59009766115904,-61.69328711813465,333.4134083783343,104.35983718044035,230.3886517643981,262.7980472917982,409.80489506273784
700,33.74936979168099,-250.22500604586892,-59.59635055963385,335.5866754698037,103.56920365276017,248.36993285989098,259.8547009081868,423.4461377826864
701,32.170795810162815,-247.92017393059632,-57.58762816779198,336.0724797345311,100.86075994183192,266.185252870016,256.9962017435142,436.23822138586354
702,30.61992525854222,-245.68383504781843,-55.680640406087846,334.9070136820076,96.37091040566246,283.63154008954643,254.23452876192582,448.00158064194534
703,29.11537394233543,-243.52124108826152,-53.88824180694785,332.1405942303683,90.27072460262116,300.5059251871042,251.57864052409982,458.5748997857341
704,27.67581971985793,-241.43470712387554,-52.22233626453567,327.83628302920346,82.76326971071138,316.6096109945928,249.0344477645862,467.8178447977446
705,26.319681590804656,-239.42373518182103,-50.69359532984635,322.06837307657895,74.08005564883135,331.75191415399064,246.6048552210937,475.6134203034677
706,25.06474395834586,-237.4852150970657,-49.31119213989295,314.92078598102484,64.47665886779687,345.7543780160624,244.2898752079651,481.86993085894005
707,23.92773582884808,-235.61369984355184,-48.08256301569875,306.48542584072106,54.22761914537261,358.45484239548,242.08681381344945,486.52252720012325
708,22.9238783616812,-233.8017509183783,-47.01320791027979,296.86053586764416,43.620726576864776,369.7113467080972,239.99052916862618,489.53431692694096
709,22.066417306903883,-232.0403479318956,-46.106539616306414,286.1491031292545,32.95083378212901,379.4057385824377,237.9937598406843,490.8970172169141
710,21.366159308089184,-230.31935500057074,-45.3637896033297,274.45735557827567,22.5133425520367,387.44686009082244,236.08751964293475,490.63112585238764
711,20.831032646904088,-228.6280344770681,-44.783975313974146,261.8933933565397,12.597525996778087,393.7731882965279,234.26155262518193,488.7855868542472
712,20.4656935495396,-226.95559586274376,-44.3639298158918,248.56599154514558,3.4798568950493745,398.35481599970143,232.50483861193965,485.4369283211459
713,20.271198461267243,-225.29176467502234,-44.09839037742782,234.58360239220843,-4.582480831235864,401.19467258375596,230.80613571546988,480.68785256742564
714,20.244760667588938,-223.6273531155137,-43.980138587898495,220.0535712625526,-11.3577197468251,402.32890400222266,229.1545424266838,474.66526308708586
715,20.37960642310922,-221.9548122539404,-44.00018185210697,205.0815637915457,-16.645104131227328,401.82635548610295,227.54005897192425,467.5177210369376
716,20.66494161240534,-220.26874460258983,-44.14796487069118,189.7711850354257,-20.279795394265697,399.78713034544654,225.95412620645405,459.4123377373753
717,21.086035289426697,-218.56635651429139,-44.4115999729409,174.22375793825904,-22.13695158031491,396.3402322065189,224.39012051480518,450.53112986749574
718,21.624421661922856,-216.84783160799452,-44.77810641809987,158.53822027647442,-22.134871459199676,391.64033412506575,222.8437847566949,441.0668895193242
719,22.25821758884224,-215.116609175181,-45.23365047586533,142.81109692364123,-20.237122762756854,385.86375378747084,221.31357791496345,431.21864959127777
720,22.96254864390313,-213.37955500737402,-45.76377986389213,127.13650698861757,-16.45360275461876,379.2037471869664,219.80092946765836,421.18685310869273
721,23.710073300277248,-211.64701603087877,-46.35364780008202,111.60617168030065,-10.84050540632882,371.8652618455186,218.31038831776485,411.16836005139606
722,24.471591784282616,-209.9327543236892,-46.988223465660425,96.3093972568863,-3.4991921777896065,364.0593131807798,216.84966015103865,401.3514446496075
723,25.21672358207288,-208.25376041434072,-47.65248704261281,81.33301703944997,5.4260167654139515,355.99716259525565,215.42953124546415,391.9109479515023
724,25.914635386830348,-206.62995008151125,-48.33160865654624,66.76128623760151,15.751095765457496,347.88448254122795,214.06368087995932,383.00375363984153
725,26.534799417559935,-205.08375290963033,-49.01111143478505,52.67573216959822,27.256557723558753,339.91569242866484,212.76838830095699,374.7647494266458
726,27.047760620965754,-203.63960433956487,-49.67701932724308,39.15496926679068,39.69261520210358,332.26864089915546,211.56214342430167,367.30342259485894
727,27.42589045920669,-202.32335582902536,-50.31599027009337,26.274492187235847,52.78516175707473,325.09979608217026,210.46517303428385,360.7012175180879
728,27.644104909280237,-201.16162012130366,-50.91543484682773,14.106460863648527,66.24245051375375,318.5400871210624,209.49889635903537,355.0097563252161
729,27.680524943527132,-200.18107055250505,-51.46362007962628,2.719488073788101,79.76231859046496,312.69151835793764,208.68532565640083,350.24999216356815
730,27.517059028109216,-199.40771467781087,-51.949757571104534,-7.821566492181794,93.03977757267135,307.6246529717211,208.04642875727734,346.4123288079777
731,27.139889017055324,-198.86616312971856,-52.364075031258906,-17.455800116872556,105.77476513768337,303.3770365174567,207.60347128634533,343.45770218066883
732,26.539843354473664,-198.578914508319,-52.69787034024053,-26.126481108325482,117.6798346541398,299.95260339029727,207.3763565376018,341.3195805894277
733,25.71264493371,-198.5656762746173,-52.94354773488368,-33.781290306250476,128.48755089547527,297.3220808097147,207.38298080010247,339.90680316954695
734,24.65902529235845,-198.8427401290715,-53.09463642099266,-40.372609231725804,137.95736230343695,295.42437515147236,207.638621347109,339.1071420921043
735,23.384701751038467,-199.4224283549207,-53.14579279108114,-45.85787369131496,145.8817335938802,294.1688943906941,208.15537336671497,338.79144560577
736,21.90021934297778,-200.31262530381719,-53.09278832333401,-50.20001015882437,152.0913460947624,293.43872914764347,208.94165092565217,338.8181979884744
737,20.220664759774465,-201.5164057465444,-52.9324860832441,-53.367970274941456,156.45920561348456,293.09458521319954,210.0017656997304,339.03832053961577
738,18.365264737884452,-203.03176922581488,-52.662809523953314,-55.33737606910595,158.90353690924076,292.97933434699485,211.3355956235028,339.300035204334
739,16.356885777372373,-204.85148685875924,-52.28270780713911,-56.091284048817535,159.3893877187537,292.9230292145708,212.93835368895643,339.4536185995702
740,14.221455343339272,-206.9630644405755,-51.79212180978571,-55.62106903157792,157.92891137693618,292.74821410941377,214.8004648908566,339.3558880262811
741,11.987326609734765,-209.34882346139014,-51.1919541390629,-53.92741798520773,154.58034309153766,292.27535684790007,216.90755697881733,338.8742813282206
742,9.684609497578704,-211.98609977240253,-50.48404496075167,-51.021410531777626,149.44572874225514,291.3282292724486,219.24056832220663,337.8904176933188
743,7.344490428340938,-214.84755781489855,-49.67115364627599,-46.925647289294126,142.66750479526885,289.73907324360846,221.77597368499488,336.3030546526243
744,4.998561915624381,-217.9016162382081,-48.756944665806316,-41.6753715515075,134.4240620341071,287.3534040024179,224.4861259111429,334.030385257851
745,2.678180758426294,-221.112978269869,-47.74597512510217,-35.31951584957854,124.92445331252182,284.0343213081824,227.3397084479259,331.01164662408496
746,0.4138702069683942,-224.44325742760404,-46.64368077689967,-27.921594513825102,114.40242607991773,279.66621933236667,230.30229035917046,327.20803551623237
747,-1.7652224985827725,-227.85168625586064,-45.4563569535418,-19.560357928818405,103.10997422919391,274.1578083263614,233.33697213026645,322.602948348914
748,-3.8318056314404303,-231.29589296014882,-44.19113060983511,-10.330124747274716,91.31061138035545,267.4443845521891,236.4051073573568,317.2015824400008
749,-5.760855098395063,-234.73272827174216,-42.85591974213618,-0.3407153674896624,79.27256953004404,259.48930971556814,239.46708255536984,311.0299530536829
750,-7.529957245949711,-238.11912268319168,-41.459377044172676,10.283076619162252,67.26212333965938,250.28468641420173,242.4831349335328,304.1333964410922
751,-9.119582468388964,-241.41295245074866,-40.010815747884216,21.402519217455865,55.53723119311692,239.85124065544812,245.41418617014781,296.5746418509486
752,-10.51329145001765,-244.57389166196162,-38.52011699426162,32.86650357051156,44.3416692609643,228.23744505023924,248.22266912847925,288.43154435334804
753,-11.697877238081286,-247.56422744187245,-36.99761960185894,44.51362570791403,33.89981382728676,215.51793606616064,250.87332427356054,279.79457476685957
754,-12.663447311351772,-250.349616167569,-35.45399467506961,56.1747528224205,24.412200082841117,201.79129554482338,253.3339434032324,270.76416311715866
755,-13.403450364603271,-252.8997604125591,-33.90010905441639,67.67600877442068,16.05195321793424,187.17728073741023,255.57604022035784,261.4479883392033
756,-13.914652656985607,-255.1889891690878,-32.34688294751379,78.8420855369723,8.962151553373518,171.8135984854975,257.57543013779866,251.95829967020515
757,-14.197068457454279,-257.1967274932678,-30.80514790361477,89.49976370051051,3.254143855900013,155.85232764524594,259.31270528019496,242.40934441761146
758,-14.253848410357733,-258.90784574537264,-29.285511408575903,99.4815089145809,-0.9931935509405613,139.45609897061166,260.7735945716326,232.91496278971326
759,-14.091128734627505,-260.31288265852186,-27.798233738884033,108.62900460811844,-3.7333072463348738,122.7941429873195,261.9492026941768,223.58639430424222
760,-13.717843387148543,-261.40814027698195,-26.353121472998634,116.7964855158753,-4.950999534977496,106.03831366148691,262.83612532138335,214.53032389531612
761,-13.145500952956477,-262.19565223778164,-24.959440547020407,123.85375082942997,-4.660739216115379,89.35918907204615,263.4364413000783,205.84718154168598
762,-12.387928188197304,-262.68302985343195,-23.62585027374157,129.68875810804582,-2.9043599201103354,72.92234055815291,263.75758533797784,197.6296988424025
763,-11.460982829638816,-262.88319290960857,-22.36035840458657,134.20972640039383,0.25173652672641816,56.88485007281408,263.8121071833575,189.96172004016063
764,-10.382239400164044,-262.81399398120624,-21.17029601058867,137.34670606778025,4.719751837387234,41.392142996864045,263.6173252004764,182.91726282690234
765,-9.17065300987671,-262.4977464364343,-20.06230965749507,139.05260069523308,10.393920593441733,26.575191572715635,263.1948836662161,176.55982445261796
766,-7.846207219394857,-261.9606672997969,-19.042367215880788,139.3036511160954,17.154086309637833,12.54813314848589,262.5702241787688,170.94192973652247
767,-6.429552749770191,-261.232247052117,-18.115772953164388,138.0994115954771,24.869323712797193,-0.5936622348165606,261.77198255311845,166.1049183335014
768,-4.941644303386792,-260.34455953125905,-17.287187468251343,135.46226284897412,33.4015197421199,-12.775049078848784,260.83132376678935,162.07896809186002
769,-3.4033830871580335,-259.3315264687026,-16.56064848224236,131.43651551290233,42.60883998635559,-23.94207098388055,259.7812290199997,158.88334883849046
770,-1.8352727234632005,-258.228152712868,-15.9395892365263,126.08716106119854,52.34902085251645,-34.06242345227168,258.65575062419936,156.52689599779399
771,-0.257096009480013,-257.0697495356074,-15.426851997781872,119.49832563967604,62.48243908793398,-43.12541455493934,257.4892518943504,155.0086861053379
772,1.3123805415602083,-255.8911643290375,-15.024694776437752,111.77147712666746,72.87491845880922,-51.141431963788875,256.31565021999785,154.31888721839778
773,2.8556682437186076,-254.72603543884875,-14.734789832504708,103.0234286026176,83.40023853480831,-58.140933860577576,255.16768199707184,154.4397477846567
774,4.356778841376978,-253.60609094605272,-14.558212948625247,93.38417395659181,93.94231362972238,-64.17299039174799,254.07620822741714,155.3466792892211
