time,ax,ay,az,gx,gy,gz,accmagnitude,gccmagnitude
0,3.059627186800373,-247.06215842803323,-60.906086728678,-27.81651394796645,62.31737516600864,-2.340817356793379,254.47936021210046,68.21483134723353
1,2.897604544865377,-247.21847908066223,-60.96354222704959,-27.718322493276748,62.64207613045671,-2.4956974739333813,254.648831359364,68.4912168318007
2,2.7253032715154597,-247.3711173628049,-61.02558274316156,-27.64596055648477,62.95399159331579,-2.636347234916153,254.81556215202036,68.76489050080906
3,2.5460223658111043,-247.52091505026232,-61.08853434127726,-27.593511017484538,63.25216959555763,-2.757851417256157,254.97944959618175,69.03324417104427
4,2.3631227443222507,-247.6685706299046,-61.148877569708745,-27.554715175414128,63.53642300579898,-2.855495429828817,255.14029392402304,69.2943122201399
5,2.1799479982200785,-247.81457960379004,-61.203361669727485,-27.52312504009611,63.80742918446707,-2.924889839915269,255.2977691878054,69.54691260406376
6,1.9997511398446242,-247.9591875534381,-61.24910451754801,-27.49225454475747,64.066816336281,-2.962084085156047,255.45140255880443,69.79077305455131
7,1.825628785631809,-248.10235919595843,-61.283674179585496,-27.455726459984977,64.31723307920092,-2.9636656186248658,255.60056441091496,70.0266380844978
8,1.660463304004655,-248.24376506717323,-61.30514917159398,-27.40741201135011,64.56239816420167,-2.9268416436549316,255.7444700435987,70.2563529549175
9,1.506872734412612,-248.38278541632192,-61.31215606679766,-27.341560404616853,64.8071279325285,-2.8495015921330946,255.8821923274487,70.48292149995024
10,1.3671679238703867,-248.5185292408377,-61.303884621586924,-27.252915805994082,65.05733983610924,-2.730259546138625,256.0126833507771,70.7105355839736
11,1.243316380882007,-248.6498656291295,-61.28008180559742,-27.136820003896332,65.32003099446625,-2.5684768494124532,256.13480271736455,70.9445748885198
12,1.1369126277471984,-248.7754646017222,-61.24102698629695,-26.989300112239373,65.6032312060277,-2.364266111912707,256.24735037734325,71.19157663713403
13,1.0491550334810176,-248.89384512663685,-61.18749107744078,-26.80714221391263,65.9159300523264,-2.1184785793046115,256.34910247416803,71.45917571886747
14,0.9808290433168791,-249.00342865077752,-61.12068281861618,-26.5879534977839,66.26797777629992,-1.832677371866126,256.4388494140869,71.75601638533995
15,0.9322964635991485,-249.1025970338614,-61.04218560501927,-26.330216702443693,66.66995955663275,-1.509099400882421,256.51543594242423,72.09163713546964
16,0.9034902875079723,-249.18975394708002,-60.95388837780853,-26.033340992712805,67.13304271462273,-1.1506088608631284,256.5778031920401,72.47633043263941
17,0.8939146875979067,-249.26338859325156,-60.85791386513309,-25.69771240990483,67.66879634056637,-0.7606450867738854,256.6250324086545,72.92097848041449
18,0.9026502263319431,-249.32214018983916,-60.75654692679691,-25.324744742557566,68.28898287163764,-0.3431673129653174,256.6563895214844,73.43686550846549
19,0.9283648175739417,-249.36486115400572,-60.65216511037482,-24.916928403229768,69.0053213678501,0.0974014201362161,256.67136908363324,74.03546610439125
20,0.9693313220515622,-249.39067638997588,-60.54717301107546,-24.47787131481929,69.82922271152447,0.5562292106518165,256.66973545692133,74.7282083651439
21,1.023452794493329,-249.39903562322542,-60.443941724064025,-24.01232275694002,70.77149780374975,1.02812730328274,256.6515585943722,75.52621037879499
22,1.0882962494413762,-249.38975553262802,-60.34475451177205,-23.526169459196087,71.84204115813357,1.507597673081081,256.6172415370957,76.43998914458199
23,1.161135360092564,-249.3630486272908,-60.25175965594739,-23.026393511021126,73.04949417049457,1.9888752469251099,256.56753688601793,77.47914275860296
24,1.239001879729441,-249.31953643656365,-60.16693122351719,-22.520983877847325,74.40089471362231,2.4659647288274416,256.50355004658815,78.6520095075567
25,1.3187449648822605,-249.26024555215602,-60.092038096074624,-22.018796919504787,75.90132231849852,2.93267322405942,256.42672789037016,79.96531102429003
26,1.397097070639918,-249.1865861720438,-60.02862114205348,-21.529365504108366,77.55355068871042,3.38264123418996,256.338832440459,81.42379024175325
27,1.4707446815223122,-249.100313847249,-59.977978000704354,-21.062660394579247,79.35772130635996,3.8093758461477334,256.24190010966055,83.02985794174637
28,1.5364018680660685,-249.00347612344783,-59.94115471257953,-20.628811153879933,81.31105316601636,4.206290775013899,256.13818792752005,84.78326382646263
29,1.590884569140044,-248.89834678941116,-59.918943305422594,-20.237796839585474,83.40760402747155,4.566758130045779,256.03010915669313,86.68080905021604
30,1.631183540549804,-248.78735136484852,-59.91188428013621,-19.899119460274868,85.6380978887366,4.884176261217232,255.92016156001915,88.71611701243661
31,1.6545339804417114,-248.67298797391766,-59.9202727194299,-19.621475683974108,87.98983164910695,5.152056818126931,255.81085203080394,90.8794780035824
32,1.6584799679001325,-248.55774774215126,-59.94416659212968,-19.412444352615505,90.44667131662513,5.364132327280679,255.7046212579229,93.15778110907611
33,1.6409321680882558,-248.44403849912058,-59.98339589809886,-19.278208327630416,92.9891448933368,5.514483397586152,255.60377177190028,95.53454372771367
34,1.6002178014767636,-248.33411507504485,-60.03757164847701,-19.22332846513507,95.59463549791198,5.597682403544281,255.51040232516158,97.99004528676453
35,1.5351224772518326,-248.23001889955623,-60.10609425507483,-19.250584877832445,98.23767442594902,5.608948466374868,255.42635113776805,100.50156733057388
36,1.44492390001791,-248.13352889525876,-60.18816163486028,-19.36089630520669,100.89032962843527,5.544306974773051,255.35315002085818,103.04373717801352
37,1.3294175351661974,-248.0461248306053,-60.28277812505481,-19.55332290526151,103.52268054060126,5.400745895563999,255.29199077371518,105.58896696123094
38,1.188934087987027,-247.9689635297641,-60.388765911846164,-19.825151781628165,106.10336563115179,5.176360796780213,255.24370465139722,108.10797449296119
39,1.0243482253257397,-247.9028677869532,-60.50478074695009,-20.172058792686766,108.60018499400802,4.8704808507677235,255.208755187467,110.57036765593693
40,0.8370774983549352,-247.8483274331349,-60.62933313843549,-20.588335289090747,110.98073731737787,4.483769017740179,255.18724413666752,112.9452704533487
41,0.6290701071257498,-247.8055115725875,-60.760815264216696,-21.067164830534036,113.21306902611839,4.018290980496172,255.1789296690601,115.20196692499003
42,0.40278014130701534,-247.77429053313728,-60.89753299839544,-21.600932859708593,115.26631344049419,3.4775490548030703,255.18325528678977,117.31053898876137
43,0.16112925463390526,-247.7542657249067,-61.03774184688043,-22.181551786379657,117.11129932235998,2.866479093757318,255.19938745385397,119.24247582662875
44,-0.09254569542457262,-247.74480547564042,-61.17968523270022,-22.80078478297141,118.72111090538552,2.1914101959802665,255.2262597176869,120.97123540189122
45,-0.3545587523763765,-247.7450849546004,-61.32163340053375,-23.45055344289867,120.07158503277671,1.4599886899236554,255.26262109836142,122.47274261800275
46,-0.6209535601354338,-247.75412846472497,-61.461921209009766,-24.123216850845125,121.14173491307515,0.6810692937231957,255.3070866785191,123.7258129883902
47,-0.8875927232958833,-247.77085267597747,-61.59898327934263,-24.81181220709062,121.9140938601389,-0.13542255717793122,255.3581886539816,124.71249502546297
48,-1.1502553647945029,-247.7941097273151,-61.73138539865182,-25.510249774035906,122.37497592546868,-0.9786525434200455,255.41442654553788,125.41832856601178
49,-1.4047401969109663,-247.82272938232396,-61.85785165634804,-26.21345756059693,122.51465334266227,-1.837058537199002,255.4743156539687,125.83251971836984
50,-1.6469714612688249,-247.85555946622694,-61.977287343279706,-26.91747385412036,122.32745295074061,-2.6985461036558767,255.5364330060387,125.9480358253534
51,-1.8731053154487267,-247.89150370598176,-62.08879801989665,-27.619488392065936,121.81177503531205,-3.550693883666419,255.5994600193177,125.76162556837822
52,-2.079634534693094,-247.92955605446625,-62.1917053264051,-28.31783545767097,120.97003830744573,-4.380964542582725,255.66222110792506,125.27377002901618
53,-2.263489608398395,-247.96883075239526,-62.28556010077931,-29.011944266582567,119.80855430524153,-5.176917054783175,255.72371761107883,124.48857038382725
54,-2.422134323549146,-248.00858773217425,-62.37015320685519,-29.702253532677922,118.33733381995052,-5.926416124169619,255.78315671952205,123.41357735055402
55,-2.553653729223449,-248.04825336857584,-62.44552414127365,-30.39009799655887,116.5698274941061,-6.617834693258052,255.8399753730621,122.05956697645586
56,-2.6568320868792714,-248.0874369030374,-62.51196704532514,-31.077574943984,114.5226028865666,-7.2402458574014945,255.89385929584975,120.44026722037141
57,-2.731218179958278,-248.12594299766573,-62.57003335216963,-31.76739829674164,112.21496126635797,-7.7836010431501705,255.94475735352887,118.57204023363816
58,-2.777175233899234,-248.16378077319433,-62.620530037288354,-32.462746680638695,109.66849921526494,-8.23889197892946,255.99289124194954,116.47352631377156
59,-2.795912667401116,-248.2011694448537,-62.6645122386808,-33.16710999887994,106.90662264703465,-8.59829475662333,256.0387602239676,114.16525705823561
60,-2.7894969946040247,-248.23854040778383,-62.7032688573831,-33.88413668188555,103.95402382375987,-8.855295103425437,256.0831403327508,111.66924706617
61,-2.7608395143182403,-248.2765353129167,-62.73829988722031,-34.61748134141918,100.83613501731725,-9.004794755807122,256.1270772013831,109.00857535994383
62,-2.7136590125529243,-248.31599923293703,-62.77128491123614,-35.37065047891493,97.57857522187807,-9.043199440145635,256.171871447779,106.20696923675608
63,-2.6524185797845674,-248.35796756530428,-62.80404324463531,-36.14684258641124,94.20660834095764,-8.968489311796514,256.21905540184054,103.28840422000646
64,-2.582236787330412,-248.4036451467466,-62.83848706497716,-36.948778726068454,90.74463208798969,-8.780272688822324,256.27036004523745,100.27673385724094
65,-2.5087747755426566,-248.45437633301998,-62.876569268511936,-37.77852057044616,87.2157160015262,-8.479823486891396,256.32767143165603,97.1953619922553
66,-2.4381020735949104,-248.51160548133672,-62.920227870444656,-38.63727473037616,83.64120421234352,-8.070101972551758,256.3929765553194,94.06696760194433
67,-2.376545024821391,-248.5768282198744,-62.9713287194129,-39.525184571239464,80.04039402553171,-7.555757490894169,256.4682995516292,90.91328838467199
68,-2.330522540475065,-248.65153494317792,-63.03160814253186,-40.44111318838748,76.4302955765326,-6.943110985852172,256.55563010278775,87.75496445029646
69,-2.306374659869051,-248.73714894225589,-63.10261685207567,-41.38242345909097,72.82547172303039,-6.240114739832497,256.656846794497,84.61143844178157
70,-2.3101900447069723,-248.83496223313543,-63.18566608797557,-42.3447628642514,69.23795198990135,-5.456287029720551,256.77363871988683,81.50090403797371
71,-2.347638868988396,-248.9460723153027,-63.28177669214069,-43.32186184835495,65.67721065802091,-4.602620317314594,256.9074287222571,78.44029168019333
72,-2.423817369835992,-249.0713227859331,-63.39163177113852,-44.305354741876776,62.150197478570085,-3.691462948645646,257.0593013599313,75.44527887960722
73,-2.5431095996144517,-249.2112501311452,-63.5155338196611,-45.28463184187798,58.661410097209995,-2.736375883710251,257.22993813670365,72.53031272010261
74,-2.7090708511773345,-249.36603828379512,-63.65336749094657,-46.24673051525185,55.2129998195436,-1.7519675882938988,257.4195618989955,69.70863411212268
75,-2.9243359919286136,-249.53548179139966,-63.80456945258181,-47.17627260206149,51.8049062824992,-0.7537118435363755,257.62789162743013,66.99229670762034
76,-3.190554587583577,-249.71895781372442,-63.96810689591145,-48.0554552729697,48.43502116644929,0.24224525046171524,257.8541082640099,64.392177677028
77,-3.5083532100661627,-249.91540681801771,-64.14246624740771,-48.86410294333697,45.099385450770185,1.2192816100697337,258.0968318557663,61.91798215611105
78,-3.87732379167661,-250.12332176419173,-64.32565344101349,-49.579788730286815,41.792428035154444,2.160490753101376,258.35411015933175,59.57824739405055
79,-4.2960355738956695,-250.3407455816205,-64.51520675857068,-50.17803481479756,38.50725506258309,3.0488606756967447,258.62341875542984,57.380355725796235
80,-4.762067450168864,-250.56527667544765,-64.70822272799097,-50.63260124761612,35.23599843945024,3.8674331141891636,258.90167251731424,55.33056676850907
81,-5.2720575091667845,-250.79408214548752,-64.90139486131214,-50.91587155407697,31.970228639955366,4.599438373703267,259.1852480420708,53.434078316462994
82,-5.8217671484042945,-251.02391853921696,-65.09106419206677,-50.999340593015376,28.701431129251493,5.228403982108164,259.47001658886734,51.695122352180334
83,-6.406157699473189,-251.25116029151553,-65.27327994474986,-50.85420553465549,25.421538348974387,5.738239193529084,259.7513872481656,50.11709788844834
84,-7.019477661781818,-251.47183634563308,-65.44386860247862,-50.45205490831399,22.123501300627154,6.113301317729321,260.02436039880814,48.70273675542651
85,-7.65535849930772,-251.68167569785723,-65.59851008958049,-49.76564408366212,18.80187767422701,6.3384533781368635,260.283591877649,47.454292850694074
86,-8.306916908972488,-251.8761628079033,-65.73282026070012,-48.76973910487503,15.453408468422644,6.3991250622531535,260.5234686041387,46.37374074248479
87,-8.966861629207628,-252.05060397367487,-65.84243899698009,-47.44200526714323,12.077553051794967,6.281389797275242,260.73819657418784,45.46296674105923
88,-9.627603037273012,-252.20020576169563,-65.92312303097543,-45.76391273149531,8.676954001880967,5.972069815730675,260.9219020674416,44.72393521149229
89,-10.281363878463702,-252.32016626723106,-65.9708424585588,-43.721629003984134,5.257807592347801,5.458878327037219,261.0687465405096,44.15881505820659
90,-10.920289523786444,-252.4057792478338,-65.98187988534019,-41.306867156704044,1.8301226925045133,4.730603641591364,261.173054945564,43.770055448425424
91,-11.536556175203266,-252.4525499971365,-65.95293116649133,-38.51765891698494,-1.5921410581542796,3.7773347803806,261.2294560543506,43.56040495992273
92,-12.12247537738098,-252.45632033517862,-65.88120649587667,-35.35902270803901,-4.991056942288103,2.5907225309158166,261.2330318502712,43.53287318767434
93,-12.67059307237432,-252.4133986561893,-65.76453003491794,-31.843497898916524,-8.344831205859693,1.1642650714112888,261.17947149899317,43.690637332569715
94,-13.173781413349195,-252.32069003867596,-65.60143539117712,-27.99151771478221,-11.628009503005652,-0.5063959612247522,261.06522427208444,44.03689801671134
95,-13.625321808659562,-252.17582116672494,-65.39125332485472,-23.831594745615618,-14.811777971107086,-2.4231843033914626,260.88764532581666,44.574689026713095
96,-14.018978162574331,-251.97725502642928,-65.13418741943973,-19.40029542843394,-17.86434773538882,-4.585317387031771,260.6451283055073,45.30664594019396
97,-14.34905979968943,-251.72439070174366,-64.83137327183415,-14.741984051548181,-20.751413959291398,-6.989066472363996,260.3372190696701,46.23473963050845
98,-14.610473977615236,-251.41764396965635,-64.48491698542165,-9.908323401666697,-23.436683649231053,-9.627557834564866,259.9647052639753,47.35998293226538
99,-14.798768265922236,-251.05850485327645,-64.09790931438832,-4.9575284237345025,-25.882469199823394,-12.490621108538484,259.52967707613226,48.68212207811254
100,-14.910163490815345,-250.64956890612905,-63.6744127426422,0.04661917357666131,-28.050346195353217,-15.564688256240425,259.035555354947,50.19932807580557
101,-14.941578426545906,-250.19453974461692,-63.21942010573493,5.035974650045524,-29.901873794034103,-18.832744784146882,258.4870843598303,51.90790578512479
102,-14.890647958243926,-249.69820118073767,-62.73878493490887,9.939419171843827,-31.399374219408468,-22.274333899662736,257.890287647556,53.80203889335466
103,-14.755737066601283,-249.16635829428657,-62.23912523489816,14.684390384580583,-32.50676493834474,-25.86561418739402,257.25238698752497,55.87358663159153
104,-14.535953557994375,-248.6057479986773,-61.72770362337518,19.19850375338932,-33.19043347398684,-29.57947188533771,256.5816857199019,58.111943178093746
105,-14.231162612245143,-248.02392104201948,-61.21228753019932,23.411210128063807,-33.42014072871942,-33.38568959864481,255.88741952732377,60.503964343892
106,-13.842005633558975,-247.4290987867094,-60.70099356922453,27.255434789688373,-33.16993431099207,-37.25117391381386,255.17957903410968,63.033959751083366
107,-13.36992467909225,-246.83000938941203,-60.202120461460225,30.669145976914006,-32.41904890507112,-41.140244537078054,254.46870990027188,65.68374347741046
108,-12.817192331721623,-246.23570908558253,-59.72397509841338,33.5968059356614,-31.152766651635744,-45.01498708661779,253.76569711192283,68.43273272337436
109,-12.186945582947875,-245.65539511746033,-59.27469641183408,35.99066428841064,-29.36320747624124,-48.83567049563827,253.08154093060577,71.25808270842133
110,-11.483221107877839,-245.09821734080523,-58.862081606232984,37.81186146033797,-27.050017988415124,-52.56122824340191,252.4271323519503,74.13484671442178
111,-10.710988195395373,-244.57309555341365,-58.49341911031433,39.03131853418805,-24.220928413139966,-56.149800516120166,251.8130358156157,77.0361527367711
112,-9.876174624536443,-244.08854898951736,-58.1753324758636,39.6303986517279,-20.892150035500116,-59.5593321227972,251.24928623179582,79.93339204655172
113,-8.985680090512206,-243.65254327362427,-57.9136394663771,39.60133322363817,-17.08859049102866,-62.748218720732645,250.74520622118894,82.79641928776904
114,-8.047371553830146,-243.27235863441058,-57.71323060880507,38.94741303659891,-12.843870403620532,-65.6759917379139,250.30924799628372,85.59376762078467
115,-7.0700554819502095,-242.95448150862026,-57.577971248949275,37.68294939453057,-8.200131882764792,-68.30403037694566,249.94886267482687,88.29288518441851
116,-6.063423692473895,-242.70451991039798,-57.51063042654652,35.83301370642749,-3.20763684593492,-70.59628729857339,249.67039807746278,90.86040047198911
117,-5.037972004379139,-242.52714134704266,-57.512838719628135,33.432965957011604,2.0758393681292575,-72.52001303314701,249.479024427814,93.26242412117617
118,-4.004893176068477,-242.42603098829738,-57.58507587692722,30.527784150435345,7.585806497739551,-74.04646285608614,249.37868616724847,95.46489335195257
119,-2.9759470374511525,-242.40386734789107,-57.726687815956694,27.171209000155056,13.252030932168632,-75.15156881220678,249.37207742789468,97.43396321368371
120,-1.9633114305413273,-242.46231266121097,-57.93593152020406,23.424721375733057,18.9996557765939,-75.8165588530046,249.4606383767804,99.13644624917384
121,-0.9794178986020807,-242.60201517039633,-58.21004552387246,19.356374283779576,24.75044035216405,-76.02850480243437,249.6445694281005,100.54029936910732
122,-0.036776188458966484,-242.82262064121855,-58.54534300372238,15.039505983168468,30.424086964413334,-75.78078133546443,249.92286021898778,101.61515384862425
123,0.8522083547362415,-243.1227907953568,-58.93732402178433,10.551365530495215,35.93962133369584,-75.07341961866216,250.29333042373008,102.33288165916174
124,1.6754204651278664,-243.50022705398456,-59.380803178467886,5.9716859539442275,41.21679348383636,-73.91334186926707,250.752680049877,102.66818910195674
125,2.421219830378446,-243.95169901046293,-59.87004868926285,1.3812428383806057,46.177468054306885,-72.31446675087047,251.29654774350567,102.5992271168827
126,3.0786217063721595,-244.47307824235673,-60.398928487494665,-3.1395630190211845,50.746976629194755,-70.29767994701687,251.91957665327755,102.10820677749057
127,3.637470563448309,-245.05937919732344,-60.96105846386062,-7.512061309278009,54.85540932042389,-67.89066901768845,252.61548835595667,101.18200828474703
128,4.088604970499743,-245.70480955429787,-61.54994779868533,-11.660571759297044,58.43882804902252,-65.1276262989776,253.3771659487755,99.81277209922646
129,4.4240126882350905,-246.4028322929404,-62.15913684937533,-15.513537784181967,61.4403893468602,-62.048827794982536,254.19674736979053,97.9984615852113
130,4.636975304997314,-247.14624062593975,-62.78232410702562,-19.004510486162097,63.81136967971001,-58.700099508255434,255.06572921021584,95.74338754688678
131,4.722201665034573,-247.9272452292103,-63.41347992263895,-22.072965903694982,65.51209082256288,-55.13218533182588,255.97507989347326,93.058686070296
132,4.675948970882456,-248.73757124178104,-64.04694565572898,-24.6649452939689,66.5127462517845,-51.40003245335603,256.9153594118646,89.96274186897354
133,4.496130071576418,-249.56856067366672,-64.67751744363447,-26.733515022766866,66.79413164384238,-47.56201131137046,257.8768411561643,86.48154978450032
134,4.1824053196034745,-250.411274505856,-65.30051395126266,-28.239049158128783,66.34828350340042,-43.67908768439627,258.8496300932822,82.64900737416343
135,3.736257526125743,-251.25658821482503,-65.9118273925589,-29.14934403235995,65.17902994226178,-39.81396459964501,259.82377099338805,78.50713182299236
136,3.161048858965588,-252.09527491162157,-66.50795700118343,-29.439579871577486,63.30245684287737,-36.030211342283536,260.78934082405385,74.10619478018343
137,2.4620589548293275,-252.91807175224406,-67.08602408731043,-29.092150237608877,60.747290998611035,-32.391395679805704,261.73652084309276,69.50476898563133
138,1.6465039441283924,-253.71572751191505,-67.64376786751123,-28.09638568126188,57.55519907031895,-28.96023321336389,262.6556461051766,64.76968045492356
139,0.7235361358792702,-254.47903176517033,-68.17952137007818,-26.448203688647983,53.78099700397965,-25.797764436745883,263.5372325981464,59.975859189834416
140,-0.29577660624017577,-255.19882845644625,-68.69216693529037,-24.14972225840126,49.492758750550806,-22.962565852378003,264.3719845440993,55.20607946865679
141,-1.3984941795380328,-255.8660184421417,-69.18107125567809,-21.208878284466884,44.7718059765939,-20.509996876150304,265.1507862362123,50.550577400179435
142,-2.569874206242892,-256.4715567767134,-69.64600059573745,-17.639093133067234,39.71255271595893,-18.491479892296212,265.864684097783,46.10652863371851
143,-3.7934737190858883,-257.00645120788386,-70.08701772532139,-13.459025460948665,34.422171709998885,-16.953807296312526,266.5048655315916,41.977363678774694
144,-5.051287932001602,-257.4617686456615,-70.5043630574288,-8.692445065904142,29.02004373101014,-15.938467182586564,267.0626416416646,38.27189372574941
145,-6.323930846483919,-257.82865630669426,-70.89832341245506,-3.368251632764138,23.63694849564396,-15.480978850277674,267.52944106302135,35.10321794189014
146,-7.590861007418307,-258.0983837914997,-71.26909273430363,2.4793506569228434,18.413956460324744,-15.610230707522678,267.8968219125542,32.58738526009868
147,-8.830653616306419,-258.2624115804249,-71.61662991651873,8.810526541746173,13.500985018607818,-16.34781645058295,268.1565083180819,30.84179013943261
148,-10.021317716700867,-258.3124905251736,-71.94051946603908,15.579350638128814,9.054990203569819,-17.70737037919778,268.3004572258783,29.983292264239406
149,-11.14065467273976,-258.24079600564374,-72.23984084254734,22.733250560309216,5.237775518034478,-19.693909019906076,268.3209603113299,30.1260637172359
150,-12.16665196523957,-258.04009935005803,-72.51305201126613,30.212400243324762,2.2134124709369027,-22.303193418968064,268.2107846747065,31.379182697004214
151,-13.077904494291985,-257.7039775237238,-72.75789226021857,37.94912238855368,0.14528230939466877,-25.521134041654463,267.9633543110767,33.8440093491309
152,-13.854053999134406,-257.2270598384805,-72.9713087686162,45.86736681535178,-0.8072351543035843,-29.323267624559474,267.57297199657273,37.61139590418846
153,-14.476235807522992,-256.6053077741742,-73.14941073943494,53.882336132534334,-0.49238227501487536,-33.67434194941899,267.0350784726808,42.75879930603536
154,-14.927520982612055,-255.83632134130715,-73.28745416740703,61.90033138055397,1.2301075113894824,-38.5280496284206,266.34654304690594,49.34737909543045
155,-15.193341213384342,-254.91966296582447,-73.37985962496852,69.81888791135086,4.484972133310934,-43.82695484065944,265.5059772129096,57.419175642542605
156,-15.261883588013138,-253.85718761882563,-73.42026478998599,77.52726549680649,9.377311963747083,-49.502656861915355,264.51406060319084,66.9944730009768
157,-15.12444263623509,-252.65336581588653,-73.4016126179014,84.90734629936269,15.988523355768749,-55.47623082216335,263.3738664390254,78.06945581886312
158,-14.775717582845424,-251.3155842214949,-73.31627502350585,91.83497986057506,24.372402821329462,-61.65897945892096,262.0911716588962,90.61427011076096
159,-14.214043525267543,-249.85440689061002,-73.15621093687082,98.18179576603116,34.551561046744894,-67.95352010386685,260.6747351275614,104.5715925921778
160,-13.441546261339589,-248.28377866694922,-72.91315688790708,103.81748244117598,46.51429225700408,-74.25521932830269,259.1365258269479,119.8558022855804
161,-12.464211854780803,-246.62115132402693,-72.57884776813206,108.61250531473766,60.21204481216771,-80.4539742411648,257.49188205566924,136.35283139963437
162,-11.291863819390757,-244.8875133462419,-72.14526481355448,112.4412104818938,75.55763243746462,-86.4363250844564,255.75958296721154,153.92075102894316
163,-9.93804303706757,-243.1073061739383,-71.60490695069579,115.18523245955149,92.4243118071516,-92.0878692134418,253.96181555083072,172.39112250955617
164,-8.419788131488101,-241.30821315049695,-70.95108040928132,116.73709833763655,110.64583152941884,-97.29593240905996,252.12402326233644,191.57111881255292
165,-6.757316878763724,-239.5208120324517,-70.17819993784151,117.00389750093622,130.01753058183894,-101.95244021316167,250.27462666900388,211.2463934385349
166,-4.973612241095107,-237.77808759686513,-69.28209311429688,115.91086815479267,150.2985320238453,-105.95691991041286,248.44461153426022,231.18464797616113
167,-3.0939197366885876,-236.11480746406036,-68.26029726698678,113.40474105985712,171.2150419182265,-109.2195531295639,246.66698562872136,251.13982487562964
168,-1.1451661506056334,-234.56677143052104,-67.11233663886684,109.4566787859502,192.46472571736982,-111.66419003432138,244.9761119621088,270.8568302256183
169,0.8446869455216228,-233.16995189121778,-65.83996593917718,104.06465659467133,213.72209685887051,-113.23122902384735,243.40693268923934,290.0766736181303
170,2.847337870097743,-231.95954983724332,-64.44736567147008,97.25514920905849,234.64481668026704,-113.88026117147734,241.9941042634476,308.54189949530854
171,4.834867378021315,-230.9689969936488,-62.94127486157517,89.08401562071695,254.88077221913673,-113.59237679719051,240.77107012002017,326.0021769120443
172,6.780465982898885,-230.22893938162824,-61.331048161533204,79.63650988252624,274.0757695521043,-112.3720331263163,239.7691017976514,342.2199115800978
173,8.659141121726813,-229.7662403709659,-59.62862682024533,69.02638674530388,291.88165504929475,-110.24838742226818,239.01634242629288,356.97574375840134
174,10.448378569122763,-229.60304178371777,-57.848416604860134,57.39411383367102,307.96465524277266,-107.27600970622099,238.5368875995905,370.07379636984206
175,12.128733092282522,-229.75591989413482,-56.00707016880932,44.904243636347594,322.0137082778352,-103.53490349026546,238.34993784095442,381.34653863897057
176,13.684325038004166,-230.23516963708164,-54.12317627056988,31.74203581168592,333.748546913171,-99.12978188130631,238.4690544735639,390.6591313510197
177,15.103222193780423,-231.04424545305974,-52.21686335432712,18.109450248251594,342.92728576800386,-94.18856952632477,238.90154709635823,397.9131210471582
178,16.377689866287167,-232.17938138740146,-50.30932996582964,4.220651619987453,349.35326507393773,-88.86012731461366,239.64801638715375,403.04935333625764
179,17.50429683445748,-233.62940673738584,-48.42231887167412,-9.702824249852917,352.88091081836734,-83.31122553207658,240.7020709195923,406.04998207940497
180,18.48387075189685,-235.3757671236935,-46.57755513426977,-23.437092359145105,353.4203883864725,-77.72282127301234,242.05023142270394,406.93946416936586
181,19.321303482616184,-237.39275474975526,-44.79617032252164,-36.76098700416691,350.94085517411037,-72.28572624022542,243.6720307269316,405.78445148346543
182,20.025214216059553,-239.64794601670513,-43.09813523191231,-49.46104684933874,345.4721579429036,-67.19578025746671,245.5403126410433,402.6925235185949
183,20.60748534184356,-242.10283935800337,-41.501722198480444,-61.33629856678097,337.1048721367457,-62.64867227603853,247.62172795212243,397.8097453430876
184,21.082692349802276,-244.71368060462302,-40.0230160600436,-72.20273015374944,325.98864043683506,-58.83457257630048,249.87742018671452,391.31708299907086
185,21.46745398944298,-247.43245708051955,-38.67549067643067,-81.89735102759673,312.3288326475348,-55.932755478547044,252.26388749738234,383.42575837472
186,21.779732291215126,-250.20803518641128,-37.46966580991425,-90.28174097949505,296.3816141634301,-54.10639981330045,254.7340002880308,374.37167370069193
187,22.038113703001105,-252.9874099967089,-36.412856910159405,-97.24499749256282,278.44757167130814,-53.497753811327605,257.238147480207,364.4090788590019
188,22.26110253320651,-255.71702993369183,-35.50902769097389,-102.70600377182373,258.8640992890691,-54.2238414995994,259.72547820339724,353.8036905667825
189,22.466456228346033,-258.3441554381035,-34.75875208045092,-106.61495920791798,237.9967940207355,-56.37286904197734,262.14520071607626,342.8255001683856
190,22.670588959149043,-260.8182082295017,-34.15928801503523,-108.95413872240229,216.23014484880525,-60.00146230193362,264.4478970618721,331.7415253306858
191,22.88806578311867,-263.0920675169709,-33.70476071065545,-109.73787444543433,193.9578238401408,-65.13283270929622,266.58681065987685,320.8087688112871
192,23.13120446574059,-265.12327127598047,-33.38644786259086,-109.01177847906838,171.5728993675555,-71.75592961915828,268.51906467853786,310.2676423733759
193,23.40979600057055,-266.8750841024436,-33.193154239665674,-106.85124560879144,149.45829060456165,-79.82559652101817,270.2067713633876,300.33609379200254
194,23.73094819657197,-268.3173978758655,-33.11165880865933,-103.35928812430613,127.9777692767905,-89.26370836682345,271.6179962132425,291.2046392270551
195,24.099049839638152,-269.4274373333392,-33.127214160019015,-98.66376235207025,107.46779009462556,-99.96123025456895,272.72754588555233,283.03245406332127
196,24.515846425966757,-270.1902495112,-33.22407580440373,-92.91405104074065,88.23039615769493,-111.7811056042654,273.51755482406463,275.9446174399154
197,24.980612759135845,-270.5989635641281,-33.386037979474665,-86.27727061340939,70.52740072643606,-124.56185605395547,273.9778525824444,270.03054573760966
198,25.490403188629145,-270.65481533437674,-33.59695305036343,-78.93407930679514,54.57599323463425,-138.12175605970543,274.1061013286174,265.34359467259185
199,26.040357415657677,-270.3669388222535,-33.841213604705366,-71.07417142307858,40.54585703918093,-152.26343252963483,273.90770075454617,261.9017627352794
200,26.624039063359437,-269.7519341039716,-34.104180055163134,-62.89155390001783,28.557821950248126,-166.77873368280768,273.395465379376,259.68939252859525
201,27.23378573718605,-268.8332281788592,-34.37254161032218,-54.57971440905783,18.684010131500404,-181.45371186575701,272.5890869396696,258.65974138439816
202,27.861052673848448,-267.6402518111269,-34.63460391720201,-46.32680567350356,10.949374406657778,-196.07357226564702,271.51440215754974,258.738277386441
203,28.49673643419033,-266.2074616650482,-34.880501419170336,-38.31098755729395,5.334477692612623,-210.42745248004448,270.2024934275075,259.8265492425578
204,29.13146952963791,-264.57324264716493,-35.10233581686277,-30.696082857198316,1.7793236931104721,-224.31291496364392,268.68865640403226,261.80647532391544
205,29.755880788142015,-262.77872993112493,-35.294243933257455,-23.62770885055257,0.18802269845620154,-237.5400533913514,267.0112736106659,264.54489632914937
206,30.360819407176457,-260.86659317741425,-35.452399260636625,-17.230039298614834,0.43406184040984724,-249.9351332800706,265.2106366051084,267.89823699525556
207,30.937542925836013,-258.8798265453097,-35.57495210972811,-11.603328590512538,2.3659456108454604,-261.3437057856515,263.32776058122636,271.7171263620565
208,31.47787077428097,-256.8605869965541,-35.661913952894,-6.822292615328598,5.81297891678531,-271.6331509447833,261.4032343921879,275.8508349787959
209,31.97430570852457,-254.84912013846375,-35.71499236736925,-2.935394187996391,10.590980310734878,-280.69462258522105,259.47614589817726,280.15140174362574
210,32.42012550449973,-252.88280765009443,-35.73738393998466,0.03496986172243885,16.50773598947335,-288.4443817112429,257.5831175038622,284.47734194475566
211,32.809447079632825,-250.995363523601,-35.73353349533776,2.0914319276133893,23.368034167821673,-294.82451853922396,255.7574801219836,288.696849824692
212,33.13726510245135,-249.21619846212127,-35.70886883669367,3.25986221501553,30.97815289558525,-299.8030756556052,254.02860611714033,292.6904319327309
213,33.399467419304614,-247.5699634290801,-35.669520554952626,3.586951509445786,39.14971072589405,-303.3735960861146,252.42141365884552,296.35293051457677
214,33.59283029378576,-246.07627509717437,-35.622036172316484,3.137319352680192,47.70282721641363,-305.55413052338207,250.9560468646761,299.5949186507681
215,33.71499728523434,-244.74961822074528,-35.573097026936225,1.9903086616670234,56.468577146954225,-306.38574770290643,249.64772852792342,302.34347058489783
216,33.76444631623611,-243.59941305815298,-35.52924516889511,0.23662543551878756,65.29075650979443,-305.9306009319158,248.50677539327836,304.54233146425815
217,33.74044993278304,-242.63023013405973,-35.496626371668754,-2.0250302354410037,74.02700792264274,-304.26961182685073,247.5387601069453,306.15153010268494
218,33.64303381283406,-241.84213007781082,-35.48075430513228,-4.691214877273295,82.54937679738747,-301.4998390938769,246.74479934879977,307.1464957155295
219,33.472938098447955,-241.23110320285866,-35.48630013317614,-7.6567699586897415,90.74438666320394,-297.7316054324258,246.12194446049375,307.5167541829081
220,33.23158513907228,-240.78958197118973,-35.51691145559889,-10.817548016715163,98.51273232985363,-293.0854590976171,245.6636492100422,307.2642906545446
221,32.92105600333133,-240.50699938764745,-35.57506460322493,-14.072781100350284,105.76869331920764,-287.6890480359208,245.36028908809084,306.40167271073193
222,32.54407697583434,-240.37036743531118,-35.661954566818935,-17.327059589656663,112.43936772457185,-281.67398361302065,245.19970747004822,304.9500315276892
223,32.10401633575495,-240.3648516791766,-35.777426837722565,-20.491911463476942,118.46381918517523,-275.1727678438915,245.16776584689026,302.9369975665047
224,31.60489087401976,-240.47432108620472,-35.919954653246435,-23.486991955033062,123.7922179538877,-268.3158530716324,245.24887799951122,300.3946825604749
225,31.051380634735054,-240.68185594261934,-36.086663365577266,-26.240910748243742,128.38504200227484,-261.22889676680154,245.4265114206029,297.3577915737049
226,30.448849185740695,-240.97020128088775,-36.27340124842451,-28.691737870199248,132.21238647819243,-254.03026706148177,245.68364329603486,293.8619381824948
227,29.803365374094668,-241.32215800542866,-36.4748537200193,-30.78723942295324,135.25341022926756,-246.82884708932738,246.00316258757823,289.94222270751976
228,29.1217210872131,-241.72090851235131,-36.68469623076731,-32.48489950849702,137.49592725429525,-239.7221780658749,246.3682138791699,285.6321179411831
229,28.411438180854294,-242.15027782099804,-36.89578005090451,-33.75178512319853,138.9361299283303,-232.79497184545136,246.76248248493025,280.9626889727637
230,27.680756768139478,-242.59493494760505,-37.10034469061895,-34.564307465569435,139.57841134347532,-226.118012980195,247.17042375633716,275.9621539881621
231,26.938596877647694,-243.0405422665289,-37.290250428064645,-34.90792742181094,139.43523837255498,-219.74745805885055,247.57744239530726,270.6557726492196
232,26.194486285061537,-243.47386267473235,-37.45722421530497,-34.77684579350318,138.5270174274024,-213.724526837672,247.97002963465434,265.0660298876787
233,25.4584489843446,-243.88283530474737,-37.593111894256594,-34.17371013443578,136.88189284469587,-208.07556633730405,248.33586715733125,259.21306778207025
234,24.740851071765046,-244.25663028604066,-37.690129069009906,-33.109359580441165,134.53542333012237,-202.81245686550295,248.66390652042858,253.11530805329915
235,24.052203738019614,-244.58569178543567,-37.74110230906799,-31.602616707412086,131.53009339395192,-197.93331906994797,248.94443180694984,246.7902030491361
236,23.40292663760939,-244.86177653312066,-37.739691991361084,-29.680121679080628,127.91463203343794,-193.4234746316991,249.16911157969696,240.25505351457286
237,22.803078829987477,-245.0779925751882,-37.6805883318364,-27.37618983936748,123.74312803268474,-189.2566106004931,249.33104426347973,233.52783615139754
238,22.26206812982031,-245.22884039670393,-37.559673083288146,-24.732660981724106,119.07394857027296,-185.3960985342962,249.4247990541118,226.62799189480694
239,21.788352567387633,-245.31025607696463,-37.3741409312689,-21.798698248888446,113.96848406859924,-181.79642381017956,249.44645251262824,219.57713570429587
240,21.389149573975654,-245.31965394046375,-37.12257668982388,-18.630488167884607,108.48975619116474,-178.4046865889274,249.39361929319745,212.3996590785951
241,21.070169380592926,-245.2559644120543,-36.80498678687257,-15.290791823674544,102.7009364443209,-175.16214270960455,249.26547410959017,205.12320618293813
242,20.83538882366999,-245.1196615808716,-36.422785999076375,-11.848301701082908,96.66382918026602,-172.00575923499866,249.06276114016384,197.77901266234488
243,20.68688025045231,-244.91277427382093,-35.97874278635185,-8.376769750302085,90.43737492143944,-168.8697648169433,248.78778653964173,190.40210285081633
244,20.624707618932163,-244.63887415643768,-35.47688880077528,-4.953888935578068,84.0762286019666,-165.68717919773212,248.4443895008069,183.031346493009
245,20.64689837770101,-244.303034649627,-34.92239997319505,-1.6599308230438825,77.62946363385255,-162.3913089349448,248.0378875167892,175.70938047689938
246,20.749495512185323,-243.91175554629433,-34.3214575353512,1.423836986916355,71.13944759221565,-158.9171979624979,247.57499235729858,168.4824044079042
247,20.926689565070834,-243.47285017881669,-33.68109706908486,4.216910129450485,64.640929329246,-155.20302217070667,247.06369480588404,161.3998610324688
248,21.171025901887596,-242.9952944289337,-33.00905241472254,6.641424168593819,58.16037055597771,-151.19141704524898,246.5131180666055,154.51401341515157
249,21.473678422952812,-242.48903915819363,-32.31359966147499,8.624079058372129,51.71554711476187,-146.83072656176256,245.93334142217583,147.87943028798247
250,21.824777590804324,-241.96478936018016,-31.603405010152567,10.098037370330932,45.31543608567936,-142.07615985666592,245.33519689248817,141.55238925940108
251,22.213778127855008,-241.43375450405577,-30.88737921180507,11.004723303806548,38.960394707008135,-136.8908397126418,244.7300423453692,135.59020513098633
252,22.6298500395447,-240.90737540218691,-30.174540484656468,11.2954542969665,32.64262641228833,-131.24672404133753,244.12951500116228,130.05048827592464
253,23.062275744557372,-240.3970337388012,-29.47388717506971,10.932843875396145,26.346918756968343,-125.12537905748364,243.54526979046818,124.99033672864081
254,23.500836070388367,-239.91375128377246,-28.794280839539173,9.891921937803984,20.05162813053005,-118.51858136664664,242.98870771025884,120.46546580518897
255,23.936168744389345,-239.46788681470355,-28.144339780048604,8.16092649616925,13.729877257324645,-111.42872602026793,242.47070021259893,116.52928074863722
256,24.360084877537993,-239.06883984295146,-27.53234230006395,5.7417291352506545,7.35092391276672,-103.86901880893463,242.00131673418863,113.23190091754421
257,24.76583186193513,-238.72477134682353,-26.966138108456693,2.6498656874019826,0.8816535170259938,-95.8634338660615,241.5895637240159,110.61914840697624
258,25.148294882091555,-238.44235275078034,-26.453065624681464,-1.0858455556266426,-5.711855042017234,-87.44642241993009,241.24314485887552,108.73151988088111
259,25.50413334974963,-238.22655505087715,-25.999872830166552,-5.424103037968539,-12.462741309434211,-78.6623655919149,240.9682532363111,107.60316781339935
260,25.831852417003677,-238.08048991962428,-25.612640035110566,-10.312329107169997,-19.401801028580447,-69.5647734788146,240.76940680070146,107.26092574156613
261,26.131812910196206,-238.00531371211216,-25.29670431804571,-15.688260574543078,-26.555992575065403,-60.215243864528446,240.6493378996599,107.7234202562502
262,26.406185363940164,-238.00020367894535,-25.056586921502575,-21.481883405189507,-33.947048265906105,-50.68220581062279,240.60894673587444,109.00031852158281
263,26.658855213717324,-238.06241356515403,-24.895926016366513,-27.617659166783103,-41.59022047538183,-41.03948483530195,240.64732669620827,111.09176234695514
264,26.89528665439631,-238.1874132712206,-24.81741767581929,-34.01697995208558,-49.49318791091114,-31.364736093333427,240.76186721142219,113.98803704172646
265,27.122352427154908,-238.3691144085145,-24.82276762557566,-40.60077977868984,-57.65514521306507,-21.737798733308253,240.94843699315908,117.66951515290525
266,27.348136194439714,-238.60018029454164,-24.91265567958033,-47.29222347559705,-66.06609897868174,-12.239027674648327,241.20164718408617,122.10690226535402
267,27.581713484581183,-238.87241502276555,-25.086714234133765,-54.019388042486476,-74.70639416740397,-2.9476583180168427,241.5151900506767,127.26179536310453
268,27.832916610834086,-239.17722172105323,-25.343522071796126,-60.71784579962973,-83.54649493485915,6.0597443355613105,241.88224440913208,133.0875449414518
269,28.11208852055826,-239.50611542772384,-25.680614817424974,-67.33305337437218,-92.54704172855823,14.71070726614868,242.29593441861982,139.53039136000137
270,28.429830089881094,-239.85127181615056,-26.094513295846518,-73.82244670836982,-101.65920122401212,22.938105137961706,242.7498242801996,146.53082548652895
271,28.796744825049245,-240.20608967139887,-26.580770670801208,-80.15714167430694,-110.82531749188041,30.68122278249972,243.23842809255245,154.02510571124537
272,29.22318427166807,-240.56574263263764,-27.134038783520175,-86.32314477511524,-119.97986247043474,37.88660653499671,243.75771172233894,161.94685041981367
273,29.718996790449168,-240.92769436115387,-27.748153653289382,-92.32199067221744,-129.0506724844561,44.508695449269624,244.30556216913482,170.22861919943637
274,30.293281877368553,-241.29215126941475,-28.416239571548793,-98.17074382890577,-137.96044629793852,50.51023146595089,244.88219983928244,178.8033985940153
275,30.954152004259385,-241.66242859039627,-29.130830569391833,-103.90132970100889,-146.62846990733308,55.86245461748103,245.4905107303804,187.60591884411411
276,31.70850414158087,-242.0452090066579,-29.884007368884763,-109.55919451830623,-154.97252461279564,60.54509545059771,246.13627891630836,196.57374510293172
277,32.56180374762671,-242.45067795496706,-30.66754737919029,-115.20132869442078,-162.91092823665198,64.54618224860651,246.8283045932373,205.6481076116468
278,33.51788491786952,-242.89252523506337,-31.47308493577926,-120.89372390760745,-170.36465486044983,67.86168546024528,247.57839845753637,214.77445750145023
279,34.578771302092704,-243.38780783945623,-32.29227882743567,-126.70836478492866,-177.25947611313796,70.49502595570476,248.40124847154692,223.9027557937309
280,35.744523167416205,-243.95667376847595,-33.116984171855066,-132.71988040692702,-183.52806674798524,72.45647717335704,249.3141598908006,232.98752097302557
281,37.013116599156035,-244.62195130334223,-33.939425761681015,-139.00199688610053,-189.1120188890902,73.76249365372571,250.3366740522773,241.98767422937536
282,38.38036117555297,-245.4086129119993,-34.75237005342129,-145.62393932230543,-193.96371283003955,74.4349996456088,251.49007596568975,250.86623090117496
283,39.839862329045246,-246.3431273731551,-35.54929315085756,-152.64692962389014,-198.04799738800634,74.50067128923055,252.79680492334208,259.5898920281924
284,41.383033919805605,-247.45271747817063,-36.32454263438424,-160.12091687159815,-201.34363893673952,73.99024433347898,254.27978582560786,268.1285914841227
285,42.99916530587473,-248.76454364742378,-37.07349190294377,-168.08166054856832,-203.8445044070077,72.93787645280696,255.9617015539502,276.45505192912293
286,44.67554544447736,-250.30483592239503,-37.792686517141846,-176.54826593933257,-205.56044885127855,71.3805889882902,257.8642284234648,284.54439683144216
287,46.39764438775446,-252.09799806841218,-38.479982426341536,-185.52124741273943,-206.51788225412642,69.35780738389258,260.00725746603933,292.37385650985027
288,48.149350011066566,-254.16570806673568,-39.13467571752233,-194.98117124878988,-206.7599934932258,66.91101289921956,262.4081241324173,299.92259466468136
289,49.91325493738276,-256.52603928933434,-39.75762275342081,-204.88790704119205,-206.34661254559964,64.08351069394304,265.0808681737388,307.1716697696056
290,51.6709855237038,-259.19262629569636,-40.35134845634581,-215.1804969958651,-205.35369603451275,60.920311522960326,268.0355441804804,314.10413455271873
291,53.403561853408696,-262.17389857867744,-40.920139108019924,-225.77763648582248,-203.87242665093964,57.468116432935396,271.2776017052204,320.7052677566376
292,55.09177535833786,-265.4724047990685,-41.47011437034959,-236.57874692443943,-202.0079243057182,53.775386313471884,274.80735222953905,326.96292596062204
293,56.71656914136192,-269.08424905567847,-42.0092712793681,-247.46561229270395,-199.87757640508397,49.892471286001054,278.61953846248457,332.8679993194327
294,58.259405288157794,-272.9986593492862,-42.5474908278087,-258.30454173153856,-197.6090065205796,45.871769208765166,282.7030194302171,338.4149528680219
295,59.70260349817192,-277.19770638069826,-43.09649584432492,-268.94901067565144,-195.33771461536622,41.76787862214769,287.04058240055383,343.6024333862463
296,61.02963629746993,-281.6561879875792,-43.669747904814166,-279.2427208775988,-193.204436832975,37.63770980419408,291.60888984396524,348.43391936342476
297,62.22536789695848,-286.3416906929072,-44.282271646698774,-289.02300520699157,-191.35228686976632,33.54051862557812,296.3785663220917,352.91838714224747
298,63.27622633818868,-291.2148348646715,-44.95039744446417,-298.1244872086641,-189.92375214793265,29.537831683223803,301.3144263507231,357.07095924333044
299,64.1703018861902,-296.229703923242,-45.69141791598745,-306.38288968605775,-189.0576249413752,25.693237572296557,306.3758399813631,360.9134915737923
300,64.89736876459533,-301.3344512512391,-46.52315982774016,-313.6388730385161,-188.88595081719362,22.07202770510233,311.51722842723905,364.4750462100462
301,65.44883233305904,-306.4720716225312,-47.463479960472334,-319.7417748992565,-189.5310746194191,18.740680151990208,316.6886780424149,367.7921880416376
302,65.81760944173428,-311.581317797282,-48.5297003529955,-324.5531200030218,-191.1028586464084,15.766190779562093,321.8366577504072,370.90903947625276
303,65.9979554511527,-316.59773789418404,-49.73800410523721,-327.9497751687862,-193.69613997006556,13.215266756624398,326.904822705383,373.8770303304968
304,65.98525671948187,-321.4548054497779,-51.10281716124334,-329.82664025645715,-197.388485613246,11.153407681255688,331.834885517709,376.75429218193045
305,65.7758116463389,-326.0851119592462,-52.63620409101322,-330.09879226535776,-202.2382969411915,9.643908581542993,336.56753590300093,379.6046688000151
306,65.36662595995232,-330.4215915019405,-54.347306555626155,-328.70303489942853,-208.2833085746091,8.74682616430248,341.04339030780767,382.4963455742662
307,64.75524828602977,-334.39874889454217,-56.24185153021744,-325.5988462080393,-215.53952140529594,8.51795410454972,345.2039549188576,385.5001371390523
308,63.939669881960455,-337.9538663555013,-58.32175261313104,-320.7687567288367,-224.00060175507124,9.007854145276566,348.9925881868469,388.68750743554244
309,62.91830777099948,-341.0281681908505,-60.58482254494423,-314.21822380377205,-233.63776717789696,10.260986937519426,352.35545204422516,392.1284235158555
310,61.69008355917443,-343.567927628481,-63.02460911096265,-305.9750895868675,-244.40016301056397,12.314979968814077,355.2424436614142,395.8891584920724
311,60.254601330263895,-345.5255038072418,-65.63036034237783,-296.0887184228856,-256.2157138238657,15.200060023806241,357.6081011921522,400.0301585225537
312,58.6124178745083,-346.86029941237183,-68.38711877019529,-284.6289041516891,-268.9924135021602,18.938665096912516,359.4124770133845,404.6040754772282
313,56.765388222378355,-347.5396300832273,-71.27593901572538,-271.6846218339231,-282.6200003355882,23.54523659671171,360.62197022637724,409.6540451107211
314,54.717060314782486,-347.53949540483933,-74.27421870149286,-257.36267469205137,-296.9719517854606,29.02617851980863,361.2101067639517,415.2122649067698
315,52.4730856711591,-346.8452384337094,-77.35612957303987,-241.7862593308763,-311.90772824255913,35.37995773742872,361.1582508727495,421.2989001233269
316,50.04160874043017,-345.4520770649431,-80.49313362236745,-225.0934444335056,-327.2751953669656,42.59731019636197,360.4562268407478,427.92132369869825
317,47.4335966268484,-343.3654869518713,-83.6545677477236,-207.43553429136432,-342.9131590419208,50.66151278045928,359.1028255082957,435.07367756941574
318,44.66307325291277,-340.6014128877829,-86.8082799231428,-188.97527258028563,-358.6539543054178,59.548680329537184,357.1061670976274,442.73673114353386
319,41.74722752433947,-337.18628427084394,-89.92129975095123,-169.88483624608045,-374.32603899762046,69.22805184649273,354.4838908484173,450.8780080160559
320,38.70637306065352,-333.15681121937877,-92.96052652456665,-150.34357467066644,-389.7565538084784,79.66223868405123,351.2631434250739,459.45215431216684
321,35.56374682871002,-328.55954165485406,-95.89341858756848,-130.53546405135324,-404.77382265196985,90.80741940073071,347.4803424912066,468.40153008341423
322,32.34514490861958,-323.4501664107249,-98.68866867950037,-110.64626873619663,-419.2097803803615,102.6134795056992,343.18069923847105,477.65701694936524
323,29.0784048570718,-317.892568871318,-101.31685068448317,-90.86042764544383,-432.90232760465324,115.02410781525926,338.4174934885039,487.1390479842464
324,25.79275480711316,-311.9576271393608,-103.75102352431013,-71.35771287749672,-445.697622600431,127.97687303511916,333.25110642398283,496.7588764162259
325,22.518058779494687,-305.72178940378086,-105.96727804564567,-52.30973757684794,-457.45232504893283,141.40331297226808,327.7478281596787,506.4201044256408
326,19.283995128187655,-299.2654560493011,-107.9452129323329,-33.87641942094025,-468.0358029937279,155.22907308518668,321.9784693449513,516.0204888334566
327,16.119210159974024,-292.6712141004998,-109.6683261775858,-16.20253214557754,-477.3323015345877,169.37412997518044,316.0168169263169,525.4540246457765
328,13.050491355807656,-286.02197989839067,-111.12430980066136,0.5855031027826787,-485.24305031799094,183.75312903251032,309.93798338684854,534.6132806058317
329,10.102003994728934,-279.39911374014423,-112.30523763274489,16.38242573890268,-491.68826008014383,198.2758552744985,303.81670576338166,543.3919266243339
330,7.294631314271965,-272.88057502315024,-113.20763923765982,31.106385705155454,-496.6089312798653,212.84784491904156,297.72565520996,551.6873574277981
331,4.6454519402906,-266.53918771868615,-113.8324571585166,44.70049426347409,-499.9683756433537,227.37113490110556,291.7338194757483,559.4032872013056
332,2.167379740419777,-260.44108328917,-114.18488931367307,57.133561745264146,-501.7533390068679,241.74513995488707,285.9050190112935,566.4521726443953
333,-0.13101878266857342,-254.6443812681048,-114.27412310151418,68.39994511573774,-501.9746144673625,255.86764253653448,280.2966123052278,572.7573206498993
334,-2.2455250683516517,-249.1981569621505,-114.11297215903315,78.51847294929142,-500.66704976797973,269.63587950181727,274.95843762501414,578.2545529548373
335,-4.176092825865747,-244.14173183938362,-113.71743031241445,87.53046652582967,-497.88888101252115,282.94771055021505,269.9320270258198,582.8933320885612
336,-5.926511032776229,-239.50430604890022,-113.10615987585797,95.49693057694886,-493.7203630854411,295.70285634750877,265.2501149778877,586.6372967992103
337,-7.503928114745571,-235.30493526976076,-112.29993325885073,102.49504161509564,-488.2617109109867,307.8041979930137,260.9364492368112,589.4642049725887
338,-8.918265706045732,-231.552837050895,-111.32104807969199,108.61411026802526,-481.63040958490717,319.1591326442965,257.00589689297055,591.3653308199455
339,-10.18155449345487,-228.2479963185259,-110.19273669011467,113.95123049988008,-473.9579903382544,329.68098079898795,253.46482503999624,592.3444038343969
340,-11.307226930299661,-225.38202679967787,-108.93859100198918,118.60684786056537,-465.3863992989123,339.2904372949987,250.3117239670118,592.4162044185202
341,-12.309402188122576,-222.93923538901538,-107.58202253613513,122.68047849673805,-456.0641050256487,347.9170498076241,247.5380316764488,591.6049428945576
342,-13.202197832469816,-220.89783039822174,-106.14577552029309,126.26679159042885,-446.1420986348318,355.50069617552504,245.1291122005954,589.9425457252248
343,-13.999100549580774,-219.23121229987697,-104.65150762647592,129.452233954167,-435.7699382577088,361.9930172252521,243.0653367836364,587.4669583114538
344,-14.712424819748811,-217.90928669561686,-103.11944877249637,132.31233177903283,-425.09197959122133,367.3587475062431,241.32321634730053,584.2205517631411
345,-15.352883678726156,-216.89974319074756,-101.5681437193744,134.90975609877515,-414.24391872729564,371.576875097309,239.87653539576618,580.2486956201208
346,-15.929289692808934,-216.16925007699646,-100.01427936512351,137.29318988204983,-403.34975428951446,374.6415555210424,238.69744128978027,575.5985330950796
347,-16.44839720345885,-215.684522805397,-98.47259295342849,139.4969894202457,-392.51925462707703,376.5627053248488,237.7574483741387,570.3179726995514
348,-16.914889085231287,-215.4132337813998,-96.95585312448999,141.54159345212707,-381.8459934346743,377.36620902018655,237.02832350039643,564.4548921536641
349,-17.331503098092664,-215.3247415444849,-95.47490212536646,143.43460183759834,-371.4059946510963,377.09368903577916,236.48282768864127,558.0565387526171
350,-17.699284861018903,-215.39062834633867,-94.03874496611608,145.17242213734858,-361.25700585670234,375.8018111547174,236.0952976348314,551.1691053471411
351,-18.01794708030069,-215.5850459466972,-92.65467021121594,146.74236656726106,-351.4383993273771,373.5611251963719,235.84206009451444,543.8374616875386
352,-18.28630856019638,-215.88487952423984,-91.32838746269778,148.125071686446,-341.97168136342833,370.45446923394576,235.70168134677652,536.1050244753226
353,-18.502782237101968,-216.26974831508596,-90.06416818566956,149.2971066813611,-332.86157290863844,366.57499223195435,235.65506232791367,528.0137529628768
354,-18.665879299495234,-216.72186830446034,-88.86497920704254,150.2336318731047,-324.09760740280757,362.0238721742771,235.68539704920076,519.6042579851107
355,-18.77469644460903,-217.22580660673947,-87.73260187848472,150.91096713837638,-315.65617553841463,356.9078229427479,235.77801723526144,510.91600993959344
356,-18.8293553480684,-217.7681591303077,-86.6677340190874,151.30893154638363,-307.50293188115796,351.33649272893655,235.9201496179938,501.98762589366765
357,-18.831367209728597,-218.33718315530194,-85.67007548156847,151.41282262482272,-299.59546601078665,345.41985981476915,236.10061403847354,492.8572092124723
358,-18.783900486703637,-218.92241499919618,-84.73840090229186,151.21491831802146,-291.8861317283727,339.265728802611,236.30949060528198,483.5627089566379
359,-18.69193632639695,-219.51430027547752,-83.87062476480413,150.7154083973404,-284.3249227113593,332.97742242007644,236.5377828198026,474.14226281626907
360,-18.562303362759938,-220.10386056124332,-83.06386442019232,149.92269519030262,-276.8622824249108,326.6517513025574,236.77710099390603,464.6344879536911
361,-18.40359095827111,-220.6824158318702,-82.31450630964599,148.8530446043526,-269.4517405344418,320.37732717496914,237.0193866817275,455.0786892350548
362,-18.225947229829448,-221.2413770402062,-81.61827955084165,147.52961404423198,-262.05227767440584,314.23326445235983,237.25669447289445,445.51496316003204
363,-18.040774875188472,-221.7721179232335,-80.97033954928553,145.9809289074496,-254.630335110887,308.2882927741291,237.48104258598573,435.98418667740424
364,-17.86034339255953,-222.26592976034658,-80.36536267082057,144.238918650473,-247.16140497943405,302.6002801693841,237.684338539229,426.527891099672
365,-17.697340218012133,-222.7140576371382,-79.79765169260727,142.33665299145397,-239.63115885753703,297.21614542505944,237.85838110847465,417.1880308791845
366,-17.564385351220036,-223.10781196794886,-79.26125109108034,140.3059366129553,-232.03609497083616,292.1721205663568,237.9949351074296,408.006663884589
367,-17.473534384976155,-223.43874479258295,-78.75007095695665,138.1749262672344,-224.38370466429075,287.4943112864752,238.08587136459167,399.0255632894253
368,-17.4357938931975,-223.69887696050034,-78.25801772971415,135.9659279944024,-216.69217510794215,283.1994949738667,238.12336066720457,390.28578116168603
369,-17.460671199327344,-223.88095998005628,-77.77912877940575,133.69351568612066,-208.98965719681547,279.296092313741,238.10010755976054,381.82718102151136
370,-17.555777814990474,-223.97875508345513,-77.307706617964,131.3630878309121,-201.3131360699141,275.7852486261124,238.0096079622565,373.68795232886976
371,-17.726502375891172,-223.9873118221938,-76.8384477038934,128.9699498011202,-193.70694798740374,272.6619644338665,237.8464137022335,365.90411550468747
372,-17.975764846299576,-223.90322912297486,-76.36656053276037,126.49897711027461,-186.2209928066477,269.9162205306156,237.6063871613086,358.50902274116254
373,-18.303859507231063,-223.7248830586597,-75.88786794815483,123.92488265769104,-178.90869691488842,267.5340503810798,237.2869301914869,351.5328580276127
374,-18.708390349702185,-223.45260738472714,-75.39888937262259,121.21307934504277,-171.82478764547588,265.4985214521521,236.88717305347757,345.0021395471115
375,-19.184299299225163,-223.08881491671082,-74.89689985319562,118.32109934608233,-165.02294701627764,263.79059655801075,236.40811112006054,338.9392286843322
376,-19.723985041366674,-222.63805012422628,-74.37996412588102,115.2005033192301,-158.55341992333044,262.3898561608117,235.8526794078313,333.3618520654333
377,-20.317507701127727,-222.10696621280033,-73.84694501807793,111.79918772952101,-152.4606591953763,261.27507251510434,235.22575783609966,328.2826459859273
378,-20.952872111425613,-221.50422356105,-73.29748646923666,108.06397738838635,-146.78109618952502,260.4246361461585,234.53410356427213,323.70873572889604
379,-21.616380121178604,-220.84031030675274,-72.73197257627582,103.9433750514246,-141.54112949642007,259.81684377327736,233.78621058463088,319.64136499124834
380,-22.293040612624576,-220.12728968609503,-72.15146550207997,99.39033221877646,-136.7554243934049,259.43006384689386,232.99210058310695,316.07559251803553
381,-22.967024708472284,-219.37848229939,-71.55762655186538,94.36490597556856,-132.42561097305827,259.242801055045,232.16305273316505,313.00007402360075
382,-23.62215309014429,-218.60809480511253,-70.95262575088479,88.83667501993003,-128.53945907264557,259.2336843534712,231.31128342622048,310.39694749645963
383,-24.242402517518542,-217.8308094294775,-70.33904551068822,82.78680223052308,-125.07059333676246,259.38140427066526,230.4495896909233,308.2418388665673
384,-24.812419470276055,-217.0613507843027,-69.71978340534895,76.20964976117864,-121.97879229337748,259.6646246899127,229.59097188413267,306.50400283395123
385,-25.318029721824626,-216.31404767162917,-69.09795791342924,69.11387494512557,-119.21089188789018,260.0618926224575,228.74825203811213,305.1466109545275
386,-25.746732586991655,-215.6024079879079,-68.4768196262889,61.52296069171881,-116.702287519239,260.5515672781457,227.9337042276869,304.12719638794636
387,-26.08816703580464,-214.93872471007492,-67.8596693218379,53.47516175380978,-114.37900039525717,261.11178719013355,227.158712751292,303.39826196403686
388,-26.33453465983854,-214.3337301402777,-67.24978363957298,45.02287699960903,-112.16024519853502,261.72049093959413,226.4334728090094,302.9080546605187
389,-26.480963191283777,-213.7963138044325,-66.65034868023118,36.23148584635269,-109.96140824506575,262.35550262030483,225.76674647719446,302.60150409318396
390,-26.52579479583533,-213.33331650850855,-66.0644014161194,27.177712070026214,-107.69732073959968,262.99468712731664,225.1656839872682,302.4213142675349
391,-26.47078540713643,-212.94940920722223,-65.49477831845373,17.947598275503953,-105.2856928747228,263.61617257644775,224.63571675090242,302.3091865804492
392,-26.321204151833623,-212.64706080563187,-64.944070348099,8.634188238228601,-102.65056333720563,264.19862828561793,224.1805245132689,302.2071391743191
393,-26.08582476909915,-212.4265940837569,-64.41458368288261,-0.6649781500957332,-99.72561592575184,264.72157807802887,223.80207474012508,302.05887544718564
394,-25.776803567003324,-212.2863239779777,-63.908306249911426,-9.850451245220832,-96.45721973499994,265.16572163871655,223.500728154088,301.8111449473732
395,-25.409441060930344,-212.22276793175524,-63.42688095928732,-18.82343761088776,-92.80706035141098,265.5132322258844,223.2754005876983,301.4150343774706
396,-25.00182752490547,-212.2309143405296,-62.9715870918638,-27.48825333983125,-88.75424556850486,265.74799757724725,223.12376834929302,300.8271256200865
397,-24.574376641033698,-212.30453245365752,-62.54333135102839,-35.754586210689595,-84.2967896627063,265.8557724343459,223.04250227886743,300.0104618782356
398,-24.149256149351288,-212.4365054362723,-62.142649614763904,-43.539504999576195,-79.4524050119689,265.8242156767364,223.02751455903862,298.93527226124235
399,-23.749729453756213,-212.61916754583976,-61.76971951471358,-50.76917267623178,-74.25855829770977,265.64279241928307,223.07420201501637,297.5794189767168
400,-23.39942711971572,-212.84462665667755,-61.424382862688894,-57.380237930720305,-68.77177954701571,265.3025312959968,223.17767019683512,295.928548529569
401,-23.121571789160726,-213.1050550262168,-61.10617596166849,-63.32089420458448,-63.06624406944595,264.7956390752557,223.33292436445586,293.97594726217096
402,-22.938183965259928,-213.3929344059297,-60.814365175120145,-68.55160622759001,-57.231678028314164,264.11498779539284,223.53501677029305,291.72212031570956
403,-22.869299065750617,-213.7012460074483,-60.54798483103528,-73.04551203783679,-51.370666417039224,263.25350233111277,223.77914400754526,289.1741299829322
404,-22.932227626153278,-214.02360083849683,-60.305874658405706,-76.7885157489979,-45.59546644267474,262.20348712564015,224.0606930746386,286.3447432403494
405,-23.14089008068626,-214.35431101013404,-60.08671450595146,-79.77909491156274,-40.02444870172591,260.9559384696335,224.37523968185297,283.25144825121043
406,-23.505255060880206,-214.68840727695633,-59.88905485244596,-82.02785701582731,-34.778301831142464,259.499892430165,224.71850666082986,279.9154054208234
407,-24.030905893792546,-215.0216117263328,-59.7113422310504,-83.55689136726312,-29.97614223958275,257.8218582511905,225.08629353109728,276.360399945863
408,-24.71875426407497,-215.3502768491192,-59.5519390136386,-84.39897204764672,-25.7316683295682,255.90538325486628,225.47439002240634,272.61185959483026
409,-25.564913195939898,-215.67130334788035,-59.40913723263068,-84.59667127166702,-22.149488738521296,253.7307886155902,225.87848687073364,268.69599371377507
410,-26.560734283850273,-215.98204930055067,-59.28116658488781,-84.20143842326729,-19.32173821064012,251.2751061928298,226.2940969261802,264.6390975486097
411,-27.69300724034626,-216.28024282583777,-59.16619762947725,-83.27268953990064,-17.325075081368908,248.51223499262767,226.7164987170137,260.46705075611635
412,-28.944313723943925,-216.56390914151243,-59.06234232955889,-81.87693748977044,-16.21813336767232,245.4133222828411,227.14071303019986,256.20502175170446
413,-30.29352194715429,-216.8313208516,-58.96765512259773,-80.08697653326998,-16.039482194022792,241.94736024557938,227.5615206746047,251.87737199427715
414,-31.716403539548832,-217.08097752661027,-58.88013817955277,-77.98111754647667,-16.806127382382194,238.0819760940157,227.97352634675397,247.50773819769438
415,-33.186349639003176,-217.31161734974268,-58.7977541480977,-75.6424530284979,-18.51257545977271,233.78438330568193,228.37126955822586,243.11925726457147
416,-34.67515956855388,-217.52226012067433,-58.718448522000294,-73.15811576854426,-21.130469229581617,229.02245481289765,228.74937928951837,238.73488947211555
417,-36.15387305157852,-217.7122776331636,-58.640182204532714,-70.61848398467703,-24.608795704295602,223.76587560089328,229.10276493640873,234.37779058496199
418,-37.593615843099776,-217.88148471693754,-58.56097333595616,-68.11628126436,-28.87466016062401,217.98733139379652,229.4268327152247,230.0716830490188
419,-38.966428995810865,-218.03024222861438,-58.478946418895944,-65.7455232511754,-33.83461256491655,211.66369081352624,229.71771431442136,225.84117969924682
420,-40.24605384096279,-218.15956197753147,-58.392386259978025,-63.600274524024584,-39.376503163497595,204.77713976047582,229.97249328266912,221.71201976343485
421,-41.40864797810644,-218.27120295258635,-58.29979396841897,-61.773196724688255,-45.37183202124557,197.31622866088574,230.18941432247343,217.7111856349179
422,-42.433411628616156,-218.36774833470483,-58.19994187118614,-60.35389037104408,-51.678543047140906,189.27679605370193,230.3680612012979,213.86687928650497
423,-43.303108163634,-218.45265369971455,-58.091923681134034,-59.42705594971375,-58.14419764214397,180.6627363341126,230.50949037295496,210.20834882782142
424,-44.004467266280095,-218.5302585938488,-57.97519587340428,-59.07052317176908,-64.6094480574573,171.48658575794317,230.61630971002657,206.7655680702031
425,-44.52846384402589,-218.60575637141636,-57.849606275539486,-59.35321889435286,-70.91171743246703,161.76990890699912,230.69269508350789,203.5687841125875
426,-44.870470177684425,-218.68512072368625,-57.71540642852666,-60.33316203408629,-76.88898358069089,151.54347683428588,230.74434174759674,200.64795840203178
427,-45.030282648469445,-218.77499123722313,-57.57324523809693,-62.05558577415398,-82.38355773175502,140.84723676472527,230.77835208399668,198.03213396425878
428,-45.01202765339305,-218.88252390499972,-57.42414270080883,-64.55129195385668,-87.24574792528493,129.7300804832635,230.8030655329723,195.74876479262738
429,-44.82395408917794,-219.0152151863664,-57.26944399616112,-67.83533884280432,-91.33729943493609,118.24942391393635,230.82783993508443,193.82304293086528
430,-44.47812229646267,-219.18070967923504,-57.11075593138144,-71.90615132211498,-94.53451105385474,106.47061371738717,230.86279578984562,192.27725536794088
431,-43.990001788274355,-219.38660168279745,-56.94986946971171,-76.74512236009238,-96.73093585882916,94.46617788835815,230.9185360619873,191.13019738275332
432,-43.37799228430834,-219.64023999389568,-56.78867358290814,-82.31674808418344,-97.83958787574387,82.314936431523,231.00585411399817,190.39666231370882
433,-42.66288423449828,-219.9485434457699,-56.62906663868292,-88.56930831743922,-97.79459173118585,70.10098600208306,231.13544119506614,190.08702087196917
434,-41.86727611006701,-220.3178323965041,-56.47287184762003,-95.43607363087993,-96.55223094654217,57.91257028639991,231.31760303458563,190.20689725108687
435,-41.014966443877064,-220.7536791561378,-56.32176304963483,-102.83699235393745,-94.0913722225555,45.84084724108883,231.56199305867065,190.7569456431224
436,-40.130338939628814,-221.26077870197304,-56.17720645137084,-110.68078936764631,-90.41326776974198,33.97856595019603,231.87736809043832,191.73273019365504
437,-39.23775880135748,-221.84284025096633,-56.04042287809268,-118.86739426816375,-85.54076439285767,22.4186699376866,232.27137136897943,193.12471379783176
438,-38.36099765964037,-222.5025003724312,-55.912373687186424,-127.29060965379745,-79.5169744143639,11.25284971057119,232.7503473565593,194.91836516410382
439,-37.522703040908205,-223.2412592205226,-55.793771805035234,-135.84092999462837,-72.40348676457556,0.5700739124959132,233.3191930190848,197.09439728677737
440,-36.74392622988934,-224.05944295721864,-55.6851175822926,-144.4084265637376,-64.27821402128043,-9.544865756421832,233.98125093358183,199.62915218310934
441,-36.04371974671416,-224.95619722702384,-55.58675744995065,-152.885622848808,-55.232981096993335,-19.012757075133926,234.73825046863954,202.49514570607633
442,-35.4388127442444,-225.9295182008158,-55.49896174841122,-161.17029598457265,-45.37096313990774,-27.761277801792946,235.59030402942122,205.66178246827434
443,-34.94336956694147,-226.97632877045274,-55.42201669503325,-169.16815072107372,-34.804074748611036,-35.72617685959132,236.53596556163387,209.09624446305168
444,-34.568833478364795,-228.09260759612798,-55.35632445325135,-176.79532049986486,-23.650401363096755,-42.85229345767144,237.57235787540773,212.7645473703706
445,-34.32385416236396,-229.2735776129571,-55.302504827862485,-183.980652952126,-12.031748488018401,-49.09438743136686,238.6953736568012,216.63274512598502
446,-34.21429419694601,-230.5139580323739,-55.26149226338389,-190.66773365582563,-0.07136678994147959,-54.41776105370732,239.89995205998477,220.66824627212742
447,-34.24330655263762,-231.80827966336668,-55.234622520149095,-196.81659351195077,12.108107636999755,-58.79866017515905,241.18042838367623,224.84118651810854
448,-34.4114725464429,-233.15125764233446,-55.22370458283427,-202.40503459514423,24.3864772305554,-62.224450492490334,242.53094866251914,229.12578357608388
449,-34.716987839237014,-234.53820887168402,-55.23107491960272,-207.42950048650113,36.64756798847532,-64.69357259570558,243.94593451356832,233.50158571078538
450,-35.15588313849253,-235.96549436339225,-55.25963302104815,-211.90541337410158,48.780587542666666,-66.21528677824047,245.42057696276444,237.9545171831741
451,-35.72226613329105,-237.43096014354649,-55.312859036252796,-215.86690444240108,60.6812801063486,-66.80922519110473,246.95133201845147,242.47762395804236
452,-36.408571548756036,-238.93434536493984,-55.39481601446347,-219.3658782927501,72.25290979551455,-66.50477472589887,248.53638627852612,247.07143314337665
453,-37.20580696725567,-240.47762367361688,-55.5101403933045,-222.47037729722462,83.40710664670469,-65.34031899982554,250.1760585989743,251.74386019699807
454,-38.10378347764135,-242.0652441311928,-55.664024745600805,-225.26224733275475,94.06460736861996,-63.36237180235596,251.8731042433883,256.50962816782516
455,-39.09132256075891,-243.70424107211412,-55.86219650471303,-227.83414986307858,104.15591570150143,-60.6246369374816,253.63289102163398,261.38920056929
456,-40.1564338460173,-245.40418796291326,-56.11089561603634,-230.2860127277363,113.62189592506176,-57.18703006100771,255.46342256301406,266.4072697470187
457,-41.28646208974282,-247.17697837159736,-56.4168529208418,-232.72105824621173,122.41429891390457,-53.11469651158785,257.3751917854452,271.5908809061261
458,-42.46820540219464,-249.03642706388447,-56.78726973572773,-235.24158740930562,130.49620531075533,-48.47705521036861,259.38085730286343,276.96730380650627
459,-43.68800986289492,-250.99769528932097,-57.22979777846333,-237.9447288765689,137.84235752375758,-43.34689274263227,261.49474621695344,282.5617863439573
460,-44.931847763401365,-253.07655574020714,-57.75251741336491,-240.91837831514076,144.43934405591483,-37.79952428003205,263.73219768155894,288.3953355476313
461,-46.18538752834963,-255.28852370299842,-58.36391116600509,-244.23755568777636,150.28559835552278,-31.91202974332821,266.1087720457215,294.4826726619895
462,-47.434062974707714,-257.6478906841879,-59.072828753432475,-247.96139489400673,155.39118105906505,-25.762565322830056,268.6393594668127,300.8305019702176
463,-48.66314845312362,-260.1667043191673,-59.888439743027455,-252.1309520305759,159.7773286001674,-19.429742952177392,271.337228841224,307.4362199057499
464,-49.857845069925816,-262.853743044973,-60.820170385293856,-256.76797682554565,163.47577017287344,-12.99206416286059,274.21306221037145,314.2871727535616
465,-51.0033817014419,-265.7135359012746,-61.87762177648523,-261.8747391693346,166.52783516760587,-6.527390181893431,277.27402146123507,321.36054757198394
466,-52.08513267966196,-268.74547743779135,-63.0704668543554,-267.4349428495517,168.9833906518053,-0.11242719236596117,280.5228935290135,328.6239510620604
467,-53.088751817556464,-271.9430854435441,-64.40832372858067,-273.41569560822967,170.8996605898669,6.17779555699451,283.9573577870361,336.03669460528766
468,-54.00032011672835,-275.29344508428994,-65.90060276769155,-279.77044205547804,172.3399841326253,12.270476301927797,287.5694150012347,343.55176123734736
469,-54.80650236649146,-278.7768768552657,-67.55632501253245,-286.44270678853053,173.37256949544678,18.095638196690363,291.34501109127734,351.1183837220962
470,-55.49470614368767,-282.3668574113227,-69.38391003507003,-293.37044195417474,174.06929345699157,23.586785856200223,295.2638809690831,358.68511492741817
471,-56.05323579201458,-286.03021196434275,-71.39093247996529,-300.49072914882106,174.50458557176682,28.681624725569588,299.29962818397325,366.2032260083179
472,-56.47143424050798,-289.72758499859384,-73.58384852464441,-307.744552939451,174.75442237743061,33.322836693002664,303.42004563031986,373.6302287889902
473,-56.73980721886411,-293.4141831867171,-75.9676966591307,-315.0813456413248,174.89544202997772,37.458894351794,307.5876719144532,380.9332908962937
474,-56.850127230417215,-297.04077125232055,-78.54578133303305,-322.46300338942007,175.00417581563548,41.04488586791342,311.7605676350599,388.0923000768744
475,-56.79551791291177,-300.55488885824275,-81.31935228476429,-329.8670940812645,175.15638153592724,44.04331368445527,315.89328609268625,395.1023409609791
476,-56.570522594336644,-303.90224526887744,-84.28729569720078,-337.28901855023594,175.42645592860896,46.424824085885206,319.93800416757585,401.97537427402585
477,-56.171163603423174,-307.0282393748934,-87.44585507662735,-344.74294501855377,175.88689925438123,48.168821276804636,323.8457718099407,408.7409533315226
478,-55.59500095571172,-309.8795463300604,-90.7883997583792,-352.26140915751205,176.60780413414113,49.263919091457865,327.56783330254217,415.4458714521055
479,-54.8412000278817,-312.40570895845235,-94.30525720097116,-359.89355242622077,177.6563411969181,49.70818566834096,331.0569705473061,422.1527011488786
480,-53.91061729497207,-314.56067235018963,-97.98362184065574,-367.7020536222889,179.09621472760907,49.50914144717046,334.26881817095403,428.9372555010901
481,-52.8059108358142,-316.3042033782926,-101.80754854043624,-375.75888646066124,180.98706185917044,48.68347878480023,337.1631020056985,435.8850680298749
482,-51.53167821279428,-317.6031426826429,-105.75803309478538,-384.140103685316,183.38376984724317,47.25648229198148,339.7047561034921,443.08704470579005
483,-50.09461900198592,-318.4324444115217,-109.81317655779532,-392.9199011271596,186.335689447935,45.261142249396585,341.86487858771596,450.63448697990276
484,-48.503713316933386,-318.77596817972517,-113.94842519373488,-402.16425055750716,189.88573017244636,42.73696836164074,343.62149313718675,458.6137164074786
485,-46.770401696294286,-318.62699775840406,-118.13687436820052,-411.9244078724814,194.06933586711614,39.72852667480394,344.9600904906903,467.1005498336058
486,-44.908746328679,-317.9884713855619,-122.34962315758261,-422.2306054322798,198.9133556294433,36.28373792808794,345.87393272547104,476.15488112541715
487,-42.93554959322616,-316.87291880948004,-126.55616684100345,-433.086228580327,204.4348430521347,32.45199051277543,346.3641118769495,485.81562383372665
488,-40.87040417272483,-315.3021099690509,-130.72481622836156,-444.4627608771133,210.6398332250498,28.282135381668134,346.439363445314,496.09626135126456
489,-38.735650096137014,-313.3064294656345,-134.82313513738706,-456.2957626735542,217.52215937280795,23.820443416722544,346.11564421840393,506.98123783465036
490,-36.55621799825626,-310.9239997184244,-138.8183894921571,-468.48212239025094,225.06237801022917,19.108617274908266,345.41549243686876,518.4234028484251
491,-34.3593441776795,-308.1995839676672,-142.6780029982859,-480.8787858582441,233.2268724690353,14.181958375345996,344.36719647574046,530.3426921962841
492,-32.17415092760783,-305.18330792869034,-146.3700149674291,-493.3031223451089,241.96719957871468,9.067793613231444,343.0038055932206,542.6261834758786
493,-30.031094219931127,-301.92924540383603,-149.86353566451862,-505.5350239572957,251.21973375204863,3.784263281278467,341.3620223313547,555.1296061216071
494,-27.961289336265732,-298.49391792755165,-153.12919375508662,-517.3207584959306,260.9056481462624,-1.6604405181496669,339.48102026025936,567.680313981369
495,-25.995732931689894,-294.93476117257916,-156.1395692543484,-528.3785085407961,270.9312561444934,-7.268317685377141,337.4012326135333,580.081649087599
496,-24.164447038639523,-291.3086112068472,-158.86960392982738,-538.4054380815841,281.1887204201613,-13.05124931251458,335.1631568548024,592.1185452267507
497,-22.495576522678032,-287.6702615923943,-161.29697954481347,-547.0860397156813,291.55712282158527,-19.030131129420475,332.8062173087572,603.5641456635574
498,-21.014476266804486,-284.07113770523375,-163.40245308333826,-554.1014371102913,301.90387676071356,-25.233487054748565,330.3677228890978,614.1871459539882
499,-19.742827532723556,-280.5581278447373,-165.17013780853046,-559.1392552369897,312.0864547517287,-31.695632828319006,327.8819503000679,623.7595244142054
500,-18.697824128820095,-277.17260231350014,-166.587720240489,-561.9036303852813,321.9543974167855,-38.454487596160625,325.37937577383553,632.0642937728679
501,-17.891467928942134,-273.9496423401765,-167.64660616020035,-562.1249176309474,331.3515671908812,-45.549150837134846,322.88607123311874,638.9029019007972
502,-17.330009877368155,-270.91749106850824,-168.34199340321774,-559.5686678796055,340.1186106958484,-53.017372502263235,320.42327425432813,644.1019301011827
503,-17.013567021165958,-268.0972293981787,-168.6728748525424,-554.0434899791178,348.09559837216693,-60.89304628504722,318.0071355378789,647.5187847073396
504,-16.935938624879267,-265.5026708067639,-168.64198051114505,-545.4074831151243,355.1248174160514,-69.203850855439,315.6486426306117,649.046149026712
505,-17.084635550963867,-263.1404619251802,-168.25567141762957,-533.5730151952718,361.0537019281917,-77.96915314413387,313.3537140284233,648.6150518159795
506,-17.441127524213282,-261.01036991277726,-167.52379935547518,-518.509725513137,365.7378888915375,-87.19827267976075,311.1234531603502,646.1965058328426
507,-17.981303213411625,-259.10573371446617,-166.45954449000547,-500.24573370650245,369.04438654174515,-96.88918757091288,308.95454705742077,641.8017636983842
508,-18.676128487436678,-257.41405410608184,-165.07923883896143,-478.8671307850779,370.85483054577696,-107.02774164821871,306.83979008919033,635.4813167311742
509,-19.49247889878044,-255.9176969061188,-163.40217803025033,-454.5159030736362,371.0687830109208,-117.58738894089016,304.76870952055793,627.3228170454727
510,-20.39411394662232,-254.5946843813564,-161.45041849091254,-427.3864914991745,369.6070018773116,-128.5294864005262,302.7282671036462,617.4481302180596
511,-21.342753809064238,-253.419550986494,-159.24855328580912,-397.7212160793798,366.4145778657702,-139.80411913791468,300.7036095062545,606.0097264408306
512,-22.299214671445007,-252.36424057646633,-156.82345814426057,-365.80480150585134,361.4638084119533,-151.35141536513507,298.6788400697184,593.1865979411139
513,-23.22455671596661,-251.3990229234055,-154.2040000063921,-331.95822934400144,354.7566589143132,-163.10328225328894,296.6377851898476,579.1798582668038
514,-24.08119914572421,-250.49340785468976,-151.42070323739046,-296.5321214180989,346.326656348206,-174.98547108179665,294.56473042174883,564.2081444774927
515,-24.833959114355217,-249.61703582466316,-148.50537258681257,-259.899832897869,336.240071911886,-186.9198626886422,292.4451039715792,548.5029146648752
516,-25.450976007484925,-248.74052454621346,-145.49067596741654,-222.45040686226818,324.59627786265355,-198.82685435940598,290.26608829302023,532.303715578353
517,-25.904488986466898,-247.83625270753888,-142.40969340085746,-184.58151776209417,311.52720600806487,-210.62772808681623,288.01714387088595,515.8534895505471
518,-26.171443662636246,-246.87906378074695,-139.29544077375553,-146.6925110383775,297.1958862976812,-222.2468877017046,285.6904327934337,499.3939942813319
519,-26.23391272650269,-245.8468752264014,-136.18037851514433,-109.17763090038086,281.7940975713309,-233.61386787583328,283.28113320879305,483.161419268455
520,-26.07932488521781,-244.7211807756607,-133.0959160928268,-72.41951779740343,265.53921257160187,-244.66503973116986,280.78763907724573,467.38229372255194
521,-25.7005061712499,-243.48743589756876,-130.07192341263718,-36.78305074057765,248.67036007209313,-255.34496329545885,278.2116427409012,452.26978747024725
522,-25.095547068375136,-242.1353191080919,-127.1362600289757,-2.609606451652298,231.44405392525408,-265.60736336518244,275.5581008394541,438.0205042533851
523,-24.267517246918338,-240.65886450159618,-124.31433286470478,29.788193491584448,214.12944971972163,-275.41572953021677,272.8350871048142,424.8118534560918
524,-23.224056146423845,-239.05646382721596,-121.62869301656187,60.13117567283449,197.00338506159116,-284.74356082140355,270.0535385590953,412.8000615961873
525,-21.976871459184157,-237.33073967969045,-119.09868209155543,88.17767542411936,180.34534240209226,-293.5742893274736,267.2269045880713,402.1188513130559
526,-20.541178516253822,-235.4882949917981,-116.7401381846256,113.72689353694854,164.43244878047275,-301.9009249711166,264.3707112586549,392.8787773007885
527,-18.935112000124676,-233.53934791772764,-114.5651707290602,136.62148266560675,149.53460032512606,-309.7254660753149,261.50205597180764,385.1671707056545
528,-17.17913797353903,-231.49726513950952,-112.58201172691922,156.7493069997429,135.909775547621,-317.0581185700699,258.63904985614215,379.048610650372
529,-15.295489609719455,-229.3780103066693,-110.79494851788694,174.0443336916449,123.79958336679667,-323.91636221684564,255.80022710163112,374.5658172718909
530,-13.307644763282413,-227.1995274410678,-109.20434093691286,188.48663304306862,113.42508059108378,-330.3238967601794,253.00394175499576,371.74084676434063
531,-11.239858005689685,-224.98108146818132,-107.80672377192973,200.10148448996242,104.98288911241731,-336.3094959946803,250.26777328866288,370.5764654865407
532,-9.116754301219192,-222.74257942739447,-106.5949935197548,208.95760485516826,98.64164438291165,-341.9057943900093,247.60796225164583,371.05758605077966
533,-6.9629864331480285,-220.50389631903732,-105.55867607674236,215.164533024768,94.53881234938406,-347.14802948033025,245.03889627902493,373.1526617444228
534,-4.802953780980092,-218.28422899701874,-104.68426912709778,218.86922147259847,92.7779198353149,-352.0727634524594,242.5726646794071,376.81495499547646
535,-2.6605761560586028,-216.10150014997103,-103.95564994233692,220.251901197168,93.42625090547509,-356.7166087493084,240.21869699702847,381.98361946034566
536,-0.5591132324454104,-213.971832495973,-103.35453653391656,219.52130368176475,96.51306669832776,-361.11498450789946,237.98349778322753,388.58456225286295
537,1.4789821653983681,-211.90911107756136,-102.86098801655247,216.90934134435403,102.02840705911377,-365.30093273303413,235.87048669823895,396.5310810820777
538,3.4321899386248393,-209.92464890164132,-102.45392902519073,212.66536550075182,109.92252861465403,-369.30402468171894,233.87995010681152,405.7242985584481
539,5.2800410398809365,-208.02696775656034,-102.11168329923454,207.0501367642711,120.10602602009585,-373.1493884259648,232.00910730864337,416.05344065349726
540,7.003240754056401,-206.22170164697937,-101.81250279845054,200.3296559761899,132.45067158410865,-376.8568874816217,230.25229112325528,427.3960265577326
541,8.583807653517574,-204.51162514956806,-101.53508021262442,192.76901336529264,146.79099397444767,-380.44047734440505,228.60123858255812,439.61805157233306
542,10.005236364612683,-202.89680356328861,-101.25903394311875,184.62641876160458,162.9265998563801,-383.9077615344388,227.04548312419533,452.5742520535682
543,11.252689145790274,-201.37485635965098,-100.9653555549166,176.14757529673253,180.62522382250643,-387.25976142598563,225.57283523310264,466.1085411386666
544,12.31321771357053,-199.94132033991752,-100.63681055045662,167.56055220744224,199.626472601173,-390.49090532387527,224.16993424294967,480.0546961696236
545,13.176012815505487,-198.59009424312188,-100.25828430057199,159.07129865926768,219.6462100428878,-393.58923302773945,222.8228502235443,494.23736454432213
546,13.832674891218295,-197.31394251851881,-99.81706619838594,150.8599200203995,240.3815104709705,-396.53680380277706,221.51771177276703,508.473436043668
547,14.277495122232466,-196.10503287417671,-99.30306660126537,143.0778114839801,261.51609024021263,-399.3102892407747,220.24133337323806,522.5738084856604
548,14.507732681769234,-194.95548043253245,-98.70896284883442,135.84571289777642,282.7261112827323,-401.88172821178415,218.98181509512455,536.3455513721217
549,14.523871452943762,-193.85787122183675,-98.0302725653829,129.25271530197196,303.68623651778057,-404.21941857413697,217.72908814899722,549.5944500207098
550,14.329838257392023,-192.80573941687268,-97.26535462632337,123.35621617561348,324.07580582306855,-406.28891885711846,216.47538227109604,562.1278912242645
551,13.933165050820907,-191.79397594201495,-96.415340642071,118.18278825118826,343.58499351235184,-408.0541321910459,215.21559498249488,573.7580314640253
552,13.345079610705492,-190.81915029756388,-95.48400239570957,113.729896702309,361.92080474568047,-409.4784440402996,213.94754791992293,584.3051710024058
553,12.580512460877067,-189.8797324549882,-94.47756281984287,109.96837195870589,378.81276965630894,-410.5258846952769,212.6721211405324,593.601242694157
554,11.658011434025536,-188.9762072808186,-93.4044592690629,106.84552106880032,394.01820021663275,-411.16228688898764,211.39326216358717,601.4933135883967
555,10.599559014308445,-188.11107999411274,-92.27506798761713,104.28874064543498,407.3268851634999,-411.3564081759484,210.11787229958694,607.8469902909796
556,9.430291534383697,-187.2887771795284,-91.1013982584195,102.20948037150984,418.5651115078614,-411.080986896819,208.85557833224573,612.5496154192539
557,8.178123499716223,-186.51545333638455,-89.89676428037497,100.50739878074315,427.5989165372191,-410.3137000272375,207.61840261496081,615.5131425049088
558,6.873284472625162,-185.7987175026241,-88.6754425144126,99.07455294511517,434.33649169707905,-409.0379914187515,206.42034885063237,616.6765809322651
559,5.547779593826701,-185.14729796982235,-87.45232183796364,97.79947074493698,438.7296794616566,-407.2437401076725,205.27692394161627,616.007911376008
560,4.234787670039262,-184.57066529024004,-86.24255310266811,96.57096823398936,440.77452617866066,-404.9277405734905,204.20461801317512,613.5053857689471
561,2.968012785524006,-184.07863452088532,-85.06120363716911,95.28159456137529,440.5108772984931,-402.09397026420584,203.2203649213595,609.1981436955693
562,1.781006669521426,-183.68096711633834,-83.9229211204637,93.83061185205408,438.02102524828126,-398.75362464316044,202.34100452511944,603.1460983771962
563,0.706479633696706,-183.3869914133209,-82.84161027806334,92.12644599086373,433.42744308302406,-394.92490644773505,201.58276614630378,595.4390687024056
564,-0.22438215475141324,-183.20525839986132,-81.83012514622945,90.08857511253389,426.88965774174085,-390.63256333238655,200.96079016956162,586.1951575304082
565,-0.9825759067739007,-183.14324640149846,-80.89997934542541,87.64885455684602,418.60033473510384,-385.9071760239644,200.4887016978193,575.558399635933
566,-1.5419018977057775,-183.20712452716708,-80.06107705618408,84.75230840821649,408.78066171746616,-380.78420730454974,200.17824673313785,563.6957247449185
567,-1.8795291111644186,-183.40158050531633,-79.32146823662856,81.35744606371057,397.6751325382271,-375.3028306671462,200.0389978011024,550.7933021694828
568,-1.9764942805041774,-183.72971432523838,-78.68713286583132,77.43618490360655,385.5458469410465,-369.5045665055054,200.0781325737127,537.0523536942895
569,-1.8181238490330827,-184.1929952352488,-78.16180026511161,72.97347489212278,372.66645461169736,-363.43176319771123,200.300286022465,522.6845405841349
570,-1.3943702537037632,-184.79127631363153,-77.74681047098163,67.96672637996646,359.3158857013386,-357.1259702514382,200.70747394182405,507.9070486525609
571,-0.7000553574158518,-185.5228580657281,-77.44102501168021,62.42513789554193,345.77202249410965,-350.6262602821287,201.29908328024638,492.9375115553501
572,0.2649851264772088,-186.38459043660296,-77.2407942499753,56.36900664009423,332.3054770156594,-343.96756499859265,202.0719227181711,477.98892546522416
573,1.4958612743198034,-187.37200157511614,-77.13998767418326,49.82908214856969,319.1736449666447,-337.1790964131295,203.02032564097019,463.26471619697963
574,2.9826959389937233,-188.47944189342763,-77.13009203584296,42.84599553915531,306.61520513225463,-330.282927345473,204.13629727846111,448.9541209175419
575,4.710799691641113,-189.70023328028591,-77.20038001334353,35.46976617237289,294.845223593748,-323.2928044993453,205.40969816703364,435.22803951932485
576,6.660950975853126,-191.02681524649944,-77.33814928883716,27.759358191903207,284.0510029628061,-316.2132625599942,206.82845682133402,422.2354949439009
577,8.809775099291873,-192.45088188745967,-77.52902874223493,19.782235395690897,274.388789086566,-309.03909847868255,208.37880524503421,410.1008174456689
578,11.130212199496087,-193.96350575883687,-77.75734495911423,11.61384795982854,265.9814130706441,-301.7552512913316,210.045531605484,398.9216363591652
579,13.59206141746239,-195.55524714856574,-78.00653862351069,3.33698113689612,258.91690786702947,-294.3371151159804,211.81224517744494,388.76772699902074
580,16.162586505371088,-197.21624964983755,-78.25961717841365,-4.959096079236078,253.24809941912025,-286.75129292015987,213.6616495867944,379.68072325639497
581,18.807167004256442,-198.93632496358467,-78.49962795997146,-13.179728420537277,248.99313559230777,-278.95677826219855,215.5758212577379,371.67467137925735
582,21.489978766378414,-200.7050310631324,-78.7101349970154,-21.226244583974655,246.1368840599471,-270.9065331258567,217.5364904659297,364.7373692404491
583,24.174687813113202,-202.5117481424152,-78.87568268271191,-28.99760720940882,244.63310398299666,-262.54941289288956,219.52532242424078,358.8324086981491
584,26.825142247077245,-204.34575638431772,-78.9822305184297,-36.39233102923223,244.40727602246872,-253.83237460367036,221.52419561791794,353.90181658825367
585,29.406048052337653,-206.19631884220732,-79.01754506036254,-43.31064062808378,245.3599612904952,-244.70289232592478,223.51547445052205,349.86917307919776
586,31.883615942820256,-208.0527717736364,-78.9715377760967,-49.656824293052644,247.37055288444225,-235.11149443438728,225.4822731883293,346.64307571369324
587,34.22616788938904,-209.90462364215728,-78.8365403130593,-55.341728045748546,250.3012841727269,-225.01433253125094,227.40870808149478,344.1208144614801
588,36.40469358018185,-211.74166285253503,-78.60751144730473,-60.28532417156631,254.0013659080391,-214.3756906984366,229.28013443946202,342.192127692286
589,38.39334875454089,-213.5540733517917,-78.28217266300724,-64.41928091549723,258.3111384394984,-203.1703463864309,231.08336554037086,340.7429202300827
590,40.1698889539087,-215.33255667602953,-77.86107181937473,-67.68945397509437,263.066143605249,-191.3857000380034,232.80687065888972,339.6588407013992
591,41.716033745845074,-217.06845883188845,-77.34757655723732,-70.05821600580225,268.1010404303181,-179.02359918939905,234.44095014074247,338.8286339036357
592,43.01775791632223,-218.75390050362483,-76.74780093721573,-71.5065383813399,273.2533067248255,-166.10179397451546,235.97788626374512,338.14720268273356
593,44.06550727974273,-220.38190951215438,-76.0704702556076,-72.03574120956527,278.366683058601,-152.65497405778808,237.41206960402266,337.5183311110019
594,44.85433737443635,-221.94655522468597,-75.32672995992354,-71.66883403266834,283.2943253676725,-138.73535094193983,238.740101703912,336.8570353498768
595,45.38397353046586,-223.44308543238915,-74.52990514511146,-70.45138063959942,287.90163743702107,-124.4127630212407,239.9608757784981,336.0915195452836
596,45.658791090992786,-224.86806663244292,-73.69521756953682,-68.4518357820751,292.0687552314178,-109.77429269329322,241.0756377583323,335.1647209925296
597,45.68771528388693,-226.21952843494557,-72.83946770345486,-65.76131748345286,295.69265286851953,-94.92339503467652,242.08803005546025,334.0354320442136
598,45.48404138273614,-227.49711196146174,-71.98068985518724,-62.492794217489404,298.68883703495396,-79.97854637746345,243.00412000939212,332.67898717525077
599,45.06517722046062,-228.7022206032334,-71.13778861433654,-58.77968013665905,300.9925950244969,-65.07142928909172,243.8324138925906,331.08750404442077
600,44.45231171113633,-229.83816935289443,-70.33016465016243,-54.77384318868511,302.5597628074809,-50.344678656057056,244.5838555791765,329.26966880129174
601,43.670014679866824,-230.9103262926034,-69.57733755556714,-50.6430408187819,303.36698409971086,-35.9492223610986,245.27180672063116,327.25005918322205
602,42.74577478098075,-231.92623703245255,-68.89857324290475,-46.567807386778675,303.41143911764493,-22.041259732639116,245.9120028712898,325.0680046040788
603,41.70948335438358,-232.89572018141942,-68.31252350186632,-42.737828302305104,302.71003227688874,-8.7789315291825,246.5224776698433,322.7759907769462
604,40.59287267381045,-233.83091954360137,-67.83688560268932,-39.3478498385942,301.29804127217744,3.6812535327821885,247.12344509473274,320.43762765089116
605,39.42891743605099,-234.74629720191766,-67.48808996673822,-36.593191403018416,299.22724550602396,15.188159145987004,247.7371284396109,318.12521351758295
606,38.25120891512037,-235.65855169200978,-67.2810235751966,-34.664948416238076,296.5635693042494,25.599840794077405,248.38752464722543,315.9169445851386
607,37.09331215149958,-236.58644753890613,-67.2287957251623,-33.744997533501156,293.38429419459743,34.787346033516194,249.1000944145512,313.89383722657453
608,35.988117706832156,-237.55054653872895,-67.34255098417444,-34.00093939125255,289.77491399765,42.63838950692402,249.9013720430284,312.1364482440351
609,34.9672005164056,-238.57283695597454,-67.63133192593658,-35.58113434691388,285.82572567484664,49.06079169125221,250.81849401397955,310.72149541755294
610,34.06019888643851,-239.6762636353086,-68.10199172869292,-38.610000773000465,281.62826663657876,53.9855695484982,251.87865113703916,309.7184949346139
611,33.29422658420483,-240.88416911314815,-68.75915430402917,-43.18375099232967,277.2717240517773,57.36957089642619,253.10847516356614,309.1865428031434
612,32.69333028850494,-242.21966240991438,-69.60521759813216,-49.36673538124404,272.83945178795165,59.19755276254409,254.5333763431052,309.1713729436089
613,32.278003460278356,-243.70493759087032,-70.64039431224356,-57.18854989708939,268.40573391412346,59.483617298294064,256.1768529388425,309.70282430315723
614,32.064766016352884,-245.3605676897068,-71.86278371848015,-66.64203669808946,264.0329284318872,58.271936729191005,258.05979659860577,310.7928421856232
615,32.06581721664715,-247.2048007372241,-73.26846854967577,-77.68227307775564,259.76911017318594,55.63672064308192,260.19981830907386,312.4341246236984
616,32.28876719749531,-249.25288367569593,-74.85163186749892,-90.22660298979358,255.64630813199526,51.68140366440792,262.6106186488559,314.5995031312259
617,32.73645081236594,-251.5164376965714,-76.60468991749144,-104.15572099101246,251.67940182734054,46.53705790867634,265.3014238937476,317.2421190490897
618,33.40682586339084,-254.0029057406782,-78.51843792666294,-119.3157737875926,247.8657065030026,40.36006111409522,268.2765068140555,320.29642270207864
619,34.29295628931674,-256.71508979696875,-80.58220649401362,-135.5214028212801,244.1852411357561,33.32907673038681,271.5348079417897,323.6799838951282
620,35.383079363884704,-259.6507922232913,-82.78402670514137,-152.5596147304532,240.60163913563957,25.641425544014673,275.06966967900075,327.29606074812
621,36.66075454847276,-262.8025716376271,-85.11080238793322,-170.19433625030555,237.0636316637927,17.50894888520816,278.8686919293624,331.0368321255717
622,38.105090499303834,-266.1576201380646,-87.54848800729364,-188.17148667980356,233.50700970900135,9.15348042511963,282.9137141206029,334.7871601815525
623,39.691045989501,-269.6977648170609,-90.08227066701551,-206.22438494006997,229.8569551194869,0.8020564349323065,287.18092470277116,338.42871727814696
624,41.3898002006274,-273.3995927507324,-92.69675476548561,-224.07930042101384,226.03062378258784,-7.317997315848002,291.64109554483014,341.84428909083226
625,43.16918781859404,-277.2346949083056,-95.3761481938575,-241.46095865405127,221.93986630201096,-14.983960426534482,296.2599351814113,344.92205589159477
626,44.9941943911972,-281.17002096906083,-98.10444952470222,-258.0978257283026,217.49398185184384,-21.98245464715421,300.9985517527099,347.55965850207633
627,46.827507377370196,-285.1683342323139,-100.86563621070415,-273.7270197043385,212.60241714089761,-28.113889832311127,305.8140140128785,349.66787419847356
628,48.630118306225945,-289.18875401327045,-103.6438540882622,-288.09873162077946,207.17734151877227,-33.19649872182315,310.65999719821707,351.17375879480176
629,50.361971368631856,-293.18737231509,-106.42360810727386,-300.9800794835164,201.1360480190329,-37.06985735134616,315.48749988847845,352.02315023386075
630,51.98265320992707,-297.11793208662704,-109.18995299234899,-312.15836095671756,194.403145978783,-39.597808823067176,320.2456180829812,352.1824712710736
631,53.45211732960181,-300.93255569344245,-111.92868068907562,-321.44370936661267,186.91252217337635,-40.67073164499811,324.88236326129237,351.63980939975716
632,54.731434309245465,-304.582513877428,-114.62649955277355,-328.67118921907957,178.60905354666616,-40.207118510187975,329.3455119516739,350.4052872923728
633,55.783556385867556,-308.0190270061565,-117.27119892854807,-333.7023894866033,169.4500559379638,-38.15445578657776,333.58347511096014,348.5107645025698
634,56.57408202347825,-311.19409146041806,-119.85179233777201,-336.4265847727563,159.40645096479162,-34.48941673728916,337.54617623978083,346.0089303123692
635,57.07200341247131,-314.06132425336153,-122.35863281674875,-336.76153656226245,148.46362946322816,-29.217401465872403,341.1859273331513,342.9718589628529
636,57.25041763127635,-316.5768180656858,-124.78349486749191,-334.654000042281,136.6219870436679,-22.3714730616844,344.45829119290784,339.48910322742887
637,57.08718098610637,-318.6999966218495,-127.11961898902534,-330.07998756942044,123.89710761840495,-14.010752132453236,347.32291721466623,335.6654016993448
638,56.565485963008484,-320.3944570041602,-129.36171687665646,-323.04481952831975,110.31957571727347,-4.218341002092536,349.74433579053743,331.6180708932713
639,55.67434108292209,-321.6287818131076,-131.50593780239146,-313.5829700034726,95.93440847371963,6.901145202098553,351.69269442356153,327.4741474209026
640,54.408935550157096,-322.3773006960419,-133.54979885627543,-301.75769211639033,80.80011254904622,19.224359949557297,353.1444168788686,323.36734029664336
641,52.77087291894966,-322.62077803753886,-135.49208320666793,-287.66038958437895,64.98738814689119,32.61223724782776,354.0827653526077,319.4348504004716
642,50.76826111169834,-322.3470017594394,-137.33271131215477,-271.40968946906963,48.5775193256689,46.91315273541698,354.4982849181276,315.8141138226584
643,48.41564998700855,-321.5512475173565,-139.07259035640496,-253.15016746657335,31.660504783399453,61.96615500421968,354.3891097654482,312.6395281424818
644,45.733812156824186,-320.2365934503649,-140.7134472820007,-233.05068188808536,14.332994381219448,77.60419266763665,353.7611123377571,310.0392253977482
645,42.7493677024044,-318.4140633102669,-142.2576506917565,-211.30228543634553,-3.303897201767449,93.65726898196444,352.6278795878815,308.13196222954315
646,39.494258736695336,-316.10258039799874,-143.70802657774198,-188.11570381567452,-21.146827391281736,109.95546366094166,351.01050531687537,307.02420557291254
647,36.005085383704724,-313.328721202139,-145.06767243743536,-163.71839480179065,-39.09244456935333,126.33177050650315,348.9371938816725,306.8074995417099
648,32.32232046831844,-310.1262655439223,-146.33977402448159,-138.35122733110217,-57.03952678083483,142.62470919479708,346.44267811161484,307.55620316433806
649,28.489425489651442,-306.53554855895806,-147.52742898305038,-112.26484368866474,-74.89098566820626,158.6806794868906,343.56746230607956,309.32568634306386
650,24.551894725402338,-302.6026280963717,-148.63348202244865,-85.71578570444522,-92.55568770930235,174.35603559172844,340.35690884529544,312.15106049166064
651,20.556257274595644,-298.3782885710862,-149.6603767951092,-58.96247622729146,-109.950050444242,189.51886659207187,336.86019361823526,316.0465002828892
652,16.549068372033084,-293.91690886150076,-150.610029630275,-32.26115012309798,-126.99937688090415,204.0504750993341,333.1291608423375,321.0051857202125
653,12.575921365759472,-289.2752274969272,-151.483729311477,-5.861826090273685,-143.63889800215284,217.8465505452852,329.21711178454296,326.999862958079
654,8.680510422075248,-284.51104296109895,-152.28206526539486,19.99559619938448,-159.81450169084016,230.81803636345086,325.1775643407836,333.98399176927296
655,4.903771458088148,-279.68189017269714,-153.00488439660546,45.085037330739524,-175.48313552336793,242.89169262592694,321.0630214400987,341.89341996824965
656,1.283125068961901,-274.8437358793225,-153.65127502666522,69.1976685138286,-190.61287923854363,254.0103580414994,316.9237859880022,350.64850153422634
657,-2.1481596535478187,-270.04973568946167,-154.21957548712882,92.14500557052347,-205.18268933717837,264.1329178009718,312.80685875291766,360.1565558224782
658,-5.361467311329651,-265.34909369919717,-154.70740500323583,113.76160032734963,-219.18182360817286,273.23398671539377,308.7549533058613,370.31455041123843
659,-8.333197516112318,-260.78606227184525,-155.1117152312046,133.9072591921074,-232.60895894678563,281.30332054690274,304.80565882916056,381.01188071049626
660,-11.044984426876708,-256.3991147819998,-155.42886154850515,152.46871488051002,-245.47102333805927,288.3449723380436,300.9907772663059,392.1331167861063
661,-13.483778777988924,-252.22031815349206,-155.65469343265022,169.36067858099972,-257.781773205736,294.37621481245384,297.3358557375107,403.56059335703225
662,-15.641800735559961,-248.27492470251116,-155.78466279796132,184.5262107511045,-269.5601602738156,299.4262547297026,293.8599282062363,415.17673395015794
663,-17.51637486586223,-244.58119419000343,-155.81394810113358,197.93637155968392,-280.8285466935678,303.53477089714596,290.5754721542851,426.86602552888894
664,-19.109660492365176,-241.15044747202847,-155.73759075858158,209.5891461381059,-291.61084188417277,306.7503146025919,287.48857704429605,438.5165946820701
665,-20.428291946300313,-237.98734325970148,-155.55063945441444,219.50768181086465,-301.9306470356073,309.1286189705395,284.59931236524966,450.02137724125413
666,-21.482943827673218,-235.0903598077923,-155.24829768520496,227.7379188800437,-311.80950081437874,310.73087073187264,281.9022747634339,461.278914350605
667,-22.287836637074005,-232.45245437039992,-154.82607057607729,234.34573726468858,-321.2653202135914,311.6220021977446,279.38728670712493,472.19384320370295
668,-22.860198451930238,-230.061865489929,-154.27990847521846,239.41377283118803,-330.31112263518224,311.86906099837654,277.0402136646767,482.6771744826641
669,-23.21969899584617,-227.90301704437533,-153.60634658626475,243.038075311248,-338.9540995621242,311.539709363558,274.84386295251073,492.64645769831475
670,-23.38787318563775,-225.95747885664494,-152.80264119633748,245.32478174381552,-347.1950902127966,310.70089373364715,272.7789250849315,502.02592965019875
671,-23.387551353430222,-224.20493698024325,-151.8669033580578,246.38696513888678,-355.02847792157075,309.41771098680164,270.82491758780674,510.7467225111988
672,-23.242312449374953,-222.62412785766418,-150.79823018897716,246.34178976227352,-362.44250555917705,307.75248201206057,268.9610920683646,518.7471811247625
673,-22.97597477401488,-221.19369451807097,-149.59683266103355,245.30806615968422,-369.41998166750045,305.76402924611995,267.16726820509524,525.9733091638451
674,-22.61213645310705,-219.89292968465247,-148.2641572531332,243.40425560606582,-375.93932796347946,303.5071439594599,265.42456335527055,532.3793352212865
675,-22.17377509889599,-218.70237966198877,-146.80299734157649,240.7469297926481,-381.9759025385689,301.0322222335247,263.71599343396264,537.9283655549311
676,-21.68291296964974,-217.60429341783788,-145.2175888143442,237.44965153421455,-387.50352195558077,298.3850453450184,262.0269290174928,542.5930716410596
677,-21.160350546829605,-216.58291231744022,-143.5136832467326,233.62220989925353,-392.49609962497743,295.60667977227075,260.3453994419196,546.3563487347075
678,-20.625467970413464,-215.6246063423171,-141.69859129012016,229.37012146522443,-396.92931712774885,292.73347349936813,258.6622461222482,549.2118769143315
679,-20.0960904700904,-214.71787135134792,-139.78118891990118,224.7942999413427,-400.78224917974194,289.7971283689483,256.9711336985623,551.1645189841295
680,-19.5884110619706,-213.85320851160358,-137.7718799385216,219.99079863416102,-404.0388711953149,286.82483270534965,255.26843354630114,552.2304997219235
681,-19.116961414038677,-213.02291141472168,-135.6825096305943,215.05054171612392,-406.6893900196781,283.8394436820922,253.5529986616548,552.4373265945784
682,-18.694619819537746,-212.22078882572882,-133.5262267134685,210.05897798697302,-408.7313518996603,280.8597138647138,251.8258521441939,551.82343053398
683,-18.33264368230536,-211.4418516960585,-131.3172935973969,205.09561255381678,-410.17049534193995,277.9005600375638,250.08981357220017,550.437524050681
684,-18.040713119218392,-210.68199208875924,-129.07084815720293,200.23339611362013,-411.02132855147863,274.97337441989356,248.34908842862978,548.3376909609752
685,-17.826972609662665,-209.9376790362926,-126.8026233587924,195.53797655383946,-411.30742068588034,272.0863787710795,246.608845243753,545.5902359811267
686,-17.698059249661686,-209.20569225132888,-124.52863386377041,191.06684096235855,-411.06140303841903,269.24502088832685,244.87480326380037,542.2683324037738
687,-17.659108997344568,-208.48290946222392,-122.26484086570856,186.86839551865125,-410.3246810491762,266.4524109006716,243.15285042548894,538.4505116856765
688,-17.71373601839175,-207.76615749341804,-120.02680770452716,182.98104489810086,-409.14686184450005,263.70979206630676,241.44870754220426,534.219040774292
689,-17.86398437420904,-207.05213148947863,-117.82935933534795,179.43234184365454,-407.58490603160016,261.0170381153067,239.76765024492275,529.6582328819867
690,-18.110255284990448,-206.3373811324957,-115.6862587268453,176.23828206742482,-405.70201757092434,258.3731669734365,238.11429564921093,524.8527365629385
691,-18.45121668004305,-205.61835754777493,-113.60991279853283,173.40281972593718,-403.5662919841839,255.776859032901,236.49245614570486,519.8858469491546
692,-18.883704679682396,-204.89151023479172,-111.61111944791682,170.91767338931152,-401.2491507421923,253.22696688127442,234.90505843605868,514.8378816412159
693,-19.402629058659073,-204.15342032659552,-109.69886549766994,168.76248022376404,-398.82359790444366,250.72300240655994,233.35412241140665,509.7846613850492
694,-20.000896414180392,-203.40095512484447,-107.88018306355154,166.9053364606657,-396.36234309630765,248.26558634893084,231.84079204735673,504.7961316218579
695,-20.66936539485739,-202.63142915451442,-106.1600689738967,165.30373659307304,-393.9358415586855,245.8568447032064,230.36540919080184,499.9351548747366
696,-21.396847831506648,-201.8427586273373,-104.54146858564478,163.90589544768946,-391.61030625576905,243.50073617304506,228.92762075041264,495.2564958876709
697,-22.170168075284504,-201.0335988220359,-103.02532191729328,162.65241019833164,-389.4457485139048,241.20329554585265,227.52651019872513,490.8060122700829
698,-22.974290481835723,-200.20345709027507,-101.61066684524765,161.47819649434328,-387.49410279431646,238.9727796816187,226.16074529632155,486.6200543079974
699,-23.79252186522963,-199.35277752691943,-100.29479156842916,160.31461568699643,-385.79748866957874,236.8197058247458,224.82873532731773,482.7250696154316
700,-24.606791856521564,-198.48299636410607,-99.07342685383514,159.09169913559614,-384.38665933857624,234.7567759184598,223.52879258996242,479.13740195178127
701,-25.398009545872814,-197.59656956647314,-97.94096769659483,157.74037093567267,-383.27968123300815,232.7986850370667,222.2592941413083,475.8632689371848
702,-26.146490015466785,-196.69697576675642,-96.89071379334374,156.19457225589545,-382.4808835492175,230.9618163800343,221.01884066257048,472.8989005738716
703,-26.83243995661442,-195.78869851034398,-95.91511850514041,154.39319875051362,-381.98011012156127,229.26382910596743,219.8064096943179,470.23081957026295
704,-27.436487806164276,-194.87719177666773,-95.00603671259401,152.2817769402163,-381.7522992424659,227.723148527495,218.62150038110389,467.8362457016113
705,-27.940240774432915,-193.96883202784528,-94.15496311415885,149.8138254112355,-381.7574100073836,226.358370883668,217.46426636742476,465.6836098585507
706,-28.326848891463335,-193.07085881288688,-93.35325403889279,146.95187080665127,-381.94070646089415,225.18759700706426,216.3356327980382,463.7331684443935
707,-28.58155504706586,-192.19130448806786,-92.59232760937661,143.6681142357597,-382.23340307609897,224.2277105719022,215.2373927118562,461.9377140447118
708,-28.692210074847768,-191.33891216065737,-91.8638389503887,139.9447671439556,-382.55366695433315,223.49361737762834,214.17227766713827,460.2433822692176
709,-28.649733033006438,-190.52303975808135,-91.15982905044446,135.77409313563624,-382.8079640528077,222.99746299337062,213.1439973667021,458.59055654453874
710,-28.448498647790814,-189.75354733725314,-90.47284786608925,131.158201498342,-382.8927294405121,222.74784805829213,212.15724349159214,456.9148727208551
711,-28.086636271024723,-189.0406644691688,-89.79605416054022,126.1086392987139,-382.6963354674948,222.74906412893512,211.2176539027961,455.14832447750916
712,-27.56622772436849,-188.39483484125353,-89.12329600121248,120.64582395429363,-382.10132657678605,223.0003777262763,210.33173474962598,453.2204691454698
713,-26.893395103237125,-187.8265362417167,-88.44917645689313,114.7983500661463,-380.98688452847455,223.49539489364872,209.50673980334884,451.05973147513225
714,-26.07827376095208,-187.34607590880276,-87.76910877079484,108.6021956936463,-379.2314821195557,224.22154166001238,208.75050852550672,448.5947993597658
715,-25.13486977673977,-186.96336370709471,-87.07936433356734,102.09984598931669,-376.7156763388016,225.15969614711875,208.07126685205185,445.7560998544903
716,-24.080804809476785,-186.68766834852562,-86.37711542136553,95.33934718586016,-373.3249831471824,226.28400504338134,207.47739711968347,442.4773357951502
717,-22.936954349680395,-186.5273644617912,-85.6604731015984,88.37330164501323,-368.95276652809304,227.5619107713979,206.97718565677917,438.69705361886736
718,-21.72698827369318,-186.48968043549027,-84.92851905973659,81.25781469800764,-363.50306577772676,228.95440645127186,206.57855813410748,434.36020315096226
719,-20.47682547343393,-186.58045848676323,-84.18132850325999,74.05140545588564,-356.89327909045096,230.41652470524824,206.28881378974395,429.41964194216484
720,-19.214017174395934,-186.80393919395968,-83.41997991680303,66.8138955642189,-349.05661971902293,231.8980546382753,206.11437004146603,423.83753161754964
721,-17.96707618755202,-187.1625825239427,-82.64654645012867,59.605291187433636,-339.9442638517817,233.34447002855464,206.0605285962755,417.5865722964
722,-16.76477149569966,-187.65693602889894,-81.86406338806927,52.484674005663116,-329.52711645767846,234.69804169791936,206.1312729054013,410.6510233740521
723,-15.635409018811304,-188.28555859374316,-81.07646677433968,45.50911676975717,-317.7971317910752,235.89909877139834,206.32910498759838,403.02746425464164
724,-14.606120090508782,-189.04500529179987,-80.28849988385915,38.7326382599503,-304.7681381775508,236.88739725685014,206.65492764625463,394.7252563195096
725,-13.70217921170142,-189.92987575194576,-79.50558654129594,32.20521177940415,-290.4761317435367,237.6035497888227,207.10797600464474,385.76667702013873
726,-12.946372046395442,-190.9329249367903,-78.73367280934582,25.97184132131792,-274.97902091925096,237.99046707994884,207.68579988795238,376.18670830146164
727,-12.358433221821722,-192.0452315231988,-77.97904100247476,20.071721132177395,-258.35582281040604,237.99475965412523,208.384295893047,366.03247460390054
728,-11.954571162068456,-193.2564156065679,-77.24810215847751,14.537497876427857,-240.70533334745846,237.56804837136434,209.19778534733192,355.36234026879214
729,-11.747094082576329,-194.55489470057768,-76.5471748645817,9.39465925862796,-222.1443141449515,236.66813469521205,210.11913216114195,344.24469141449185
730,-11.744147734582166,-195.9281652501608,-75.88225950018101,4.661077360841031,-202.8052583201349,235.25998682863576,211.13989303352875,332.7564417861011
731,-11.949571683029692,-197.36309618103104,-75.25881740177198,0.3467377932453583,-182.83381319880272,233.31650558063288,212.25049162070593,320.98131420656017
732,-12.362876807796495,-198.8462213625077,-74.68156418018226,-3.5463140395599915,-162.3859484279957,230.81904352998384,213.4404081355725,309.00795793680425
733,-12.979342414000167,-200.36401926728834,-74.15428550577887,-7.02378186320575,-141.6249627281449,227.757661766863,214.69837647394297,296.92796684007254
734,-13.790227106321366,-201.9031704751323,-73.6796822504957,-10.098663430622802,-120.71842126430451,224.1311193888967,216.01258232922842,284.83386385364116
735,-14.783083757000247,-203.4507865916277,-73.25925016520262,-12.790525749457743,-99.83510908214554,219.94660171268936,217.37085757364795,272.8171149203708
736,-15.942165736263426,-204.9946070667673,-72.89319754858454,-15.124522892669646,-79.14207561718425,215.2192036723413,218.76086800281556,260.9662315163334
737,-17.248909221680595,-206.52316291247988,-72.58040276543055,-17.130189256429144,-58.80183271459352,209.97119448039294,220.17029304463097,249.36501587812623
738,-18.682474850750353,-208.02590832968352,-72.31841200661508,-18.840061974630252,-38.969755721359455,204.23109744897724,221.5869971353456,238.09099685668082
739,-20.22033108352903,-209.49332276336207,-72.10347639491732,-20.288203942608213,-19.79172565522372,198.0326245032743,222.99919318399665,227.21409671832077
740,-21.83886121265324,-210.91698689062355,-71.93062649112946,-21.508710230101617,-1.4020413365322597,191.41350858959257,224.39559888428676,216.79556022100584
741,-23.513975857981897,-212.28963648028508,-71.79378134901128,-22.53428357966236,16.07837597389788,184.41427927467274,225.76558653113887,206.8871672771004
742,-25.221712910684047,-213.60519795406148,-71.68588831910472,-23.39495900075026,32.54346696428805,177.07702750074836,227.09932640704037,197.5307399549835
743,-26.938807168295597,-214.85880896545189,-71.59908878117466,-24.117044295847947,47.903192147131456,169.44420457344623,228.3879228387184,188.75794390109692
744,-28.64321239940256,-216.04682664152955,-71.52490401747872,-24.722324679574246,62.08435078015765,161.55749773265367,229.6235409771337,180.59037375167247
745,-30.314559586326897,-217.1668255063362,-71.45443466553168,-25.22755831211059,75.03105284007388,153.4568199000058,230.79952150109028,173.03990197285052
746,-31.934536949837824,-218.21758656853936,-71.37856684618713,-25.644268805581664,86.7048425680843,145.17944469242354,231.91047995857937,166.10926138310498
747,-33.48718022677688,-219.19907859210338,-71.28817845650549,-25.97882317217401,97.08448076356623,136.75931036319736,232.95238745758886,159.79282441106156
748,-34.959065474247815,-220.11243224095057,-71.174340288046,-26.23277057889134,106.16540324475962,128.22650883921014,233.92262997527814,154.07753792420206
749,-36.33940110497756,-220.95990771632398,-71.0285082297546,-26.40340892811972,113.95888380678747,119.60696884688385,234.82004463093534,148.94397160909767
750,-37.620020521016585,-221.7448566850157,-70.8427043848037,-26.484542270173026,120.49094072596807,110.92233522509873,235.64493265421305,144.36744014474598
751,-38.79528133128054,-222.4716795194238,-70.60968617770746,-26.46739120244858,125.80103567879208,102.19003981575224,236.39905014353027,140.31916413381774
752,-39.86188153298435,-223.1457788497617,-70.32310333242846,-26.341618948636178,129.94062197133528,93.42355286492608,237.08557871340824,136.76744086428283
753,-40.818606901300456,-223.7735100198109,-69.97764294199598,-26.09643611299293,132.9716038970922,84.632797934002,237.70907857254278,133.67880202037276
754,-41.666026741518856,-224.36212842986754,-69.56916276076795,-25.72174646040361,134.96476955489038,75.82470827807524,238.27542656235127,131.019140090853
755,-42.40615688895805,-224.9197334394607,-69.09481240527313,-25.20929484863081,135.99825504375434,67.00389873887185,238.79174166116238,128.75478772307906
756,-43.042109500272346,-225.45520885488347,-68.55314146550666,-24.553777597312884,136.15608915142187,58.17342453242482,239.2663008189954,126.85353477461344
757,-43.577748935880614,-225.97816083598536,-67.94419279957674,-23.753875977574822,135.5268556179892,49.335597074885776,239.70844862144423,125.28556698943943
758,-44.01737192028928,-226.49885474869524,-67.26957869440919,-22.813175425772894,134.20249592775028,40.492827443601115,240.12850470098462,124.02430872362265
759,-44.36542823394214,-227.0281527019055,-66.53253712013809,-21.740936173881945,132.27726028968888,31.648470258603712,240.5376726795303,123.04715024122589
760,-44.626295631888176,-227.57745321092577,-65.73796487523902,-20.552684549116755,129.84679893313626,22.807644270509947,240.9479537061256,122.33603779086816
761,-44.80411968289075,-228.1586336571402,-64.89242407348237,-19.27059764327927,127.00737125264479,13.978009947662049,241.3720664224261,121.87790210896092
762,-44.902725804889336,-228.7839950007278,-64.00411837198955,-17.923657396298076,123.85513813547034,5.170488067552944,241.82337354171185,121.6648989005394
763,-44.92560695435491,-229.46620675295097,-63.08283565648109,-16.547554161648126,120.48549437896794,-3.6000937035674685,242.31581337666196,121.69443447656994
764,-44.87598640730503,-230.21824892952014,-62.139854489989744,-15.18432569398208,116.99239430616394,-12.31443709965622,242.86383297734494,121.9689522866573
765,-44.75695113607297,-231.05334698832775,-61.18781248108157,-13.8817260078019,113.46762459336512,-20.948301925930313,243.48231845939367,122.49546209783962
766,-44.57164753161273,-231.98489572498647,-60.24053597614621,-12.69232956480549,109.99998337940747,-29.47213613911377,244.1865177802725,123.28480268530136
767,-44.32352756734493,-233.02636858201797,-59.312832165945316,-11.672388755581421,106.67433315198046,-37.8508166925752,244.99195149213952,124.3506402492436
768,-44.01663008211755,-234.19120965009992,-58.420246595930436,-10.880475221260475,103.57050608297415,-46.04351138019949,245.91430765764505,125.70821746956572
769,-43.655879132685506,-235.49270676377404,-57.57879092383485,-10.375946832334792,100.76205405561856,-54.00367292981294,246.96931811771518,127.37288153637736
770,-43.24737969064318,-236.94384539476374,-56.80464754805288,-10.217291114692602,98.31485126514539,-61.67917742099796,248.17261457572627,129.35843321801696
