time,ax,ay,az,gx,gy,gz,accmagnitude,gccmagnitude
0,22.270352552591035,-250.50789007277473,-14.398318572988146,-23.129039036669198,25.10398072877949,-12.466898612062035,251.9557994907737,32.06347597818556
1,22.365184158070228,-250.349656087024,-14.122162886416175,-24.744247955366244,22.711489839741695,-10.680660098621479,251.7965639281896,32.9572704593184
2,22.445573240644997,-250.22143543487607,-13.87924638467162,-26.71842440615661,20.213072662340846,-8.815095412954197,251.66606630894375,34.170456701626726
3,22.513614090650474,-250.12548987247166,-13.6729451014872,-29.154506586981476,17.652797946455607,-6.884389699204767,251.56684195069428,35.81256815331092
4,22.571860778415008,-250.0633322722202,-13.506641165802245,-32.15860214528841,15.079157492130802,-4.904855038923711,251.50077199293767,37.99729934368407
5,22.62332644502719,-250.0356298948351,-13.383650990175989,-35.837702983203044,12.544649570356858,-2.894855966785239,251.46899009011426,40.84022871154694
6,22.67146871128647,-250.04212193344014,-13.307138658244785,-40.297216243969956,10.105289971495422,-0.8746852038330162,251.471800227358,44.45635431907353
7,22.720160468287098,-250.0815545763538,-13.28001507966258,-45.63836137086257,7.820051031301335,1.1336143164587393,251.50860861012285,48.95749096586332
8,22.77364743450541,-250.15163668363567,-13.304823250211571,-51.95549003252499,5.750230362734431,3.106483945735405,251.57787267171418,54.44958345276431
9,22.836495337967747,-250.2490189873461,-13.38361009446872,-59.33339073248844,3.9587523625353405,5.019141993570088,251.67707025023608,61.029995027878954
10,22.913529880762123,-250.36929952806517,-13.51778601863926,-67.84464262574038,2.5094067866886482,6.845934964452737,251.8026918756235,68.78483201594754
11,23.009772015223174,-250.50705778466505,-13.707974425789027,-77.54708349890767,1.4660295275235677,8.560746334848236,251.95025886524738,77.7863653764395
12,23.130370028631003,-250.65591953821686,-13.953855015040503,-88.48145552974002,0.8916307246181604,10.137460236320686,252.11436951449068,88.09060799320365
13,23.280528862038132,-250.8086538625304,-14.254006636088477,-100.66929010853771,0.8474740787534818,11.550475576938702,252.2887750515304,99.735103732575
14,23.465436220732762,-250.95730275522175,-14.605757584306605,-114.11109052914492,1.3921086502174371,12.775264063867068,252.4664862128051,112.73698165706627
15,23.690184510235717,-251.09334284200725,-15.005053155191465,-128.7848693530308,2.5803511328152338,13.788963218481648,252.63991030533072,127.09132689384737
16,23.959687349214587,-251.20787730662275,-15.446351606058917,-144.64509573522855,4.462214021005985,14.57099264140122,252.8010174258614,142.7699185435747
17,24.27858915355795,-251.29185473878493,-15.92255994652645,-161.62210617694336,7.08177511212904,15.103678380518355,252.94153308438268,159.72038396698116
18,24.65116613522938,-251.3363100503617,-16.42501987966685,-179.62202847142868,10.475987951580821,15.372866509688068,253.05315292256083,177.86581651436612
19,25.081217381689097,-251.33262117575285,-16.94355171072392,-198.5272610687607,14.673441372249023,15.368503690526254,253.1277737517327,197.1048986029022
20,25.57194561736059,-251.27277423862827,-17.466560409067377,-218.19753704024816,19.693087612282692,15.085160640084984,253.15773407914295,217.31256233198422
21,26.12582849086866,-251.1496295468437,-17.981203846946663,-238.47158285674553,25.542969686822747,14.522474817987577,253.13605695157943,238.34120465097055
22,26.744482367546716,-250.95718124124997,-18.473619404665975,-259.16935881158395,32.21898688099633,13.685491138698875,253.05668838275682,260.02245422455763
23,27.428521513015415,-250.69080431775285,-18.929202421218076,-280.09484337692214,39.703741151343955,12.584883283505022,252.91472551284878,282.16946532036735
24,28.177416462517947,-250.34748347831155,-19.332928667974542,-301.0393019331904,47.965507788336446,11.2370425114532,252.70662943738307,304.57969409679157
25,28.989356608996278,-249.92601844952668,-19.66971282075327,-321.7849639473879,56.95737326694639,9.66402550041141,252.43041797640782,327.0380977266632
26,29.86112365870142,-249.42720014802387,-19.924795198815715,-342.1090223324334,66.61658397949472,7.893357541056917,252.0858336216842,349.320687742878
27,30.787984207215313,-248.85395193153528,-20.08414921362478,-361.7878627611837,76.86415212282195,5.957691882626776,251.67448197295252,371.19836430334595
28,31.763610694906713,-248.21143061888358,-20.13490158437797,-380.6014266379625,87.60476827417523,3.894329474116367,251.19993651272992,392.4409550595553
29,32.780040056118445,-247.50708280772398,-20.065756372621372,-398.3376073740168,98.72707221790544,1.7446052906146143,250.66780633870883,412.82137877317444
30,33.827678545654145,-246.75065267606152,-19.867412586587687,-414.79657497824473,110.10433266822747,-0.4468519369004542,250.0857639131861,432.1198488678561
31,34.89535974681422,-245.95413769627947,-19.532963877039204,-429.79491918511724,121.59558139508813,-2.632979679997128,249.46352982832653,450.1280259354296
32,35.97046070639914,-245.13168884714293,-19.05826783810946,-443.16949731415536,133.04723681855538,-4.7652538391592305,248.81281137134627,466.65302157782503
33,37.039078437469946,-244.29945237333308,-18.4422716362536,-454.7808709858119,144.29523566229943,-6.79476410623836,248.1471916892095,481.52114993268077
34,38.08626583096282,-243.4753510691901,-17.68728018191242,-464.51621719048467,155.16766907592424,-8.673379901811943,247.4819667718474,494.5813193000973
35,39.09632281298089,-242.67880449281833,-16.799153029305927,-472.29160562909095,165.48789357573074,-10.354988907944772,246.8339284006905,505.7079562704704
36,40.053135859132446,-241.93038944432195,-15.787416849080131,-478.053547110014,175.07806002638495,-11.796782997747638,246.22109271051983,514.8033603739942
37,40.94055683356659,-241.25144430291837,-14.665281816938856,-481.7797380191416,183.7629784018041,-12.960558225050029,245.6623759529883,521.7993998028956
38,41.742810360662794,-240.66362307576046,-13.449552769169207,-483.478953783207,191.37421414216533,-13.813987737601483,245.17722110025807,526.6584788300199
39,42.44491745069255,-240.18840694657666,-12.160429590484702,-483.1900793022009,197.75429479672547,-14.331819949525011,244.78518077945452,529.3737349979838
40,43.03312201470622,-239.84658259737787,-10.821195714286986,-480.98030478054034,202.7608942249074,-14.49694955402521,244.50546354991147,529.9684576855606
41,43.49530632978153,-239.65769771471554,-9.45779813018781,-476.9425578908525,206.27085651256192,-14.301306674269929,244.35645176992782,528.494756469363
42,43.8213813382031,-239.63950513311477,-8.09832636693471,-471.1922830976027,208.18392284498293,-13.746510796773252,244.3552004199424,525.0315436364411
43,44.00363770845146,-239.8074082204074,-6.772401578726531,-463.8637114649474,208.42603092011885,-12.84424198746706,244.51692743868438,519.6819258045427
44,44.03704385462698,-240.1739213288405,-5.5104905054548174,-455.10578596852537,206.9520667137715,-11.616292018986957,244.85450739091291,512.5701215514966
45,43.919477765655095,-240.74816008248985,-4.343162978857291,-445.07791708405364,203.74796138757486,-10.094271234375139,245.377981348445,503.83803403034165
46,43.651880735367335,-241.53537654074887,-3.300315678292083,-433.945742256057,198.83204135263,-8.318961947162517,246.09409636970176,493.6416106609525
47,43.238323081745584,-242.5365537106707,-2.4103885208263303,-421.8770531853764,192.25555712052335,-6.339325056921851,247.00588776333117,482.1471185051362
48,42.685974769444556,-243.74807264112934,-1.699602746459519,-409.0380396039475,184.1023373300784,-4.21118262297646,248.1123165773823,469.52745680623053
49,42.00497740242441,-245.16146375884858,-1.1912507284231795,-395.58997970015736,174.48753938610233,-1.995614449367978,249.40797378724352,455.9586200559227
50,41.20821810148022,-246.76325259856532,-0.9050662508716776,-381.68648664837957,163.55549849217869,0.2428797657058056,250.88286183469998,441.6164172650942
51,40.3110100973627,-248.53490900255747,-0.8567003715618994,-367.4713972788387,151.47671246032078,2.4383902860749243,252.52226384014546,426.6735454431773
52,39.33068929181218,-250.45290834709473,-1.0573224976131856,-353.07736145112517,138.44403881056584,4.525708899348778,254.3067110794831,411.297105521243
53,38.28614037371282,-252.48891311333398,-1.5133596945021208,-338.62515820210666,124.6682201640634,6.442467038952029,256.21205986547193,395.64663432209375
54,37.19726999604665,-254.6100825588038,-2.2263802876918626,-324.22372772862616,110.3728901580462,8.131223327877438,258.2096891194355,379.8727047125594
55,36.084447624279136,-256.7795167370303,-3.193121209598085,-309.97086906069154,95.78924195268178,9.541424085888655,260.2668289322279,364.11611763711977
56,34.96793668724405,-258.9568382548664,-4.405652788653912,-295.95451547880936,81.1505626013004,10.631163620688152,262.34702781896203,348.50767617397327
57,33.86733953008013,-261.0989108701167,-5.851669896934659,-282.25446709898046,66.68684757137102,11.368676997023535,264.4107620834169,333.16849627511596
58,32.80107940477592,-263.16068853868035,-7.514894442199589,-268.9444355017444,52.619709533074094,11.733506408489514,266.4161849785324,318.21077513491764
59,31.785941324387245,-265.0961822777202,-9.375570999249762,-256.09424036219474,39.157783791632184,11.717293131130747,268.3200066661636,303.7389096029481
60,30.83669103450394,-266.85952578991703,-11.411034905329332,-243.7719930161972,26.492809800947004,11.324160070754758,270.0784889386806,289.85083640195
61,29.965787689563264,-268.40611469486134,-13.596330390843878,-232.04610625243853,14.796535118291809,10.570664724286184,271.6485318046251,276.6394548848199
62,29.183201236735453,-269.6937887782353,-15.904855274455363,-220.98698254258275,4.218546429031431,9.485318331552879,272.9888227506775,264.19399251497526
63,28.496340215967475,-270.6840221585987,-18.309008419450283,-210.66825348356642,-5.11491637171376,8.107683309240027,274.06101408186373,252.60118313474243
64,27.910089873759684,-271.34308294545434,-20.780816489130572,-201.16747011959612,-13.101160509431345,6.487077039165999,274.83088950912156,241.94614724743843
65,27.42695439670644,-271.64312207085203,-23.292517566187488,-192.5661750303431,-19.660308090387208,4.680925344704654,275.2694783892733,232.31288949444394
66,27.047291075611064,-271.56315072226647,-25.817081196763063,-184.94932006618026,-24.733738480996927,2.752823385153792,275.35407500222504,223.78435765921833
67,26.76961882743859,-271.0898673074363,-28.328647895835623,-178.4040261004097,-28.281861343594677,0.7703750270132735,275.0691212006044,216.44203614835172
68,26.590979298414222,-270.2182982162881,-30.80287641965491,-173.0177121553013,-30.28141607779505,-1.197106536770132,274.40691385852193,210.36507253220648
69,26.50732619340598,-268.95222188042294,-33.217193925345164,-168.87565149542087,-30.72252091948627,-3.0809452119690937,273.36810387674626,205.62895819298808
70,26.513917566995893,-267.3043526731965,-35.550951706230535,-166.05804368969484,-29.605708215687237,-4.815399393500405,271.9619608996763,202.30380538150825
71,26.605686152723404,-265.29626960688046,-37.78549639815253,-164.63672568548571,-26.93918043588616,-6.339816108283489,270.2063867548972,200.4522856023755
72,26.777563968976615,-262.95808398303654,-39.904172263862954,-164.6716805728659,-22.736504218116355,-7.600556026612568,268.1276701685875,200.12731912469977
73,27.024739449206297,-260.3278497741134,-41.892273624195504,-166.20753528059217,-17.014927962891093,-8.552616525549592,265.7599850874169,201.36963030186755
74,27.342828572908104,-257.450730444312,-43.73696755441307,-169.2702607043122,-9.794463969762075,-9.160895301841093,263.14464487210614,204.20530378897382
75,27.72794617561988,-254.3779459720527,-45.42720591083155,-173.86429292157402,-1.0978218760054572,-9.401053011629209,260.32913462959056,208.64348863112713
76,28.176669669486987,-251.16553345780346,-46.953643159038876,-179.97027887242578,9.0487795337714,-9.259949871841796,257.365953546066,214.67439895096854
77,28.685894378943832,-247.8729629475384,-48.30857298095331,-187.54361548656672,20.61395517142362,-8.735648480015856,254.31130737885158,222.2677520449633
78,29.252587011367027,-244.56165599440078,-49.48589275913199,-196.51390259827707,33.55873976396242,-7.836993264954806,251.22369728665,231.3717679449859
79,29.873450845140034,-241.2934574553214,-50.48110105001457,-206.78537347166244,47.833553282937615,-6.582795159644322,248.16245432221342,241.9128292702875
80,30.544522517637688,-238.12911109140433,-51.291329172839184,-218.2383084581024,63.374719062102436,-5.000666979947171,245.18626913469976,253.79586702401417
81,31.26072548067796,-235.12678714065885,-51.91540409679217,-230.7313821999665,80.10073497921911,-3.125569326611884,242.3517641075952,266.90549875147275
82,32.0154090539955,-232.34070575919998,-52.353935938011375,-244.10484654431752,97.90851538254175,-0.998137742005557,239.71215086091354,281.1079036956998
83,32.79990441624901,-229.8198946655828,-52.609419769050405,-258.18441236745224,116.66982990309546,1.3371310730729815,237.31601037479575,296.25337958246155
84,33.60312972411636,-227.60711292296295,-52.68633858487296,-272.7856652016364,136.22816552763354,3.8337530563298,235.2062264894514,312.17949129543837
85,34.41127577081093,-225.73796585190678,-52.59125276367313,-287.7188324576678,156.39623060874752,6.445110421975631,233.41909663448357,328.71469556680916
86,35.20760117801188,-224.24022876241142,-52.33286151545624,-302.7937141307718,176.95430398676612,9.126209404104449,231.98363661046236,345.6823091858833
87,35.97236214654822,-223.13338965314242,-51.92202350913509,-317.8245936385053,197.64960928867703,11.835274225796926,230.92108922705398,362.9046813057732
88,36.68289643884963,-222.42841344475522,-51.37172680548769,-332.6349598136677,218.196864167061,14.535120273895146,230.24463975775723,380.2074325154547
89,37.313874733998304,-222.12772306925265,-50.697002043209785,-347.06189341879406,238.28011738443178,17.194262625227683,229.95933480334077,397.42363296306826
90,37.83772502377983,-222.22538633647605,-49.91477700486904,-360.95999955755457,257.5559439809485,19.787730588854643,230.06219562157708,414.3978067098766
91,38.22522761867048,-222.7074923704811,-49.04367458338665,-374.20479817085965,275.65802103844015,22.297573812561726,230.5425125192274,430.9896668052443
92,38.44626997057534,-223.5526977032741,-48.10375931289299,-386.69551542789503,292.2030546168321,24.713059896564204,231.3823035442724,447.07750234904097
93,38.470742244543295,-224.7329196966815,-47.11623985318109,-398.3572466887855,306.797973517478,27.030576590126323,232.55691831482898,462.56115265488006
94,38.26954673616282,-226.2141536083969,-46.10313607313342,-409.142485082051,319.04824949004103,29.253262712505443,234.03576618698412,477.3645132048112
95,37.81568723983078,-227.9573891701704,-45.08691959976013,-419.03202774724116,328.56714884866483,31.390400191442307,235.78314698647213,491.437523260182
96,37.08539872240908,-229.91960288068114,-44.0901359010593,-428.035284153341,334.98567004732325,33.45660468584055,237.75916214805375,504.7575865692406
97,36.05927341490413,-232.05480314997527,-43.1350144383106,-436.19001744049484,337.9628784072662,35.47085444776567,239.92068424462266,517.3303758380051
98,34.723336816866,-234.31510674598888,-42.243071751924745,-443.56155032294396,337.1963154806737,37.45539721365302,242.22236346933525,529.1899699975041
99,33.07002614784861,-236.6518264628139,-41.43471118925514,-450.2414622456024,332.4321387622625,39.43457389872049,244.6176505732759,540.3982728152506
100,31.099024521147385,-239.0165513102218,-40.728822784556804,-456.3457960065176,323.4746394328755,41.43359633355023,247.0598169124836,551.0436647689013
101,28.817906672463252,-241.3622015734448,-40.14238779975813,-462.0127830088319,310.19479252829626,43.4773146301548,249.502953454802,561.2388502679406
102,26.24255658802289,-243.6440416437933,-39.69009469629063,-467.40009026666394,292.53751535650497,45.58900832491239,251.90293171262937,571.1178815957564
103,23.397323848036017,-245.82063351750224,-39.38397652084768,-472.6815924268184,270.52734520798396,47.78923441500087,254.21831047802175,580.832370401328
104,20.314893754578726,-247.85471338981924,-39.23308311604796,-478.0436804543978,244.2722947084316,50.094764711272376,256.41117283380305,590.546936676776
105,17.035856146833666,-249.71397310354695,-39.24320440986582,-483.68113577750216,213.96570005319094,52.51764430741169,258.4478782512333,600.4339916409427
106,13.607969099196536,-251.371727714743,-39.416662724763874,-489.7926232261137,179.88594060030712,55.06440215261145,260.29971488265704,610.6680007086874
107,10.085126270954044,-252.80745041462197,-39.752192187698355,-496.57588476530594,142.3939743388729,57.73544348074916,261.9434376126336,621.4194201372479
108,6.526050164623707,-254.00715671259954,-40.24492162868217,-504.2227441696641,101.9286995798061,60.524651835847195,263.3616781520259,632.8485397533293
109,2.9927474627842163,-254.96362137978886,-40.886473713075695,-512.9140554562836,59.00021717954103,63.41922507675473,264.54321459380026,645.0994887667482
110,-0.4512236170045372,-255.67641442536507,-41.66518757912056,-522.8147410312722,14.181129498718994,66.399764369144,265.4830895960157,658.2946681145735
111,-3.742611149501505,-256.1517464672015,-42.5664653366354,-534.0690668272335,-31.903927480683347,69.44062720872287,266.182568833124,672.5298590789585
112,-6.820378795269178,-256.40211923613043,-43.57323505910922,-546.7962910588468,-78.590264030167,72.51054472675723,266.6489345465997,687.8702240101868
113,-9.6275850079774,-256.44578348106535,-44.66651505368751,-561.0868025634004,-125.18631832555042,75.57349018529965,266.89511288014836,704.3473628324855
114,-12.113146943082901,-256.3060140282592,-45.82605678492929,-576.9988378375851,-170.9876797848043,78.5897706339645,266.9391382378105,721.9575230250218
115,-14.233405476259199,-256.0102199392835,-47.03103738160431,-594.5558377748091,-215.2915530843817,81.51729900365605,266.80346330873107,740.6609878727259
116,-15.9534155949297,-255.58891622494116,-48.2607678695694,-613.7444806328665,-257.4112341568255,84.31299219269357,266.51412983900684,760.3825966372324
117,-17.247900681398193,-255.0745918567341,-49.495381037184416,-634.513410580502,-296.6901595189596,86.93423500365044,266.09982270678773,781.0132898508033
118,-18.101828718409358,-254.50051619503412,-50.71646383455085,-656.7726730741512,-332.51510170468305,89.34035208806016,265.5908379843941,802.4125306336266
119,-18.510591049893467,-253.89953166154586,-51.90760343163068,-680.3938690147611,-364.32811799877356,91.49403991227561,265.01800356690956,824.4114330385645
120,-18.47978763379629,-253.302883765914,-53.05482283516592,-705.2110467107445,-391.6369160541901,93.36272527545891,264.41159740896535,846.8164309372086
121,-18.02464467603357,-252.73913987928321,-54.14689030173423,-731.0223598646232,-414.0233747488594,94.91983219704319,263.80031227987274,869.4133417515617
122,-17.169109564463657,-252.23324518016932,-55.17549559499393,-757.5925259800732,-431.15004630313825,96.1459518626797,263.2103163679361,891.9717115256509
123,-15.944683095173444,-251.80575807476828,-56.13529430358466,-784.6561181737146,-442.76455968534117,97.02991891187727,262.6644556227308,914.2493636557591
124,-14.38905957794395,-251.47229859106326,-57.023827991629496,-811.9217113472729,-448.701939017111,97.56980065524218,262.18163657869184,935.9971058913595
125,-12.544651310702267,-251.24323265204995,-57.8413322978401,-839.0768796367914,-448.8849380663559,97.77380310017529,261.7764183577264,956.9635730995631
126,-10.457075042512265,-251.12360384065587,-58.59044720020975,-865.7940058052778,-443.3225680299798,97.66108850044574,261.45883084655105,976.9001922791313
127,-8.17367452317009,-251.11331313583665,-59.27584407739586,-891.7368156876423,-432.1070566080231,97.26248389555249,261.2344239031949,995.5662485035298
128,-5.742145568993011,-251.20753647362534,-59.903783764944635,-916.5674944983883,-415.4095183933362,96.62104060196467,261.1045406569589,1012.7340051143366
129,-3.209319162812546,-251.39735987096475,-60.48161928042186,-939.9541816246939,-393.4746370943717,95.79238428407828,261.0667968964869,1028.1937909348815
130,-0.6201451022217996,-251.6706022988368,-61.01725693273427,-961.5785835761181,-366.6146578435588,94.84477832929987,261.11573848564825,1041.7589177488435
131,1.9830952204482508,-252.0127878521712,-61.51859084088551,-981.1433997380183,-335.2029640050224,93.85881384010904,261.2436402083229,1053.2702427253694
132,4.561332286523814,-252.40822161759672,-61.99292894216352,-998.3792316563216,-299.6674711784909,92.92664094059992,261.44140304997967,1062.6001550945991
133,7.079007086097538,-252.84111856378016,-62.44643302736737,-1013.0506519122591,-260.48401697430177,92.15067048916804,261.6995030916566,1069.65575603691
134,9.504136789072737,-253.29673220005304,-62.883599971842436,-1024.9611480118667,-218.16986497069414,91.64170315094717,262.00894397266853,1074.3810234407529
135,11.80817156800927,-253.76243002883757,-63.30681467706673,-1033.9567289657577,-173.27738167412812,91.51648209375739,262.36216622351594,1076.7578098623912
136,13.96567798601903,-254.22866625835772,-63.71600622119369,-1039.928079265141,-126.38789259823108,91.89471153232927,262.7538707055108,1076.8056055056127
137,15.953894155599274,-254.6898086796322,-64.10843673741687,-1042.8112534242362,-78.10568296210064,92.89562889668034,263.1817196258667,1074.5800949555428
138,17.752209234653783,-255.14478506206206,-64.47864731472681,-1042.5870089585162,-29.052082966796632,94.6342562797271,263.64688611058887,1070.1706309983724
139,19.34162380057101,-255.59752351714098,-64.81857666590376,-1039.2789625254052,20.140432996033066,97.21748264332115,264.15443078697615,1063.6968264771242
140,20.704247743196664,-256.0571701910807,-65.11785663593005,-1032.9508118648594,68.83420242525591,100.74014178401534,264.7134905446385,1055.3045143047407
141,21.822888586701673,-256.53807644975666,-65.36427463843482,-1023.7028886966535,116.39244549233354,105.28125397956025,265.337270884875,1045.1613398327636
142,22.680775845105547,-257.059556806797,-65.54437845730641,-1011.6682950293446,162.18549376443943,110.90059218470498,266.04283971046044,1033.4522287797517
143,23.261456441523187,-257.6454280828351,-65.64418585392075,-997.0088349536434,205.59719774583658,117.63571603283182,266.8507272916525,1020.3749253509153
144,23.5488829317638,-258.32334881858395,-65.64995245737252,-979.9108987765821,246.03150632331338,125.49958961366217,267.78434405537257,1006.1357320902599
145,23.527701289232727,-259.12398482547644,-65.54894802207116,-960.581400225113,282.9191817963849,134.4788664010985,268.86923417486724,990.945519989289
146,23.183729676432655,-260.0800315219592,-65.33019330245615,-939.2438213889092,315.7245892130828,144.53289322192703,270.1321883499026,975.0160265297005
147,22.50460521284517,-261.22512659418595,-64.98511609875712,-916.1343899545057,343.95248262056805,155.5934595097442,271.60024362281183,958.5564276071906
148,21.480563147264892,-262.59268805299166,-64.50809355254354,-891.4983996584266,367.1547031869628,167.56529884974202,273.2996016318169,941.7701574769744
149,20.10530258711819,-264.21471341899775,-63.896856967697424,-865.5866841554282,384.9367005930723,180.32733441071193,275.2544994272585,924.8519545901987
150,18.37688534019573,-266.12057589301287,-63.15274442053539,-838.6522607642333,396.9637850373816,193.73464554287395,277.48606896218604,907.9851234477985
151,16.298609755102433,-268.3358531342045,-62.28079490271897,-810.9471675370173,402.9670109327822,207.6211186168437,280.01122273543194,891.3390166492572
152,13.879800052074469,-270.8812237200649,-61.28968579023429,-782.7195197612189,402.7485864942466,221.80273144972813,282.8416039472531,875.0667526160372
153,11.136453839146712,-273.77146551547077,-60.19152318864501,-754.2108077274779,396.1866991719926,236.0814075587499,285.982640056582,859.3031912781711
154,8.091696330693317,-277.01458901886923,-59.00150204698036,-725.6534467036364,383.2396479805785,250.2493630959907,289.432738801438,844.1631929047704
155,4.7759988052014215,-280.6111370640212,-57.73745939756257,-697.2685754491454,363.9491807494846,264.09385416301393,293.1826652085114,829.7401859989452
156,1.2271303524579287,-284.5536795191596,-56.41934906132885,-669.2640856781818,338.4429450766803,277.40221428480675,297.21513615372646,816.1050704775569
157,-2.5101748272740103,-288.82652719340615,-55.06866920534464,-641.8328560404859,306.935972461098,289.96705134708435,301.5046648166075,803.3054831367873
158,-6.384838292492801,-293.4056825258538,-53.707875086158346,-615.1511635233838,269.7311220877545,301.5914518040936,306.017680268825,791.3654538175681
159,-10.340336304347522,-298.25903564947214,-52.35980814971922,-589.3772535612852,227.2184126378063,312.09402013443065,310.7129372152828,780.2854825218247
160,-14.315854014493208,-303.34680344247573,-51.047169398200985,-564.6500659016772,179.87316898623303,321.31356681735565,315.5422178719255,770.0430695586999
161,-18.24766083097859,-308.622197037894,-49.792059755949325,-541.0881325268518,128.2529097059246,329.11325203749135,320.45131301605255,760.5937317064304
162,-22.070663145298237,-314.0322910788427,-48.61560365448283,-518.7886816075647,72.99290535562805,335.3839976729174,325.38125370229136,751.8725358900398
163,-25.720082247901043,-319.5190569654418,-47.53766515905148,-497.8269929917509,14.800349814051918,340.04699839959704,330.26975045909205,743.7961765215092
164,-29.133198487991894,-325.0205134591224,-46.57665966738404,-478.2560535814588,-45.552891369613384,343.0551940705069,335.0527842607981,736.2656127213467
165,-32.251098021115304,-330.47194188368036,-45.749459218949,-460.1065551789469,-107.2389612056352,344.3936087372048,339.6662840394946,729.1692674417845
166,-35.020356326034545,-335.8071099250023,-45.07138599901927,-443.38726487889835,-169.384088343534,344.0785147065124,344.047819287274,722.3867729422109
167,-37.39459331384885,-340.95944770996863,-44.55628650021492,-428.0857813136539,-231.07998714894669,342.15544021548277,348.1382335651686,715.7932269575102
168,-39.33583829053834,-345.86312263087007,-44.21667744751704,-414.1696711250344,-291.39646189787976,338.6961032690037,351.88314574090293,709.2639013383196
169,-40.81564916495616,-350.4539655120368,-44.06395323729296,-401.5879603125319,-349.3950499409256,333.7944173807676,355.2342507874338,702.6793189062886
170,-41.81593900063688,-354.6702102445195,-44.10864260839481,-390.27293544302455,-404.1434928802597,327.56177177896444,358.1503610581849,695.9305831253142
171,-42.329474097365,-358.4530216770952,-44.36069919859869,-380.14219109103686,-454.73078164138957,320.121833108592,360.598141869768,688.9248082122587
172,-42.36002091346666,-361.7468016532367,-44.82980658722015,-371.1008440183798,-500.2824839538794,311.6051426262411,362.55251129762945,681.5904565058319
173,-41.922133742210946,-364.49927949430133,-45.525673928354145,-363.0438239244096,-539.9760351911217,302.1437893582905,363.9966922053522,673.8823510119578
174,-41.04059030835455,-366.66140959222906,-46.45829450105206,-355.8581479180635,-573.0556597070928,291.8664255995675,364.92192332378636,665.7861026813683
175,-39.74949736879209,-368.187113819008,-47.638137895591186,-349.42509415790937,-598.8465923633036,280.8938587794698,365.3268543847531,657.3216831885571
176,-38.091102086512436,-369.0329192362348,-49.07624801729681,-343.62221204920974,-616.7682892487396,269.33540671243225,365.2166668956465,648.5458912806656
177,-36.11435678485329,-369.1575515586736,-50.784223392830086,-338.3251428503499,-626.3463506130637,257.2861457841248,364.60197645934346,639.5535059275298
178,-33.87329439416398,-368.5215517956055,-52.77406234322271,-333.4092722491221,-627.2229238015938,244.82511843574835,363.4975842319876,630.4769886443814
179,-31.425279357362154,-367.0869873897468,-55.057862365178224,-328.75128646190734,-619.1654046525332,232.0145027418739,361.9211539405503,621.4846816314803
180,-28.829203713298988,-364.8173297519904,-57.64737013950015,-324.2307422006377,-602.0733075273046,218.8996887309968,359.89189654769376,612.7775363362283
181,-26.14370002130847,-361.67756677295324,-60.5533863807081,-319.7317745954675,-575.9832221987455,205.5101588281142,357.4293466524967,604.5844877409517
182,-23.425441231989716,-357.6346108952448,-63.78503897152319,-315.1450470918564,-541.0718154735719,191.86103711969372,354.5523124348856,597.1566549106619
183,-20.727592463650865,-352.6580500118431,-67.3489486133602,-310.36999381286984,-497.65686209953645,177.95515489487605,351.2780738254502,590.760593201047
184,-18.09847129061881,-346.7212696678507,-71.24832248741346,-305.3173278550235,-446.1962999437986,163.78547619492028,347.6218912554659,585.6708460014443
185,-15.580462052994362,-339.80295136104496,-75.48202116362715,-299.91170475203785,-387.285298263366,149.33773354978814,343.5968699017769,582.1620448117062
186,-13.209216158059267,-331.8889245467988,-80.04365034056919,-294.094356237457,-321.6513086437462,134.59313723240302,339.21420263158495,580.5007902067114
187,-11.013154889813622,-322.97432135403375,-84.92073107635929,-287.8254592444287,-250.14704299122806,119.53103829322447,334.4837905805169,580.9375208276376
188,-9.01327507152931,-313.0659554916241,-90.0940001960441,-281.08598669791417,-173.74130115590836,104.13144443156841,329.41521571471924,583.6985529482223
189,-7.22324240743843,-302.18482271147815,-95.5368873330292,-273.87880195363215,-93.50756204617306,88.37730799954434,324.0190170397902,588.9784583666168
190,-5.649743175023254,-290.36860122410167,-101.21520755957754,-266.22880450249215,-10.61026490358841,72.25652756479369,318.30820299968224,596.932948151828
191,-4.29305247416078,-277.67401760940356,-107.0870999231494,-258.18200403664423,73.71125285035669,55.7636278555189,312.29991806088475,607.6724428541175
192,-3.1477673211627235,-264.17893747989285,-113.10323362228193,-249.80348513438298,158.1611276273591,38.90110507437813,306.0171719934453,621.256529359224
193,-2.2036467954487526,-249.98404068218215,-119.20729571059886,-241.17431838339542,241.40752859720567,21.68044284660056,299.490536125652,637.6895208062296
194,-1.4464999315909308,-235.21394836092398,-125.33676685675093,-232.3875693697414,322.1051780789484,4.122817607279194,292.75971183887873,656.9173386829867
195,-0.8590647935312903,-220.01768386807703,-131.4239840172865,-223.54364772184806,398.9195021222232,-13.74047838648632,285.87488259850244,678.8259163020093
196,-0.4218282393683825,-204.5683711607097,-137.3974803111118,-214.74531596456424,470.55197918907544,-31.86786265290649,278.8977715252139,703.2412741016383
197,-0.11374435034323743,-189.06210242732593,-143.18358268142785,-206.09273335914514,535.7661660275218,-50.207501557587044,271.9023411732877,729.9313393454901
198,0.0871802426340554,-173.71594006945645,-148.70823686536625,-197.67893516282754,593.4138095217346,-68.69753088755118,264.97508952360624,758.6094847356019
199,0.20345419749147386,-158.7650551979195,-153.89901649476263,-189.58613655151797,642.4604077610361,-87.26643300146574,258.21491449197214,788.9396599859349
200,0.25782981145310824,-144.45904354027988,-158.68725885400843,-181.88319861464245,682.0095679021616,-105.83355485823408,251.73253661745335,820.5429085736325
201,0.2731862005224742,-131.0574979859062,-163.0102545659981,-174.62450024471136,711.3255250138618,-124.30976028600405,245.64948427707654,853.0050149389529
202,0.2725491395649318,-118.8249527060741,-166.81340366092465,-167.85032811703044,729.8532329321987,-142.59821627710562,240.09665643265623,885.8850206465196
203,0.2792183329924805,-108.02534474188819,-170.0522381988288,-161.58873719906236,737.235507616124,-160.5953148828604,235.2124840510812,918.7243740928567
204,0.31696409150883204,-98.9161633160978,-172.69420431389798,-155.85866236971464,733.3267832217986,-178.19172856955967,231.14071367616023,951.0565199321269
205,0.41024955896648657,-91.74247339371702,-174.7200964594419,-150.67389794249556,718.2031171670512,-195.27358844154952,228.02783709177447,982.4167703681891
206,0.5844322022956663,-86.73100692037434,-176.12504520485652,-146.0474271296639,692.1681417709287,-211.7237638719112,226.02019216630435,1012.3523137147743
207,0.8658994454014397,-84.08451175689765,-176.91897750008778,-141.99549599093697,655.754702144712,-227.42321203946415,225.26076425030575,1040.4321997228642
208,1.282098038765847,-83.9765342776536,-177.12649415116024,-138.54079947584614,609.7219463230181,-242.2523598640018,225.8857266416751,1066.2571029258909
209,1.8614245577194117,-86.54678745935999,-176.78614186608806,-135.71418871751717,555.0476543129269,-256.0924813039308,228.02077326752482,1089.4686219442171
210,2.632954439716829,-91.89722359837583,-175.94909461779318,-133.5544218427473,492.91562171631705,-268.82704112728686,231.77731611144438,1109.7578453616838
211,3.62599803031032,-100.08889216158644,-174.67729868422296,-132.10566340568832,424.6979648321816,-280.34299168709464,237.24864178478643,1126.872920481687
212,4.869482828648679,-111.13962239444758,-173.04117446826763,-131.4126816156854,351.93229838260237,-290.532029625529,244.50614246579127,1140.6254066786057
213,6.391170147813175,-125.02253178058635,-171.1170024476607,-131.51397953808186,276.2938597875565,-299.29184046308836,253.5957520768513,1150.8952730837577
214,8.216720945311446,-141.66533009050093,-168.9841463372637,-132.43339644450302,199.56281571884213,-306.5273749191221,264.53472543173984,1157.6344909374286
215,10.368629880989772,-160.9503683486638,-166.72227974645062,-134.17098853087933,123.58718376981884,-312.1522061269486,277.3088943736182,1160.869246976115
216,12.865049870383602,-182.715374089224,-164.40878011196548,-136.69420010996393,50.24202645846364,-316.0900087584332,291.87052151235457,1160.7008414420222
217,15.718533008193985,-206.7548177162469,-162.11643434673135,-139.9304271432443,-18.61418712991521,-318.27618014960325,308.136852327323,1157.3053222906558
218,18.934719027097916,-232.8218668208019,-159.9115662991495,-143.76202796919657,-81.18492449530966,-318.65959366668045,325.9894442813191,1150.931855956034
219,22.511010112325092,-260.63090228681614,-157.85265141303393,-148.02464525658124,-135.78130710113103,-317.204441730086,345.2743301916041,1141.8997710124863
220,26.43528075670143,-289.860587984242,-155.98943505964124,-152.50938617386123,-180.86672106275807,-313.8920968532388,365.8030530724282,1130.594162216546
221,30.684682425599423,-320.1575008368781,-154.36252403891942,-156.96900365868197,-215.09876259484085,-308.72289950832663,387.35458967378804,1117.4599229777587
222,35.22461342740172,-351.14033637726055,-153.00338124339407,-161.12778446152961,-237.36696992841894,-301.7177748931988,409.67815810209044,1102.9940816350108
223,40.007932486511656,-382.40470349373516,-151.9346262754997,-164.69443915380407,-246.8249010906989,-292.91958714876273,432.4968801482343,1087.7363421328366
224,44.974498097710395,-413.5285090709534,-151.1705334816776,-167.37696256895333,-242.9153238346584,-282.39415718440733,455.51224167799256,1072.257771794167
225,50.05111320835169,-444.07790883489344,-150.71762431472152,-168.89823682179053,-225.38758077432715,-270.2308948638938,478.4092662237001,1057.1476499053215
226,55.15194496689609,-473.61376793717,-150.57527018012365,-169.01111156215617,-194.3065565939817,-256.54302189147455,500.862289620792,1042.9986078748343
227,60.17947151258128,-501.698539229896,-150.73624863903152,-167.51181929380064,-150.0530701294853,-241.4673807790149,522.5411989194386,1030.3903610935777
228,65.02598253758953,-527.9034352369847,-151.18722294421647,-164.25083696797842,-93.31590075970985,-225.16382989233682,543.1179786836265,1019.8725361098744
229,69.57563023515681,-551.8157462104858,-151.9091375412918,-159.14062934567875,-25.075996118194478,-207.81421035798837,562.2733938315998,1011.9472901482749
230,73.70699645651446,-573.0461425621413,-152.87753903323141,-152.1600331506494,53.41633321345537,-189.62084254144156,579.7036310593785,1007.0525487861081
231,77.29611381480726,-591.2357935000683,-154.0628441504078,-143.35530421546278,140.67026063595785,-170.8044838740212,595.1267198270104,1005.5467136867202
232,80.21985414666734,-606.0631320481176,-155.4305845686529,-132.83802442035434,234.98828482229723,-151.60167445542052,608.2885572336054,1007.6956144620638
233,82.35957719310616,-617.2500981397516,-156.94166289627324,-120.78015772120119,334.50401579631256,-132.26142033195205,618.9683677428626,1013.6623298473239
234,83.60491655003956,-624.5676964032793,-158.55265402038282,-107.40658414455957,437.222904193603,-113.04121096380378,626.9834389175345,1023.5003269731178
235,83.8575707263918,-627.8407148405137,-160.21618102744083,-92.98546133957184,541.064985708998,-94.20242544532655,632.1929893517649,1037.1501947911984
236,83.03496567677112,-626.9514658320713,-161.88138607641946,-77.81678999536112,643.9087899772722,-76.0052427492295,634.5010460130145,1054.4400903086894
237,81.07366080235533,-621.8424320084312,-163.49450587261055,-62.219602093543756,743.6356274199414,-58.70322979788961,633.8582355761451,1075.089872273102
238,77.93238110208931,-612.5177261825108,-164.9995511610899,-46.51824624359418,838.1735100200326,-42.537832180328465,630.2624276484552,1098.718759718423
239,73.59457156352521,-599.0433060121446,-166.3390821103147,-31.02830095193369,925.5399824365536,-27.733027856657763,623.7582060352811,1124.856218382208
240,68.07038420616857,-581.5459191266716,-167.45506782948067,-16.042690689467246,1003.8831455280554,-14.490416812683394,614.4351857311598,1152.9556493938476
241,61.39802248195684,-560.210791433832,-168.28981853881822,-1.8185990824771179,1071.5201555308379,-2.9850067302342893,602.4252359230884,1182.4103409672095
242,53.64438170282165,-535.2781083615835,-168.7869821627219,11.434237377874336,1126.9724877922802,6.638081303003293,587.8987104869667,1212.571055558973
243,44.90493784322761,-507.0383743283509,-168.8926019689772,23.56331034166291,1168.9972699599557,14.265818089442414,571.0598250087492,1242.7645691670966
244,35.30285088681311,-475.8267689592218,-168.55623655700765,34.48070733015268,1196.6140197834188,19.818284084124862,552.1413516782472,1272.3124586087167
245,24.987263793754703,-442.01664926641547,-167.73214582805224,44.16764241124482,1209.1261704754747,23.248482567995108,531.3988294406417,1300.5494456675463
246,14.130795197749407,-406.01237492681224,-166.38054449840445,52.67579251579345,1206.136834185361,24.5410168916254,509.10450550777193,1326.8406504387115
247,2.926243639261034,-368.24165813767996,-164.46891704714167,60.125154982789134,1187.5583418619444,23.70978146752537,485.54123436814973,1350.597175084749
248,-8.417456449078083,-329.1476591027734,-161.97337472058814,66.69823414108676,1153.6152042314675,20.794884543111777,460.9965602978652,1371.2895291500192
249,-19.679961652498395,-289.1810615571426,-158.88001760896634,72.63049369635033,1104.8402618926632,15.859071881101887,435.7571977729014,1388.4585166483364
250,-30.63483603033578,-248.79236816369664,-155.1862455071266,78.19719223317824,1042.0639306151609,8.983952538582667,410.10410021422547,1401.723332994688
251,-41.055333021018654,-208.4246510048841,-150.90194407741873,83.69695494131528,966.3965982695139,0.26633991498912735,384.3082708869832,1410.7867636350875
252,-50.720485962916875,-168.50697545971482,-146.0504617535745,89.43271180466685,879.2043903303934,-10.184988469237851,358.6274214809528,1415.437527136921
253,-59.421317429039,-129.44868465459302,-140.66929077005594,95.6909191439002,782.0786921031219,-22.25184273551542,333.3035269060522,1415.5499496429516
254,-66.96694762181936,-91.63468598788992,-134.81037363507937,102.7202344984633,676.8000006616941,-35.80827478192584,308.56126448452517,1411.0812804005557
255,-73.19036026837259,-55.42182294303444,-128.53997318759727,110.71099062780476,565.2968786811844,-50.721214625533555,284.60726899075325,1402.067048633123
256,-77.95357704373534,-21.13634926517385,-121.93806739479481,119.77687887282137,449.6009885443348,-66.85008293792096,261.63008889241286,1388.6149147316585
257,-81.152003659667,10.927544599867096,-115.09725566271236,129.9401875783933,331.79938116112135,-84.04550122454302,239.80069887239534,1370.8974829610636
258,-82.7177439257153,40.508263603763595,-108.12118787995196,141.12174818568153,213.9853771436281,-102.14734187464909,219.27341116288557,1349.1445222814727
259,-82.62172920610543,67.3765570035666,-101.12254778296926,153.13643673540204,98.2094865064423,-120.98245173296527,200.18703162051625,1323.6349939129866
260,-80.87457300958913,91.33467188444924,-94.22063770676974,165.69469152533247,-13.568149575527471,-140.36242770051467,182.66612145056888,1294.6892183098637
261,-77.52612609734345,112.21510898198764,-87.53862399095625,178.41007700524833,-119.52235436264509,-160.08181597258704,166.82224715216964,1262.6614385125213
262,-72.66377014746126,129.87917032005603,-81.20051404657943,190.8124930480105,-218.00323146962552,-179.91705617026355,152.75512582759677,1227.9329560290234
263,-66.40954401203479,144.21546614295482,-75.3279493545821,202.36624198969795,-307.5710787247892,-199.62641469488116,140.55359803753043,1190.9059309754464
264,-58.916244142371504,155.1385178954945,-70.03691344601813,212.49186382620013,-387.0250248383594,-218.95106526040303,130.29638380459136,1151.9978529033408
265,-50.362678493366715,162.5875592634693,-65.43446824197598,220.5904621169824,-455.42478948878227,-237.61739004039342,122.05259663395384,1111.6366112359158
266,-40.948279777377465,166.52560198142004,-61.61564299662171,226.0691805364105,-512.1052468510392,-255.34049712303928,115.88200306037683,1070.2560385838551
267,-30.887298407834134,166.9387995457287,-58.66060456722826,228.3665422069982,-556.6837351719463,-271.8288808002481,111.8350203499916,1028.29177870534
268,-20.402797948380538,163.83611164824254,-56.63223396765831,226.97650290265344,-589.0602875816433,-286.79009239176565,109.95244441033043,986.177346202705
269,-9.720667537917228,157.24924614212816,-55.57422181353992,221.47025880106133,-609.4111559583928,-299.9372430881863,110.26489791229456,944.340288646162
270,0.936151538705581,147.23283457104634,-55.509775273197334,211.51505611142542,-618.1761590468258,-310.99612797123734,112.79198995351521,903.1984188085751
271,11.35305223153276,133.86478249523307,-56.44100293077772,196.88944960703034,-616.0405086202879,-319.7127407012736,117.54118676265541,863.1561403099394
272,21.328617629888058,117.24672740785691,-58.34901285637619,177.4946372013729,-603.9118536786522,-325.8609374845748,124.506408973934,824.600933143124
273,30.678836038710266,97.50453468872587,-61.19472443955718,153.36165496244797,-582.8933327570713,-329.2500018366804,133.6663934988891,787.9000897707505
274,39.240599846465,74.78876483772136,-64.92035798788824,124.65435417318898,-554.2534397702051,-329.73185441182846,144.982883795606,753.3977957337529
275,46.87444780995541,49.27505164964544,-69.45153027085479,91.6682044799484,-519.3934931087047,-327.20764372387083,158.39873717278834,721.4126329246072
276,53.46654353252257,21.164339151178464,-74.69985198382687,54.825079070287586,-479.8134568401734,-321.6334463421594,173.83605732057546,692.2355531364626
277,58.92991233330258,-9.317067033234673,-80.56589721556148,14.664280442292108,-437.07680405576605,-313.02480410311966,191.19447099186053,666.1283291536596
278,63.20498249451878,-41.91767265026075,-86.94239757490976,-28.16984235324439,-392.77504374761696,-301.45983677743504,210.3496678840795,643.3224458076927
279,66.25949329891311,-76.36122898776958,-93.71750583565039,-72.94325304496661,-348.49246330828106,-287.08069593906663,231.15231292164515,624.0183502647291
280,68.08784045441104,-112.34746707989274,-100.77797563551032,-118.8500615427794,-305.7715789454209,-270.0931713822529,253.4274231471294,608.3849460180924
281,68.70993035759199,-149.55317526664032,-108.01211381676654,-165.0322670977664,-266.0797458365674,-250.76432459458232,276.9742812391255,596.559194399045
282,68.1696111568746,-187.6336679442578,-115.31237944181372,-210.60079389719553,-230.77736574766078,-229.41810206252796,301.5669380799557,588.6456843057814
283,66.53274465821094,-226.22469520855023,-122.5775280918167,-254.65716310429926,-201.0881427155879,-206.4289712138902,326.95534048567356,584.7160456867746
284,63.884981432283105,-264.9448402967044,-129.71423151657052,-296.3151331636449,-178.07186873907472,-182.2137193905051,352.86710801539994,584.8081133982902
285,60.32930179677452,-303.3984433865526,-136.63813948217486,-334.721668558657,-162.600255518411,-157.22165569669087,379.00997326627686,588.9247937762889
286,55.98338488129049,-341.17907677490956,-143.27438929308897,-369.07667312925076,-155.3363493496462,-131.92354917551287,405.07489015410505,597.0326456348413
287,50.9768636209393,-377.87357901154024,-149.5576046236718,-398.6510402414646,-156.71806547253732,-106.79971532222683,430.7398013803142,609.0602566031434
288,45.44851416114832,-413.06663558212375,-155.43145578838053,-422.80270724577497,-166.94635400782903,-82.3277173290092,455.67403831073386,624.8965640610911
289,39.543415527318665,-446.3458719113225,-160.84787742779355,-440.9905285086037,-185.97846190498302,-58.970171358598485,479.54330445947346,644.3893219096309
290,33.41010312489611,-477.30740088398744,-165.76605706515767,-452.7858774329762,-213.52667960676868,-37.163132413010025,502.0151690990647,667.3439384795628
291,27.197731285306563,-505.56174200524606,-170.15131866852352,-457.88194300466824,-249.0628496872879,-17.30548921353466,522.7649714185667,693.5229070990234
292,21.053257771615925,-530.7400038523197,-173.9740273257895,-456.1007029168906,-291.82876300919577,0.2502816644335959,541.4820092050152,722.6460288815962
293,15.118667174907959,-552.5001976579175,-177.2086322246399,-447.3975437461412,-340.8523807715265,15.205750603228429,557.8758608826482,754.3915964092815
294,9.528259269031462,-570.5335300393359,-179.83294469790783,-431.86347204979097,-394.9696133550804,27.322414110965674,571.68266824548,788.3986681528695
295,4.406040396743026,-584.5705087765807,-181.8277178092594,-409.72483100383874,-452.8511806976724,36.425778879199626,582.6711915602856,824.2705112584041
296,-0.13673208160551364,-594.3866879087636,-183.1765573128637,-381.3404161767371,-513.0338963094869,42.40770485599123,590.6484402458068,861.5792217693371
297,-4.003793298852249,-599.80787746757,-183.86615538917425,-347.1958807808489,-573.9555760686469,45.22713564447834,595.4646817671136,899.8714534560207
298,-7.1158395668206795,-600.7146490146292,-183.8868033539407,-307.89534314374725,-633.9926839557702,44.909394255061734,597.0176393654045,938.6751155429661
299,-9.412161442427406,-597.0459807116403,-183.233112431616,-264.1501622709884,-691.49978988972,41.54424677806647,595.2557063591025,977.5068524344223
300,-10.851887567130966,-588.8019044007741,-181.90485654780355,-216.7649322350259,-744.8499188199929,35.282939284197774,590.1800311846798,1015.8801014139892
301,-11.414796886339216,-576.0450414225577,-179.9078496707518,-166.6208595092756,-792.4748961523777,26.3343995094866,581.8453627630846,1053.3135296432542
302,-11.101670542831892,-558.9009433353926,-177.2547812667755,-114.6568229057078,-832.9048221363715,14.960769558329034,570.3595893680172,1089.339663525931
303,-9.934168916607081,-537.5571883998248,-173.96595276682575,-61.84856478347231,-864.8058235649163,1.4724023030696798,555.8819544625319,1123.5135261898251
304,-7.954232161611715,-512.2612245050556,-170.06987975017012,-9.18661304039527,-887.0152333678827,-13.777585818639851,538.6199875917844,1155.4210840089047
305,-5.223013478922844,-483.31699305325304,-165.60374333356305,42.346329723886235,-898.5733469841471,-30.39915779019154,518.8252441674713,1184.6872712447089
306,-1.819363735588402,-451.08041380243225,-160.61368659123337,91.79768992777564,-898.750914503632,-47.971593437379916,496.7880011372237,1210.9833219979432
307,2.1621052525354263,-415.953854393483,-155.15495697133184,138.26612881007088,-887.0715646361311,-66.05016135410983,472.8311022540786,1234.0331060154435
308,6.613342821030199,-378.3797465045188,-149.29189478132656,180.92057617888494,-863.328429523182,-84.1732926503922,447.30318331822053,1253.618156524901
309,11.41552223470911,-338.8335399313112,-143.09776273050164,219.01640921076233,-827.5943486972208,-101.87032872529163,420.57153126117714,1269.581106957312
310,16.441990495912496,-297.8162038869497,-136.6544040714679,251.90815717812737,-780.2251699875364,-118.66989427595375,393.0148390563097,1281.827323563953
311,21.561442188729213,-255.84648997167102,-130.05170901094604,279.05833789278114,-721.8558266958695,-134.10890221115582,365.01611019126307,1290.3246279192879
312,26.641244551365336,-213.45316325116195,-123.3868630345006,300.04229751916546,-653.3890474681315,-147.74213515209706,336.95594247407746,1295.101134977301
313,31.550831536545786,-171.16738778972956,-116.76334870278241,314.54920534516623,-575.9767442869379,-159.15227601045282,309.2063836961185,1296.241371104792
314,36.165077335741536,-129.51542353220452,-110.28967523450657,322.379619687667,-490.994323021152,-167.96018526064225,282.12550502782267,1293.8809623273485
315,40.367556338790365,-89.0117565764835,-104.07781719766255,323.4402638791407,-400.00836902079885,-173.83515295872118,256.05278656216973,1288.2002780451257
316,44.0535974864876,-50.15274885858394,-98.24135370093322,317.7368126347228,-304.7383769879596,-176.5047970863216,231.3053577484131,1279.4174683078934
317,47.13304637223976,-13.4108596572497,-92.89331212797848,305.3655763648182,-207.01341908667553,-175.76424281044794,208.17508787143984,1267.7813396605059
318,49.53265750835441,20.770537397440922,-88.14373622355956,286.5049756706332,-108.72487431923005,-171.48420416996336,186.92648179362737,1253.564477539169
319,51.19805029368187,51.98174062879941,-84.09701772817111,261.40761473539567,-11.776565589875833,-163.61760255693687,167.79530579782093,1237.056946958733
320,52.09517347179527,79.8507247663922,-80.8490529883813,230.3935913463546,81.96614975566511,-152.2043941288698,150.98784727041127,1218.5607936745796
321,52.211233353374006,104.0465883721757,-78.4843089809801,193.84543601628098,170.72664024527614,-137.37433699180008,136.68069860136157,1198.3854328311254
322,51.55505172943732,124.28247370073035,-77.07290466982343,152.2047814270918,252.86484328725396,-119.34750316963837,125.02094886456624,1176.8438640902282
323,50.156832213260365,140.31798836808701,-76.66783160034271,105.97056536093021,326.92095142384454,-98.43242462453924,116.12666624919449,1154.249513074477
324,48.067330225829025,151.96115415936583,-77.30245020055324,55.69830621543904,391.6533456066824,-75.02185179767508,110.08755969118114,1130.9133984390292
325,45.35644214957373,159.06990142641956,-78.98840325826559,1.999793510406647,446.0694349766592,-49.58619159123546,106.96571916936352,1107.1412905473917
326,42.11125222466589,161.5531191536345,-81.71408362648583,-54.45757274648117,489.44841190231176,-22.664772890312005,106.79634982263832,1083.2305757556883
327,38.433599597815444,159.3712620995523,-85.44377855338085,-112.95257345114575,521.3553406768762,5.144844170116864,109.58843438757395,1059.4666622167779
328,34.437250085631284,152.53650845154078,-90.11758857145416,-172.71379662675278,541.6464272819914,33.19924682842143,115.32528027961098,1036.118932604833
329,30.24477508932967,141.11245529048512,-95.6521859591243,-232.9256546843354,550.4657250953164,60.822930960118676,123.96493077661141,1013.4364301542983
330,25.984251540123974,125.2133362624239,-101.94243827443395,-292.73715197705604,548.23388318051,87.32311547327305,135.4404432583204,991.6436202780485
331,21.785900606166987,105.00274745718565,-108.86387859105707,-351.27354010702356,535.6298162746922,112.00526617338514,149.66006040631896,970.9366704397953
332,17.77877922213751,80.69187407731312,-116.27595854675945,-407.65077241870847,513.5663571214774,134.1889800116241,166.50732126534345,951.4807161991762
333,14.087628404786997,52.53722140354861,-124.02597633967116,-460.9924545091996,483.16104223627553,153.2238836124533,185.84117580771053,933.4085247424377
334,10.829967394673748,20.837867115604254,-131.95353258011795,-510.4487959840519,445.7031914546444,168.50521134749656,207.49617625856575,916.8208362691081
335,8.113504428075315,-14.06773422622406,-139.89533500623583,-555.2169079887184,402.6183876917277,179.48874693803123,231.2828186587541,901.7884794291273
336,6.033914481592458,-51.80535231740063,-147.69015047462491,-594.561665015493,355.43136969533316,185.70483547591894,256.9880989054258,888.3561497575411
337,4.673012594501651,-91.9689384886954,-155.1836911951415,-627.8362590284956,305.72824247302276,186.77119529143425,284.3763319221743,876.5475410057211
338,4.097329936133369,-134.12488805268387,-162.23322363911075,-654.5015210435739,255.11880955573736,182.40427773896903,313.19026607975536,866.3713545198758
339,4.357081288737981,-177.81655974205373,-168.71170382656078,-674.1430765620054,205.19975172429892,172.42893699271886,343.15251280349594,857.827601013646
340,5.485500010795325,-222.56901218383385,-174.5112710602978,-686.4854472250736,157.51931976378194,156.78618243668748,373.967306315995,850.9135661365425
341,7.49851120757795,-267.8939278380519,-179.54597105905202,-691.4023205808174,113.54416523686282,135.5387935443596,405.3226103530911,845.6288429847118
342,10.394714038658302,-313.2947059694728,-183.7536249505594,-688.9223832279208,74.6288894338,108.87458057014747,436.8925948825037,841.9789381934681
343,14.155645660878355,-358.2717165517478,-187.09680817364307,-679.2303385573649,41.98883447576581,77.10707648156644,468.3405129289478,839.9771205928424
344,18.74629852507742,-402.32771537180395,-189.56294824499054,-662.6629882950186,16.676565690073552,40.67345731932143,499.3220118955953,839.6443828467143
345,24.115859023833632,-444.9734250238703,-191.1635881157041,-639.7005206679696,-0.4375979160980183,0.12952620704008957,529.4889112781058,841.0076024558903
346,30.198631022028675,-485.73328387113634,-191.93288960977725,-610.9533867827498,-8.680749531082023,-43.85832977793972,558.4934657900665,844.0961882907442
347,36.91510485719152,-524.1513524691054,-191.92546939278938,-577.1453302567392,-7.588100263546524,-90.52419784328569,585.9931080334105,848.9376477536288
348,44.17313172388772,-559.797343023402,-191.21367127217422,-539.0932431934458,3.090841073652119,-139.01658753720668,611.6556291281823,855.5525811914482
349,51.8691653097302,-592.2727030564449,-189.88438749113527,-497.6845551655849,23.39059375133241,-188.41503429991673,635.1647124761308,863.9496004227943
350,59.88953861347155,-621.2166428197698,-188.03555040997034,-453.8528440713256,53.13242443339958,-237.7490227345393,656.2256894806247,874.1205982126919
351,68.11175619410261,-646.31195258423,-185.77242403891435,-408.5523235630317,91.93124388688352,-286.0187971915686,674.5713416179294,886.0366974420904
352,76.4058014765115,-667.290417814034,-183.20382962948565,-362.7318431491224,139.20635228760995,-332.2175359035665,689.9675363057537,899.6451085079221
353,84.63548304196945,-683.9376147950594,-180.43843769279286,-317.309050993799,194.19559770007515,-375.3542861346092,702.2184601903392,914.8670323889679
354,92.65986801080895,-696.0968627631589,-177.58124816509124,-273.1454130191821,255.97243127299265,-414.4770024490662,711.1712075581684,931.5966644754069
355,100.3348683911586,-703.672124414021,-174.73036131298332,-231.02283545221945,323.46530364593997,-448.6950067378479,716.7194963871292,949.701277488854
356,107.51505250991919,-706.6296846123524,-171.97411774721826,-191.62267419236656,395.47885769114623,-477.2001997418604,718.8063201650745,969.022292225804
357,114.05574596507803,-704.9984932087748,-169.3886615940036,-155.50790971037898,470.7164299650988,-499.28639727714443,717.4253970297626,989.3771910338542
358,119.81546517355169,-698.8691250182716,-167.03596076464174,-123.10920813435808,547.8034639679914,-514.3662364333702,712.6213428753763,1010.5621019655326
359,124.65869369344668,-688.3913790542568,-164.9623048200723,-94.71547685322345,625.3115417666379,-521.985193708005,704.488563267725,1032.354887087587
360,128.45897094858853,-673.7706012576243,-163.19729488520088,-70.46936318632552,701.782833109854,-521.8323718433404,693.1689217379436,1054.5186011876583
361,131.1022202574758,-655.2628647469388,-161.7533403967359,-50.36794891515241,775.7548231437792,-513.7478342065275,678.8482936118752,1076.8052323616125
362,132.49020425672475,-633.1691780073152,-160.62568083143637,-34.26867705440858,845.7852019148328,-497.7263828949314,661.7521532510824,1098.9596770279659
363,132.54396591981126,-607.8289163847768,-159.7929518058251,-21.900327391888695,910.4767841175595,-473.91778205045034,642.140369437771,1120.7239281662235
364,131.20709521945523,-579.6126883663018,-159.21830921271192,-12.878648843396713,968.502286572516,-442.62352103755256,620.3014005623295,1141.8414647378643
365,128.44865550958065,-548.914856923262,-158.8511101787818,-6.726067911089448,1018.628733509289,-404.29029791313894,596.5460897095033,1162.0618249685378
366,124.26560823899348,-516.145937576322,-158.62912699848525,-2.8947255410048984,1059.7411906807877,-359.5004863818386,571.2012599245752,1181.1453290382829
367,118.68458704678376,-481.72508796582565,-158.48124380603394,-0.7919503863923417,1090.8654512963546,-308.95992732456494,544.6033015838135,1198.8678872410312
368,111.7628912770955,-446.0728885379032,-158.33055991592857,0.19283868799835713,1111.1892156917797,-253.4834486129004,517.0919277242763,1215.0257856790104
369,103.58859517839687,-409.60459185791524,-158.09780113046355,0.6608808157508177,1120.0812338816916,-193.9785517933599,489.00425186512945,1229.4402859155593
370,94.27970327800746,-372.7239910720422,-157.7049212010276,1.1775685559777236,1117.1078295625496,-131.42770737045845,460.6693188555114,1241.9618210805363
371,83.9823234175459,-335.81802771130924,-157.07875915338684,2.247741765751132,1102.046206944398,-66.86967897950464,432.4031937295248,1252.4735378947728
372,72.86787378691847,-299.25222600674556,-156.15460443131667,4.293731136115334,1074.8939620267054,-1.380261200450641,404.50468636765623,1260.893934656519
373,61.129385816996475,-263.3670053242512,-154.87951343865151,7.636964591778702,1035.8742737347145,63.947227578611724,377.25176130660304,1267.1783783163667
374,48.97700808660998,-228.4748848951036,-153.21522253384404,12.483792128767089,985.4363296272948,128.02140423846745,350.8986541099463,1271.3193384639792
375,36.63285466053661,-194.85855766739436,-151.14051698059856,18.916020152560726,924.250639067458,189.77198789994833,325.6736908694005,1273.3452410199711
376,24.325371818122356,-162.7697759469771,-148.65294170022295,26.88647985584514,853.1990027039611,248.16847172691172,301.7777871606454,1273.3179141871624
377,12.283418089855756,-132.42896368478884,-145.769772890049,36.21978603138166,773.3590457698077,302.2381203907846,279.3835866273952,1271.3286747315415
378,0.7302636884186117,-104.02545076611648,-142.52820392039183,46.61827370890246,685.9833918323867,351.0831165853734,258.63518579794487,1267.4931876833036
379,-10.122281852508072,-77.71821377745069,-138.98473100638384,57.67293267091153,592.4737576591443,393.89666372441604,239.6483799623535,1261.9453277793905
380,-20.079409318857188,-53.637004461101476,-135.21375354336843,68.87899581653862,494.3504834183059,429.9778237374269,222.5113555443757,1254.83036888003
381,-28.968323573942083,-31.883749891032657,-131.3054318246728,79.65567478589705,393.2182578823572,458.74483703937176,207.2857488552126,1246.2979112433177
382,-36.64255787170192,-12.534116258279953,-127.36287217336682,89.3693723189044,290.7290291656609,479.74664520818703,194.00799105497768,1236.4950038352322
383,-42.985443541386196,4.360859003590469,-123.49873632649536,97.35953644150294,188.54327924084322,492.67232448960954,182.6908656067345,1225.5599102873302
384,-47.91262556253857,18.773143819030413,-119.83139690019958,102.96616542742998,88.29096080214067,497.3581463611888,173.32521695440153,1213.6168940161133
385,-51.37355463766441,30.6961507577955,-116.48078167174243,105.5578419230271,-8.466567223351625,493.7920115209136,165.88176512873545,1200.7722689649174
386,-53.35192771404065,40.1432668627925,-113.56406416048891,104.55909341380878,-100.27231731142905,482.1150526210863,160.3129970551143,1187.1118049162405
387,-53.86508894121613,47.14647562883265,-111.19136604520654,99.47586828897033,-185.80600077306678,462.6202637905606,156.5551187463528,1172.6994296371363
388,-52.96243992208632,51.75504936679942,-109.46163959758864,89.91799659073726,-263.91192469112355,435.7480870564769,154.53006215998226,1157.5770696579439
389,-50.722940659769066,54.03427233796287,-108.45889718520162,75.61766882196441,-333.62169642631847,402.07896359372376,154.14754634073932,1141.7654331991062
390,-47.251810166364336,54.064144741912486,-108.24895009783157,56.44319298866954,-394.1712059177218,362.32293752524566,155.30719478009095,1125.2655546799688
391,-42.67655789149198,51.938015795827944,-108.87680827687079,32.40754690804829,-445.01158628976947,317.3064775342603,157.90070955123812,1108.0609672173184
392,-37.14249400707949,47.761100119547734,-110.36487226169231,3.671499086549251,-485.8140731380088,267.95675277696125,161.8140976666955,1090.1204230594221
393,-30.807879129865608,41.648843489228916,-112.7120153870311,-29.458691795892683,-516.4688891609021,215.28366140467529,166.92993707563997,1071.40112583536
394,-23.838883956328566,33.725119480660645,-115.8936070649775,-66.53877547634544,-537.0784730751034,160.35996110875323,173.12966020778387,1051.852467390206
395,-16.404537628875577,24.12025620044349,-119.8624702514242,-106.99878598852976,-547.9455495385744,104.29989301767016,180.295822602722,1031.4202775316014
396,-8.671849498011918,12.968912046786132,-124.55070566402611,-150.1594822835555,-549.5566963449118,48.236727525987504,188.31431196541672,1010.0515982358022
397,-0.8012889530193316,0.40784158028047635,-129.8722617131412,-195.2521535057989,-542.5621963034647,-6.7003014765940625,197.07643812157062,987.6999768565245
398,7.057202170318859,-13.42638314462812,-135.72609057431956,-241.44082001192197,-527.7530486237572,-59.409166829522135,206.48082899959402,964.3312191136948
399,14.767513411865117,-28.399605509080946,-141.9997114193971,-287.84574023004546,-506.0360457071035,-108.83777601759758,216.43504728152595,939.9294424548776
400,22.209870865801044,-44.38215856760682,-148.57300099947096,-333.5670940611824,-478.40779705358005,-154.00568092928023,226.85684152522074,914.5031423091926
401,29.2824746944306,-61.25065155442491,-155.32204527392622,-377.7077800203897,-445.9285212869608,-194.02418674735617,237.67495501457083,888.0908768404752
402,35.90224996548768,-78.88933544388995,-162.1229071593498,-419.39443831272564,-409.69635717680336,-228.11430207691424,248.82943243108875,860.766141727528
403,42.0047408656521,-97.19092721455817,-168.85518814317058,-457.7960715044272,-370.822881738905,-255.62203288566656,260.2713857855387,832.6410646273584
404,47.54322295448679,-116.05680490612043,-175.4052806638947,-492.139932740349,-330.41046099303344,-276.0306173990877,271.96220604077945,803.8686769903757
405,52.48714604140952,-135.3965348044975,-181.66922198513672,-521.7246337805542,-289.5319705433748,-288.96942220042,283.87223499443155,774.6436741643632
406,56.820049780676314,-155.12674977907696,-187.55507050764177,-545.9306414786968,-249.2132843173254,-294.2193611580249,295.978941227455,745.2017108253606
407,60.53711417736473,-175.16945324614676,-192.9847368850009,-564.2284490713133,-210.41873903651413,-291.7148416269513,308.26467166787813,715.8173692431116
408,63.64251797711317,-195.4498675737582,-197.895220429636,-576.1847232492502,-174.03956629644685,-281.54236677501734,320.7140752499819,686.8009699928908
409,66.14678008427838,-215.89397409909307,-202.23922860222135,-581.4666665325689,-140.8850855173172,-263.9360151582348,333.31131675932056,658.4943730975398
410,68.06425309469552,-236.42590366215558,-205.98519111950952,-579.844744875373,-111.67630492826379,-239.2700778451418,346.0372156880785,631.2658657862511
411,69.41092346564184,-256.9653345014707,-209.1167136174358,-571.1938589837645,-87.04149845010109,-208.04916911938184,358.86645384394876,605.5041861657188
412,70.20264939414838,-277.4250432861246,-211.63154181798765,-555.4930090760964,-67.51330704192513,-170.8961513420568,371.7649941155123,581.6117183309995
413,70.45393542820584,-297.70873972747677,-213.5401219089675,-532.8235140788953,-53.52693635805414,-128.53823542691123,384.6878412800843,559.9969193780144
414,70.177303621041,-317.7092987666245,-214.86384671055242,-503.36587744129804,-45.419071846420735,-81.79163576818243,397.577256679471,541.0660865682694
415,69.38327726924801,-337.30748779731454,-215.6330734798414,-467.3954208034037,-43.42719798664593,-31.545167669105336,410.36151541788,525.2146215277116
416,68.08094841206567,-356.371269179571,-215.88499223150254,-425.27682062829024,-47.68908696653317,21.256828814704306,422.95427006839725,512.8179840114232
417,66.27905799238397,-374.7557391680723,-215.66141709644526,-377.45768049629544,-58.242312539569106,75.63187470748204,435.2545600940222,504.22254889978234
418,63.98748126752763,-392.30374229465565,-215.00656983914544,-324.46126085800785,-75.02374313896419,130.5767190545302,447.1474818259286,499.7365929929472
419,61.21898352193189,-408.84717523456595,-213.96492435828554,-266.8784795846053,-97.86906590413525,185.08440650986964,458.5055101332736,499.6216498745355
420,57.99109426759798,-424.20896773930804,-212.57918186957588,-205.35929852673894,-126.51247893569017,238.16082176577248,469.190440284566,504.084484135215
421,54.327942475961365,-438.2057027049165,-210.8884455409486,-140.6036238920826,-160.5867535873686,288.8405460961878,479.0558976408414,513.2699467922534
422,50.26190029771489,-450.65081483378066,-208.92665817444944,-73.35186376879227,-199.62390807826023,336.2019153690055,487.9503444650515,527.2549736704764
423,45.83489692183895,-461.3582883229337,-206.72135641350349,-4.375292149536676,-243.05675023924184,379.3812111472985,495.7204977768134,546.0439702542618
424,41.09928616044321,-470.1467580038927,-204.29278114252344,65.5336451328603,-290.2215467500592,417.58594207246057,502.2150599188341,569.5657881953969
425,36.118179114970296,-476.8439042032979,-201.65336852590815,135.5709834385892,-340.36206564917984,450.10717884779814,507.2886539404476,597.6724453219351
426,30.96518468688651,-481.29101835368374,-198.80763148207822,204.93080305027158,-392.6352235044589,476.33089236887,510.8058483804427,630.1396808417635
427,25.723533640026538,-483.3476040076441,-195.75242808419162,272.8147061479563,-446.1185506873865,495.748213531198,512.6451500970607,666.6693767616994
428,20.484594634988657,-482.8958674178091,-192.47760119608006,338.44124531884995,-499.81966643161564,507.9644912323761,512.7028396659194,706.8938179029287
429,15.345821708044134,-479.8449449628567,-188.96696229826486,401.05535242601303,-552.6879253535315,512.7069811493915,510.8965225181302,750.3817068433466
430,10.408200997583133,-474.1347131591588,-185.1995822301165,459.93779930369794,-603.6283528358231,509.83096180758673,507.1682717698741,796.645797485394
431,5.773289521790475,-465.73903199553956,-181.15134309055014,514.4146806826338,-651.5179231654197,499.32405397533347,501.48724673483554,845.1519633563449
432,1.539960184407704,-454.66828437466535,-176.79669904798752,563.8668530586833,-695.2241502573326,481.3085181999446,493.8516848979379,895.3294757072285
433,-2.1990153934691863,-440.97109347047933,-172.11058891113444,607.739199266144,-733.625859194931,456.0413233642947,484.2901844243542,946.5822326810005
434,-5.360401683780142,-424.73512534898447,-167.07043933353773,645.549524028627,-765.6358933910058,423.9118149087377,472.86221836616375,998.3006544090925
435,-7.873799424579288,-406.0869154727265,-161.6581941184304,676.8968263317433,-790.2253928340587,385.4368631045291,459.6578497061611,1049.8739399417764
436,-9.6846570656952,-385.1906935107513,-155.86230248169952,701.4686457830369,-806.4491581696844,341.253437279604,444.7966471389675,1100.7023702966978
437,-10.756844209463594,-362.2462193738007,-149.67959781772893,719.0471478754473,-813.4714967485257,292.1086274286555,428.42583347003483,1150.2093368136036
438,-11.074649719397435,-337.4856821782393,-143.1169987772227,729.513601549242,-810.5918343775877,238.84721463852102,410.7177296032507,1197.8527740703748
439,-10.644086473987754,-311.16975032700515,-136.1929661998649,732.8509137953941,-797.2692766436082,182.39696989477827,391.8665849560549,1243.135681086539
440,-9.49341108640638,-283.5828928687534,-128.93865249928533,729.1439210415602,-773.1452246659545,123.75193147683427,372.0849078152632,1285.6154246243896
441,-7.672799174987735,-255.0281182385279,-121.3986849228866,718.5771961989636,-738.0631007076314,63.953970424610034,351.59942544606764,1324.911537407593
442,-5.2531530179381365,-225.82129554648887,-113.63153187527556,701.4302133551554,-692.0842266420682,4.072999688902991,330.6468132559069,1360.711755767317
443,-2.324056528897073,-196.285235462451,-105.70941307756054,678.0698169383236,-635.4989282613739,-54.813784364485166,309.4693348896334,1392.776087569586
444,1.009068769756208,-166.7437126782291,-97.7177289277743,648.9400642732305,-568.8320148661131,-111.64321789904511,288.3105306888638,1420.9387619873962
445,4.62851350334638,-137.51561063462287,-89.75399948619571,614.5496454270369,-492.84191076133925,-165.3876196065361,267.4110804673217,1445.1079875128037
446,8.408401759234701,-108.90936243795129,-81.9263166867288,575.4572306781257,-408.51289878363804,-215.07594061015777,247.00494839208835,1465.2635359517965
447,12.21920967057056,-81.21784986406273,-74.35132479884375,532.2552544111592,-317.0401809594652,-259.81416335808973,227.31589369865884,1481.4522811803045
448,15.932474008107896,-54.713904716608745,-67.15175657122738,485.55281099752716,-219.80776720691614,-298.8044699443744,208.55440238957257,1493.7819484584938
449,19.42546575071499,-29.64653330966251,-60.453568859062536,435.95849769114903,-118.3595571002302,-331.36266550727464,190.9150648333655,1502.4134549170426
450,22.585605302923387,-6.237955527721664,-54.38274244729861,384.0641624974043,-14.364355497513642,-356.93332165847346,174.57439683679644,1507.5523129048017
451,25.314415283483623,15.318484932914913,-49.061833613603,330.43056528899683,90.42407648158436,-375.1021222914407,159.68908163896407,1509.4395932973011
452,27.530838434811933,34.85952183809609,-44.60638525693035,275.57590797196275,194.2105268488312,-385.6049620290199,146.39459932518832,1508.3428917630968
453,29.173787422921638,52.25230310480313,-41.12131916004611,219.96802164324,295.2037656671945,-388.3334613872579,134.80420789437275,1504.5476229349774
454,30.203836782508475,67.3939261397539,-38.69743643373694,164.02072496674248,391.6621622267621,-383.33670665405043,125.0082449311936,1498.3488245665544
455,30.604012588160085,80.2102685747785,-37.408151350043596,108.09451706733103,481.93774035589644,-370.81917782876155,117.07372842218555,1490.0435283915442
456,30.379680607463005,90.65423583849925,-37.30657739521341,52.50138129957514,564.5170274676964,-351.134978532725,111.04424750131491,1479.9236725440085
457,29.557576753581703,98.70356158130599,-38.4230765175472,-2.486900078172955,638.0572444909188,-324.77861632979096,106.94014657234186,1468.2694968965852
458,28.18406216071182,104.35830185997523,-40.763374894381926,-56.62784155891874,701.4166473419197,-292.3726944168268,104.75901684323172,1455.343370113716
459,26.32271620985299,107.63816072529532,-44.30734064084556,-109.69591282785909,753.6781469340012,-254.6529638459572,104.47651514786028,1441.3840363803008
460,24.051401878735952,108.57977531002292,-49.00850862406281,-161.47003261196366,794.1656823490099,-212.45124832985252,106.04752913550291,1426.6013326884022
461,21.458948317787485,107.23407436531113,-54.79442227257215,-211.72217317048765,822.4531754838235,-166.67679029229728,109.40770065825313,1411.1715048159965
462,18.64159745186199,103.66380682055535,-61.56783981854493,-260.20824130431146,838.3662283585724,-118.29657676107938,114.47530784669254,1395.2333291745233
463,15.699358137368526,97.94131748750318,-69.20882188878747,-306.6621946353211,841.9770130533608,-68.31518851307823,121.15349390200501,1378.8853151093128
464,12.732406250392925,90.14662629063483,-77.57767947938527,-350.7940670179439,833.5930341376608,-17.754679565031683,129.33281850521632,1362.1843067153204
465,9.837663610015333,80.36584565380781,-86.51871816674205,-392.2922389289742,813.7406096781339,32.365057975863344,138.8940950010024,1345.1458159771057
466,7.105682264391333,68.68994781672203,-95.8646687829628,-430.8299260719456,783.1440225022096,81.04505134350771,149.71146072622312,1327.7463918486312
467,4.6179514157904356,55.21387001160992,-105.44165003495569,-466.0755022195306,742.7013452147451,127.32480344579827,161.65560714796536,1309.928254227307
468,2.444730153707116,40.03592152339889,-115.07446847276363,-497.7059472982789,693.4579475698039,170.2983967388138,174.59707144792395,1291.606291188756
469,0.6434894548141499,23.25743463297091,-124.59203010318762,-525.422438002049,636.5786589478637,209.12896606308112,188.4094655284287,1272.6773327745966
470,-0.7419775269542891,4.982584151306858,-133.8326201123537,-548.9668862435574,573.3194873475021,243.06143366514934,202.97249777334295,1253.0313865685134
471,-1.6817455246076263,-14.681708787065654,-142.64880599257057,-568.1380862908359,504.9996965775811,271.4334677002538,218.1746329301796,1232.5642727948996
472,-2.1592466960120684,-35.625870074933275,-150.91173655680512,-582.8060627504975,432.97492395418504,293.6846845820398,233.9152404395938,1211.1908632498594
473,-2.1700931025684116,-57.73782684518047,-158.51464474640937,-592.9232352827228,358.6118891466915,309.36415858614424,250.1061035219217,1188.857949370253
474,-1.7203047137630345,-80.90325366693867,-165.37541376214259,-598.5311567909438,283.2651045634358,318.136323764334,266.6721991868427,1165.5556830843018
475,-0.8240579506823755,-105.00589840403521,-171.43812911640242,-599.7618636500525,208.2558515145619,319.78535327370383,283.551707219603,1141.326586647147
476,0.4988889663959081,-129.9279296921655,-176.67360559268772,-596.8333064432642,134.8535421924683,314.2180850598044,300.69525387687565,1116.2713305998918
477,2.225903838291593,-155.55021124214505,-181.0789376915197,-590.0388825190175,64.25946037837065,301.465538628305,318.06443302518835,1090.5508125888086
478,4.334111439212712,-181.75239092023372,-184.67616623471838,-579.7317042098277,-2.4072199376485703,281.6830428692897,335.629669507464,1064.3844733544404
479,6.802736025582629,-208.41270122275688,-187.5101782038972,-566.3048170987769,-64.12129038750031,255.14897408501577,353.36750175084705,1038.0451698595036
480,9.614962835112962,-235.40740280969962,-189.64596288503608,-550.1690334269939,-119.96140241017584,222.26208683490304,371.2573737160047,1011.8511988641693
481,12.759164179267946,-262.60985837237945,-191.16534083741044,-531.7302881877033,-169.1181451513738,183.53740389526087,389.27804846889956,986.156176221921
482,16.22938812073842,-289.88928897367344,-192.1632717199963,-511.36842078453503,-210.9004181323367,139.60060942056322,407.4037870979031,961.3374476393717
483,20.025067072458654,-317.1093246664995,-192.74384138077437,-489.41904353090956,-244.7401776113137,91.18085775208964,425.60047015466,937.7836166169591
484,24.149962440299422,-344.1265027385528,-193.01603367200659,-466.1597354730356,-270.19562385443464,39.10187283793522,443.8218649209454,915.8817085257998
485,28.610413833079544,-370.78888403267325,-193.089408494091,-441.8012814461322,-286.95291492517924,-15.728817348763263,462.0062541822397,896.0044748565032
486,33.41300446991365,-396.9349523657222,-193.06982891964066,-416.48415349691584,-294.82653509146286,-72.3326715357691,480.07363859947446,878.4983482391721
487,38.56178826684064,-422.3929411574458,-193.05539781997982,-390.27997930801786,-293.7584941014708,-129.67507247072123,497.9237056906519,863.6725401897332
488,44.05525042209189,-446.98070233224854,-193.13277006702094,-363.197402738095,-283.8165676127556,-186.68244447747284,515.4347257278039,851.7897064116316
489,49.883193739366625,-470.50620007558274,-193.3739963123446,-335.1915244560667,-265.1917970235381,-242.2614563396509,532.463491406055,843.0584968891208
490,56.02375735467087,-492.7686781333028,-193.83402968375643,-306.17600160367175,-238.19544650247414,-295.32006292300684,548.8463674983498,837.6281828351239
491,62.440780713854316,-513.5605149078204,-194.54899181286072,-276.03686032831166,-203.25556985684128,-344.7899830077703,564.4014625434361,835.58542930249
492,69.08172026139323,-532.6697467423278,-195.5352544346424,-244.64711150549724,-160.91327573920555,-389.65006522390155,578.9318804978012,836.9531714344286
493,75.87630703878503,-549.8832083602396,-196.78935118556535,-211.88134265628509,-111.8187020799848,-428.94986919885986,592.2299597521813,841.6914598981085
494,82.73609998610799,-564.9902126227129,-198.28869309656386,-177.62957746604553,-56.726624077287795,-461.832695354295,604.0823631654711,849.7000724863844
495,89.55504310446794,-577.7866709007512,-199.99302132142367,-141.8098360408167,3.508471206147616,-487.5572462893992,614.2758477132227,860.8226477465074
496,96.21107612011065,-588.0795399722466,-201.84649305833918,-104.37897460396154,67.93810004313713,-505.5171043342739,622.6035159861912,874.8520804012132
497,102.56878081199481,-595.6914695755931,-203.7802649413791,-65.34150850494572,135.52661962054967,-515.2572624051438,628.8713328266296,891.5369177824139
498,108.48297472257434,-600.4655144776755,-205.71541806547037,-24.75620871962675,205.1595683876167,-516.4870370790395,632.9046775434128,910.5885001490777
499,113.8030989612471,-602.269764875832,-207.56606509325664,17.259691878320247,275.6538955919824,-509.0888106424849,634.55469486331,931.6885909932004
500,118.3781951207344,-601.001739446502,-209.2424931416409,60.528821957570955,345.77042389535853,-493.12218787356153,633.7042064854141,954.497252702321
501,122.06223260646625,-596.5923783825517,-210.65422186927935,104.81463313728909,414.2287985095688,-468.82331793687706,630.272950912632,978.6607510701111
502,124.71953271658401,-589.0094722515306,-211.71288716479626,149.8250447438481,479.72504356672255,-436.59932691781984,624.2219333092501,1003.8193271664715
503,126.23003785705924,-578.260369122107,-212.3348904494218,195.21871288482262,540.9516807021303,-397.01802708690593,615.5566903241521,1029.6147502368278
504,126.49419069866725,-564.393818842757,-212.44377793574762,240.61372505755577,596.6201798901658,-350.7932969361487,604.3293076720981,1055.6976376451055
505,125.43721604600015,-547.5008401494553,-211.97233214634204,285.5983626620339,645.4853271249374,-298.76673653761134,590.6390708921406,1081.7345674566448
506,123.01263453746687,-527.7145327040367,-210.86437013253152,329.74341446464297,686.370928218053,-241.8863727150606,574.6316811810714,1107.4149935486485
507,119.20487871961522,-505.20880037491406,-209.07624994835692,372.61538082385346,718.1961400439421,-181.183300877114,556.4970263036323,1132.4578983275992
508,114.03092567159322,-480.19600161382704,-206.578089557468,413.78979570970245,740.0016392435232,-117.74719526152882,536.465558316007,1156.618002011653
509,107.54090376614026,-452.92359489810076,-203.35470097867622,452.8638250492334,750.9748033328863,-52.70159580536536,514.8033918741946,1179.6912229158065
510,99.81767176384727,-423.66989861277017,-199.40623798594515,489.4672897030293,750.4730820453908,12.820202479768312,491.8062953983224,1201.5189856259817
511,90.97540351552806,-392.73913151306215,-194.74854962893133,523.2713226686209,738.0447652220703,77.69795509420814,467.79279808638574,1221.9909298852317
512,81.15723902298772,-360.4559377179362,-189.41322668741927,553.994012838572,713.4463963092608,140.84541124621168,443.0966748109106,1241.0455966859292
513,70.53208221136018,-327.1596246646957,-183.44732711811642,581.4026137875933,676.6561320570388,201.22899006522383,418.0590955781078,1258.6687636100467
514,59.29063989682371,-293.1983497256065,-176.9127724237015,605.3121939758914,627.8824122370274,257.88393736472426,393.02073552678274,1274.889263350448
515,47.640809186874144,-258.9234787435692,-169.88542021717467,625.5809462676383,567.567387318987,309.92785511159127,368.31413586134073,1289.7723295404235
516,35.802534200949545,-224.68430724882145,-162.45383616916604,642.1027187416483,496.3846671171389,356.5716222857261,344.256586105214,1303.4107421594695
517,24.00226547475245,-190.82328514683343,-154.7178056037135,654.7976306597752,415.2311060034988,397.1278226032827,321.1437632200645,1315.9142564339568
518,12.467163050677073,-157.67182438674413,-146.78663575757702,663.6018577047961,325.21253282475914,431.0168592472843,299.2443136527484,1327.3979683363502
519,1.4191873617947157,-125.54670582592884,-138.7773008099153,668.4577800237224,227.62356458227228,457.7709807692711,278.7955035168218,1337.9703858066232
520,-8.930774184580278,-94.74704621804821,-130.81247313572243,669.3056683285057,123.92190345953499,477.0364796463354,259.9999966683336,1347.7220369815177
521,-18.388587684460223,-65.55174653168221,-123.01846872640513,666.0779346815726,15.69778596132234,488.5743553036353,243.0237581020623,1356.715452050248
522,-26.78218886566941,-38.21732184256424,-115.52311707166031,658.6967096118282,-95.3605020867555,492.25974046470736,227.99502635213452,1364.9772925960963
523,-33.96635042998146,-12.97600992006758,-108.45355140219593,647.0751567096416,-207.50394475023492,488.08035755734977,215.00425606674392,1372.4932598595392
524,-39.826711610283056,9.965932911053148,-101.93390912887507,631.1225430495072,-318.9617433079411,476.13420154242425,204.10490228091604,1379.2061937508615
525,-44.2828901292687,30.429817873308725,-96.08293794511802,610.7526960409139,-427.98065891076345,456.6265554587168,195.3149029781691,1385.0175004938028
526,-47.29052167902203,48.26603186157542,-91.01152050763915,585.8951381353801,-532.8635536556512,429.86635866183605,188.6187171725253,1389.791755518569
527,-48.842111633398964,63.355475081618415,-86.82015626496553,556.5079344304012,-632.0060108332669,396.2618812964524,183.96978996816875,1393.3640596069156
528,-48.96663459752469,75.61090333560047,-83.59646665028626,522.591135941707,-723.9300196272951,356.3156171686852,181.29333885845168,1395.5495141729239
529,-47.727874946223636,84.97812121233432,-81.41281289779792,484.1996601384477,-807.3138334036854,310.6182888939643,180.48938064166703,1396.1540481335985
530,-45.221560622684336,91.43694950812426,-80.32412940518645,441.45451431927364,-881.0172508666658,259.84186034716976,181.43594037665855,1394.9857821357355
531,-41.57139836992238,95.00187455400936,-80.36607795342293,394.5514208544409,-944.1017234386599,204.73146981242476,183.99239945558543,1391.8661503791052
532,-36.92416753198085,95.7222790471312,-81.55361976084322,343.76612377749893,-995.8448568790848,146.09623138008735,188.0029479909548,1386.6400997245414
533,-31.444069528556376,93.68215325511336,-83.88008520966024,289.45591763312876,-1035.7490467558202,84.79889886334652,193.30010802225502,1379.184828357557
534,-25.306560590758323,88.99919202051696,-87.31679765445227,232.05721637306561,-1063.5441636033838,21.74443967543331,199.7082906055805,1369.4166903453934
535,-18.69191673850475,81.82319715843163,-91.81328082657606,172.0792514982583,-1079.184383450985,-42.13238141307554,207.04734422059005,1357.2960608609078
536,-11.778792792136775,72.33372699293268,-97.2980520094267,110.09423986741322,-1082.839440884921,-105.88026174692064,215.1360463717509,1342.8301174299684
537,-4.738041517786764,60.7369649530028,-103.6799783855586,46.724582496655835,-1074.8807588444777,-168.5452760757702,223.79548641362888,1326.0736346189697
538,2.2729459780263004,47.261816803073074,-110.85015422109795,-17.37216301455169,-1055.863070513913,-229.18522467033452,232.8522865926423,1307.128000608424
539,9.115133545838864,32.15528981587084,-118.68424303168666,-81.519663442139,-1026.5022792801844,-286.88415949860126,242.1416106744101,1286.1387307336438
540,15.671751269528357,15.677254339462438,-127.04522090796452,-145.03960496279652,-987.650389722711,-340.76680665399317,251.50991517969285,1263.2917675977087
541,21.851052908345586,-1.9052652759537256,-135.78645254011778,-207.26797145776587,-940.2683800405814,-390.0125836251692,260.8174059507898,1238.808825629399
542,27.587804956989668,-20.324082349557475,-144.7550274710417,-267.56996247015576,-885.3978787186553,-433.8689008046687,269.9401702197348,1212.9419816454965
543,32.84345946150758,-39.3159029797155,-153.7952787100779,-325.3528670877926,-824.1324698350784,-471.6634397324806,278.77195895739817,1185.9676621672104
544,37.60503346468816,-58.62820776174829,-162.75239823212294,-380.0764270802956,-757.5894011957407,-502.8151162818257,287.2255944460306,1158.180157938784
545,41.88278761718437,-78.02472129140602,-171.47605443996636,-431.2604727575135,-686.8824238092033,-526.8434643314196,295.2339741625975,1129.884815049872
546,45.70686075777777,-97.29024518330513,-179.82390685950327,-478.4898677843311,-613.0964574755797,-543.3762126329949,302.7506366408216,1101.3910999521502
547,49.123072192953835,-116.23466078614746,-187.66490554129064,-521.4170219932951,-537.2647514688122,-552.1548723370792,309.74985147202983,1073.0057888440351
548,52.188145160435106,-134.6959520428446,-194.882259583916,-559.762395525624,-460.34917852178233,-553.0382025170476,316.2261973469398,1045.0265639042827
549,54.964630252168824,-152.54215372686954,-201.37596336781394,-593.3135047081297,-383.22424829298086,-546.0034736469462,322.19360156427837,1017.7362908853789
550,57.515814418602005,-169.67219117238284,-207.06478239173677,-621.9229444427975,-306.66533934594815,-531.1455024392898,327.6838330588479,991.3982000543672
551,59.900889534700084,-186.01563910025408,-211.88762381396185,-645.5058716869145,-231.34151860391165,-508.67348438709143,332.74446821092505,966.2521053791162
552,62.17062644324501,-201.53148313009115,-215.80424867924162,-664.037269426719,-157.8131432326102,-478.905701793727,337.4363815260865,942.5116943756195
553,64.3637596214411,-216.20601257653303,-218.7953197433376,-677.5491569195062,-86.53422697853146,-442.2622345558674,341.8308466391835,920.362823780541
554,66.50423856529427,-230.05000362911713,-220.86181572196622,-686.1277577122269,-17.859312375011857,-399.25584911515574,346.0063613101099,899.9626800026268
555,68.59944876595414,-243.0953670992581,-222.02387479819868,-689.9105063065093,47.94565911847859,-350.48128947747716,350.0453285926563,881.439616060817
556,70.63945102126921,-255.39143597023522,-222.31915383887983,-689.0826849853499,110.68921832398036,-296.6032442241999,354.0307327185812,864.8934586993688
557,72.59723531628741,-267.00105779602694,-221.80080339770294,-683.8734438290842,170.2379038970906,-238.34331354254542,358.04294215659405,850.396086399178
558,74.4299368094159,-277.9966389465753,-220.53516243925515,-674.5509706712738,226.49849811219534,-176.46634531014737,362.15675533859235,837.9921066788426
559,76.08091848830452,-288.45626525395335,-218.59927249301597,-661.4166376463847,279.40003234932936,-111.76654155141065,366.43877972843904,827.6995064099464
560,77.48258921896145,-298.4599998703873,-216.0783012485307,-644.7980453372664,328.87659369055535,-45.053748622082054,370.9452061618096,819.5102082365122
561,78.55979806129157,-308.0864363619481,-213.06295321013283,-625.0409993234914,374.85187207007885,22.859669056617854,375.7200115608139,813.390532938758
562,79.23362644037448,-317.4095643904162,-209.64693216357162,-602.5005714839498,417.2262602189581,91.17101321937149,380.7935970991053,809.2816325026942
563,79.425389584477,-326.495987037439,-205.92450824613783,-577.5315055080179,455.8671689052548,159.09820319708504,386.18184731594397,807.1000125523361
564,79.06065797679571,-335.4025128570308,-201.9882320781245,-550.4783115569603,490.60305261461724,225.88929278176948,391.8855794380532,806.7382987651773
565,78.07311836232776,-344.17413236191004,-197.92683002873295,-521.66545227359,521.2214561301157,290.8304522934275,397.89034191159794,808.066416298119
566,76.40811132280244,-352.84237857513364,-193.82330821322907,-491.38805025918657,547.4711917723565,353.25241957913306,404.1665173424268,810.9333434333433
567,74.02570697741125,-361.4240653279736,-189.75328782028362,-459.90354935831624,569.0685471624006,412.53551960601754,410.6696876248304,815.1695714873347
568,70.90320959689802,-369.9203954480121,-185.78359015235515,-427.4247441040624,585.7072169684135,468.11343059735833,417.3412269956451,820.590353579437
569,67.037013009603,-378.3164331293364,-181.97108556007058,-394.1145569576482,597.0714642004681,519.475927453831,424.10910000601916,826.9997566274951
570,62.44375905408334,-386.58093879201874,-178.361815677504,-360.08289029912197,602.8518599838458,566.1708557966026,430.8888531649389,834.1954478307619
571,57.1607792310884,-394.66656821293356,-174.99039301117224,-325.3858042708145,602.7628335921786,607.8055817986129,437.5847985546517,841.9740573914463
572,51.245824297283626,-402.5104386101909,-171.87967670183696,-290.02716808300653,596.5611911301278,644.0481274193323,444.09139328635814,850.136876446378
573,44.77610776718958,-410.0350618350687,-169.0407189780496,-253.9628035948886,584.0647331539087,674.6281439324421,450.2948198258786,858.4955874548936
574,37.84670758533198,-417.1496391873692,-166.47297366997225,-217.10699758085525,565.1701172397806,699.3378066373383,456.07476949154324,866.8776936168881
575,30.56838618105015,-423.7517045082734,-164.16475586594967,-179.34112103423672,539.8691654693984,718.0326393082975,461.30642568879114,875.131316483321
576,23.064903269654458,-429.72909311343074,-162.09394012716822,-140.52397808766983,508.26289960060336,730.632207420014,465.8626357012619,883.1290623816117
577,15.469908590342117,-434.9622048077516,-160.22888341317238,-100.50342626887641,470.5726877123328,737.1205623042575,469.61625114621006,890.7707116604162
578,7.9235134217119185,-439.32652056402105,-158.52955741307835,-59.128768675518245,427.14799672436675,737.5462790860292,472.4426083169383,897.9845538121039
579,0.5686495599499823,-442.6953249484904,-156.9488724647581,-16.263414086775267,378.47036047218876,732.0219117199014,474.2221108739126,904.7272717468651
580,-6.452668980054402,-444.94258002006626,-155.43417120995292,28.202676520386575,325.15329140069,720.722689743131,474.8428686691553,910.9823667937482
581,-13.003064496492618,-445.94589102687064,-153.928864769226,74.34120186113768,267.9379857104899,703.8843044266014,474.2033380111934,916.7572100487978
582,-18.953380787969145,-445.5894998895359,-152.37417810144777,122.17479602670144,207.68479746626934,681.7996767180455,472.21490101714284,922.0789026940874
583,-24.186029291424042,-443.7672396283505,-150.71096509767833,171.66773757641437,145.36058643739048,654.8146621742488,468.8043158319188,926.9892227965562
584,-28.598001587067436,-440.3853819339302,-148.88154879102433,222.718428875692,82.02217562900204,623.3227206832814,463.9159663343455,931.5390200994267
585,-32.103467494083304,-435.36531107757617,-146.8315387918863,275.1539464422428,18.796284314872427,587.7586501591023,457.51384005861956,935.7824818664368
586,-34.63589434122547,-428.6459601896201,-144.5115773218536,328.72691524397715,-43.143574050348235,548.5915441004913,449.58316664364435,939.7717207482209
587,-36.14964167436764,-420.185950460678,-141.87896723190212,383.1148933925245,-102.60262851300733,506.31717835397177,440.13165615673455,943.5521225970543
588,-36.621006048840904,-409.96537997621687,-138.8991399832861,437.9223656042146,-158.3921287208149,461.4500629833944,429.19028693994824,947.1588364650117
589,-36.048711348582295,-397.9872167644205,-135.5469280820024,492.6853365451217,-209.3576018094924,414.51541367633126,416.8136058141238,950.6146942827824
590,-34.45385910099289,-384.27826044624436,-131.80761362326925,546.8783964756683,-254.40728180032116,366.04130579451146,403.07951889987595,953.9297216559314
591,-31.879368021444314,-368.8896487515691,-127.67773099627871,599.9240134648087,-292.5398881635461,316.55127249392706,388.0885681403108,957.1022552811988
592,-28.388940801240167,-351.896898804601,-123.16560674817667,651.2037029176539,-322.8709393747115,266.55759281009426,371.9627060085333,960.1215323576123
593,-24.06559894973628,-333.3994875900568,-118.29162362594674,700.0706492280697,-344.6568220071753,216.5554810494203,354.84359809581576,962.9714822650362
594,-19.00982539242413,-313.51998996721215,-113.08820008055167,745.8633143734612,-357.31589525231766,167.01833117775965,336.8904994397186,965.6353495477782
595,-13.337352902578228,-292.4028043763352,-107.59948195953324,787.919565282855,-360.445993092414,118.39408987602634,318.277764489891,968.100722299949
596,-7.176637262415543,-270.2125047281554,-101.88074989978301,825.5908794217869,-353.83778863685507,71.10273749009819,299.19206147528496,970.3645332037123
597,-0.6660584259907486,-247.13186153788456,-95.9975534572847,858.2562350729711,-337.48360291120315,25.53476128384583,279.82936900397334,972.4376336337693
598,6.049099918354877,-223.35957684425443,-90.02459023962136,885.3353476859025,-311.5813685028802,-17.949574206674114,260.3918359909256,974.3486014898698
599,12.819834071388714,-199.10777715944783,-84.0443543497592,906.3009683394278,-276.53359199729425,-59.02040763425371,241.08458599219233,976.1465187686376
600,19.496702462321032,-174.5993078700759,-78.14558308863488,920.6900118556737,-232.94129384762277,-97.37818152502042,222.11254443546682,977.9025373803709
601,25.933137409389076,-150.064871668935,-72.42153458920454,928.1133315066012,-181.59303632718573,-132.75352571118836,203.67736250634042,979.7101369274493
602,31.988716116256683,-125.7400524619813,-66.9681324899432,928.2640067878128,-123.44927531225972,-164.90735711712347,185.9745044654852,981.6840626667042
603,37.532319987264124,-101.8622643232626,-61.88201696648685,920.9240610674567,-59.622385304718705,-193.63138380684364,169.19055552631212,983.9580112890944
604,42.44511095864568,-78.66766251794367,-57.258543794749954,905.9695753949864,8.64719419147818,-218.7491410964108,153.50079491569028,986.6812011910989
605,46.62325338052154,-56.3880509561607,-53.18977380582852,883.3742104127357,80.01815954046381,-240.11761448783983,139.06706369532478,990.0140178334219
606,49.98031088641013,-35.24781842282309,-49.76249368478421,853.211187223976,153.07828833696482,-257.6294216904865,126.03594031217094,994.1229603127124
607,52.44925094395818,-15.460935239319374,-47.05630572140923,815.6538082011747,226.37646140047116,-271.21544057273394,114.53722034090912,999.175130633477
608,53.98399666819886,2.7719568792484877,-45.14181965584224,770.9746193750527,298.45603049693943,-280.84769022204125,104.68268256246535,1005.3325020297173
609,54.56047655867126,19.266326081609463,-44.07897555362253,719.5433273666617,367.88874015053796,-286.54220784285377,96.56511326078311,1012.7461782588745
610,54.177137645646454,33.85636281159907,-43.915523976339536,661.8235852279737,433.3083583307347,-288.3616235345049,90.25755544849241,1021.5508147964932
611,52.8549047650416,46.3973788022432,-44.68568891617395,598.3687512451997,493.4431317743349,-286.41712390029323,85.81274944476552,1031.8593200830328
612,50.63658632985979,56.76794421344681,-46.409039333307234,529.8167018256972,547.1461648915813,-280.86951551185086,83.2627345602254,1043.7578983546846
613,47.58574303465883,64.87171306533669,-49.08959570160532,456.8837465266545,593.4228331111881,-271.92914705756823,82.61858730979252,1057.3014457969612
614,43.78504941923583,70.63888928899897,-52.71519815788931,380.35765580113525,631.4543866103721,-259.85451718033414,83.87027931714681,1072.5092792317116
615,39.33418941073204,74.02729179596959,-57.25716256741115,301.08977640274395,660.6169803588241,-244.9494751345477,86.98664852035154,1089.3611680691977
616,34.347336656200184,75.02298632189198,-62.67025027471834,219.98617990628856,680.4954798964376,-227.5590067149723,91.91549087696185,1107.7936574857097
617,28.950279023128935,73.64046331924733,-68.89297683030762,137.99776798044218,690.8915354226868,-208.06368386380163,98.58379593476248,1127.69671092195
618,23.277253873959854,69.92235367285855,-75.84828460210882,56.10924334002958,691.8255847485491,-186.8729387404935,106.89816674828944,1148.9107573486351
619,17.467566394079647,63.93868635040468,-83.44460313243695,-24.67315319209212,683.5326337641635,-164.41739597779005,116.74548035943883,1171.2242962429173
620,11.66206759377454,55.785703238279325,-91.57731768869229,-103.33524052187558,666.4518667983484,-141.14055305410204,127.99385680996889,1194.3722834505736
621,5.999572116386796,45.584255462745205,-100.13065853624626,-178.86992118702466,641.2103533101616,-117.49013195152229,140.49400979291298,1218.0355866483485
622,0.6132990771345742,33.477811727332835,-108.98000928917129,-250.29369353687855,608.6013346706599,-93.9094325826439,154.0810482124663,1241.8418520518214
623,-4.372578038380351,19.630112074497557,-117.99461161111931,-316.66465624123833,569.5577860087396,-70.82900039904625,168.57678331222112,1265.3681551832892
624,-8.846184065149707,4.222499893889334,-127.04061629759167,-377.10191189973483,525.1221419413031,-48.65888030163022,183.79256993585503,1288.1458074835639
625,-12.71090765145058,-12.549038364885956,-135.98439958806114,-430.80613311143935,476.41323952897415,-27.781671575287636,199.53267406648038,1309.667646649104
626,-15.887989518691093,-30.47710084353291,-144.69603182865816,-477.0808634162755,424.5916563078518,-8.54653061367046,215.5981155454475,1329.3980423316918
627,-18.31864456556519,-49.346343753589764,-153.05275723164405,-515.3538937380539,370.8246983763157,8.73580307262865,231.7908899031351,1346.785692492574
628,-19.965631822047868,-68.93717886414126,-160.94232219508223,-545.1977993528127,316.2523201167754,23.796949363390755,247.91843179167117,1361.2790631676905
629,-20.814192087616856,-89.02966686647561,-168.26597883033853,-566.3484719648085,261.95523311464933,36.41384658642392,263.798149049568,1372.3440362008146
630,-20.872283401130154,-109.40756445834693,-174.94099308372833,-578.720277344252,208.92638735097736,46.41081366305525,279.2618345830299,1379.4829979217534
631,-20.17006108364588,-129.8624607468822,-180.90250584033782,-582.4163612650233,158.04688032962443,53.66081714815824,294.1597560108415,1382.2542850660343
632,-18.758573631795393,-150.19790920555752,-186.10463242783553,-577.7326661121814,110.0671634188867,58.08603459489356,308.3642324027366,1380.290687142906
633,-16.707679030082236,-170.23342809958118,-190.52074048055673,-565.1544466237569,65.59416261480294,59.65777290301728,321.7725332741861,1373.3156630194662
634,-14.103227126814737,-189.80821051725894,-194.14291351275403,-545.344498577753,25.084613764914163,58.3957554176884,334.308973436644,1361.1560968496176
635,-11.04359939420144,-208.78436211769528,-196.9806781053802,-519.12291382525,-11.155451255971576,54.3667498314765,345.92612083951457,1343.7507711408189
636,-7.6357427359112995,-227.04947742707085,-199.05913351676062,-487.4388837430746,-42.96549852267634,47.682485259424496,356.6050749330532,1321.1541980619759
637,-3.9908734288226113,-244.51837858311583,-200.41666206121346,-451.3357962003936,-70.32031166944422,38.496809614662524,366.3548057400449,1293.5359177798268
638,-0.22005570373917502,-261.1338749399767,-201.10241024187638,-411.9115052367125,-93.31579339641775,27.002067086892964,375.2105701271375,1261.1757376121257
639,3.570126890832698,-276.8664554789774,-201.17371498091472,-370.27610905892294,-112.15179023549453,13.424723170656494,383.2314470467184,1224.4555761966724
640,7.2815924021323495,-291.7128926492642,-200.69361342696084,-327.50979264108497,-127.1129542150431,-1.979677787119004,390.49706220386923,1183.848586323556
641,10.828278832959441,-305.6938072396373,-199.72852952026844,-284.62325533067457,-138.5485524139173,-18.932080193468465,397.1036046305438,1139.906124445626
642,14.138999776256096,-318.85030938790874,-198.34618662443847,-242.52296758016882,-146.8520033067758,-37.13582289047089,403.1592690439707,1093.2430182643998
643,17.159521624404274,-331.2398831680396,-196.61376117447293,-201.9830335138614,-152.44079503194783,-56.28267641666326,408.77928408601053,1044.5215377052136
644,19.853795008478574,-342.93171757071656,-194.59627146150874,-163.62485137732133,-155.73734639982192,-76.05881668729995,414.08070500246174,994.4345167816392
645,22.20432018578253,-354.00170507223595,-192.3551881611565,-127.90514529600604,-157.15130890482877,-96.15057442577174,419.1771595278637,943.6881650968121
646,24.211668744705662,-364.5273327583185,-189.94725531451462,-95.11236321393947,-157.06376436032772,-116.24984035888428,424.1737381029359,892.9851885609608
647,25.893221035741934,-374.5826834195565,-187.42351681943958,-65.37094739859283,-155.81372834128197,-136.0590370901791,429.1622144220645,843.0088627174671
648,27.281209929215912,-384.2337481558151,-184.8285492904088,-38.65260647295652,-153.6873074500611,-155.29558307032207,434.21676982577867,794.4086500143898
649,28.420186846001908,-393.534229971102,-182.19990461267335,-14.793448621910917,-150.90977087260381,-173.69577572403938,439.39037551591395,747.7878320280073
650,29.364045539111096,-402.5219909640821,-179.5677640706648,6.484341337606574,-147.64068657371953,-191.01801829215736,444.7119607688539,703.6934624592766
651,30.17275274588987,-411.2162649504383,-176.95480166876177,25.547699722199695,-143.9721499414068,-207.04531675283724,450.184464620275,662.6087639893988
652,30.908942110306334,-419.6157237213779,-174.37624899350223,42.82621100866918,-139.93001071660652,-221.5869846981708,455.7838347396816,624.947916318228
653,31.634527853991504,-427.69745011040067,-171.8401490199716,58.78538993424298,-135.4778946697383,-234.47951720603967,461.459002395079,591.0530349895005
654,32.407487143293814,-435.41683621049503,-169.34778200024954,73.901048389404,-130.52372826154064,-245.58662857451006,467.13282818708893,561.193038812056
655,33.27894580969415,-442.7083916253336,-166.89424296045945,88.63591252673083,-124.9284110945158,-254.79849022118685,472.7039807244594,535.5640594139645
656,34.29068282045777,-449.48741515267704,-164.46914755914153,103.41943025402234,-118.51624067170532,-262.0302500134837,478.0496803160481,514.2910602327939
657,35.4731461677104,-455.65245414344076,-162.0574413983829,118.63143964885163,-111.08667071593081,-267.2199583076815,483.0292125402781,497.4303916804253
658,36.84404727363209,-461.0884494562052,-159.6402873500724,134.59007789044736,-102.42696966115794,-270.3260639751563,487.4880926726648,484.97309214134975
659,38.40757305805197,-465.67044128270953,-157.1960057882307,151.54402275991944,-92.32533249349171,-271.3246700265811,491.26274200341425,476.84882492281565
660,40.15422586440116,-469.2676932051411,-154.7010434261836,169.6688968571341,-80.58398382418123,-270.20674840817986,494.1855217312736,472.93039609488216
661,42.06127391271695,-471.748079534542,-152.1309473875206,189.06744613565363,-67.03179604502006,-266.97550597480466,496.0899598660665,473.03881321327384
662,44.09377109935162,-472.98257472494004,-149.46132189516666,209.7729416700978,-51.535942109052385,-261.64407196762835,496.8160016124966,476.9488209093519
663,46.206085512171214,-472.84968349677143,-146.6687455102644,231.75515340706946,-34.01211828742453,-254.23364752382335,496.21511408215486,484.3948035463013
664,48.34386017140783,-471.23965598329676,-143.73162772945565,254.928206822416,-14.432916036464661,-244.77222470348337,494.1550819305023,495.07690402850886
665,50.44631621849241,-468.058343365751,-140.63098594352988,279.15965043319005,7.1660043044291015,-233.29394762679232,490.52434171582746,508.66719250406067
666,52.44879786470751,-463.2305657469851,-137.35112800561333,304.2801205870574,30.68218708373488,-219.83915000233296,485.23571942455186,524.8157343040303
667,54.2854504461661,-456.70288512035637,-133.88023179122612,330.0930737215839,55.94523886945958,-204.45505977977672,478.22945745696535,543.1564434452176
668,55.891918693164754,-448.4457017616806,-130.21082011845908,356.38415009035106,82.71829175019951,-187.19711357823277,469.47544380797973,563.3126510129584
669,57.20795256842786,-438.45462138505087,-126.34013582567201,382.9298250973523,110.70198637264889,-168.13077515937593,458.9745862122655,584.9023538822637
670,58.17981352391254,-426.75107172922185,-122.27042639727516,409.5050877996857,139.5407934907926,-147.33371006310873,446.75930638763606,607.5431318062862
671,58.76238523785309,-413.38217933184353,-118.00914942398272,435.8899580101037,168.8314125026046,-124.89813872560528,432.89316275889337,630.8567289449481
672,58.9209093411293,-398.4199483089551,-113.5691090609935,461.87471413236966,198.13292047609457,-100.93317618460213,417.46964248757433,654.4732922076457
673,58.6322868231023,-381.9598111150801,-108.9685297888319,487.26375613029217,226.97829535205955,-75.56696743380552,400.6101934448379,678.035248114237
674,57.88590801429502,-364.1186448795611,-104.23106810055626,511.87807637010775,254.8869019646081,-48.94844077115631,382.46159238720236,701.200788047988
675,56.68399692853074,-345.03236469925974,-99.38575664971856,535.5563605933535,281.37750857984446,-21.24852394924456,363.1927658946073,723.6469247175224
676,55.0414780616583,-324.8532161256863,-94.4668704624835,558.154795607514,305.9813941082892,7.339302429184793,342.9911946686676,745.0720848798933
677,52.98539414737223,-303.7468922903988,-89.5137022997828,579.545719623813,328.2551118802213,36.59920432536894,322.05903887457333,765.1982164246392
678,50.55392077360564,-281.88959670541635,-84.5702346851028,599.6153118722237,347.7924957667498,66.29399723511447,300.6091222771758,783.7724099835596
679,47.7950376141787,-259.4651615569926,-79.68469915824221,618.2605740412966,364.23552988404936,96.16696361649639,278.86090653021205,800.5680624990138
680,44.764926216094906,-236.66231440935502,-74.90901801187348,635.3859006548649,377.28375496044583,125.9444586503024,257.03657489239777,815.3856386423092
681,41.526170854689326,-213.67216485343013,-70.29812895112721,650.8995633037881,386.70195213143836,155.33924609404443,235.3573276180226,828.0531125306039
682,38.145841940901555,-190.68595826557998,-65.9091977481944,664.7104411801714,392.3259263711014,184.05447917815744,214.03997028280702,838.4261947363545
683,34.69354080302836,-167.89311852728716,-61.800727337947684,676.7253159444317,394.0663032127685,211.78821928228413,193.29385291033756,846.3884661549033
684,31.239480407392485,-145.4795776318292,-58.031573808072004,686.8470122729224,391.91034800164505,238.23836675913122,173.31819402702598,851.8515478814177
685,27.852668951092998,-123.62636950364163,-54.659881023225054,694.9736071072542,385.92190867396823,263.10786368055113,154.29980176620393,854.7554303636242
686,24.59925268603975,-102.50844929079743,-51.741947210047634,700.9988525154992,376.23966190673525,286.1100181941707,136.41118549289263,855.0690610163323
687,21.54106136326892,-82.29368861644856,-49.33103944864461,704.8138632759247,363.07389992395366,306.9737957122105,119.8090372461485,852.7912446880875
688,18.734384948205225,-63.14199233597239,-47.476175811178905,706.3100178616188,346.70212470201955,325.44892441587643,104.63305322961979,847.9518477722617
689,16.228994676153846,-45.20448344031215,-46.22089950139522,705.3829199031537,327.46371425876976,341.31067246436857,91.00506161086048,840.6132214976554
690,14.067406502837866,-28.622709480441426,-45.60207406284632,701.9371767343252,305.75389298195404,354.36417219457377,79.0284231913647,830.8716843409986
691,12.284372201952493,-13.527835198585652,-45.64873272186356,695.891681905655,282.0171807862608,364.448191480803,68.78767458825934,818.8588404324123
692,10.90657413088472,-0.03980028749687322,-46.38101762374781,687.1850475350327,256.7404254036309,371.43828133648157,60.3483876628895,804.7424714818446
693,9.95249478011813,11.73356367499918,-47.80924588825478,675.7808254696477,230.44545197674387,375.2492574018221,53.75722245585463,788.7267315350695
694,9.432431737013246,21.697449147870945,-49.93313913131651,661.6721851819541,203.68130733418462,375.83699701272025,49.04215288028018,771.051399668313
695,9.348632099479351,29.771002482089813,-52.74125150492677,644.8857778053041,177.0160423510723,373.19955060015405,46.21284488061329,751.9900036211175
696,9.69552658967939,35.888241894595026,-56.21062833143079,625.4846006607352,151.02796900988227,367.3775756478856,45.26116658481171,731.8467100740876
697,10.460051214037941,39.99893516341521,-60.30672286447955,603.569771142234,126.2963484865545,358.4541041155317,46.16181049881966,710.9519726355163
698,11.6220517949926,42.0694097810966,-64.98359258007353,579.2812069787914,103.39150837122254,346.5536518691933,48.8730101229038,689.6570219523984
699,13.154772721711486,42.08327196847124,-70.18438883868146,552.7972773685241,82.86444451638032,331.8406739313432,53.33733777496565,668.3273602053563
700,15.025434807924272,40.042015627996506,-75.8421447746486,524.3335269803702,65.23602886771955,314.5173656339118,59.48257598890849,647.3354756006345
701,17.195907658856303,35.96550634136675,-81.88085567868126,494.1405802326511,50.986012261968185,294.82081043267925,67.22265983950507,627.053018767199
702,19.623479508030552,29.892327438389053,-88.21683394765081,462.50131204865363,40.54207505276533,273.0194827634631,76.45869017695607,607.8426859052764
703,22.261722791423598,21.87997430752569,-94.76030749477734,429.7273349991994,34.26923452876656,249.40912982642348,87.08001732620146,590.0500411514962
704,25.061447908367636,12.00487984573645,-101.4172176116411,396.1548160175212,32.45996349384073,224.3080786017296,98.9653920408978,573.9954925285555
705,27.971731815524496,0.36224937235742405,-108.09116120194156,362.139612596187,35.32540642980304,198.05204116761806,111.98417703346675,559.9666205540489
706,30.941003067480345,-12.934321127790284,-114.68541437315277,328.0517179472,42.98809536178172,170.98851907940542,125.99760984788684,548.2110515277285
707,33.918160901956455,-27.75347250358392,-121.1049703327086,294.2690297452054,55.4765635401241,143.4709325697386,140.8601071615902,538.93006997048
708,36.853702832562135,-43.946984973618626,-127.25852460727111,261.17050381240995,72.72222796127309,115.85261937017282,156.4206019734787,532.2731737938589
709,39.70083260986083,-61.35098174225955,-133.0603446114237,229.12881342675718,94.5588585217443,88.48085854410861,172.5239081167319,528.3337857367695
710,42.41651797398111,-79.78745279111688,-138.43196807356767,198.50269522105987,120.72486996125575,61.691075647209686,189.012110299663,527.1463387371952
711,44.962465255725334,-99.0661075539228,-143.30368509567347,169.62921238835304,150.86856222516008,35.80137717820265,205.72598144763958,528.6849456297
712,47.305976100275046,-118.98655198153119,-147.61577077123096,142.81619624885667,184.55629864170416,11.107546565820716,222.50643156372396,532.8638407466514
713,49.42065156225136,-139.34077043611063,-151.3194481291666,118.33513359205024,221.28345822532182,-12.121386267515174,239.19599286762607,539.5397382250874
714,51.286911894606256,-159.91587716594913,-154.37757339170878,96.4147497912131,260.48784346172187,-33.646911533869805,255.64034415155504,548.5161832358872
715,52.89230721548895,-180.49708726615128,-156.76504602793565,77.2355010142371,301.5650865840782,-53.26407356920117,271.689873176947,559.5498746518164
716,54.23160444120655,-200.87084447808823,-158.4689540829542,60.92514058730966,343.8854923793541,-70.80372355148009,287.2012700224532,572.3588179389017
717,55.30664803737072,-220.82803399355,-159.4884701777627,47.5554737635136,386.81169366566496,-86.13396157133067,302.0391371041082,586.6320448400329
718,56.126004490364316,-240.1672029745376,-159.83451513925738,37.14037020906431,429.7164767298245,-99.1607579231417,316.07759350951903,602.0405339502987
719,56.704411234339744,-258.69770940429896,-159.5292049834391,29.635070396107242,472.0001500089084,-109.82776367099586,329.20184277841224,618.2488956879563
720,57.06205879471983,-276.2427203208482,-158.60509455219778,24.936802959301346,513.106868622875,-118.11534171125308,341.309665082355,634.9273456399721
721,57.22373952700389,-292.6419825598574,-157.10422979597433,22.886722393186076,552.5393804282195,-124.03887024061501,352.31278795299556,651.7634750879465
722,57.21789771016737,-307.7542922496269,-155.07702260232327,23.273172741557897,589.8717211500126,-127.64638826502905,362.13808536820943,668.4733313763849
723,57.075614664374854,-321.45959343254145,-152.58096809044275,25.83627209582367,624.7594562034474,-129.0156652352615,370.7285539542326,684.8113422367474
724,56.82956006483922,-333.6606419739107,-149.67923355715644,30.273783698615365,656.9471466707081,-128.2507828701414,378.04401768446746,700.5786588263878
725,56.5129377790346,-344.2841794399499,-146.43915834720912,36.24818604588988,686.2728087721028,-125.47831709026833,384.0615187311236,715.6295547345949
726,56.158452214169166,-353.2815739667982,-142.93071165660533,43.39477949854594,712.6692417576169,-120.84320381365549,388.7753617973059,729.8756039454248
727,55.79731982264125,-360.6289018426521,-139.2249579016855,51.33058377004775,736.1622184277002,-114.50436773008394,392.19679192403424,743.2874679254776
728,55.458350075765644,-366.32646408783353,-135.39257568564054,59.66370947786249,756.8656621917025,-106.63019217003863,394.3533008004066,755.8942450490391
729,55.167120353711844,-370.3977551379416,-131.5024677515253,68.00284757679168,774.9740671200678,-97.39391381411885,395.28757306054786,767.7804660856588
730,54.94526901762279,-372.88792354208795,-127.62048858711198,75.96652388165774,790.752541705008,-86.96903861813772,395.05610071535796,779.080947569021
731,54.80992973548105,-373.86178506081245,-123.80830683119594,83.1918089461531,804.5249609635572,-75.52489224762627,393.72750940210943,789.9738298960173
732,54.773327454192646,-373.4014648650956,-120.12241346608903,89.34224048913002,816.6607853803591,-63.222434681823486,391.380653283257,800.6722182379344
733,54.84255198571226,-371.6037567816836,-116.61328425629374,94.1147850275006,827.5611437088886,-50.210479187144685,388.10254527216426,811.4149027161867
734,55.019519108422045,-368.57729376661865,-113.32470473848306,97.24571970221538,837.6447791910657,-36.622456404211036,383.98619540941894,822.4566549558009
735,55.30112185489878,-364.4396256892538,-110.2932664098563,98.51534689521836,847.3344281909015,-22.573852693369783,379.12843268205654,834.0585819285599
736,55.67956675088345,-359.3142987405097,-107.54804209230814,97.75146683219472,857.0441414426034,-8.16042825720002,373.62778449512797,846.4789706404968
737,56.14288146326101,-353.32802561156103,-105.1104461069439,94.83153832272818,867.1679768038663,6.542713038253514,367.5824833604319,859.9649870137683
738,56.67557190108158,-346.60802696111614,-102.99428096761828,89.68346842538588,878.0703946405781,21.48117045062728,361.088662072664,874.7455082593758
739,57.25939883387111,-339.2796126052824,-101.20596722916311,82.2849982144927,890.078579220206,36.62042108486298,354.23878681145794,891.0252788015425
740,57.87423727171787,-331.46405579176735,-99.74494738809352,72.66169755933196,903.4767988077423,51.944176122862714,347.1203628475439,908.9804928776996
741,58.49897697810609,-323.2767969670756,-98.60424878003036,60.8836431418596,918.5028108487564,67.45201085827517,339.8149310952764,928.755827531911
742,59.112420314179566,-314.8259962633124,-97.77118457647055,47.06092133883123,935.3462232563819,83.15639421292424,332.39735741831777,950.4628802723013
743,59.6941346224612,-306.2114382875672,-97.22816638905668,31.338159643434185,954.1486430716794,99.07926996183848,324.9354021769316,974.1799065079323
744,60.22522043173946,-297.523779892928,-96.9535967949842,13.88833806028072,975.0053819783876,115.24836003028459,317.48954618987455,999.952702845196
745,60.68896319855229,-288.8441216564326,-96.92280586261813,-5.0938383913817775,997.9684449321314,131.69336855127037,310.1130413212358,1027.796444037918
746,61.07134423443805,-280.2438762213384,-97.10899353342006,-25.398712371665425,1023.0505034781593,148.44226346217926,302.85214892978155,1057.6982555165537
747,61.36139524945628,-271.7849007007003,-97.4841405348906,-46.808300230795446,1050.2295489719465,165.51780110407745,295.7465269254408,1089.6202918365905
748,61.551390087769605,-263.5198554346249,-98.01985461414118,-69.10249392415017,1079.4539318989687,182.93444020714142,288.82972566992254,1123.5030948482738
749,61.63687625543243,-255.4927474290356,-98.68812551891854,-92.06458891119506,1110.6475192360244,200.6957667461033,282.1297539951588,1159.2690227509918
750,61.61655724949189,-247.73961410771147,-99.46197000063277,-115.4859299625693,1143.7147382698774,218.79252245959748,275.6696789416012,1196.8255697072966
751,61.4920440345256,-240.28930213837117,-100.31595601341664,-139.16952318932894,1178.5453181604785,237.20129928448173,269.4682264233088,1236.068432079479
752,61.26749985213765,-233.1642974620849,-101.226602523267,-162.9325311569066,1215.0185863550794,255.88393117584982,263.5403549217173,1276.8842186736383
753,60.949206525620255,-226.38156625906657,-102.17265755217316,-186.60764366852695,1253.0072234298325,274.7875849695272,257.89778027986773,1319.1527460940072
754,60.545082318644205,-219.95337203832472,-103.13526208364397,-210.04339308773754,1292.380425417553,293.84552399373456,252.5494362758658,1362.7489038942056
755,60.06418122203413,-213.8880408095901,-104.09801123201146,-233.10355278220024,1333.0064656526943,312.97849275362984,247.50186244327972,1407.544114924235
756,59.51620150760539,-208.19065380514573,-105.04692677687527,-255.66581365910747,1374.7546870262038,332.0966487214458,242.75951719114633,1453.4074513477487
757,58.91102791272791,-202.86365479781583,-105.97035701027707,-277.6199714108004,1417.496988621712,351.1019484293699,238.32502024715234,1500.206493811737
758,58.25832737280053,-197.90736597091356,-106.85882099388809,-298.8658729394488,1461.108896359122,369.89087999074303,234.19933331049148,1547.80803842757
759,57.56721320812247,-193.32041189457954,-107.70481481690895,-319.31136440493543,1505.4703241421307,388.3574232332948,230.38189109001937,1596.0787627283355
760,56.84598739128992,-189.10005513935056,-108.50259728686405,-338.87045822279254,1550.4661393214303,406.39611224998106,226.87069641381495,1644.885957774191
761,56.10196520185509,-185.2424495631884,-109.24797169558745,-357.4618970763156,1595.9866439814484,423.9050737798962,223.66239302801418,1694.0984201139736
762,55.34138145839507,-181.74281881142664,-109.93807890123753,-375.00824569867103,1641.928072139284,440.7889186798436,220.7523285357718,1743.587575921047
763,54.56937284137054,-178.5955685497113,-110.57121498567066,-391.4355918017203,1688.1931832781868,456.9613727590258,218.13461815191837,1793.228882016685
764,53.79002674357787,-175.79434173984038,-111.14668421872719,-406.67389059657353,1734.6920059170395,472.3475470152271,215.80221790795744,1842.9035164092163
765,53.0064837073816,-173.33202710498384,-111.6646949561284,-420.65794506950687,1781.342752834734,486.885765281759,213.74701385114832,1892.500336269644
766,52.22107792863289,-171.2007320209916,-112.1263023669601,-433.3289765025282,1828.0728945313951,500.5288888414238,211.95993181980396,1941.9180460826824
767,51.435498607462875,-169.3917325232843,-112.53339762332726,-444.6367053806234,1874.8203425996755,513.2451017466664,210.43107069997478,1991.0674854861834
768,50.65095416356424,-167.89541480554274,-112.8887386897466,-454.5418306993796,1921.5346632562012,525.0181459702275,209.14986072654162,2039.8739175468943
769,49.86832163218818,-166.7012240779305,-113.19601360227976,-463.0187658543824,1968.17821641422,535.8470203367488,208.10524729884986,2088.279176230973
770,49.08826510623314,-165.79763732257007,-113.45992370754573,-470.0584632734439,2014.7270996758828,545.745179725323,207.28589977835148,2136.2435185105137
771,48.31130995596911,-165.17217574033918,-113.68627221755355,-475.6711404278279,2061.171770788402,554.7392898896381,206.68044363809653,2183.7470232291807
772,47.537863517139854,-164.81147018750872,-113.88204279851514,-479.8887101329135,2107.5172266858017,562.8676075427035,206.27771294923934,2230.790386215085
773,46.768177526139034,-164.70138866346164,-114.05545361361581,-482.7667212033975,2153.782631497905,570.1780648440937,206.06701837552154,2277.394979148025
774,46.00225230514361,-164.82722927738095,-114.21597398649534,-484.38563338689676,2200.0003082928406,576.7261424004893,206.03842360542254,2323.602067470964
775,45.239687195839664,-165.17397571206493,-114.37429336178793,-484.85128285485405,2246.2140376178686,582.572615941893,206.18302071076636,2369.4711182942688
