time,ax,ay,az,gx,gy,gz,accmagnitude,gccmagnitude
0,-15.029977799962555,-243.1223077972585,-117.97326440549507,-71.33236233751404,24.571647780817177,-14.324273977438104,270.65182726779636,76.72332090793357
1,-15.041263103578345,-243.29634391923247,-117.72489685585153,-72.23764912033752,24.439445743594113,-14.341670351945531,270.7028236986568,77.56265650395524
2,-15.049466992252576,-243.4679231870834,-117.47892252046466,-73.1051450339158,24.271901365299186,-14.345031372825161,270.7524803043459,78.35706900573373
3,-15.054837766836684,-243.63403604396171,-117.23870331740606,-73.92904579025237,24.063683291975263,-14.334322161278221,270.7995388096223,79.0997088473173
4,-15.057634930791393,-243.79179750251515,-117.0074675274079,-74.70455859153985,23.810181026715945,-14.309688577229634,270.84279619768233,79.78486124045816
5,-15.058118318483576,-243.93852153717498,-116.78823665950304,-75.42804559640193,23.507684672813113,-14.271464516572474,270.8811398167369,80.40812634988295
6,-15.056538372487294,-244.07179049131975,-116.58375841071697,-76.09713707108212,23.15354709759249,-14.220180468806442,270.9135806793175,80.96656733147574
7,-15.053127713857268,-244.18951763812206,-116.39644764382881,-76.7108104903586,22.746322251014426,-14.156573064954433,270.9392841113031,81.45882118756711
8,-15.048094056376991,-244.29000119740874,-116.22833699965722,-77.26943386036308,22.285873386414636,-14.081595029451364,270.95759691767296,81.88516920537622
9,-15.041614522630244,-244.3719682597491,-116.08103835477266,-77.77477302387395,21.77344529893369,-13.996424705114771,270.96807019176237,82.24756516967894
10,-15.033831425628273,-244.43460729206907,-115.95571596786161,-78.22996354201487,21.211695521669657,-13.902474162473455,270.97047693745134,82.54962048639713
11,-15.024849517637438,-244.4775882462426,-115.85307189837773,-78.63944799944171,20.604680797910547,-13.80139479552643,270.9648238708796,82.7965459175054
12,-15.014734599023269,-244.5010697211007,-115.77334406660478,-79.00887948079958,19.957797087727396,-13.695079164259846,270.951357055977,82.99505001330039
13,-15.003513285261077,-244.50569303553618,-115.71631705736233,-79.34499183872474,19.277673721471533,-13.585657644279786,270.9305612743481,83.1531947858025
14,-14.991173688535172,-244.49256340262457,-115.68134539215882,-79.65543753956801,18.572024810896064,-13.475488283142893,270.90315316429553,83.28020992484434
15,-14.977666792327335,-244.46321868123266,-115.66738849531933,-79.94859453161303,17.8494633811177,-13.36713829558468,270.87006820868504,83.38626803963446
16,-14.962908384994059,-244.41958644433143,-115.67305601331468,-80.23334477450804,17.11928567104175,-13.2633559563578,270.8324416504402,83.48222501293905
17,-14.946781560207535,-244.36393033143858,-115.69666163285147,-80.51882872035252,16.391234539954457,-13.16703226941304,270.79158340838,83.57933148958489
18,-14.929139947509864,-244.2987868807848,-115.73628317712244,-80.81418196149278,15.67525186709517,-13.081152616103958,270.7489471243064,83.68892360224514
19,-14.909811937849883,-244.22689434889799,-115.78982653758655,-81.12826217247984,14.981230226139587,-13.008739467975225,270.7060936654721,83.82210298655755
20,-14.888606164333565,-244.15111544130858,-115.85509090022103,-81.46937604719767,14.318773948582525,-12.952788029295778,270.6646497409979,83.98941763128184
21,-14.865318402767238,-244.074356294981,-115.9298328187568,-81.84501688106361,13.696978978734647,-12.916197224338285,270.6262627033557,84.20055586950897
22,-14.839739926419945,-243.99948434336991,-116.01182704648551,-82.2616235921939,13.124239746337462,-12.901698735515723,270.59255301624313,84.46406568983834
23,-14.811667189834981,-243.92924781555678,-116.0989225634064,-82.72437127528518,12.608089744348925,-12.911786899394828,270.56506619665697,84.78711053233573
24,-14.78091249286854,-243.86619957612945,-116.18909267803015,-83.237001929364,12.155080664089828,-12.948652261933528,270.5452261765224,85.17527095558566
25,-14.747315036311187,-243.81262777916555,-116.2804782981976,-83.80170196834133,11.770702827932451,-13.014121511599967,270.5342918971819,85.63239920234965
26,-14.710751656314587,-243.77049538425308,-116.37142355896376,-84.41903071435077,11.45934733531777,-13.10960632489824,270.53331859842484,86.16053095726505
27,-14.671146576210509,-243.74139005745693,-116.46050316614803,-85.08790149943717,11.224307986210679,-13.236063325830662,270.54312486507894,86.75985569841899
28,-14.628479664162372,-243.72648549126623,-116.54654113099174,-85.80561448152476,11.067818907213718,-13.39396684988019,270.5642661968279,87.42874422811612
29,-14.582792827040977,-243.72651479497833,-116.62862096625337,-86.56793802338544,10.991122046823484,-13.583295541844935,270.597015698984,88.16382944914417
30,-14.534194261909294,-243.74175631768716,-116.70608778994506,-87.36923362829607,10.99455741395877,-13.803533078056974,270.6413523974002,88.96013438807447
31,-14.482860345324045,-243.77203201819563,-116.77854305354236,-88.20261801621582,11.077668185530149,-14.053682550745098,270.69695757639545,89.81123991805079
32,-14.429035030264162,-243.81671822569783,-116.84583273818909,-89.06015494474252,11.239312669430257,-14.33229332246351,270.763219353451,90.7094836000487
33,-14.373026806753943,-243.87476829383866,-116.90802992752002,-89.93306881500806,11.47777555947776,-14.637498503240566,270.839245434625,91.64618053508241
34,-14.315203547099518,-243.9447462464372,-116.96541278715641,-90.81197195013038,11.790871834450524,-14.96706070513634,270.9238836972018,92.61185709146409
35,-14.255985777468096,-244.02487011974387,-117.01843912369223,-91.68709767085228,12.17603787510549,-15.318423449256334,271.01574996550426,93.59648880475706
36,-14.195838970115432,-244.1130634287038,-117.06771873094718,-92.54853186662311,12.630405786260582,-15.688765537213461,271.11326211367356,94.58973457368351
37,-14.135265304798649,-244.20701309055582,-117.11398465731526,-93.3864366017632,13.150858447100095,-16.075055813242077,271.21467950404366,95.58116040843454
38,-14.074795066282391,-244.30423220176243,-117.15806443965796,-94.1912603224241,13.734064401197875,-16.474105997622363,271.3181467724679,96.56044732936718
39,-14.014977557390436,-244.40212618141493,-117.20085223030321,-94.95393032896703,14.376493252418253,-16.88261964688101,271.42174101093417,97.51757943644404
40,-13.956371273072065,-244.49806086137215,-117.2432824911742,-95.66602422720449,15.074413670471033,-17.297235781379186,271.5235213426139,98.44300953640445
41,-13.899533174187203,-244.58943107568882,-117.28630555870778,-96.31991797494324,15.82387734677096,-17.714566291296908,271.6215797049048,99.32780091247177
42,-13.845007136222945,-244.67372819877974,-117.33086506950829,-96.90890881993322,16.620693200828427,-18.131226831392006,271.7140914400508,100.16374475054234
43,-13.793311883443243,-244.7486049398099,-117.37787712727973,-97.42731179869212,17.460396803326255,-18.543861477892086,271.79936412970835,100.94345329911798
44,-13.744928864274119,-244.81193556488068,-117.42821113804533,-97.87052850734301,18.338220405613413,-18.94916191427135,271.8758830144277,101.66042901309004
45,-13.700290544524593,-244.8618696845835,-117.48267226026095,-98.2350867004935,19.249069171397693,-19.34388234427892,271.9423513173387,102.30910984764955
46,-13.659769489004718,-244.8968778989151,-117.5419853349978,-98.51864919659658,20.187509131577396,-19.72485171096694,271.99772388974634,102.88489078301204
47,-13.623668422633852,-244.9157878789896,-117.60678012224507,-98.7199908386887,21.147771942192115,-20.088985106093,272.0412328306486,103.38412181495124
48,-13.592211312508514,-244.91780974838147,-117.67757782588835,-98.83894305447173,22.12378069826493,-20.433296427535346,272.07240405093427,103.80408319591406
49,-13.565535476600477,-244.90254989503694,-117.75477918312191,-98.87630697042664,23.10919989088146,-20.754914309209845,272.0910641236876,104.14293973822095
50,-13.543684805672575,-244.87001272514695,-117.83865465731299,-98.83373804843697,24.097511161885407,-21.051103051744068,272.0973372255428,104.39967748260868
51,-13.526604307401907,-244.82059042651795,-117.92933743103144,-98.7136076430101,25.082114877021617,-21.319289737984267,272.0916325498663,104.57402782314956
52,-13.51413624672623,-244.7550414233803,-118.02681992232515,-98.51884934705565,26.056455783755972,-21.557098023966415,272.07462313948895,104.6663859303061
53,-13.50601811374055,-244.67445868784057,-118.13095438111758,-98.2528000313538,27.014169273335664,-21.762388366276166,272.0472174462259,104.67773161591185
54,-13.50188254391444,-244.58022933748322,-118.24145775400856,-97.91904664617132,27.949243203487057,-21.93330374031786,272.0105249958295,104.60956126383309
55,-13.501259255080766,-244.47398703992064,-118.35792055147994,-97.52128982902319,28.856189015878197,-22.06831924021676,271.96581741795444,104.4638388582015
56,-13.503579129346011,-244.35755875911684,-118.47981907977567,-97.06323401639527,29.730215087317795,-22.16629335596768,271.9144859542761,104.24297239929541
57,-13.508180715922467,-244.23290741188168,-118.60653021111528,-96.5485111646754,30.567394919718925,-22.226518232712568,271.8579965128308,103.94981922531065
58,-13.514319536311216,-244.10207211703155,-118.73734784628158,-95.98064163257425,31.36482291240067,-22.248765862641044,271.7978434354548,103.58772026825106
59,-13.521180533425301,-243.96710786874428,-118.87150030014797,-95.36303172226961,32.120751033099125,-22.2333269921418,271.73550331061716,103.16055951678932
60,-13.527893790622851,-243.83002652828418,-119.00816796867927,-94.69900337641475,32.83470060543992,-22.181039610798724,271.67239026629716,102.6728414509591
61,-13.533553285300448,-243.69274095314512,-119.14650080032433,-93.99184814458344,33.50754453867642,-22.09330423130905,271.60981416499794,102.12977643803175
62,-13.537238034213111,-243.55701393683967,-119.28563525572834,-93.24489523908477,34.14155654290355,-21.972083682957535,271.5489430421277,101.53736241755875
63,-13.538034672143551,-243.42441349710876,-119.42471054898643,-92.46158261246141,34.7404251030171,-21.819885733930672,271.49077103764483,100.90245088965672
64,-13.535060361490736,-243.2962759157652,-119.56288402177726,-91.64552061467097,35.30923112496421,-21.639727531398968,271.4360929651939,100.23278631643281
65,-13.527484944941785,-243.1736776821028,-119.69934554482624,-90.80053977096532,35.85438915969484,-21.435081649932933,271.385486453738,99.53701039925116
66,-13.514551371441325,-243.05741700847415,-119.83333088955982,-89.93071713816379,36.383552961892576,-21.209804436708378,271.33930218746735,98.82462591070862
67,-13.4955935923241,-242.9480049511298,-119.96413405917913,-89.04037898990903,36.90548689125187,-20.96804822983114,271.2976622261915,98.1059183161727
68,-13.470051320524718,-242.84566564801318,-120.09111858800975,-88.13408075800339,37.42990535257535,-20.714159833383064,271.26046593698794,97.39183685939412
69,-13.437481295007707,-242.7503449584535,-120.21372778795175,-87.21656786724597,37.96728312928574,-20.452568343522824,271.22740286124224,96.69383979630364
70,-13.397564991069089,-242.66172681851168,-120.33149385237564,-86.29272309112596,38.52864011047162,-20.187666005034117,271.19797184915166,96.02371080908448
71,-13.35011298916824,-242.57925678400068,-120.44404563677575,-85.36750715041312,39.12530455404328,-19.923686187305897,271.1715059066113,95.39335515550893
72,-13.295066380468011,-242.50217240208224,-120.55111477915709,-84.44589941877122,39.768659682936864,-19.66458277059898,271.1472022881558,94.81458475671859
73,-13.232495625343242,-242.42954013361734,-120.65253959427805,-83.53284483733869,40.46987905776686,-19.413915211382978,271.1241573427946,94.29890123374496
74,-13.162597213617227,-242.36029851465958,-120.7482660455546,-82.63321157032802,41.23965670748318,-19.174743300520955,271.1014055297763,93.85728491111597
75,-13.085688347677808,-242.29330709733193,-120.83834527022599,-81.75176170526181,42.08793831014073,-18.94953516785928,271.07796196141567,93.49999609952937
76,-13.002199742126022,-242.22740036931592,-120.92292757987708,-80.8931346927973,43.02365977543572,-18.740091503553995,271.05286772058224,93.23639279522718
77,-12.91266654286196,-242.16144525385909,-121.00225335943878,-80.06184066025925,44.05449947061277,-18.547488349968965,271.02523688875317,93.07476671196271
78,-12.817717323117988,-242.0944000712644,-121.07664164380772,-79.26225866979632,45.18665014537119,-18.372040205316832,270.99430373633226,93.02219772371467
79,-12.718061147417542,-242.02537225205734,-121.14647726129645,-78.49863371701143,46.424616390945275,-18.21328456489698,270.9594680522655,93.0844256018857
80,-12.614472862195978,-241.95367178556563,-121.21219729192609,-77.77506585433825,47.771043203204776,-18.06998840361724,270.9203362620887,93.26573742863688
81,-12.507777074639494,-241.87885737724943,-121.27427729372698,-77.0954852194659,49.22658086824487,-17.940176474293686,270.87675585683854,93.56886918035129
82,-12.398831632876545,-241.80077255058467,-121.33321744780031,-76.46360785106984,50.789790902193566,-17.82118065088788,270.8288407706012,93.99492057894273
83,-12.288511684385458,-241.7195694491228,-121.38952855733838,-75.88286885074575,52.457097115681485,-17.709708896022903,270.77698572396906,94.5432832633016
84,-12.177695425524327,-241.6357188076676,-121.44371772777617,-75.35633151854402,54.22278500924749,-17.60193182673007,270.72186814041225,95.21158346562505
85,-12.06725237481824,-241.5500053457596,-121.49627356494284,-74.88657329934405,56.079051610337004,-17.4935843292792,270.66443693420496,95.99564145654763
86,-11.95803444222046,-241.46350859581136,-121.54765087434204,-74.47555145304712,58.01610651926419,-17.38007922782206,270.60588818696425,96.88945079921761
87,-11.85086943110655,-241.37756987949749,-121.59825509906996,-74.12445311186585,60.022323381612686,-17.256629639796053,270.5476284423024,97.88518078276783
88,-11.74655619530198,-241.29374676670383,-121.64842700298284,-73.83353578966705,62.084439357466835,-17.118376395048962,270.4912270052638,98.97320533702667
89,-11.645860653532159,-241.21375686263394,-121.69842829745456,-73.60196557858185,64.18779852592489,-16.96051680583367,270.43835917536865,100.14216143404349
90,-11.549512137778413,-241.13941315751097,-121.74842901751984,-73.42766133375144,66.3166335992167,-16.77843115025963,270.39074274998006,101.37903960060383
91,-11.458199855894447,-241.07255343351974,-121.79849754881961,-73.30715410650646,68.45437884019357,-16.56780340854194,270.3500704236406,102.6693087120614
92,-11.372569401853209,-241.01496636759987,-121.84859430546258,-73.23547178474702,70.58400571683751,-16.324732992591375,270.3179408884193,103.99707661758143
93,-11.293219256635966,-240.96831706412368,-121.89857004598186,-73.2060591279766,72.68837165946557,-16.045834411549713,270.29579151898594,105.3452872620965
94,-11.220697183093138,-240.93407487130216,-121.94816958700541,-73.21074297362613,74.75057141157284,-15.728322060190575,270.2848355271431,106.69595379783283
95,-11.15549636548782,-240.91344644712,-121.99704125122273,-73.23975121824465,76.75428002482305,-15.370077662848908,270.2860063760334,108.03042577820493
96,-11.098051057620347,-240.90731701320544,-122.04475183398021,-73.28179216220269,78.68407669873827,-14.96969839271052,270.29991196637576,109.32968700854929
97,-11.048731421291038,-240.91620246856928,-122.0908062856624,-73.32419796681123,80.52573949653974,-14.526524326691204,270.3268006010851,110.57467911684633
98,-11.007837259868191,-240.940214538275,-122.13467087937894,-73.35313247551802,82.26650244303775,-14.04064465696392,270.36654009990116,111.74664451882958
99,-10.975590515421848,-240.9790404866514,-122.17579854672586,-73.3538597995416,83.89526847647896,-13.512882880860781,270.41861082827353,112.82748127627288
100,-10.952126668453486,-241.03193822540095,-122.21365525716287,-73.31106624417413,85.4027739845683,-12.944761945424242,270.48211287980564,113.80010146415485
101,-10.93748554483121,-241.09774695461311,-122.24774651424633,-73.20922473801036,86.7817030173746,-12.338450985335385,270.55578713824053,114.6487841506889
102,-10.931602456658556,-241.17491281021492,-122.27764304964491,-73.03298821007856,88.0267515590061,-11.696695854102453,270.6380493720861,115.35951398240954
103,-10.934300914386473,-241.26152839940508,-122.30300466314506,-72.76759646490837,89.13464426770754,-11.022736095804063,270.7270359382937,115.92029657930134
104,-10.945288128353772,-241.35538467664773,-122.32360104095935,-72.39928003178196,90.10410769486933,-10.320211300327562,270.8206592349625,116.32144234852926
105,-10.96415410989474,-241.45403337009105,-122.33932838118126,-71.91564416330733,90.93580508552229,-9.593059903357325,270.91667080944245,116.55581082549588
106,-10.99037457179817,-241.55485798846084,-122.35022080841394,-71.30601656952638,91.63223846352572,-8.845413477431112,271.0127299148207,116.6190082300315
107,-11.02331729317918,-241.65515117827516,-122.35645588582653,-70.56174352574293,92.19762391040139,-8.081489515436596,271.10647520404524,116.5095316241779
108,-11.062251290011268,-241.75219586094389,-122.3583539750331,-69.67642062772676,92.63774589589812,-7.30548572162597,271.19559713539326,116.2288539536495
109,-11.106357963747195,-241.84334727643065,-122.35637166129956,-68.64604667821082,92.95979630774191,-6.521478903847476,271.27790859668704,115.78144541579576
110,-11.15474330589271,-241.9261128895546,-122.35108988036761,-67.46909200124102,93.17220344908229,-5.733331605942674,271.3514112874065,115.17472802582611
111,-11.20645024891609,-241.99822709308623,-122.34319766261285,-66.14647592083503,93.28445567653486,-4.944609484202257,271.41435550307796,114.41896191825383
112,-11.260470462510991,-242.05771777710513,-122.33347249303836,-64.68145221713024,93.30692356992175,-4.158512037109622,271.46529113058835,113.52706384403783
113,-11.315755314722127,-242.10296217442774,-122.32275823056055,-63.07940603745395,93.25068366561344,-3.377818689109902,271.5031079564582,112.51436055494271
114,-11.37122624958819,-242.13272993447137,-122.3119414311054,-61.347570777973104,93.12734594709535,-2.6048515100525758,271.52706384917644,111.39828224119279
115,-11.425785288593111,-242.1462120176753,-122.30192682866605,-59.49467846445316,92.94888653144872,-1.8414550932711127,271.5367999244989,110.19800369456715
116,-11.478326554559533,-242.14303464556977,-122.29361266353366,-57.53056168588441,92.72748636565815,-1.0889933558909628,271.5323423552816,108.9340431491692
117,-11.527749593158124,-242.12325816354632,-122.28786642974858,-55.46572875226191,92.47537625647264,-0.3483623160191192,271.51409098578307,107.62783056159222
118,-11.572974949574439,-242.08736124027791,-122.28550131935226,-53.31093609973683,92.20468815350179,0.37998270530958944,271.4827952720741,106.30125820984208
119,-11.612962118628085,-242.03621129696208,-122.28725324107154,-51.07678279468978,91.92731226680263,1.095987507296626,271.4395182963748,104.97622680357713
120,-11.646729722207267,-241.9710224799208,-122.29375808821628,-48.77335119778084,91.65475940685872,1.7999495207802587,271.38558987723763,103.67419989071126
121,-11.673377558825837,-241.89330297218277,-122.30552914171085,-46.40991550846865,91.39802801445646,2.4924611908203285,271.3225503143816,102.41577844149239
122,-11.692109948817734,-241.80479398354666,-122.32293501355838,-43.99473618186641,91.16747574882835,3.1743491721575197,271.25208701589315,101.22030629264808
123,-11.70225956710672,-241.707403212398,-122.34617903832903,-41.53495327333627,90.9726961256608,3.846612194577475,271.1759668750803,100.10551570876247
124,-11.70331078806237,-241.60313580305515,-122.37528124025668,-39.0365858205222,90.82240136684915,4.510360102137444,271.0959675602001,99.08722064695021
125,-11.694921488397895,-241.49402582250988,-122.41006393929197,-36.50463772022059,90.72431322216777,5.166756030963988,271.013810846679,98.17906342980626
126,-11.676942217272142,-241.38207109237493,-122.45014192530004,-33.94330367036031,90.68506401912563,5.816963121918421,270.931100890596,97.39231857588071
127,-11.649431652375421,-241.2691738581022,-122.49491810883418,-31.356262207826124,90.71011056627329,6.462096685243395,270.8492700173462,96.73575564654797
128,-11.612667392292847,-241.1570892959958,-122.54358561210233,-28.747037230113325,90.80366370185158,7.103182356368507,270.76953420123033,96.21556120507859
129,-11.567151386446573,-241.0473833423041,-122.5951371720282,-26.119405041424546,90.96863614812403,7.741120468393497,270.6928599224978,95.83531834308984
130,-11.513609541070887,-240.94140087010354,-122.64838230867696,-23.477821124719384,91.20661083171103,8.376656612374477,270.61994350258334,95.59604068394995
131,-11.45298515461787,-240.8402448333026,-122.70197203572654,-20.82783958343199,91.51783094976184,9.010358183962467,270.5512033564239,95.4962563166745
132,-11.386425888060911,-240.74476655434688,-122.75443021866532,-18.17649851803912,91.90121188150607,9.642596624284158,270.4867849049508,95.53213580749119
133,-11.315264125464434,-240.65556679046645,-122.80419025252455,-15.532646421759692,92.35437375310364,10.273535024546181,270.42657721721685,95.6976574104038
134,-11.240990913289412,-240.57300659627583,-122.84963560280939,-12.907187804011812,92.87369232077154,10.903120758051196,270.37023985676103,95.98480201054996
135,-11.165224125450841,-240.49722642130618,-122.88914284395057,-10.31323042929419,93.45436508221668,11.531082841204533,270.3172379500732,96.38377030479684
136,-11.0896719518899,-240.42817150830112,-122.92112597172547,-7.766121564595451,94.09048927698635,12.156933817596013,270.2668832451523,96.88321526895794
137,-11.016093120575754,-240.36562160585063,-122.94408083709034,-5.283366241789403,94.7751486592749,12.77997608338343,270.21837892583835,97.47048396362857
138,-10.946255372772205,-240.30922323648105,-122.95662855182314,-2.8844265018376585,95.50050649742371,13.399312678529226,270.1708661558316,98.13186398456924
139,-10.881893671137908,-240.25852311752098,-122.95755669915299,-0.5904066173572102,96.25790303678086,14.01386260759889,270.1234706344612,98.85283115980688
140,-10.824669526820196,-240.21300165548755,-122.94585711703904,1.5763648485399444,97.03795654056238,14.622380694311104,270.07534770164597,99.61829627482493
141,-10.776132700595387,-240.17210557138068,-122.9207588715772,3.592839828770551,97.83066786854397,15.223481808137345,270.0257245792179,100.41284952906845
142,-10.73768632022092,-240.13527857648538,-122.88175489385317,5.435821309250005,98.6255292065427,15.815669043694106,269.9739381412777,101.22100194023346
143,-10.710556166820032,-240.10198874376903,-122.82862076397532,7.082574873406117,99.41163790147144,16.397365134891633,269.9194663571626,102.02742293410228
144,-10.695764586792333,-240.07175112323998,-122.76142435455328,8.511454080043283,100.17781638337776,16.966946148211644,269.86195155770014,102.81717296714952
145,-10.694109266056106,-240.04414439970262,-122.68052548865757,9.702511701412014,100.91273894221494,17.522776430423246,269.8012140904629,103.57592943179787
146,-10.706147011104004,-240.01882086154993,-122.58656539116797,10.638069767617711,101.60506573870947,18.063243908034362,269.7372556273064,104.29020350218862
147,-10.732182707789468,-239.99550942480457,-122.48044639602797,11.30322411367745,102.24358388076183,18.58679506741655,269.6702521212134,104.94754512775954
148,-10.772263716403591,-239.9740118716189,-122.36330294383086,11.686263542260992,102.81735466158477,19.09196916382179,269.600537040653,105.5367330953298
149,-10.826180006975456,-239.9541928997517,-122.23646530761319,11.778989316107591,103.31586511559071,19.577431320986896,269.5285760824079,106.04794689336524
150,-10.893470227848375,-239.9359650780069,-122.10141779372302,11.576926801794295,103.72918097040358,20.042004177326728,269.45493514204423,106.47291696505594
151,-10.97343362974372,-239.91927021721764,-121.95975342045705,11.079427011242954,104.04809702712183,20.48469767801014,269.38024379413446,106.80504983933166
152,-11.065147458108756,-239.90405879915184,-121.81312723533145,10.289660971737815,104.26428020168082,20.904736564357396,269.30515670969027,107.0395246522058
153,-11.167489170580225,-239.89026895163244,-121.66321046357966,9.214513965721569,104.37040010526042,21.301585047981515,269.23031530179964,107.17335781655517
154,-11.279162642178324,-239.87780620941723,-121.51164758880839,7.864389627719235,104.36024224688167,21.67496802142898,269.156311615681,107.2054331544569
155,-11.398727399874586,-239.86652513006933,-121.36001820559024,6.252935761111754,104.22879967858964,22.024887953504965,269.0836562012765,107.13649567786183
156,-11.524629908480682,-239.85621377693954,-121.20980500200038,4.396704730365873,103.97233999783714,22.351636408901452,269.0127514349523,106.96910827884179
157,-11.655235998612222,-239.8465821075178,-121.06236863052717,2.3147616231075205,103.5884458357355,22.655799000417492,268.94387151071663,106.70757169700326
158,-11.788863628342417,-239.83725540547786,-120.9189297386587,0.028253315105211108,103.07602810011379,22.93825260883024,268.8771501929556,106.3578091285212
159,-11.923815267762594,-239.82777403299033,-120.78055813678378,-2.440048648565051,102.43531220244535,23.200153931457095,268.8125774152309,105.92721765501287
160,-12.058409315617943,-239.81760083528619,-120.64816879637266,-5.066218669532913,101.6677982462663,23.44291880274914,268.75000573398455,105.42448927296131
161,-12.19101010509286,-239.80613739287003,-120.5225239225146,-7.82564874253368,100.77619672747078,23.66819216394077,268.6891673269181,104.85940471270655
162,-12.320056145178842,-239.79274996015855,-120.40423984514334,-10.693508962436518,99.76434179180154,23.87780895036594,268.6297016856946,104.24260352904386
163,-12.4440861978268,-239.7768052865077,-120.29379722992104,-13.64518517253678,98.63708462753561,24.07374647361356,268.5711934696178,103.58533423236891
164,-12.561762653538723,-239.75771550886628,-120.1915533119229,-16.656682632266804,97.40017020677986,24.258069105415018,268.5132191810581,102.89918858111633
165,-12.671891569440268,-239.734990102943,-120.09775535476722,-19.70498527110806,96.06010129232423,24.432866255521724,268.4554004815099,102.19582455665272
166,-12.773438812383,-239.70829185785587,-120.01255493895081,-22.768360869618473,94.62399427136916,24.600184825371716,268.3974612474284,101.48668289817736
167,-12.865542064500008,-239.6774932297744,-119.93602271509005,-25.82660346878227,93.09943182770175,24.761957547621492,268.3392849527124,100.78270230379549
168,-12.947518878583898,-239.64272923863433,-119.86816303081588,-28.86120562084481,91.49431765804418,24.919928893000623,268.2809687105048,100.09403850467729
169,-13.018871268235939,-239.60444323956196,-119.80892768078738,-31.855454905975463,89.81673836640341,25.075580523431434,268.22287039556556,99.42979244931536
170,-13.079287347761596,-239.56342230791918,-119.75822813169128,-34.794451541879354,88.07483731975393,25.230058565896137,268.16564567500774,98.79775285117687
171,-13.128640405784257,-239.52081942072127,-119.71594585693705,-37.66504694301135,86.27670460980707,25.384105237549043,268.11027228755404,98.2041584047662
172,-13.166985683415843,-239.47815997827783,-119.68194065500556,-40.4557066887568,84.43028635599735,25.537997524964407,268.0580593323156,97.6534850987626
173,-13.19455503355032,-239.4373305939624,-119.65605689419424,-43.15630537226835,82.54331545056243,25.691495661609313,268.01063969611937,97.14826425739308
174,-13.211749419296673,-239.40054868662725,-119.63812760551394,-45.75786499059284,80.62326457967153,25.84380400818473,267.9699442713136,96.68893721803859
175,-13.219128879673677,-239.3703122721897,-119.62797638317315,-48.25225263161372,78.6773210895396,25.993546586869755,267.93815738887906,96.2737528925333
176,-13.217399409638402,-239.34933031807674,-119.62541718800703,-50.63185689934843,76.71238210699306,26.13875896476045,267.9176538089148,95.8987147850463
177,-13.207396363184268,-239.34043501476341,-119.63025231555183,-52.889265458871286,74.73506728687433,26.27689747725903,267.91091857774694,95.55758418023292
178,-13.190064371361993,-239.34647840748562,-119.64226887973372,-55.01696795197197,72.7517456344778,26.40486598985362,267.9204520919043,95.2419459752509
179,-13.166434104465429,-239.3702170437746,-119.66123408851023,-57.007109020069144,70.76857209244723,26.51905958111014,267.9486637757496,94.94134286434699
180,-13.137596381973731,-239.41418947066532,-119.68688938762884,-58.85131496474304,68.7915290793906,26.615423776596437,267.99775875178517,94.64348219733334
181,-13.104674230653707,-239.48059232510462,-119.7189434041562,-60.54061444936091,66.82646795607839,26.68952737583364,268.0696226358805,94.33451773468256
182,-13.068793633925422,-239.57116124944415,-119.75706370503887,-62.065468567155996,64.87914543708673,26.736646577196236,268.1657100701315,93.9994056679087
183,-13.031053915362305,-239.68706290523028,-119.80086772009469,-63.41591882250495,62.955250242002556,26.751858025790042,268.2869428016225,93.62233074962246
184,-12.992498872615231,-239.82880399240085,-119.84991362411179,-64.5818536015682,61.06041584891155,26.730138493496856,268.43362299534533,93.18719442135978
185,-12.954089857477724,-239.99616245511874,-119.90369230744129,-65.55338520500713,59.20021614884534,26.666469030500796,268.60536697385726,92.6781527589008
186,-12.916681950517892,-240.1881450404037,-119.96162162002227,-66.32132118154524,57.38014208326756,26.555941546239882,268.80106369063225,92.0801881786428
187,-12.881004162728658,-240.40297417108704,-120.02304383774968,-66.87770621475909,55.60555882595374,26.39386588514169,269.0188610500013,91.37969541434848
188,-12.847644209385205,-240.6381057704209,-120.08722688387347,-67.21640477450232,53.88164454202501,26.175875566730415,269.25618179668135,90.56505951286951
189,-12.817037959010758,-240.89027823728287,-120.15336937241256,-67.33369059414926,52.21331307494387,25.89803044706184,269.50976918126037,89.62720175607798
190,-12.789463352581054,-241.15559121375,-120.22060913129235,-67.22880700176796,50.605124029522585,25.556914595010497,269.77576101743165,88.56006871478962
191,-12.765038534939483,-241.42961118939826,-120.28803460150868,-66.90446222577327,49.061184644854265,25.149727633429755,270.04978919978157,87.36104021230696
192,-12.74372409540364,-241.70749954915823,-120.3546984455865,-66.36722589304024,47.5850485856998,24.674367680764508,270.32710044696915,86.03123385975432
193,-12.725329519249659,-241.9841576247188,-120.41963280231275,-65.62779689699856,46.17961728283286,24.12950390541489,270.60269315762633,84.57568701111235
194,-12.7095240814426,-242.25438274423615,-120.48186581677352,-64.70111851565417,44.8470496584572,23.514636658457317,270.87146485406697,83.00340144662538
195,-12.695852414523259,-242.51302908972752,-120.54043928441008,-63.606323978515164,43.58868592862771,22.830143232825417,271.12836461673646,81.3272417722618
196,-12.683754802804415,-242.75516720274072,-120.59442740918615,-62.36650438515152,42.40499064649197,22.077307504699668,271.3685450034921,79.56368525039635
197,-12.67259188656542,-242.97623614623853,-120.64295674552652,-61.00830051132712,41.295519223535564,21.258332009709832,271.5875081109849,77.73242817178416
198,-12.66167304019061,-243.17218267479558,-120.68522737245624,-59.56132989756879,40.25891086522742,20.376331358320197,271.7812407138503,75.85586134090364
199,-12.650287418057124,-243.33958239348536,-120.72053521563014,-58.05746986518672,39.29290926969435,19.435306287600106,271.9463339081955,73.9584340768614
200,-12.637736590921676,-243.4757388440653,-120.74829513152574,-56.5300249546019,38.39441070330596,18.440098091169986,272.0800834081543,72.06593169333104
201,-12.623367687837039,-243.57875762788296,-120.7680639338616,-55.01281312036079,37.559537343151995,17.396323690036983,272.1805675021311,70.20469525950612
202,-12.606605893468862,-243.64759384383777,-120.7795621351108,-53.53920850517834,36.78373222168038,16.31029221446419,272.2467005398457,68.40081436226735
203,-12.586985054746592,-243.68207214856022,-120.78269291466346,-52.141179706423294,36.06187087062893,15.18890462106069,272.27826062112933,66.67932365271041
204,-12.564175108388207,-243.6828796358906,-120.77755670371309,-50.84836135593473,35.388383933902595,14.039538479671885,272.2758908953414,65.06343242479454
205,-12.538005089440162,-243.65153252682876,-120.76445977469712,-49.687193951657484,34.757384612354144,12.869920546400362,272.2410745887332,63.57381370047257
206,-12.508480624376242,-243.59031837341368,-120.74391539467791,-48.68016268153646,34.16279479253053,11.68799007551684,272.17608459405005,62.22797569501508
207,-12.475795030922264,-243.50221613045994,-120.71663651819219,-47.84516093188912,33.59846410857259,10.50175606554225,272.0839092312102,61.03973453086328
208,-12.440333382884917,-243.39079706041196,-120.68351963383999,-47.194998677193766,33.0582770132349,9.319151826189039,271.9681566284727,60.01880300818395
209,-12.402669100075096,-243.26010997350045,-120.64562011804317,-46.73707028892702,32.53624412297329,8.147890369784523,271.83294099190334,59.17050628784131
210,-12.363552781819985,-243.1145546979454,-120.6041201636555,-46.473190592128304,32.02657548351992,6.995324133718565,271.682754707689,58.49563145457815
211,-12.323893137808282,-242.95874790214302,-120.56029094283353,-46.399602253371114,31.523734801538627,5.8683124457309015,271.5223306945531,57.99041399538082
212,-12.284730053735732,-242.79738549506527,-120.51545101864113,-46.50715186761898,31.02247500589865,4.773100001710625,271.35649968230007,57.64666023376202
213,-12.247200179928647,-242.6351058637715,-120.47092307819786,-46.781626608318675,30.51785670688822,3.7152094555324653,271.19004716253164,57.45200081324313
214,-12.212495993466328,-242.47635817497888,-120.42799093350747,-47.204238276637156,30.005252195312156,2.699350990419641,271.0275746974329,57.39026659601306
215,-12.181819958367647,-242.3252798263201,-120.38785862397954,-47.75223728757748,29.480338530818198,1.7293513934295217,270.8733701263991,57.44197500576963
216,-12.156336039382213,-242.1855868298886,-120.3516134237017,-48.39963570103562,28.939083956278775,0.8081046639468709,270.731290953671,57.58491198761029
217,-12.137121282670892,-242.06048043310267,-120.32019447562925,-49.11801580557216,28.377732274588432,-0.062454398400417055,270.60466475713235,57.794792350881075
218,-12.125120329108611,-241.9525726668621,-120.29436848155441,-49.877398865305786,27.792789866596028,-0.8813527928270761,270.49620978386366,58.045979216424975
219,-12.12110544206499,-241.8638328307604,-120.27471334791096,-50.64714736452739,27.181019677390772,-1.6485578956034599,270.4079780413285,58.31224157325738
220,-12.125643910863532,-241.79555623894024,-120.2616100350835,-51.396873407083724,26.539445779461357,-2.3649324803451335,270.3413222584672,58.56752759762463
221,-12.139073787482246,-241.74835583216012,-120.25524224060777,-52.09732583095659,25.865371113471443,-3.032167380957908,270.2968871378984,58.786730459462554
222,-12.161488214832255,-241.72217642899352,-120.25560309931406,-52.72122908670017,25.15640979292729,-3.652693800760937,270.2746243505299,58.9464229130441
223,-12.19272830443554,-241.71633045250263,-120.26250783915629,-53.24404808286649,24.410533999378796,-4.229578120443489,270.27382976724505,59.02553716670495
224,-12.232384480967317,-241.72955306941535,-120.27561120388805,-53.64465517361625,23.626134055576657,-4.7664029157456,270.29320055887104,59.0059675309694
225,-12.279806184812994,-241.76007392832253,-120.29442834034268,-53.90587839926368,22.802088847116952,-5.267138707734214,270.3309090689309,58.87307533367947
226,-12.33411970666248,-241.80570208137138,-120.31835772429723,-54.01491405563509,21.93784248752542,-5.736011647133489,270.3846897595072,58.61607866639735
227,-12.394253715521767,-241.86392021880468,-120.34670463299588,-53.96359160692402,21.033482067450947,-6.177372742535955,270.45193507960937,58.2283136532408
228,-12.458971678765748,-241.9319841011365,-120.37870380633787,-53.74848468563672,20.089810540893197,-6.59557422320898,270.5297959276846,57.70735893727768
229,-12.52690982476273,-242.00702309669447,-120.41354037930896,-53.37086816932253,19.108408377332548,-6.994858092560304,270.6152825737175,57.055020716945016
230,-12.596618733384979,-242.0861380141821,-120.45036881052984,-52.83652776883517,18.091677725075556,-7.379260938667339,270.7053624235471,56.277181678824704
231,-12.666606352569579,-242.16649288845446,-120.48833008126873,-52.155434848988385,17.042863625089,-7.752537807654221,270.7970516626179,55.38352326315207
232,-12.735380368159063,-242.24539792175352,-120.52656769732819,-51.34130492891676,15.966048244660739,-8.118106599509687,270.8874984251265,54.38713647024413
233,-12.801488289430806,-242.32038132158223,-120.56424305215842,-50.41106305889276,14.866115946277041,-8.479013119997141,270.9740556476431,53.304041401765275
234,-12.863554144359863,-242.38924832190185,-120.60055064539716,-49.3842426542973,13.748688995125264,-8.837915676785608,271.0543422489957,52.152639472821036
235,-12.920311132964969,-242.45012629359994,-120.63473354052091,-48.28234607770877,12.620035623724673,-9.197087006018494,271.12629180205005,50.95312436987915
236,-12.970629865888172,-242.501495571628,-120.66609926916509,-47.12819512039455,11.486953870062703,-9.558430420625328,271.188188440158,49.72687815896765
237,-13.013541906384901,-242.54220638940492,-120.69403612016866,-45.94529754347836,10.356635974010517,-9.923506443073519,271.2386903051288,48.49587744456252
238,-13.048258309285524,-242.57148299604276,-120.71802937429683,-44.75725218838465,9.236519067862078,-10.293565869479611,271.2768412854381,47.28213131179751
239,-13.074182815213115,-242.58891652969365,-120.73767666764866,-43.58721020743267,8.134128377214727,-10.669585212032564,271.30207206866356,46.107168283177906
240,-13.090919376590147,-242.5944484754088,-120.75270152007847,-42.45740415377043,7.056919149305503,-11.052300756813185,271.31419169725984,44.991584129786155
241,-13.098273787069543,-242.5883465507474,-120.76296424795264,-41.38875054439787,6.012123115381768,-11.442238051561942,271.3133709176806,43.95465664730408
242,-13.096249387493065,-242.57117469855044,-120.76846978419057,-40.4005256749285,5.006604620916394,-11.839734500977729,271.30011861185363,43.01402806138421
243,-13.085037150213306,-242.54375862380718,-120.76937204971215,-39.51010950375654,4.046730771842618,-12.24495381261479,271.2752524522849,42.18545113024959
244,-13.065000854429183,-242.50714807570213,-120.76597437398088,-38.73278878539977,3.1382591077267215,-12.657892135618171,271.23986466418654,41.482591651452324
245,-13.036658439374207,-242.4625768907577,-120.75872522666151,-38.08160855901052,2.2862454030095947,-13.078376719034438,271.1952835236268,40.916878140332855
246,-13.000660829284334,-242.4114216913797,-120.74820846712105,-37.567260623551086,1.4949731857973414,-13.506058731956166,271.14303109571136,40.497388959067145
247,-12.95776951005207,-242.35516005335776,-120.73512761159459,-37.19799864624972,0.767905465575569,-13.940402510853911,271.0847777738912,40.23076804852444
248,-12.908833974791317,-242.29532885018278,-120.72028421377821,-36.97957184317426,0.10765803998034983,-14.380673855151475,271.0222943456591,40.12116244592691
249,-12.854769976798746,-242.2334832925474,-120.70455112371732,-36.91517242260999,-0.4840073027415591,-14.825930002566828,270.95740243249907,40.170177642985436
250,-12.7965393732421,-242.171156941445,-120.68884189781353,-37.0053957939274,-1.006172262484242,-15.27501360335242,270.8919241593533,40.37685017543538
251,-12.73513212116958,-242.10982281577964,-120.6740779319355,-37.248216480357,-1.4587374259172792,-15.726552498527527,270.8276318930659,40.73764024636561
252,-12.67155063807857,-242.05085576237104,-120.66115508954762,-37.638986265552475,-1.8423871990590595,-16.178966517399935,270.7661990046347,41.24645025416219
253,-12.606796354006033,-241.9954965084573,-120.65091174193843,-38.17046386711182,-2.1585479273021866,-16.630481907089305,270.7091528816574,41.89467737584834
254,-12.541858021429451,-241.9448181640718,-120.64410013824472,-38.83288695333809,-2.4093425343010115,-17.079153401802806,270.6578317144613,42.67130946742051
255,-12.477701287982141,-241.8996962703316,-120.64136281538812,-39.61409734429286,-2.5975443548694193,-17.522893343202306,270.6133467758749,43.563073265487866
256,-12.415259112618694,-241.8607837591377,-120.64321538869577,-40.4997286701096,-2.7265319223490514,-17.959506717768203,270.5765519923302,44.55464216669597
257,-12.355422687864108,-241.82849239728174,-120.65003659959599,-41.47346266868102,-2.8002453965559204,-18.38673053452626,270.5480225845007,45.62890783729636
258,-12.299032545627558,-241.8029823964713,-120.66206594788446,-42.517355951862285,-2.8231441926791043,-18.802275658894054,270.52804440725464,46.76731583596749
259,-12.246869514161297,-241.78416180324092,-120.67940858202358,-43.61223387983506,-2.8001643207775295,-19.203869066756003,270.5166152650924,47.95026072065116
260,-12.199645240891664,-241.77169695149814,-120.70204639983098,-44.73814264851273,-2.7366731243694766,-19.589294511978697,270.51345886293586,49.15753120320478
261,-12.157992134405312,-241.7650345983891,-120.72985370000627,-45.874845298871435,-2.6384186622480805,-19.956429822810737,270.51805119386046,50.36879123884158
262,-12.12245280461957,-241.76343540118728,-120.76261546171905,-47.00234257726867,-2.5114709893998195,-20.303279431458677,270.52965819913055,51.56407888640656
263,-12.093469367984817,-241.76601731055626,-120.80004647920903,-48.10139588337404,-2.362153064630223,-20.628001231178736,270.5473826511933,52.724301728501885
264,-12.071373266392753,-241.7718064870059,-120.84180991682585,-49.15402736284551,-2.196959897515182,-20.928927377463783,270.5702175108195,53.831705947745405
265,-12.056376419200808,-241.7797926274182,-120.88753408086791,-50.143971868243334,-2.022465736409946,-21.204579161137783,270.5971024775139,54.87029611055249
266,-12.048564490962733,-241.78898516387773,-120.93682627019643,-51.05705721399699,-1.8452204074188532,-21.45367654776931,270.6269800995925,55.82618448915289
267,-12.047892788572161,-241.7984667103233,-120.98928268547311,-51.88149288064307,-1.6716371334561686,-21.67514335212326,270.6588477724362,56.687852346800014
268,-12.054184905476284,-241.80744038106806,-121.04449377940709,-52.60805285255779,-1.5078751515773774,-21.868109246934274,270.69180233745413,57.446310808599435
269,-12.067133900533445,-241.81526808662485,-121.10204510581285,-53.23014518771281,-1.3597211561581142,-22.031909852983336,270.72507471205273,58.09515535940351
270,-12.08630566478248,-241.82149753037007,-121.16151441024076,-53.74376864366461,-1.2324739968957548,-22.166086011613885,270.7580528342989,58.63051512065469
271,-12.11114416614328,-241.82587640188444,-121.22246610829508,-54.14736450136738,-1.1308370967910528,-22.270383051510137,270.79029207933405,59.05090519802163
272,-12.140978356911369,-241.8283532189039,-121.28444433015235,-54.441578860900364,-1.0588226917637196,-22.344750539528107,270.82151317910524,59.3569968576979
273,-12.17503059401408,-241.82906529377388,-121.34696551460164,-54.62895646419335,-1.0196712717684089,-22.389342752787773,270.8515885084384,59.55132548397625
274,-12.212426444760261,-241.82831518659648,-121.40951132879763,-54.71359107325767,-1.01578862005482,-22.404519937188503,270.8805183003698,59.63795977560859
275,-12.25220578360654,-241.8265376461236,-121.47152259098995,-54.700759332770076,-1.048701732994742,-22.390850237092852,270.9083988798548,59.622157187647296
276,-12.293335192673723,-241.8242594697935,-121.53239488827901,-54.59656476495935,-1.1190338234322792,-22.34911189294476,270.93538539821736,59.51003010107731
277,-12.334721844104642,-241.8220550338867,-121.59147667737837,-54.40761614289116,-1.226497733299969,-22.28029490005472,270.96165188406405,59.30824468093715
278,-12.375229129218905,-241.82050051148852,-121.64807075395852,-54.14076020387898,-1.369906521375901,-22.18560089759904,270.9873517109074,59.02377014988077
279,-12.413694184753611,-241.82012996010607,-121.70143990635925,-53.80288289341619,-1.5471997875244596,-22.066439750886943,271.0125816921908,58.66369070641872
280,-12.448947213086313,-241.82139638126134,-121.75081721498384,-53.4007865725405,-1.7554843950098786,-21.92442122303653,271.0373527744365,58.23508608172684
281,-12.479832283650381,-241.82464045019145,-121.7954209276664,-52.94114341165669,-1.991088521676676,-21.761340358648322,271.0615696919587,57.74498026038168
282,-12.505229229842907,-241.8300689685969,-121.83447334663639,-52.43051805396619,-2.2496282500207747,-21.579155690333824,271.0850211454981,57.20035162172852
283,-12.524076287981972,-241.83774432304986,-121.86722278215612,-51.87544610078135,-2.526086090245274,-21.379960043990213,271.10738120930307,56.60819210426761
284,-12.535393189904074,-241.84758534594036,-121.89296732618928,-51.282549653295995,-2.81490087112237,-21.16594446749528,271.1282217470795,55.975598433767246
285,-12.538304423092058,-241.85937899460066,-121.91107900486189,-50.65866766308722,-3.110068306121597,-20.939356546344477,271.1470346539179,55.309875505015285
286,-12.532062246128095,-241.87280132951702,-121.92102686845328,-50.010977678123766,-3.405251260487573,-20.702454998365994,271.16326190237584,54.61863108525468
287,-12.516068843784513,-241.887445523342,-121.92239776572805,-49.34708691863562,-3.693898393466237,-20.45746287167499,271.17633077955367,53.90984230312014
288,-12.48989682513992,-241.9028541283428,-121.91491381045002,-48.67507434631424,-3.969369553722411,-20.206521852152555,271.1856913631266,53.19187780907756
289,-12.45330714523973,-241.9185526468054,-121.8984458185147,-48.00347106211745,-4.225066137959903,-19.951650103085488,271.1908532376648,52.47346466492084
290,-12.406263467929566,-241.93408164799257,-121.87302231559545,-47.34117329653636,-4.454564540237646,-19.69470575234826,271.19141877128146,51.76359532275702
291,-12.348942008794246,-241.949025158944,-121.8388340774564,-46.69728962616704,-4.651750713103896,-19.437357716286726,271.18711086663114,51.07137674423093
292,-12.28173603142071,-241.96303361836289,-121.79623442570751,-46.08093104046288,-4.810953655440422,-19.181065111065887,271.1777937233065,50.40583003267424
293,-12.205254427207617,-241.97584020371696,-121.74573553897831,-45.50095834609723,-4.927075316711017,-18.927066091479947,271.16348564056284,49.775654203656835
294,-12.120314157201953,-241.98726986128466,-121.68800092134583,-44.9657055469956,-4.995713972898518,-18.676376545505942,271.1443633150198,49.1889713422608
295,-12.027926693848382,-241.99724097276234,-121.62383410714497,-44.48269994505563,-5.013277643429264,-18.429798614813635,271.1207576150279,48.653072077575146
296,-11.929278890836816,-242.00576026287703,-121.55416378163002,-44.05839971837352,-4.977083709727409,-18.187938494933217,271.0931414710726,48.174180025794485
297,-11.825708895576566,-242.01291216994719,-121.48002563079581,-43.697967822384875,-4.885440705796002,-17.951232434259712,271.06211114270286,47.757251828060944
298,-11.71867780726987,-242.01884435559114,-121.40254126532174,-43.40509756582297,-4.7377083470198995,-17.71997936802121,271.0283625475891,47.405826012001704
299,-11.609737807753707,-242.02375125066953,-121.3228945881784,-43.181900617478895,-4.534332243525812,-17.49437824179661,270.99266454838664,47.12192961112682
300,-11.500497500157865,-242.02785746223302,-121.2423061289085,-43.02886305969692,-4.276850409668459,-17.274567809197958,270.95583109800174,46.90604679652388
301,-11.39258521029139,-242.03140250122328,-121.16200607066132,-42.94486996056641,-3.9678696520395103,-17.060666526569644,270.91869391023397,46.75714918835862
302,-11.28761104026152,-242.03462773936107,-121.08320677333323,-42.92729425120024,-3.6110111816939425,-16.852810123759777,270.88207686696165,46.67278342033835
303,-11.187128534453235,-242.03776592096918,-121.00707548957112,-42.9721418523241,-3.210826266640221,-16.651184512383583,270.84677280756705,46.64920824738936
304,-11.092596946837947,-242.0410330712473,-120.93470775240684,-43.07424227595141,-2.77268427465622,-16.456051880216844,270.8135228200611,46.6815712259125
305,-11.005345223324076,-242.04462233642855,-120.86710174423938,-43.22747242400907,-2.3026368965728805,-16.26776807928679,270.78299780696767,46.76411380162464
306,-10.926538827920659,-242.04869918403324,-120.80513402609442,-43.425000899163784,-1.8072635479865309,-16.08678975240435,270.7557820320411,46.8903934008244
307,-10.857150443728766,-242.05339744633991,-120.74953735674315,-43.659540617878356,-1.2935038079416223,-15.913670107445682,270.7323585533477,47.053511666138895
308,-10.797935452379932,-242.0588158468235,-120.70088174708127,-43.92359866817102,-0.7684831833718834,-15.749042867599847,270.7130967671322,47.24633914569099
309,-10.749412957902093,-242.0650148545723,-120.65956006825023,-44.209714008167744,-0.23933846597129607,-15.59359465375163,270.69824254076684,47.46172837504878
310,-10.71185292437339,-242.07201390065248,-120.62577933662065,-44.51067557937236,0.28695149041118406,-15.448026801063369,270.68791148536843,47.69270920925475
311,-10.685269743542127,-242.07978909216732,-120.59955836949544,-44.81971551719569,0.803724540423652,-15.3130083093765,270.68208580584434,47.932662283297866
312,-10.669422307224622,-242.0882715902972,-120.58073211050564,-45.13067416201583,1.3047795966807705,-15.189122268638348,270.6806150049353,48.175468406861185
313,-10.663820502343397,-242.0973468997894,-120.56896276211813,-45.438135265927386,1.7845037603979237,-15.07680868418111,270.68322070938973,48.41563330738903
314,-10.667738024360435,-242.1068555151413,-120.5637578801644,-45.73753094302938,2.2379805584847046,-14.976307076506249,270.689506068249,48.64838819949554
315,-10.680231481172067,-242.11659556948374,-120.56449549056362,-46.0252164565675,2.661078618003547,-14.887602418678108,270.6989703131721,48.86976707369392
316,-10.700165761044506,-242.1263281443202,-120.57045582703898,-46.29851500595765,3.0505209911025384,-14.810377835545674,270.71102887770616,49.07666146912781
317,-10.726245403618327,-242.13578563182713,-120.58085848891801,-46.55573249981787,3.4039360556449405,-14.743977064133981,270.7250388720657,49.26685305320427
318,-10.757051277159048,-242.14468306245308,-120.59490295877309,-46.79614206430615,3.719891347684294,-14.68737904910569,270.74032888585185,49.439023775852924
319,-10.791081398601834,-242.15273176913283,-120.61180980905908,-47.01993787729498,3.9979117530157615,-14.63918629486593,270.75623131992427,49.59274284979105
320,-10.82679437114383,-242.15965431452787,-120.63085972353207,-47.22815800222903,4.238483257186466,-14.597627778704783,270.77211494739765,49.72842951155985
321,-10.862653713783827,-242.1651993992614,-120.65142764817296,-47.42257640912183,4.443043103172573,-14.560576406689842,270.78741529304114,49.84729065001766
322,-10.897171344511323,-242.16915555474662,-120.67300985729273,-47.60556541865801,4.61395687965433,-14.52558022410123,270.80166070428237,49.951233074899676
323,-10.928948676155715,-242.1713627026662,-120.69524236638603,-47.779931306413076,4.754482783207309,-14.489905933834086,270.81449252977325,50.04275137597244
324,-10.956714161147778,-242.1717209391066,-120.71790990648881,-47.94872751610192,4.868723021129474,-14.450592778527122,270.82567843237814,50.124793771419746
325,-10.979356534302225,-242.17019604722975,-120.74094555934037,-48.1150516009202,4.961562046541887,-14.404514525710951,270.835118407379,50.20060982628441
326,-10.995953270632699,-242.16682127347795,-120.76442197032331,-48.28183348415985,5.0385911283014675,-14.34844714756172,270.8428434835768,50.27358529437937
327,-11.00579385793163,-242.16169494145691,-120.78853558734703,-48.4516238221508,5.106018791391431,-14.279139778796463,270.84900736278036,50.34707053057375
328,-11.008397507948931,-242.15497366385733,-120.81358558447731,-48.626392105941136,5.170567021148966,-14.1933866413235,270.8538715151974,50.424209887345555
329,-11.00352501362434,-242.14686128501108,-120.83994916913989,-48.80734460981642,5.239353783840669,-14.088097828858851,270.8577846014458,50.50778020599038
330,-10.991184577201464,-242.13759413962956,-120.86805493954357,-48.9947723288121,5.31976321757991,-13.960367140836953,270.8611574857121,50.60004686601606
331,-10.971631487549022,-242.127423595976,-120.89835580867106,-49.18793854720175,5.41930559317502,-13.807535498980698,270.86443538012475,50.702645736888414
332,-10.94536150844216,-242.11659709411342,-120.93130269970703,-49.385014557114864,5.5454697041428815,-13.627248767614493,270.868068736017,50.81649865177885
333,-10.913097876332797,-242.1053390012866,-120.96731984615899,-49.58307027393765,5.70557069651693,-13.417508943296404,270.8724844321368,50.94176863715928
334,-10.875772010847754,-242.09383259179117,-121.00678228296822,-49.7781240856392,5.906596562861742,-13.176717718413192,270.87805869440274,51.07785911620313
335,-10.834498381199577,-242.0822043123015,-121.04999608450821,-49.96525327345563,6.155056704268979,-12.903711490007325,270.88509305103076,51.22345875430854
336,-10.790544296248004,-242.0705112747102,-121.0971820095844,-50.13876289610773,6.4568361535456384,-12.597787066037895,270.89379449090217,51.37663069646361
337,-10.745295557461713,-242.05873274205643,-121.1484632569565,-50.29240740240779,6.817059196966092,-12.258717577422058,270.904260862121,51.534941880473866
338,-10.700218909317568,-242.04676626864165,-121.20385784548986,-50.41965573977428,7.23996613317801,-11.886758327875773,270.91647237065536,51.695625136898876
339,-10.656822164334931,-242.03442899349346,-121.26327571236864,-50.51398766087964,7.728806702861023,-11.482642444616346,270.930289705416,51.85576415828264
340,-10.616612937264035,-242.02146421539294,-121.32652015633924,-50.56920659270235,8.285753291729945,-11.047566265708364,270.9454587795892,52.01248942253531
341,-10.58105711305051,-242.0075528154517,-121.39329293495305,-50.579753098580646,8.91183635725451,-10.583164485413418,270.96162144148553,52.163172072977716
342,-10.551538354701778,-241.9923285561776,-121.4632022258558,-50.54100281956774,9.606903687245573,-10.091475217522454,270.9783309909609,52.30560278035144
343,-10.529320036723767,-241.9753960259655,-121.53577276466085,-50.44953384904947,10.36960411980231,-9.574895331420075,270.9950711531797,52.4381437635601
344,-10.515511004461818,-241.95635009472784,-121.61045773028316,-50.303350644461496,11.197395325653616,-9.036126658920283,271.01127736273764,52.55984430202146
345,-10.511036525407317,-241.93479607373422,-121.68665229085576,-50.10205459890439,12.086574331092702,-8.478113960847297,271.0263596541066,52.67051303729322
346,-10.5166156188914,-241.91037014276355,-121.76370903648785,-49.846955020501355,13.032328825959093,-7.903975877814167,271.039726917295,52.77074389536432
347,-10.53274554340358,-241.8827598532402,-121.84095565657157,-49.541118155724,14.028807044763274,-7.31693043331289,271.0508125399404,52.861896233226155
348,-10.559693668315603,-241.85172450103144,-121.91771505646715,-49.18935561719943,15.069204072130749,-6.720216943748571,271.05910134965285,52.94603339129393
349,-10.597496467569558,-241.81711490415395,-121.99332771245751,-48.79815670938468,16.145862674629345,-6.117016391288038,271.06415734331017,53.02582678126415
350,-10.645965103633825,-241.77889184797644,-122.06717564649958,-48.37557135626475,17.2503870801917,-5.5103724712428415,271.065651248064,53.10443462791307
351,-10.704697013907202,-241.7371423896802,-122.13870711210068,-47.93105140980882,18.373768430235287,-4.90311567046095,271.0633867614495,53.185365303805966
352,-10.773092933772592,-241.6920933401206,-122.2074608977134,-47.47525796995274,19.506520857829496,-4.297792827840997,271.05732434676594,53.27233475661716
353,-10.850378724753963,-241.64412143365257,-122.27308902179871,-47.0198411025064,20.638827244735246,-3.696604602980947,271.04760156849505,53.36912593490266
354,-10.93563112457414,-241.5937598591175,-122.33537658250174,-46.577196396075564,21.760693629364436,-3.1013531104846974,271.0345490827083,53.47945572807442
355,-11.027806153428019,-241.5417009063216,-122.39425774889264,-46.160200717024814,22.86211095061287,-2.5134017041808714,271.0187015562978,53.606852275447096
356,-11.125768595547758,-241.48879445666145,-122.44982729826522,-45.78192784675037,23.93322235544428,-1.9336485830930932,271.00080294220413,53.7545430955569
357,-11.22832091813809,-241.43604195338563,-122.50234749687547,-45.45534381065212,24.964493764007234,-1.3625155733559577,270.9818056293177,53.92535274592462
358,-11.33423022778542,-241.3845854125277,-122.55225032020702,-45.192981831321575,25.946884871618227,-0.7999530844126276,270.96286301726127,54.121607868516485
359,-11.442252293359951,-241.33569102160402,-122.60013506463707,-45.00659798371407,26.87201732983478,-0.24546178819319361,270.9453150944614,54.345047554637524
360,-11.551152161384245,-241.29072689056053,-122.64676147686683,-44.90681070783626,27.732336513616268,0.3018689851856124,270.93066666544604,54.59673790845871
361,-11.659721378052843,-241.25113455776585,-122.69303866885899,-44.90273016500752,28.5212630718851,0.8433067818617088,270.9205579901599,54.876991357918534
362,-11.766792232285574,-241.2183939964438,-122.74001021279153,-45.00158667551922,29.233330404601336,1.380406854950643,270.916727798633,55.18529338421601
363,-11.87124962488874,-241.19398223056837,-122.78883589395289,-45.20837062576698,29.864304323184964,1.914930450501863,270.9209690139325,55.52024147430303
364,-11.972041084980207,-241.17932626711496,-122.84077070916726,-45.52549868882042,30.41128142296491,2.448753520417531,270.9350780946927,55.87950274219708
365,-12.068185212694805,-241.17575172709147,-122.89714183580318,-45.95252250907882,30.87276312187651,2.9837695644176634,270.960799561514,56.25979745265901
366,-12.158778637849709,-241.1844290728776,-122.95932434951392,-46.48589592837742,31.24870290529137,3.521790833402495,270.99976774542733,56.656915468379324
367,-12.243001520799213,-241.20631955732756,-123.02871637650561,-47.11881532323483,31.540525042658935,4.064452354639245,271.0534479539401,57.065771422330855
368,-12.320121579523782,-241.24212303520656,-123.1067141889472,-47.841144780189374,31.751113845963904,4.613123112355756,271.123079179944,57.48050227543658
369,-12.389496529791513,-241.29222971408106,-123.19468756497456,-48.63943392131762,31.88477336768842,5.168828255744809,271.20962033131764,57.89460805889962
370,-12.450574753071347,-241.35667781349503,-123.29395556042195,-49.49703158569094,31.94715827895414,5.732185481125977,271.31370177878796,58.30113332588952
371,-12.502894090187864,-241.43511893148192,-123.40576268994175,-50.394293710913374,31.945177528519068,6.303357826852267,271.43558380330194,58.692883484947295
372,-12.546078933983317,-241.52679272080258,-123.53125542116756,-51.30887910703844,31.886873224160393,6.882024108775379,271.57512331836483,59.06266708288892
373,-12.579836180480939,-241.63051226469096,-123.67145887273469,-52.21612282696073,31.781277951631978,7.467367203869081,271.7317500654667,59.40355256886741
374,-12.603950940825664,-241.74466120504874,-123.8272536813708,-53.08947388310841,31.63825441593966,8.058079469103626,271.9044532316147,59.709126397409904
375,-12.618283042256312,-241.86720311709794,-123.9993531675801,-53.90098237179004,31.468321770039143,8.652383865076118,272.09177902393037,59.97373870697838
376,-12.622765161803505,-241.99570295199797,-124.18828117855516,-54.621820711805306,31.282473122624573,9.248068907243304,272.29183924734446,60.19272327195118
377,-12.617403034617771,-242.1273598419372,-124.39435126827419,-55.2228245642199,31.091988352402154,9.842535418978956,272.5023305776072,60.36257985456097
378,-12.602277795974873,-242.2590503285578,-124.61764809120588,-55.67504077972594,30.908245529707536,10.432853199408182,272.72056409987607,60.48110927556135
379,-12.577550322061356,-242.3873810292166,-124.85801198595307,-55.95027202732134,30.742533151475605,11.01582608057343,272.94350468219795,60.547494238211144
380,-12.543467408274575,-242.50874967510615,-125.11502776112906,-56.02161020647628,30.60586427232495,11.58806431041952,273.1678196996415,60.56232192923779
381,-12.500369645020195,-242.61941323950114,-125.38801872911259,-55.863953007200664,30.508792658875294,12.146063615214352,273.3899364517827,60.52754744044155
382,-12.448700829304688,-242.71556159409525,-125.67604701204068,-55.45449981841493,30.461230452527843,12.686290546843887,273.6061073588729,60.446399911420706
383,-12.389018629038638,-242.7933948923969,-125.97792096057587,-54.77322446225877,30.472266617697198,13.205273734708305,273.81248172237014,60.32323588311783
384,-12.322005947862715,-242.8492027282959,-126.29221016462056,-53.80332291031881,30.549985778981327,13.699700404518964,274.0051825260983,60.1633466507279
385,-12.248482039558379,-242.8794430901608,-126.6172680874655,-52.53163422462973,30.701287966493762,14.166516993697062,274.18038650867476,59.97272841574549
386,-12.169412022478292,-242.88081929199205,-126.95126191242694,-50.949032477528306,30.93171124283169,14.603031949380753,274.33440566202967,59.75782572699685
387,-12.085913203447147,-242.8503534215784,-127.29220878404323,-49.05078633083983,31.245260981060625,15.007017990974823,274.4637684328213,59.52525994843378
388,-11.999256607659495,-242.785455256446,-127.63801724241044,-46.836881255175,31.644251388962413,15.376810411069163,274.5652990921719,59.28155508057348
389,-11.910862308030147,-242.68398584451845,-127.98653228230523,-44.31229705495339,32.12916640608447,15.711397438192288,274.6361937977069,59.0328729826948
390,-11.822287509167312,-242.5443149208328,-128.3355821665761,-41.48723063354438,32.69854809859996,16.01049828289111,274.6740917260506,58.78476886041089
391,-11.73520682067865,-242.36537110804846,-128.6830249892785,-38.37725120894584,33.348921010392836,16.274624263274745,274.6771394151975,58.54197600501506
392,-11.651384701504622,-242.14668359714358,-129.0267930723073,-35.00337302350396,34.0747605317575,16.50511846132519,274.64404629838486,58.30822655957913
393,-11.572640605771323,-241.8884138672565,-129.36493350493134,-31.39202956006617,34.868512205661645,16.704169811513353,274.57412941723396,58.0861129638215
394,-11.500807817090783,-241.5913760193091,-129.69564337480895,-27.574933913821774,35.720667061432145,16.874798416966406,274.4673454452005,57.87699310481356
395,-11.437687261367614,-241.25704441223533,-130.0172985070569,-23.58881260590853,36.61989567472466,17.020810176661215,274.3243083897076,57.68094133188029
396,-11.38499781475882,-240.8875474385911,-130.3284749453234,-19.475004729535186,37.55324089088911,17.146720350622747,274.14629167561463,57.49674734479504
397,-11.344324926108367,-240.48564646682442,-130.62796297469856,-15.278924492201376,38.50636626966887,17.257647294361167,273.9352137572909,57.32196521588501
398,-11.317069758179644,-240.0546992705249,-130.91477399441106,-11.0493923247983,39.46385460181077,17.359179077859825,273.69360691675183,57.15301500458289
399,-11.30440131590946,-239.59860767435856,-131.1881407870482,-6.83784703857137,40.40954856336593,17.45721698019721,273.42456938452614,56.98533912754016
400,-11.307213977481602,-239.12174962479514,-131.4475117249753,-2.6974583023921315,41.326923851961766,17.557800943362228,273.1317013303266,56.81361454033918
401,-11.326092517907739,-238.62889641045166,-131.69253944059594,1.3178356264858189,42.199483997318026,17.666923043823267,272.81902569959954,56.63201973161924
402,-11.361286342597053,-238.12511632265034,-131.92306464346697,5.154335870237432,43.01116535725041,17.79033590577776,272.49089542281575,56.434552592344055
403,-11.412694351281162,-237.6156666723913,-132.13909605341442,8.759605158229595,43.74674047393649,17.933363654580624,272.1518891915939,56.215391670514435
404,-11.479861505697562,-237.10587674361057,-132.34078770153218,12.08347218514874,44.392207911845986,18.100723357745267,271.8066986920692,55.96928959943494
405,-11.561987611258676,-236.6010248848774,-132.52841505171935,15.078986822542888,44.93515697315125,18.29636477381405,271.4600107982259,55.691984121747424
406,-11.657948052246505,-236.1062134191878,-132.70235147547086,17.70329706088219,45.36509638043721,18.52333551069048,271.1163886481174,55.38060958088666
407,-11.766325397803834,-235.62624536278523,-132.86304655089148,19.918421715359056,45.673737167174416,18.78367739079463,270.78015573163304,55.03409029331175
408,-11.885450116508538,-235.16550715390198,-133.01100746901642,21.691896779532165,45.855221571692425,19.078358091030765,270.4552871811534,54.65349693082645
409,-12.013448249649434,-234.72786172713248,-133.1467845246991,22.99727760931976,45.906291595736754,19.40724019033384,270.1453124072868,54.24234788760522
410,-12.148293804141717,-234.31655625450392,-133.27096122714673,23.814483749183974,45.82639297192971,19.769087799347737,269.85323298645903,53.80683950047475
411,-12.287863692385635,-233.93414858112268,-133.3841490254683,24.129978211407696,45.617712493496406,20.161609146224066,269.5814591865968,53.35599187761636
412,-12.429993127425263,-233.5824556985218,-133.4869861166318,23.936778483138696,45.28514888391306,20.581532065230483,269.3317676619415,52.901700907529026
413,-12.572529483049893,-233.26252650521118,-133.580139365181,23.234302435246846,44.8362194937182,21.02470842730665,269.10528168310344,52.458691586599556
414,-12.713382863733544,-232.97463972276844,-133.66430804678959,22.02805840255358,44.28090696946761,21.486243126853818,268.9024739212482,52.044372757900355
415,-12.850572045336538,-232.71832637138598,-133.74022798246307,20.32919461510151,43.63145151806863,21.9606431252632,268.72319048215616,51.67859821449039
416,-12.982264915274591,-232.49241486177098,-133.80867469320543,18.153928464763492,42.90209540173085,22.4419820873758,268.56669377303683,51.38334341553727
417,-13.106812861514834,-232.2950956912113,-133.87046442837243,15.522880385625458,42.10878684623103,22.92407624867362,268.4317209873247,51.18231043834284
418,-13.222778694137846,-232.12400202876051,-133.9264522418693,12.46034005038786,41.268850746833444,23.40066725884641,268.31655455274,51.100476059308576
419,-13.328957807789509,-231.97630212181429,-133.9775267001394,8.993493879203452,40.400633608664236,23.865607753741983,268.2191007958855,51.16359900307151
420,-13.424392564686695,-231.84879938963613,-134.02460127494933,5.1516424583752976,39.5231302338514,24.313045189378414,268.136973269531,51.39770253324699
421,-13.508380222012237,-231.7380362530619,-134.06860290618422,0.965434571034897,38.655599831105484,24.7375990092819,268.0675775830962,51.828547889180925
422,-13.580474953395676,-231.64039812685888,-134.11045852025507,-3.533858464470779,37.817179441772986,25.13452565471933,268.0081950658761,52.481112868468664
423,-13.640484550256474,-231.55221442941712,-134.1510803983081,-8.315008169940171,37.02650279097969,25.499865494425684,267.95606301955667,53.379088384892185
424,-13.68846231263328,-231.46985381981716,-134.19135118758678,-13.347418160829253,36.30133284548227,25.83056561745339,267.90844957024603,54.544404316053225
425,-13.724694541794513,-231.3898111854005,-134.23210912996893,-18.60162586237991,35.65821646105668,26.124572659694127,267.8627212875099,55.9967945469671
426,-13.749683960774323,-231.30878428806358,-134.27413392868672,-24.049709881467518,35.11216945759915,26.380890434505815,267.81640199135506,57.75340989802648
427,-13.764129331712649,-231.22373844869,-134.31813367926745,-29.665600887145466,34.67640011357818,26.599598142889146,267.7672215760467,59.8284865944357
428,-13.768901556157669,-231.1319581070469,-134.36473335092546,-35.425298361438614,34.36207823544595,26.781826373254503,267.7131541065697,62.23307701666752
429,-13.765016673039675,-231.03108449104622,-134.4144652858879,-41.30699975056763,34.178155550231864,26.929689923975587,267.6524447827408,64.97484860451259
430,-13.753606389459971,-230.9191390324946,-134.46776209630056,-47.29115222372335,34.13124128884066,27.046178591163297,267.5836256803304,68.05795595446519
431,-13.73588703237457,-230.7945326557276,-134.5249522955307,-53.36044026031099,34.22553466091175,27.135009340724956,267.505520590833,71.48299031607445
432,-13.713128032045946,-230.65606166238774,-134.58625907697893,-59.49972443211152,34.46281362176407,27.200445605766582,267.41723984429797,75.24700973772822
433,-13.686621186602236,-230.50289160654924,-134.65180279186174,-65.69594782712042,34.842477024846126,27.247091672883084,267.3181666526908,79.34365185841457
434,-13.65765196835726,-230.33453118863287,-134.72160772491816,-71.93802641825927,35.36163512989722,27.279672074373746,267.2079370803051,83.76332963055954
435,-13.627473992569989,-230.15079863092635,-134.79561362064177,-78.2167382312471,36.01524174566573,27.302807405320902,267.08641603915044,88.49350800505096
436,-13.597287479948813,-229.95178314438982,-134.87369210919925,-84.52462348754034,36.796260209036355,27.32079884770632,266.9536716640949,93.51905682853867
437,-13.568222124510942,-229.73780402300454,-134.9556678236109,-90.85590427141253,37.69585496942237,27.337433757856903,266.809950155883,98.82267203322753
438,-13.541324255823461,-229.50936974482886,-135.04134362767616,-97.20642812147541,38.703600669729724,27.355823902027065,266.65565282923615,104.38535389670324
439,-13.517547634721206,-229.26713927830528,-135.13052893150947,-103.57363573424489,39.80770117547637,27.378286346841744,266.4913166949763,110.18692803620087
440,-13.49774679447881,-229.01188752176446,-135.2230695274544,-109.95654910447352,40.99521191467856,27.4062747288561,266.3175993742804,116.20659220774503
441,-13.48267168337874,-228.74447630923777,-135.31887689401285,-116.35577324742385,42.25226010439754,27.440365803302967,266.13526846501196,122.42347019740848
442,-13.472962530397362,-228.46583161663725,-135.4179547969607,-122.77350237968982,43.56425891072434,27.48030301777861,265.94519474676446,128.8171533250497
443,-13.469144273009874,-228.1769266308268,-135.52042140792915,-129.2135202075889,44.91611321977469,27.525095579952318,265.7483480042738,135.36821042180074
444,-13.471620388582805,-227.8787695714637,-135.62652585258795,-135.68118386881483,46.292416303815216,27.57316827307301,265.54579396915693,142.05864859924128
445,-13.480666375698501,-227.57239491893483,-135.73665877398133,-142.1833821490341,47.67763802578325,27.62255431138158,265.3386910429661,148.8723096685918
446,-13.496423348748683,-227.25885696719794,-135.85135702368405,-148.72846078987465,49.0563061709657,27.67112101334843,265.1282859718332,155.79519057732819
447,-13.51889226992291,-226.93922502668346,-135.97130295527302,-155.3261107060917,50.413182942390556,27.716816150986176,264.91590817805695,162.8156803867933
448,-13.547929348010888,-226.61457983811582,-136.09731889847316,-161.98721813197906,51.73343855470799,27.757921635299056,264.70296270827475,169.9247105350309
449,-13.58324318384197,-226.2860107835751,-136.23035720133322,-168.72367836051902,53.002823186008655,27.793300891525636,264.4909216835607,177.11581870432107
450,-13.62439433964038,-225.954613424146,-136.37148591382868,-175.54817620467298,54.20783736676099,27.822626985654345,264.2813139311734,184.38512898403482
451,-13.670798010305107,-225.621486866773,-136.52186997107057,-182.47393641939112,55.335899406608505,27.846580151285274,264.0757123437854,191.73125203554147
452,-13.72173024521196,-225.28773047423175,-136.68274770379816,-189.5144464234611,56.37550699846935,27.86700540352839,263.8757184946837,199.15510895151542
453,-13.7763377764506,-224.9544394181516,-136.85540263033855,-196.68315240649218,57.31638901290161,27.887022920099877,263.6829440718051,206.65968206292246
454,-13.833651150010587,-224.6226985147682,-137.0411306719164,-203.993128881486,58.149642894271665,27.91108553399493,263.49898872118035,214.2496956312651
455,-13.892600659387602,-224.2935737066351,-137.2412030490487,-211.45672126405526,58.86785301070485,27.94497901278115,263.32541387416285,221.93122947692407
456,-13.952034559455095,-223.96810045523716,-137.4568251229433,-219.08516129120093,59.4651857042812,27.99576192705414,263.16371204950605,229.7112693002168
457,-14.010739124661365,-223.64726819356443,-137.68909148066237,-226.88815620974492,59.9374575215472,28.0716429332017,263.01527104365334,237.59719891194425
458,-14.067460187990747,-223.33199996256894,-137.93893779655474,-234.87345483045073,60.28217405523775,28.181794261360672,262.88133252524847,245.59624194773468
459,-14.120925775603126,-223.02312653781536,-138.20709044591206,-243.04639682619967,60.49853789023715,28.336101168909654,262.7629449337364,253.7148639550364
460,-14.169869389466342,-222.72135471763946,-138.49401535726375,-251.40945598537226,60.58742528128565,28.54484816865777,262.66091115414423,261.95814996718315
461,-14.21305350171825,-222.4272298722769,-138.79986801673664,-259.9617932672687,60.55133242705932,28.818344044622876,262.57573202647865,270.3291776144077
462,-14.249292947490261,-222.1410932867219,-139.12444680427222,-268.69884092827994,60.39429355564704,29.166489172732803,262.50754726078304,278.8284110112117
463,-14.277478084256956,-221.86303529412498,-139.46715192569985,-277.61194386500046,60.12177438153265,29.59829074358283,262.45607577523873,287.4531453300931
464,-14.296597765320795,-221.59284571080954,-139.8269521188834,-286.6880875984777,59.74054557082427,30.121334423707843,262.4205578741679,296.19703510171513
465,-14.305762300487904,-221.32996364861143,-140.20236109355258,-295.90974296094794,59.258541363222285,30.7412248665295,262.3997020518041,305.0497398297515
466,-14.304226559671932,-221.07342939378876,-140.5914253664357,-305.25485487559644,58.68470827475422,31.46101203681893,262.3916395683326,313.99671777809056
467,-14.291413140066064,-220.82184162767794,-140.99172484874396,-314.6969967500613,58.02884793327802,32.28062492491001,262.3938902668097,323.01919283550586
468,-14.26693511511881,-220.5733236490218,-141.40038730070972,-324.20570396943816,57.30145699796686,33.19633800138096,262.4033432751918,332.0943111697578
469,-14.23061748091271,-220.32550230785952,-141.81411759823916,-333.7469913050318,56.51356641225258,34.20029787061649,262.4162561680279,341.1954954702339
470,-14.182516174137032,-220.07550309884675,-142.22924259742578,-343.2840509719667,55.676582386373966,35.28013774323949,262.4282758423503,350.2929962084153
471,-14.122933520190635,-219.8199644245331,-142.64177213542118,-352.7781209726193,54.80213237684704,36.4187059328531,262.43448385886063,359.354631952301
472,-14.052429128433815,-219.5550735520764,-143.0474762870257,-362.1895069796743,53.90192024609602,37.593932160665275,262.42946837110856,368.3467040452155
473,-13.971825466436607,-219.27662627211862,-143.44197836088938,-371.4787348719664,52.98759498723982,38.77885229843563,262.40742400020815,377.23506435405983
474,-13.882207526392893,-218.98011164025112,-143.8208622405013,-380.6078048048732,52.07063654000673,39.94180822335124,262.3622800188668,385.98630793525916
475,-13.78491612536483,-218.66082232415351,-144.17979154837096,-389.5415112854197,51.162260450505414,41.04683452747467,262.28785588504064,394.5690553010942
476,-13.681534484257659,-218.31398993053998,-144.5146368323239,-398.2487873234194,50.27334082075334,42.054237841085666,262.1780415131955,402.95528175530006
477,-13.573867859208681,-217.93494324334813,-144.82160576271613,-406.7040248103206,49.41434855624217,42.92136752402839,262.02699781272383,411.1216445353682
478,-13.463916193504149,-217.51928560888945,-145.09737043291858,-414.8883184570379,48.595299764618545,43.603568562039676,261.82937112985536,419.05075292638617
479,-13.353840007768218,-217.0630858916024,-145.33918542726195,-422.7905775219935,47.82570770951855,44.05529893026101,261.5805135013497,426.7323227749863
480,-13.245920009054498,-216.563075762057,-145.54499042122774,-430.4084487542843,47.114531287043626,44.23138496702042,261.2766993199484,434.16415555585957
481,-13.142511138886462,-216.01684484539484,-145.71349172129726,-437.7489960322013,46.47011359694122,44.08838018288127,260.91532836142494,441.3528839229395
482,-13.0459919543547,-215.42302460248632,-145.84421829066488,-444.8290876276474,45.90010554203835,43.585986170260114,260.4951052275391,448.31443104128243
483,-12.958710315651517,-214.78145176601728,-145.93754929408524,-451.6754511696218,45.41137106701624,42.688489413226996,260.0161860560985,455.0741402142782
484,-12.882926385639145,-214.093302668267,-145.99471184503614,-458.32436904769287,45.009872316223436,41.36616505667701,259.480284701093,461.66654420406195
485,-12.820754029114608,-213.36119074928618,-146.01774935008376,-464.82100256006,44.70053462795634,39.59659805959043,258.8907323349831,468.13475955967976
486,-12.774101859677815,-212.58922077910685,-146.0094625709313,-471.2183506949087,44.48709310019622,37.36587345612355,258.2524864273143,474.5295093511052
487,-12.74461536998162,-211.78299485209533,-145.97332713659205,-477.57586803510304,44.37192462565915,34.66959044620798,257.5720872233457,480.9077969479423
488,-12.733621768816514,-210.9495670694083,-145.91339251869084,-483.95778468685916,44.35587169611906,31.513659505887077,256.8575621032711,487.3312726343423
489,-12.74207933385001,-210.0973459267668,-145.83416825329823,-490.4311879458108,44.43806656804526,27.914847458878942,256.1182803722972,493.8643524499162
490,-12.770533210221096,-209.23594555868513,-145.74050345418334,-497.0639392567032,44.615766188027656,23.901042335635513,255.3647629387163,500.5721632583243
491,-12.819079559696506,-208.37598902941713,-145.63746557829379,-503.92250980811855,44.88420939152859,19.51121772105983,254.60845296313684,507.51839853724505
492,-12.887339810920087,-207.52886880172045,-145.53022407909737,-511.06982313499117,45.23650833731423,14.79508497293949,253.86145496221556,514.7631750280034
493,-12.974446581645509,-206.7064713475215,-145.42394394186934,-518.5631931163263,45.66358609517153,9.812430943905017,253.13625097806582,522.3609808920465
494,-13.079042690244624,-205.92087449122363,-145.32369305265254,-526.4524409324121,46.15417190024511,4.6321484166275315,252.4454031533969,530.35880154455
495,-13.199294475544074,-205.18402734577188,-145.2343659850683,-534.7782654193417,46.69486475775225,-0.6690238534820471,251.80125229697111,538.7945003684772
496,-13.33292027027741,-204.50742349237623,-145.1606252790434,-543.5709285699256,47.27027456656086,-6.008025026839875,251.21562178086705,547.6955187519345
497,-13.477234264242332,-203.9017783222866,-145.10685981060732,-552.849302512619,47.863247441259944,-11.29722435983281,250.69953544186149,557.0779441365045
498,-13.629205230522947,-203.37672122619077,-145.0771585351099,-562.6203070428621,48.455178325218476,-16.44635754921639,250.2629571582278,566.9459768980339
499,-13.78552881921875,-202.94051264200868,-145.07529676616178,-572.8787486451947,49.02640940279512,-21.364595606079625,249.91455851961612,577.2918078965112
500,-13.942711446157718,-202.599794912157,-145.10473124414764,-583.6075539384375,49.55670745598528,-25.962688351444736,249.66151956546634,588.0958994952973
501,-14.097163266677558,-202.3593844878278,-145.16859969843296,-594.7783735475507,50.02580738848819,-30.155119837271325,249.50936605578565,599.3276447820828
502,-14.245297368109215,-202.2221113133395,-145.269720642933,-606.3525173860316,50.41400295359972,-33.862210005312264,249.4618453467469,610.9463635438251
503,-14.383632140463929,-202.1887094190274,-145.4105897463341,-618.2821699934836,50.70275983292261,-37.01209607828902,249.52084181559792,622.9025801395132
504,-14.508893722070882,-202.25776108344456,-145.59336994752204,-630.5118255655074,50.87532146178866,-39.54252887911911,249.68633190153093,635.1395185636322
505,-14.618115385610588,-202.4256954652345,-145.819873285024,-642.9798769309167,50.91727524632782,-41.402423711344625,249.95637810114889,647.5947441284392
506,-14.708730703042804,-202.68684126526077,-146.09153328622835,-655.6202908376758,50.81704663946498,-42.55311266674158,250.3271606739229,660.2018792834863
507,-14.778657308951546,-203.03353172799197,-146.409367972321,-668.3643031932434,50.566291103635415,-42.969255139833024,250.7930455006712,672.8923228752847
508,-14.8263680918256,-203.4562591738317,-146.77393512294964,-681.1420721372139,50.1601591279458,-42.63937558919937,251.34668656234834,685.5969073782339
509,-14.850946770080435,-203.94387524194644,-147.18528317496236,-693.8842338012973,49.59741684203471,-41.566011634986765,251.97916171001313,698.2474370109449
510,-14.852125194978402,-204.48383200231072,-147.64290263499507,-706.5233149313275,48.880413899030785,-39.76547071314862,252.68014047883872,710.7780606511888
511,-14.830300413347828,-205.06245801548687,-148.14568384282842,-718.9949675160111,48.01490054057365,-37.26720891537942,253.4380824298268,723.126446211689
512,-14.786530377149386,-205.66526238203724,-148.69188716522254,-731.2390023135873,47.00970628487177,-34.11286042189696,254.24046385959636,735.2347365642512
513,-14.72250801573265,-206.27725899049454,-149.27913121977932,-743.200209756772,45.8763025451363,-30.354959100222654,255.07402981558712,747.0502800681616
514,-14.640514197164515,-206.88330257422717,-149.90440358754915,-754.8289672175026,44.62827969344731,-26.055404492904906,255.92506725533363,758.5261401797223
515,-14.543351086757657,-207.4684277384185,-150.56409674459334,-766.0816402427727,43.28077470577466,-21.28373192448397,256.7796938827699,769.6213976271426
516,-14.434258641092441,-208.0181818259973,-151.25406975612933,-776.9207917103101,41.84988787172632,-16.11525054500459,257.62415577011785,780.301264817549
517,-14.316818243983516,-208.51894250538027,-151.96973391578643,-787.3152168700361,40.3521258277855,-10.629113788350605,258.4451256025208,790.5370355599389
518,-14.194848434127561,-208.95821142091046,-152.7061583925636,-797.2398241175267,38.80390349447011,-4.906384173087516,259.2299925909079,800.3058941540634
519,-14.072298002285823,-209.32487615216718,-153.4581904127341,-806.6753813933373,37.2211298858998,0.9718509214832112,259.96713496883507,809.5906068547891
520,-13.953141364858327,-209.60943394524847,-154.22058363761246,-815.6081468664681,35.618893114355174,6.92626320334448,260.64616645632185,818.3791163454059
521,-13.841280197897309,-209.8041720402648,-154.9881280852565,-824.0294009132384,34.011249405850926,12.88092639297572,261.2581489460441,826.6640571013047
522,-13.740454135547365,-209.90330083395403,-155.75577510496154,-831.934895306687,32.41111079723774,18.764786411904183,261.7957648440472,834.4422074139623
523,-13.654162200061355,-209.9030375347527,-156.51875158759617,-839.3242355865788,30.830217457776538,24.512936079181706,262.25344397992683,841.7138930065057
524,-13.585595719656988,-209.80163935092574,-157.27265875643334,-846.2002137323268,29.279174063657848,30.067680053648488,262.62744175264027,848.482357573553
525,-13.537582826409986,-209.59938663653867,-158.0135523181968,-852.5681099657916,27.767525848107407,35.37938343133018,262.9158670997251,854.7531166867695
526,-13.512544165315902,-209.2985178345435,-158.73800221368168,-858.4349841807569,26.303848998790244,40.4071038795769,263.1186608433778,860.5333127362703
527,-13.512459211669638,-208.90311936845976,-159.44313157097596,-863.8089787575572,24.895831766779146,45.11901218869906,263.23752680106685,865.8310895422243
528,-13.538842643756576,-208.41897464886657,-160.1266357117019,-868.6986551183817,23.550326512895868,49.49260963532941,263.275819586966,870.6550056994116
529,-13.592730499773074,-207.85337704185312,-160.78678316267792,-873.1123860427865,22.273358350421173,53.51475281064737,263.23839422533297,875.0135053263579
530,-13.674676170891386,-207.21491213467476,-161.42240148639715,-877.0578242892617,21.070082444456634,57.18149787913377,263.13142359384216,878.9144634586856
531,-13.784756413499865,-206.51321509364377,-162.0328512662964,-880.5414654412568,19.94468889270564,60.49777688740086,262.9621903743535,882.3648208228127
532,-13.922587342957154,-205.75870940011296,-162.617991757217,-883.5683192811933,18.900261093073432,63.476919044354744,262.7388606433125,885.370319312743
533,-14.087349797346976,-204.96233369946603,-163.17814154486,-886.141699664575,17.938600318668787,66.14003017560002,262.4702464289275,887.9353454428606
534,-14.277822721018351,-204.13526376310617,-163.71403701088127,-888.2631381541576,17.06003544866085,68.5152440737645,262.16556436892256,890.0628846948898
535,-14.492422599563929,-203.28863657386572,-164.22679053778498,-889.9324220045677,16.26324177628267,70.63686035710516,261.8341970185618,891.7545854252693
536,-14.729246668737325,-202.43328341200353,-164.71784945335355,-891.1477529911664,15.545095717068966,72.54438479720596,261.4854626292021,893.0109273666365
537,-14.986117615529064,-201.57947871519588,-165.18895593950467,-891.9060205545761,14.900592325202158,74.2814899271238,261.1283986221496,893.831487241864
538,-15.260627693817288,-200.73671139232627,-165.6421075977918,-892.2031809388517,14.322849397897066,75.8949159558148,260.7715635560908,894.2152927627142
539,-15.550180523309193,-199.91348495353645,-166.07951807890558,-892.0347330263616,13.80321581832824,77.43333421568649,260.42286195183055,894.1612558816568
540,-15.852029298543522,-199.1171520738708,-166.50357717222082,-891.3962805925623,13.331493475560436,78.94619711720289,260.0893957568005,893.6686757555594
541,-16.163310664685255,-198.3537880287548,-166.91681005494078,-890.2841689230935,12.896272708632852,80.48259955505186,259.7773455278122,892.737800639417
542,-16.481074060620273,-197.62810595222354,-167.32183598124385,-888.6961807847372,12.485371789565816,82.09017668393167,259.4918836567046,891.3704354565469
543,-16.802306849457764,-196.9434151958521,-167.72132737339058,-886.6322727491017,12.08636235282121,83.81406179220593,259.23712113968105,889.5705781859214
544,-17.123956053270625,-196.30162229080744,-168.1179708299516,-884.0953282177186,11.687155651782541,85.69592561705952,259.0160884132573,887.3450638349507
545,-17.442947967453094,-195.70327222403748,-168.51443183477713,-881.0918986369,11.276619724999613,87.77311503954671,258.83074961091364,884.7041900814888
546,-17.756207280325164,-195.14762604966532,-168.9133248782442,-877.632899894585,10.845195386370005,90.07790500236653,258.6820482817395,881.6622942718894
547,-18.060677509813736,-194.63276942250263,-169.3171903226761,-873.7342274955994,10.385479394773535,92.63687313285155,258.56998128903706,878.2382481217155
548,-18.353344605760356,-194.15574564823362,-169.72847876074448,-869.4172525038709,9.892745781332376,95.47040242255973,258.493696481402,874.455834903918
549,-18.63126547230948,-193.71270642701535,-170.14954294108472,-864.7091608842668,9.365380518119485,98.59231386235466,258.4516089746316,870.343974615768
550,-18.891602893499606,-193.29907358920815,-170.58263664787626,-859.6431020751422,8.805210004464556,102.00962836721983,258.4415305203381,865.9367658966544
551,-19.13166783367274,-192.90970561269336,-171.02991929103686,-854.2581185728742,8.217709911859345,105.72245557248355,258.46080637720195,861.2733195020967
552,-19.348969345886694,-192.5390634140569,-171.49346446326484,-848.5988369683539,7.6120874959967235,109.72400598275436,258.50645427160293,856.3973668567339
553,-19.541271463234917,-192.18137074352646,-171.97527040907534,-842.7149117931565,7.001237130782578,114.00072245796764,258.5753004228589,851.3566381463289
554,-19.706655610360006,-191.83076543975324,-172.4772702747639,-836.6602258755414,6.401574892893139,118.53252714832765,258.664108218599,846.2020167227581
555,-19.843586348421848,-191.4814387739499,-173.001340174825,-830.4918636907163,5.832762768671235,123.29318064607337,258.76969593794195,840.986489284947
556,-19.95097764128005,-191.12776109860553,-173.54930346508414,-824.26888658129,5.3173358418817696,128.25075096220124,258.88904087084796,835.7639234875021
557,-20.02825622760337,-190.76439293261436,-174.1229300575553,-818.0509501550621,4.8802463926865425,133.36819036032983,259.0193681410832,830.587715683781
558,-20.075418148349698,-190.38638131376916,-174.72393003913845,-811.896814174472,4.54833744141817,138.6040173743191,259.1582233300357,825.5093608884575
559,-20.09307426498205,-189.98924163349278,-175.35394120591053,-805.8628032252293,4.349755615331627,143.91309895478668,259.30352852639015,820.577004076805
560,-20.08248096469772,-189.56902528310067,-176.0145104306416,-800.0012816120199,4.313310258803455,149.24752353498783,259.4536217691234,815.8340358433967
561,-20.045553154770005,-189.12237338498545,-176.7070691057611,-794.3592075789423,4.467783397485414,154.5575503308064,259.6072801221815,811.3177956004012
562,-19.984857784667447,-188.64655669655588,-177.4329032502686,-788.9768297592965,4.841194303558608,159.79261424008232,259.7637268255945,807.0584417159592
563,-19.903587199289934,-188.13950147686262,-178.19311920552482,-783.8865829093136,5.460023576376746,164.90236020744993,259.92262307609394,803.0780406333629
564,-19.805512566552704,-187.59980077030687,-178.98860617472332,-779.1122311390216,6.348405108755058,169.83767662879075,260.0840450526399,799.3899169012077
565,-19.694918544482444,-187.02671030436144,-179.81999721922972,-774.6682958795265,7.527299815986275,174.55169485459962,260.24844693554587,795.9982941887596
566,-19.576521270102674,-186.4201281105304,-180.68763071266386,-770.5597934518386,9.013671770987614,179.00072156462585,260.4166109400125,792.8982446192382
567,-19.455372500005616,-185.7805571228744,-181.59151460472702,-766.782293958531,10.819694272291056,183.14507302110846,260.58958578232676,790.0759508456509
568,-19.336753093049214,-185.10905042635102,-182.5312960819162,-763.3223001029639,12.952019210283241,186.94978499434666,260.76861547652237,787.5092730350729
569,-19.226058877055557,-184.4071394802624,-183.50623928414402,-760.15793243597,15.411146917749681,190.38517916230577,260.95506085232756,785.168602225157
570,-19.128681336580126,-183.6767464396261,-184.5152136034043,-757.2598972500008,18.190934755240562,193.42727526159103,261.15031660218796,783.0179729962364
571,-19.049884744526004,-182.9200826426867,-185.5566947203249,-754.5927051324167,21.278280527252832,196.05804709592172,261.35572700302885,781.0164020339492
572,-18.994680705040302,-182.13953650709703,-186.62877995750722,-752.116101646376,24.653011351668948,198.2655285047652,261.5725038217918,779.1194142489019
573,-18.967700886334686,-181.33755541234808,-187.72921881428945,-749.7866659719099,28.288000108187994,200.0437816613444,261.8016503234132,777.2807137055221
574,-18.97306907138677,-180.51652737719982,-188.8554587186349,-747.5595279980473,32.1495206819799,201.39274413654047,262.0438955879739,775.4539519695008
575,-19.01427438339411,-179.67866921158307,-190.0047050761305,-745.3901491725628,36.19784071787775,202.31797288573333,262.2996433092387,773.594541427901
576,-19.09404843067019,-178.8259281635823,-191.17399367577573,-743.2361076790152,40.38803750630825,202.8303027347372,262.5689388030626,771.6614559460645
577,-19.214250000344627,-177.9599037222022,-192.36027261253594,-741.0588246756007,44.67101008886248,202.94543428593505,262.8514571093388,769.6189563950553
578,-19.375761717381636,-177.08179506073787,-193.56049030690173,-738.8251658719644,48.99464991253091,202.68346190524554,263.1465138892354,767.438174711992
579,-19.57840372504604,-176.19237773348652,-194.771685986321,-736.5088521649596,53.30512448474459,202.06834734876725,263.4530994168271,765.0984879986968
580,-19.820869856055904,-175.29201101305344,-195.99107898911228,-734.0916149972159,57.548224295622326,201.12733969938765,263.76993446199185,762.5886146427389
581,-20.100691792624822,-174.38067504532285,-197.21615322673114,-731.5640371225463,61.67072308980182,199.89033880284245,264.09554533075715,759.9073685039828
582,-20.41423623727119,-173.45803504449705,-198.44473295287128,-728.9260279714127,65.62170503324272,198.38919832136364,264.4283538189074,757.0640155495764
583,-20.756739156375676,-172.52352813829268,-199.67504569692753,-726.1868948625056,69.35381839785585,196.65696632857896,264.766776448594,754.0781900960392
584,-21.12237980493275,-171.57646721946108,-200.90576806155644,-723.3649864726417,72.82442262304087,194.7270658924064,265.1093262894501,750.9793444906194
585,-21.504395589045053,-170.61615529795748,-202.1360503294765,-720.4869024057112,75.99660255735584,192.6324247376175,265.4547101455403,747.8057255476756
586,-21.8952370073525,-169.64200338413562,-203.36551668078747,-717.5862813986855,78.84002922874754,190.40457108897814,265.80191408753547,744.602892090204
587,-22.28676006308072,-168.65364476877565,-204.59423942355406,-714.7021998865637,81.33165001961237,188.07272139530247,266.15027127527054,741.4218095054931
588,-22.67045167286137,-167.65103863317375,-205.82268792945723,-711.8772318845786,83.45619259000449,185.66289396734797,266.49950766271274,738.3165786455487
589,-23.037681643333507,-166.6345563784922,-207.05165553524844,-709.1552400443769,85.2064669266548,183.1970895265795,266.8497632837841,735.3418770751679
590,-23.379972746034632,-165.60504514430232,-208.2821698970836,-706.5789854245963,86.58344974867474,180.69258389843714,267.2015890518524,732.5502095308668
591,-23.689278549745858,-164.56386467196273,-209.51539366531185,-704.1876583896108,87.59613674352568,178.16137828646342,267.5559209846157,729.9890798317492
592,-23.95825741182584,-163.51289566558717,-210.75252268176064,-702.0144431063786,88.26115216223502,175.6098480141753,267.9140351807582,727.6982064813112
593,-24.18053068814457,-162.45451981665641,-211.99468833100934,-700.0842315510139,88.60211296831879,173.0386215458714,268.27748766768013,725.706907292896
594,-24.35091375714627,-161.39157351149737,-213.24286960129606,-698.4115987344973,88.64875584636096,170.44270902190263,268.648043604212,724.0317738200533
595,-24.46560969403867,-160.32727877618564,-214.49781918324842,-696.9991389919718,88.43584879200633,167.81188484047067,269.0276004231204,722.6747442967398
596,-24.522357274681244,-159.26515606957975,-215.7600066188837,-695.8362445314289,88.00192294903302,165.13131337128098,269.418109281543,721.6216650212763
597,-24.520527289202825,-158.2089240927105,-217.02958001618325,-694.8983835042445,87.38787295366494,162.38239200112645,269.8214985574361,720.841406009211
598,-24.46116359794098,-157.1623920080544,-218.30634615500333,-694.1469075128691,86.63548377837981,159.54377258970555,270.2396021492317,720.2855690539167
599,-24.346967662087188,-156.12934951173762,-219.5897670316593,-693.5293897349029,85.78594796791855,156.59251208320524,270.6740941510112,719.8887970742845
600,-24.18222730395443,-155.11346006719134,-220.8789692580574,-692.9804666910626,84.87843869321841,153.50529622740316,271.12643026201744,719.5696648106253
601,-23.972692240585747,-154.11816220406214,-222.17276166945896,-692.4231309363305,83.94880098184674,150.25967735063927,271.59779534689784,719.2321044057487
602,-23.725400592980428,-153.1465830781847,-223.46965636971166,-691.7704002820667,83.02841594361254,146.8352678753561,272.0890561852365,718.7672968336219
603,-23.44846216428466,-152.20146752510237,-224.76788920752725,-690.927273083945,82.14328144114539,143.2148349879289,272.60071863830467,718.0559429676945
604,-23.150805773804358,-151.28512474411636,-226.06543699300985,-689.7928699152756,81.31333870650695,139.3852479621328,273.1328890162647,716.9708174894105
605,-22.841899250376702,-150.39939365287248,-227.36003037977358,-688.2626603554472,80.55205961873625,135.33823723680234,273.6852402189893,715.379505540239
606,-22.53145177754882,-149.5456268761674,-228.64916307547327,-686.230679690441,79.86629552635809,131.0709329925501,274.2569841125996,713.1472260707693
607,-22.22910911086655,-148.72469226275035,-229.93009956052254,-683.5916532448147,79.25637684570529,126.58616048972728,274.8468522983597,710.1396565265362
608,-21.944152672194697,-147.93698991164865,-231.19988439707743,-680.2429642636396,78.71644352674853,121.89247988830417,275.45308767781023,706.2256893706651
609,-21.685213544939703,-147.18248216352288,-232.45535636233936,-676.0864225082438,78.23497956316872,117.00396973964712,276.0734490182882,701.2800698498844
610,-21.460011852257608,-146.46073387561205,-233.69317020739922,-671.0298124311985,77.7955196577791,111.93976560531806,276.7052302080316,695.1858838273636
611,-21.275130855145576,-145.7709603312296,-234.90982810803578,-664.9882195144874,77.37749275434304,106.72337766878742,277.3452951749775,687.8368819780217
612,-21.135833383333317,-145.1120802005215,-236.10172210189472,-657.8851492291134,76.95716526001978,101.38182279543699,277.99012867995066,679.1396402269869
613,-21.045926042419538,-144.48277116632988,-237.26518811463714,-649.6534639112773,76.50864610484604,95.94461624383803,278.6359025446521,669.0155647139807
614,-21.007674259252507,-143.88152632045896,-238.3965714460823,-640.2361680706127,76.00491602040222,90.44267529933683,279.2785563392889,657.4027521547719
615,-21.02176890644782,-143.30671018887458,-239.4923026695467,-629.5870723425494,75.41884450629306,84.9071909920778,279.9138910085757,644.2577133883158
616,-21.087343227115873,-142.7566139976118,-240.5489819029355,-617.6713612620852,74.7241599022743,79.36852464387991,280.53767332382154,629.5569600661386
617,-21.202037178240637,-142.22951030667502,-241.56346860401624,-604.4660815113904,73.89634058162964,73.85518336213663,281.1457485169954,613.2984432462616
618,-21.36210508033875,-141.7237074138252,-242.53297355744974,-589.9605565751089,72.91339822331291,68.39292291352812,281.73415808896215,595.5028195469743
619,-21.562561500463953,-141.2376040849252,-243.4551494826243,-574.1567219898681,71.75652746656975,63.004017808283045,282.29925958494636,576.2145068667211
620,-21.797359562915744,-140.76974517843237,-244.32817652535175,-557.069363708491,70.41060055768203,57.70672718707261,282.83784493716394,555.5024788740188
621,-22.05959539008019,-140.31887837364047,-245.15083868192053,-538.7262316863282,68.86449157718522,52.51497186793212,283.34725357418046,533.4607369968194
622,-22.34173211392871,-139.8840113286646,-245.9225869914981,-519.1679929081806,67.11122288025648,47.438223799687215,283.82547585468376,510.20839202251847
623,-22.635836772523117,-139.4644673673228,-246.64358532846623,-498.4479840725555,65.14793617591621,42.481595678455584,284.2712417620254,485.88928613590735
624,-22.933823286523758,-139.0599366556708,-247.31473504401927,-476.63172537090395,62.975701138329356,37.64610710096759,284.68408958443666,460.6710915493779
625,-23.22769456452046,-138.67051912132527,-247.9376756003046,-453.7961641720572,60.599184239358124,32.92909533606935,285.06440971718405,434.74383458934807
626,-23.509776698380982,-138.29675517550479,-248.51475954252805,-430.02863095639833,58.02620862796328,28.324733923037197,285.4134596583381,408.31781406797325
627,-23.77293826018499,-137.9396405600274,-249.04900140397808,-405.4255084060177,55.2672419304224,23.824620786425438,285.7333474793033,381.6209087849739
628,-24.010787908018678,-137.60062230200464,-249.54400127919104,-380.0906360851918,52.33485267548877,19.41839914322482,286.0269823708741,354.89529895630045
629,-24.217843870984275,-137.28157378678094,-250.0038448390871,-354.1334950219741,49.24317748465536,15.094378670854894,286.297992289078,328.39365752249273
630,-24.38966951561398,-136.98474832517192,-250.43298258947593,-327.66723591268357,46.00743983666815,10.840130373540124,286.55061032620415,302.37489662644685
631,-24.522970226962393,-136.71271220243995,-250.83609224358912,-300.8066291276995,42.64355663468527,6.643035297860776,286.78953322520744,277.0995792946665
632,-24.615648352250993,-136.46825983184354,-251.21792913861043,-273.6660226477107,39.16786062809512,2.4907737641737433,287.0197572964456,252.82512464902905
633,-24.666814900976114,-136.25431501798624,-251.58317056796724,-246.3573951031369,35.59695513603271,-1.628252490838971,287.24639865142655,229.80094612411102
634,-24.676758847273693,-136.0738233133112,-251.93626063681128,-218.9885855554257,31.947703608661794,-5.724568107717369,287.47450596575567,208.26366621719265
635,-24.6468770063269,-135.92964106555706,-252.28126268881914,-191.66177006992316,28.23734245112324,-9.807340808805241,287.70887484240274,188.43254847682815
636,-24.579569481778805,-135.8244271445017,-252.62172634137409,-164.47223820028248,24.48369341464685,-13.884162879082933,287.9538731916655,170.5052781120319
637,-24.47810754413673,-135.76054358704013,-252.96057551688006,-137.50750159252976,20.70544276779648,-17.96089110877173,288.2132867506647,154.6542077492897
638,-24.346482249737733,-135.7399713758349,-253.30002254420825,-110.84674419667098,16.922448112551145,-22.04153821812774,288.4901928253628,141.02316625618013
639,-24.189242823556203,-135.7642469310191,-253.64151166188952,-84.5606014501246,13.156029696451554,-26.128210033014224,288.7868685691543,129.72490824142002
640,-24.011333698585787,-135.83442345993822,-253.9856933932042,-58.71123604364719,9.429201958356751,-30.221085150918473,289.10473778532514,120.83926131324056
641,-23.817938289506113,-135.95105933208245,-254.33242947647403,-33.352661444017514,5.766804016323739,-34.31843589063692,289.44435766041937,114.41200809207072
642,-23.614336296069656,-136.1142335932799,-254.6808264806523,-8.531251976778812,2.195495417889065,-38.41668968094739,289.80544438498805,110.45452066233763
643,-23.40577968728925,-136.32358688549135,-255.02929511055262,15.713628931863541,-1.2564050186882796,-42.51052872444578,290.1869346146709,108.94414696804797
644,-23.19739056586906,-136.5783844644275,-255.3756315997592,39.34895159237537,-4.559245710323321,-46.59302362735656,290.587078288382,109.8253316689947
645,-22.994082013745174,-136.8775967570757,-255.7171174031265,62.347357184081304,-7.6825284374582985,-50.655794468612044,291.0035573986346,113.01143751522942
646,-22.800501056125885,-137.21999205926215,-256.0506334092368,84.6865603313113,-10.595535159660846,-54.689190786522744,291.4336247609156,118.38721616464065
647,-22.620991288987554,-137.6042355812015,-256.3727848609449,106.34885223322856,-13.268065283020986,-58.682480269208064,291.87425648270596,125.81185871790476
648,-22.45957153334373,-138.02898905720303,-256.6800330059894,127.32072215983489,-15.671244558142776,-62.62403471823505,292.32231158644845,135.12253666851217
649,-22.31992603040783,-138.49300547171907,-256.96882931932254,147.59259917348828,-17.778361646317478,-66.50150146153821,292.7746921623824,146.1383258409067
650,-22.205401178819205,-138.9952141309418,-257.2357481196168,167.15870322721614,-19.56568710353424,-70.3019492408531,293.22849768085655,158.66439243820366
651,-22.11900375979961,-139.5347923526267,-257.47761356929647,186.0169862322,-21.013231903366485,-74.011980023969,293.6811677252215,172.49631398837687
652,-22.06339609773652,-140.11122129867226,-257.69161729563325,204.16913921482828,-22.10540784888299,-77.61780229823152,294.1306082572384,187.4244094308819
653,-22.040884651229508,-140.72432463187093,-257.87542313767744,221.62064058511913,-22.8315592037663,-81.10526693361781,294.57529739748134,203.23796086727674
654,-22.05340002543667,-141.37428954611195,-258.0272558388169,238.38082187362895,-23.18634259247442,-84.45987299583747,295.0143675185274,219.72922282563368
655,-22.1024681741318,-142.0616702972174,-258.14597087834863,254.4629301965988,-23.16994002631844,-87.66675699328847,295.4476612040819,236.6971313630008
656,-22.1891743619595,-142.78737471499738,-258.23110300433365,269.88417044134025,-22.788097553181874,-90.71068395068512,295.87575927635856,253.95064326242726
657,-22.314122962530796,-143.55263437596392,-258.28289136267864,284.66571404921746,-22.051989518523268,-93.576061551885,296.2999796152919,271.31165352674464
658,-22.477397120331435,-144.35895924503595,-258.30227954781583,298.83266471884355,-20.97791584769692,-96.24699880657634,296.7223460230532,288.61745616745327
659,-22.678522663817667,-145.20807769814414,-258.29088967185936,312.41397399751224,-19.58684709038204,-98.70742805207517,297.14552715736136,305.7227281709357
660,-22.916440589119528,-146.10186289840408,-258.25097075798175,325.44230155554806,-17.903838993868266,-100.94130374206429,297.57274665614494,322.50102920067104
661,-23.18949208615191,-147.0422465264796,-258.1853232221098,337.95381619015984,-15.95734470363703,-102.93288391646033,298.0076668558058,338.84582015104263
662,-23.495419410923137,-148.03112094249883,-258.09720262363146,349.9879345995037,-13.778457802135932,-104.66709141920607,298.45424974740666,354.67101240669604
663,-23.831384802353757,-149.0702310648508,-257.9902070194435,361.58699598804196,-11.400122680676485,-106.12994303158533,298.91659985943846,369.91106697651026
664,-24.194008114772398,-150.16105763682046,-257.8681529243363,372.79587187244283,-8.856349645795625,-107.3090268714716,299.3987944372789,384.5206690090761
665,-24.579422130061882,-151.3046941537043,-257.7349448708185,383.66151224966103,-6.1814704381918135,-108.19400253605617,299.9047064800198,398.47400896294596
666,-24.983343048220437,-152.50172053581971,-257.5944429608492,394.2324315661665,-3.409465682321174,-108.77709503690991,300.4378259978186,411.76370710259687
667,-25.401152793150157,-153.75207755248107,-257.45033200028973,404.55814046395943,-0.5733897483841549,-109.05355276107535,301.0010845741595,424.3994229581589
668,-25.827989546080506,-155.0549468693948,-257.3059951748778,414.68853174879234,2.2950886958883743,-109.02204139917453,301.5966881979521,436.4061957026781
669,-26.25884309413303,-156.40864225632163,-257.16439488466636,424.6732311205177,5.1660198796497925,-108.68494971781502,302.2259633814623,447.82256480071317
670,-26.68865191378433,-157.81051782446912,-257.0279632137084,434.560924677711,8.01137699951121,-108.04858874127848,302.88922164287885,458.69852250420877
671,-27.11239929021412,-159.25689908522727,-256.8985044202383,444.3986759051276,10.805135547211508,-107.12327271901778,303.58564732645533,469.0933505990476
672,-27.525206200387863,-160.74304211260917,-256.7771116883773,454.2312447173231,13.523238723120013,-105.9232774930472,304.31321335972723,479.0733930992459
673,-27.92241917197185,-162.26312514114537,-256.66410015668146,464.1004201730424,16.143465109973217,-104.46667883967214,305.0686288762754,488.7098142778075
674,-28.299691820674294,-163.81027555214473,-256.5589579049145,474.04437680058453,18.64521878787272,-102.77507937728997,305.8473216419602,498.07638757041127
675,-28.653059152774752,-165.37663350291453,-256.4603160991129,484.0970623880292,21.009264553280897,-100.87323716892037,306.64345692378095,507.2473557895008
676,-28.979003901396222,-166.9534516389838,-256.365938912133,494.2876230577403,23.217431767203554,-98.78861192555877,307.4499929682053,516.295397278329
677,-29.27451412817275,-168.53122860698582,-256.27273330560615,504.63986989106957,25.252309700511823,-96.55084577824546,308.25877184720065,525.2897267084866
678,-29.5371311090659,-170.09987257384284,-256.1767783917361,515.1717905644526,27.096955413296833,-94.19119526019678,309.0606432473411,534.2943536775971
679,-29.76498619601446,-171.64888966407804,-256.073373852204,525.8951095440018,28.734632713930356,-91.74192993345193,309.84561780046334,543.3665174921184
680,-29.9568250150951,-173.16759114042665,-255.95710666639366,536.8149014138588,30.14859812451617,-89.23571155808669,310.60304569830345,552.5553128126045
681,-30.112017191263522,-174.64531234394613,-255.82193510376914,547.9292637781507,31.321947439252135,-86.70496629947174,311.32181558261897,561.9005182816783
682,-30.230549890326508,-176.07163600575686,-255.6612884873708,559.2290585205992,32.23753457109389,-84.18126152698639,311.99056807719023,571.4316386294541
683,-30.313003841658432,-177.43661260678198,-255.4681805900793,570.6977324242941,32.87797287080898,-81.69469849511556,312.5979178302452,581.1671695433561
684,-30.360511132750432,-178.73097091749665,-255.23533377444465,582.3112295837313,33.22572777719555,-79.27333273806623,313.13267760009546,591.1140931879611
685,-30.374694938994175,-179.94631253841055,-254.95531038656588,594.0380082698712,33.263308281897835,-76.9426353055724,313.58407786539965,601.2676102558493
686,-30.357592373828403,-181.07528507787288,-254.6206477379502,605.8391739358347,32.973562978452414,-74.7250097092132,313.94197582969764,611.611111761513
687,-30.31156266110951,-182.11172954759346,-254.22399331739712,617.6687381624594,32.34008408540011,-72.6393810863534,314.1970485533751,622.1163906358123
688,-30.239183763564263,-183.05079867931997,-253.75823742372006,629.474010874634,31.347719488568686,-70.70087501037447,314.34096610902947,632.7440897591472
689,-30.143141429936172,-183.88904419778189,-253.21664087879293,641.1961303567273,29.98318833088764,-68.92060307570561,314.36654187386625,643.4443795462565
690,-30.02611527230299,-184.62447257056718,-252.59295577766974,652.7707326406843,28.235789954888457,-67.305570516828,314.2678582322721,654.1578546949139
691,-29.890666842673582,-185.2565702145157,-251.88153748467923,664.1287589504867,26.098189303964134,-65.85871749817859,314.0403670490539,664.8166364285444
692,-29.739134721874738,-185.78630030934124,-251.07744640711888,675.1973972865433,23.567254702744144,-64.57910038581355,313.68096522716104,675.3456637234125
693,-29.573541425818874,-186.21607402798665,-250.17653847042527,685.9011519683539,20.64491688955759,-63.462212627007,313.1880463559438,685.6641546769705
694,-29.395516519248634,-186.54969906746706,-249.1755436302295,696.1630327849647,17.339011923056255,-62.50043738251417,312.56152980802113,695.6872171297266
695,-29.20623968845885,-186.79230799066522,-248.07213215996543,705.905852934935,13.664065803027363,-61.68361638874322,311.80286871131295,705.327585519393
696,-29.006406600770003,-186.9502683260511,-246.86496881018098,715.0536218245373,9.641975974570924,-60.99971224183213,310.9150381237497,714.4974583831784
697,-28.796219166282796,-187.0310758044039,-245.55375516728654,723.5330148533272,5.302544800115545,-60.4355349300394,309.90250451604516,723.1104077509079
698,-28.575400508460316,-187.04323159860417,-244.13926059715027,731.2748975208681,0.6838227640187035,-59.97749854089934,308.7711773342259,731.0833278575578
699,-28.343233824023528,-186.9961040421176,-242.62334207062892,738.2158755645943,-4.167775507425129,-59.61237119806387,307.52834305377485,738.3383861748514
700,-28.098623444317706,-186.89977517872381,-241.00895294160392,744.2998364920004,-9.197611706181364,-59.32798089779936,306.1825818512482,744.8049348129792
701,-27.840175631580337,-186.7648727647145,-239.30014031767718,749.4794412877875,-14.343240575649867,-59.11384211159371,304.7436668175427,750.4213353199384
702,-27.56629578931729,-186.60238903368707,-237.5020300163584,753.7175193685798,-19.535111809161148,-58.9616724323781,303.222445514857,755.1366458325608
703,-27.275297850992228,-186.42348857989293,-235.62079739237868,756.9883163890255,-24.697554346126662,-58.86577460073176,301.6307037245774,758.9121176721652
704,-26.965520816879717,-186.2393089429099,-233.66362181069366,759.2785441406918,-29.75002868862134,-58.82326647562364,299.98101155432664,761.7224496101923
705,-26.63544695540744,-186.06075860863422,-231.63862241746014,760.5881845997039,-34.60862203971159,-58.83414949441959,298.2865526684767,763.5567521645709
706,-26.283816163835347,-185.89831794522732,-229.5547731639836,760.9310058071775,-39.18775138869777,-58.90121440521552,296.56093816808493,764.4191810174887
707,-25.909731292682427,-185.7618490003057,-227.4217956971946,760.3347553511803,-43.40203110340495,-59.02979104013848,294.81800746649725,764.3292075834036
708,-25.512749700479915,-185.66042014356034,-225.250029716953,758.8410075197868,-47.168253984119744,-59.22735625665638,293.07161937312475,763.3215056544936
709,-25.092956817364747,-185.60215128050257,-223.05028176860415,756.5046524726374,-50.40742808044126,-59.50302066175091,291.3354375593513,761.4454456815696
710,-24.65101808779439,-185.59408477053654,-220.83365518559364,753.393029638756,-53.046806116232084,-59.8669201007904,289.6227156240937,758.7642022398602
711,-24.18820646472265,-185.64208621713385,-218.61136582497636,749.5847223346049,-55.02184058420109,-60.329541844292564,287.9460879356283,755.3534949601423
712,-23.70640376463551,-185.7507779584503,-216.39454995064074,745.1680454038164,-56.2779960383207,-60.90101773826827,286.3173730019873,751.2999978321715
713,-23.20807563501815,-185.92350649431097,-214.1940716941888,740.239271445392,-56.77235135670124,-61.59041730300751,284.74739606036087,746.6994653355914
714,-22.696221393951696,-186.16234347330592,-212.02033779282976,734.9006527761661,-56.474929142780724,-62.40507302161688,283.24583687019503,741.6546352820003
715,-22.174301293299813,-186.46811842602108,-209.88312688432575,729.2583046105188,-55.36969711640379,-63.34996801940059,281.8211075349317,736.2729765917215
716,-21.646144758326272,-186.84048021837566,-207.79143969975792,723.4200193890841,-53.45519719063109,-64.42721315343252,280.48026372583416,730.6643548848331
717,-21.115843991364933,-187.277983190471,-205.75337515477634,717.4930827214663,-50.744771622515636,-65.6356363853905,279.2289510340271,724.9386897260063
718,-20.58763803265019,-187.77819316687024,-203.7760357467105,711.5821585054607,-47.266371723806564,-66.97050239203632,278.07138647344846,719.2036750806699
719,-20.06579279966072,-188.33780806827025,-201.86546398160132,705.7873051318918,-43.061952412773344,-68.42337487589457,277.01037357710806,713.5626296141251
720,-19.5544826809683,-188.95278780485793,-200.02660990046428,700.2021769044301,-38.18647423069667,-69.98212822385108,276.0473482127613,708.1125363613967
721,-19.05767903068287,-189.61848846998075,-198.26332826348823,694.9124553558956,-32.70655181125879,-71.63110933900727,275.1824512761751,702.9423222724765
722,-18.579050492961226,-190.32979645129532,-196.57840273119447,689.9945444034992,-26.698802640047234,-73.35144491431844,274.414623833161,698.1314173963971
723,-18.12187944795519,-191.08125878954655,-194.97359355759883,685.5145517113557,-20.24796114803189,-75.1214842279318,273.7417200533857,693.7486213728649
724,-17.688997945301878,-191.86720686159057,-193.44970485258244,681.5275668174874,-13.444830255336688,-76.91736266494667,273.16063333019946,689.8512920654856
725,-17.282745307302925,-192.68187119583624,-192.00666720960416,678.0772352257974,-6.384145474655774,-78.71366652569556,272.66743115880325,686.4848583896321
726,-16.90494824940236,-193.51948587195298,-190.64363124541902,675.1956174859328,0.8375740803061466,-80.48417528636442,272.2574944737494,683.6826475351849
727,-16.556923005005082,-194.37438144444602,-189.35906735726658,672.9033139444977,8.12411756413401,-82.20265352345777,271.9256571828603,681.466006683751
728,-16.239497677107565,-195.24106564415666,-188.15086698864607,671.2098297069555,15.381553954973162,-83.84366153158517,271.6663417262342,679.844691492211
729,-15.953051997680635,-196.11429128477553,-187.01644109349604,670.1141502205287,22.520029441755227,-85.38335164448414,271.4736867950482,678.8174880307731
730,-15.697570957109484,-196.98911091121613,-185.95281221894038,669.6054951229189,29.455347761910883,-86.80021677949152,271.34166386649486,678.3730309992092
731,-15.472708378356598,-197.86091789319107,-184.95669747099842,669.6642158725302,36.11030245865507,-88.07575903388606,271.2641798789432,678.4907782555639
732,-15.277856385102336,-198.7254740023111,-184.0245804968472,670.2628007803607,42.41574193922594,-89.19504936984147,271.23516419785665,679.1420996013288
733,-15.112216798668717,-199.57892403545912,-183.1527715322878,671.3669494613607,48.31135945507027,-90.14715445270774,271.24863903549505,680.2914364119948
734,-14.97487078938875,-200.41779865585033,-182.33745543710089,672.9366778406609,53.7462102080053,-90.92541332048143,271.2987735515438,681.8974884526891
735,-14.864843583975953,-201.23900717577058,-181.57472825286422,674.9274152716306,58.67896647990584,-91.52755439307332,271.3799227243971,683.9143855784059
736,-14.781161622737425,-202.0398224613937,-180.8606230610804,677.2910575111877,63.077928878896465,-91.95565186463357,271.48665263790605,686.2928053418997
737,-14.72290018607524,-202.8178605249622,-180.19112598781194,679.9769433768273,66.92081745343023,-92.21592910535263,271.61375421851113,688.9810028146103
738,-14.689220125614765,-203.57105760001093,-179.56218340289715,682.932728677815,70.19437061400323,-92.31842461312428,271.75624782546987,691.9257258390709
739,-14.679392950326461,-204.29764737756508,-178.96970175544098,686.1051380741442,72.89378266938596,-92.27654263787161,271.90938133848147,695.0729969754201
740,-14.69281413400081,-204.99614052576592,-178.409541843861,689.4405832694998,75.02201245710854,-92.10651534661424,272.06862428175083,698.3687519052518
741,-14.729005075100671,-205.6653077675087,-177.8775094772803,692.8856435362957,76.58899611492274,-91.8268060508539,272.2296600657046,701.7593321301754
742,-14.78760459106154,-206.30416692314353,-177.36934454651353,696.3874111277865,77.6107966638635,-91.45748362011125,272.38837788144946,705.1918365975927
743,-14.868351151617109,-206.91197365848194,-176.88071062222423,699.8937091459868,78.10872201045963,-91.01959699378754,272.5408654022747,708.6143419467332
744,-14.971057270327199,-207.4882153140185,-176.4071872905072,703.3531929064434,78.10844139698379,-90.5345759417674,272.683403280891,711.9760044354408
745,-15.095577599520468,-208.03260713890432,-175.944267393839,706.7153481159901,77.63912820659036,-90.02368014586263,272.81246240612245,715.2270586362386
746,-15.241772314630461,-208.54509042697947,-175.48736112081278,709.9304007436064,76.73265425028717,-89.50751354968942,272.9247049039081,718.3187291669551
747,-15.409467322500157,-209.0258322561655,-175.03180854465188,712.9491548688519,75.42285715720791,-89.00561510631422,273.0169898274162,721.2030726132072
748,-15.598412688142941,-209.4752265665906,-174.57290184407478,715.7227765710164,73.74489823893033,-88.53613095769295,273.0863842901616,723.8327679692483
749,-15.808240484555673,-209.8938961491463,-174.10591807613952,718.2025443661456,71.7347232105308,-88.11556717825023,273.1301804519982,726.160875701202
750,-16.038423128303922,-210.28269490799298,-173.6261629657712,720.339589620844,69.42863252341436,-87.75861701560207,273.1459183652734,728.1405877932092
751,-16.28823330591261,-210.6427096521856,-173.1290257214472,722.0846531532609,66.86296208016779,-87.47805250848002,273.131414339102,729.7249933278621
752,-16.556706866150062,-210.9752606703922,-172.61004440727274,723.3878862087117,64.07386922492267,-87.28466769839518,273.084794208614,730.8668856825306
753,-16.84261037990235,-211.28190038799266,-172.06498085729828,724.1987248347756,61.097213628460004,-87.18725939799803,273.0045306209224,731.5186380036628
754,-17.144415187323425,-211.56440947793303,-171.48990343517895,724.4658663796595,57.9685183595667,-87.19263153418017,272.88948309324405,731.6321732714464
755,-17.46027956422292,-211.82478991957606,-170.8812751850515,724.1373754253586,54.722993193517915,-87.30561032990116,272.7389392137859,731.159054015192
756,-17.788040264395764,-212.0652546836918,-170.23604430348652,723.1609437262325,51.39560005098049,-87.52905992275612,272.5526550930402,730.0507143618212
757,-18.125214276952484,-212.28821393661212,-169.55173355770856,721.4843241937108,48.02113930971611,-87.86389128726213,272.3308931238087,728.2588531191352
758,-18.469011223316713,-212.496257859923,-168.82652526810554,719.0559521651705,44.63433550036376,-88.30906122881306,272.07445523314135,725.7360004903987
759,-18.816356397824126,-212.6921363703705,-168.059338610977,715.8257579261362,41.269901556819626,-88.86156231007395,271.7847100096789,722.436262537023
760,-19.163924030307964,-212.8787362318375,-167.2498960968422,711.7461631376128,37.962562397237114,-89.51640841107299,271.4636122775316,718.3162370103297
761,-19.508179921145846,-213.0590562647008,-166.39877605042187,706.7732415894808,34.74702122683745,-90.26662384588595,271.1137137964982,713.3360827391281
762,-19.84543215333391,-213.23618146246886,-165.50744786259057,700.8680130563807,31.657855511089878,-91.10324624993011,270.7381637700049,707.4607138235453
763,-20.17188813130674,-213.41325668456207,-164.578286925229,693.9978292160819,28.72933382199159,-92.01535457114998,270.3406977690335,700.6610806260358
764,-20.483715828101115,-213.59346020205018,-163.61456665241266,686.1378032282672,25.995149401166536,-92.99013335792233,269.9256136320908,692.9154925557008
765,-20.777106993978816,-213.77997690759602,-162.62042580402937,677.2722298058749,23.488071081018038,-94.01298321889617,269.49773300822994,684.210933050384
766,-21.048340239082975,-213.9759706984525,-161.60081026358313,667.3959404063605,21.239517013105175,-95.0676850256413,269.0623475385512,674.5443149554666
767,-21.29384219375138,-214.1845555184051,-160.56138929288946,656.5155384367694,19.27906128732753,-96.1366223839424,268.6251491844076,663.9236246120935
768,-21.510245175131853,-214.40876472921462,-159.50844710382293,644.6504618777298,17.633887664780413,-97.20106336760729,268.19214484297976,652.3689051917842
