time,ax,ay,az,gx,gy,gz,accmagnitude,gccmagnitude
0,-19.165764364813132,-250.2542447564024,-66.76481020989658,13.965578169053927,76.78894946821852,-2.911060997509199,259.7201885711405,78.10958615204176
1,-19.18704273829078,-250.12403842183988,-66.49611507740168,13.113087404020758,76.4826841660737,-2.7706474704073454,259.5316955831267,77.70034034540575
2,-19.20074991069877,-249.9808042176809,-66.24456987232082,12.258513892757914,76.1814249968033,-2.6314747866086408,259.3341619212501,77.29679869876172
3,-19.208085887344268,-249.8282300461886,-66.01078668848778,11.40743206621642,75.88247208468749,-2.495499380423497,259.1313665238601,76.89709451283967
4,-19.210234034312464,-249.66996402483716,-65.79520196325973,10.565379100683618,75.58319295984913,-2.364643510256653,258.92700798054165,76.4993948969198
5,-19.20831729802078,-249.50951455199566,-65.59808737942586,9.737762464386137,75.2811217169567,-2.2407498624074838,258.7246081633084,76.10198366357889
6,-19.20336134131999,-249.35016194833236,-65.41955953250319,8.929775109855271,74.97404597619303,-2.12554086624584,258.52742708726765,75.70333426216804
7,-19.19626628180053,-249.19488460184996,-65.25958725327868,8.146320265779716,74.66007735540592,-2.0205840126276553,258.33839163675873,75.30216890735812
8,-19.18778796322478,-249.04630153779837,-65.11799593132147,7.391946543610395,74.33770176493658,-1.9272639344169211,258.16003989994306,74.89750045435292
9,-19.17852880855465,-248.90663215766463,-64.99446897580383,6.67079293514406,74.00580704250962,-1.8467614871689704,257.99448187841773,74.48865458111746
10,-19.16893755606444,-248.77767285574822,-64.88854730777794,5.986542382011961,73.66368707107688,-1.7800395915144949,257.8433764944778,74.07527129384752
11,-19.159316722456683,-248.6607895365717,-64.79962824295521,5.342382024166413,73.31102328602026,-1.7278352039819915,257.7079242480002,73.65728640176593
12,-19.149836410436112,-248.55692463969393,-64.72696533625417,4.7409680360497495,72.94784615157052,-1.6906565171153562,257.58887450719897,73.23489518879964
13,-19.140552937478272,-248.4666169505607,-64.66967081078552,4.184393176788333,72.5744806274112,-1.6687844069099713,257.48654609755437,72.80850190570952
14,-19.131430609118272,-248.39003215790112,-64.62672206028527,3.67415582578181,72.1914807779643,-1.662277273078163,257.4008594949266,72.37865984240814
15,-19.122364804344933,-248.32700182312968,-64.59697338010609,3.211130297223249,71.79955946584414,-1.670978717697278,257.3313785428166,71.94600757906402
16,-19.1132045077159,-248.27706822261183,-64.57917359023213,2.7955394588903393,71.3995194726985,-1.6945278820856993,257.277359285206,71.51120749365364
17,-19.10377264356786,-248.23953253699304,-64.57198959250591,2.4269318197744743,70.99219228818937,-1.7323725942185346,257.23780337626533,71.07489257633814
18,-19.09388303478884,-248.21350417340284,-64.57403521569441,2.10416597291458,70.57839007230137,-1.7837856800291751,257.21151369010715,70.63762691198697
19,-19.083353379270488,-248.1979494905335,-64.58390409137208,1.8254054150273387,70.15887494407671,-1.8478848146787263,257.19715011129557,70.19988385060994
20,-19.072014164224964,-248.19173861448093,-64.60020487678052,1.5881263706205766,69.73434800214812,-1.923656119958141,257.1932838225112,69.76204412377173
21,-19.059713854432896,-248.19368929927714,-64.62159688355402,1.3891405374109376,69.30545865386287,-2.0099813652310847,257.1984486265688,69.3244143143561
22,-19.046320980639337,-248.20260699014852,-64.64682405204009,1.2246338973255952,68.87283316420928,-2.1056681599654286,257.211188023933,68.88726440168266
23,-19.031723905722792,-248.2173204476209,-64.67474525343674,1.0902221031930937,68.43711990599333,-2.2094820445417223,257.2300969763407,68.45088166103484
24,-19.01582906364327,-248.2367124566586,-64.70435909778136,0.9810225209917611,67.99904753296602,-2.3201790193064045,257.2538574928579,68.01563693212242
25,-18.99855841170242,-248.25974527842328,-64.73482169500213,0.8917426875483717,67.55949114917587,-2.4365368885354193,257.28126736331177,67.58205812761398
26,-18.979846768130344,-248.28548066509006,-64.76545614698922,0.8167845326845558,67.11954056951505,-2.557383844353743,257.311261597469,67.1509048903578
27,-18.95963959545882,-248.3130944762366,-64.79575305028628,0.7503630178541889,66.68056410362024,-2.6816229137842185,257.3429264572614,66.72323767158721
28,-18.937891597763677,-248.34188614647542,-64.82536198439415,0.6866367935503959,66.24426109894478,-2.8082511740826948,257.3755063360298,66.30047434237291
29,-18.914566293408296,-248.37128338617862,-64.8540746742862,0.6198471826000954,65.812696878942,-2.936372984597983,257.4084040328551,65.88442789475205
30,-18.889636610909886,-248.4008425640047,-64.88180107963377,0.5444604949120463,65.38831479430556,-3.065206875552414,257.441175169827,65.47731991776897
31,-18.863086549259197,-248.43024528106884,-64.9085400686702,0.45530767425619834,64.97392184653222,-3.1940861225431836,257.47351766248465,65.08176631714639
32,-18.834913969491634,-248.45929169857038,-64.93434661564174,0.3477148551977484,64.57264658360302,-3.3224533471541324,257.50525727803574,64.70073402226473
33,-18.805134561170835,-248.4878911761262,-64.95929761033847,0.21761874166882672,64.18787044928489,-3.449849697630872,257.53633034796445,64.33746994069176
34,-18.773786918035572,-248.51605072714958,-64.98345839985294,0.061661796218646564,63.82313619027961,-3.5758993288425596,257.5667646518018,63.9954058922603
35,-18.740938484060763,-248.54386174159217,-65.00685212332439,-0.12273617387182924,63.4820389938747,-3.7002900691894713,257.59665940632846,63.678045388645415
36,-18.706691983511195,-248.57148534324443,-65.02943373267205,-0.3373317140200637,63.168107496458965,-3.8227513235701305,257.62616516066834,63.38883965746294
37,-18.671191893053347,-248.5991366077885,-65.05107029739399,-0.5830368958946349,62.88468249323891,-3.9430303736456036,257.65546418269236,63.131061043250725
38,-18.634630486453766,-248.6270677382342,-65.07152878885621,-0.859923139039873,62.63480099437701,-4.060868292556137,257.6847516930305,62.90768174533785
39,-18.597252874464726,-248.65555028232052,-65.09047203237698,-1.1672483092935866,62.42109225226045,-4.175976722475654,257.7142181560505,62.72126482034861
40,-18.559360315903003,-248.68485659670066,-65.10746289680358,-1.5035054809760322,62.24569076433632,-4.288016789787704,257.7440327886853,62.57387272982515
41,-18.52131106774623,-248.7152409578236,-65.12197616313382,-1.866491525863603,62.11016939839341,-4.396581441809695,257.77432848041485,62.46699681846583
42,-18.483518263940244,-248.7469209362771,-65.133417079656,-2.253393246186916,62.01549401837688,-4.50118245384555,257.8051884359913,62.40150929231889
43,-18.44644466620078,-248.78005983235428,-65.14114545998838,-2.6608880444976464,61.96199951759763,-4.601243248991524,257.83663501526956,62.37763773591511
44,-18.41059446250069,-248.8147510462668,-65.14450417323168,-3.0852552538343185,61.94938610637205,-4.696098482018177,257.86862133901064,62.39496107523217
45,-18.376502529548667,-248.8510052057532,-65.14285081151668,-3.522493476088878,61.97673407469431,-4.785001074445921,257.90102618076185,62.4524251852447
46,-18.344721711024516,-248.88874074345458,-65.13559113741701,-3.968438849479164,62.042534973170504,-4.867137062451173,257.9336525016781,62.54837598256268
47,-18.3158086992413,-248.9277784617555,-65.12221269436327,-4.418879259526787,62.14473709704173,-4.941648204790475,257.9662297817627,62.68060771722998
48,-18.290309096771324,-248.96784047123435,-65.10231682231382,-4.869660134807911,62.280803241701946,-5.007661747929992,257.9984201165624,62.84642421476217
49,-18.268742237551102,-249.00855374281386,-65.07564732808737,-5.31677850939113,62.44777890589334,-5.064326071115935,258.0298279078663,63.042711007195514
50,-18.251586347007084,-249.0494583446712,-65.04211420672132,-5.756463315774034,62.64236939082304,-5.1108502422868405,258.0600128507445,63.26601657177285
51,-18.239264562283292,-249.09002020422676,-65.00181101829786,-6.1852412081070725,62.86102440581997,-5.146544953633312,258.0885057462096,63.512641088882376
52,-18.23213224486504,-249.12964795598324,-64.95502473887544,-6.599988424325019,63.10002862958814,-5.170861978008197,258.1148264482427,63.77873101252547
53,-18.230465987098246,-249.16771318542558,-64.90223717112447,-6.997970122767599,63.3555961099145,-5.183429244880278,258.138503077831,64.06037722599442
54,-18.234454741131934,-249.2035732267518,-64.84411739168883,-7.3768691368238075,63.623965568395576,-5.18407889266511,258.15909158972914,64.35371377624203
55,-18.24419347736203,-249.23659561361998,-64.78150523801807,-7.734806072195597,63.90149291928013,-5.172866164097923,258.17619485141074,64.65501343666446
56,-18.25967963547986,-249.2661832588588,-64.71538648067568,-8.070352129215973,64.18473690550638,-5.150077657834795,258.18948052287766,64.9607759209864
57,-18.280812402442127,-249.29179938702592,-64.64686103565738,-8.382535150061033,64.47053386345867,-5.116228141358836,258.19869713826597,65.26780463009993
58,-18.307394628713897,-249.31299113273084,-64.57710618067536,-8.67083847201201,64.75605823276719,-5.072045845441997,258.2036878208575,65.57326836518914
59,-18.339137030793157,-249.32941059886545,-64.50733705408383,-8.935191496123696,65.03886632786596,-5.018446872345057,258.20440101544517,65.87474530936822
60,-18.375664228063698,-249.3408321466109,-64.43876667754462,-9.175950625912773,65.3169218271173,-4.956499986367804,258.20089758263896,66.17024752638173
61,-18.416522126294193,-249.3471648045155,-64.37256743254352,-9.393869442838973,65.58860230751422,-4.887383568861439,258.19335362913984,66.45822515214073
62,-18.461186201305555,-249.34845890043073,-64.3098354649746,-9.59005759670709,65.85268706716732,-4.81233693775982,258.1820585447076,66.73755047018855
63,-18.509070355497563,-249.34490632173535,-64.25155904870579,-9.765928721604475,66.10832758055734,-4.7326086031956764,258.16740790476854,67.0074832930357
64,-18.559536194679442,-249.33683420673967,-64.1985916168086,-9.923138514847851,66.35500318037083,-4.649404347171997,258.14989121297333,67.26762044320216
65,-18.611902742507116,-249.3246923373415,-64.15162992148393,-10.063514756245821,66.59246569194798,-4.563838192395616,258.13007485915386,67.51783334871853
66,-18.665456679180636,-249.30903498875819,-64.1111974960427,-10.18898143079814,66.82067746147519,-4.4768892698080585,258.1085810700231,67.75819852515164
67,-18.71946311602025,-249.29049843203148,-64.07763326592011,-10.301479316190655,67.03974736997709,-4.38936728724146,258.0860639676172,67.98892587437119
68,-18.773176784003518,-249.2697755687846,-64.0510849388049,-10.402885555373857,67.24986905639399,-4.3018887884848676,258.0631840610443,68.21028936010846
69,-18.825853454073684,-249.24758922005665,-64.03150685184413,-10.494934982606946,67.45126484839739,-4.214865703245538,258.04058254694417,68.42256390710338
70,-18.876761446075964,-249.2246654683134,-64.0186622302933,-10.579146349544896,67.64413803153698,-4.128506833445837,258.0188567499218,68.62597153157687
71,-18.92519313453583,-249.20170834456428,-64.012130040637,-10.656757047862792,67.82863527499862,-4.042831953283615,257.9985379947113,68.8206389347164
72,-18.970476346733573,-249.1793771161769,-64.01131653606502,-10.72867028298729,68.0048203747173,-3.9576972270089574,257.9800731472746,69.00656815337632
73,-19.011985479398025,-249.1582673438573,-64.01547121277943,-10.795418676069046,68.1726599265531,-3.87282977972726,257.9638108796688,69.18362128633453
74,-19.04915207523752,-249.138896642968,-64.02370648586967,-10.857147745073144,68.33202099359761,-3.7878685764444815,257.949993380235,69.35151966717642
75,-19.08147450919893,-249.12169575496134,-64.03502020427568,-10.913621577163122,68.48268022821607,-3.7024083464217834,257.9387538586699,69.50985708444203
76,-19.1085263526837,-249.1070051796485,-64.04832020802743,-10.964251363139159,68.62434328080649,-3.616043213029633,257.930119867047,69.65812581255724
77,-19.129962969285494,-249.09507721874283,-64.06245036940238,-11.008145572871294,68.75667275171888,-3.5284070051336536,257.9240221282766,69.79575342934604
78,-19.145525977524272,-249.08608281878918,-64.07621782774845,-11.044178768143592,68.87932253099923,-3.439207891973591,257.9203081876162,69.92214780575507
79,-19.15504536100852,-249.08012216181135,-64.08842135811744,-11.071074740288168,68.99197622305289,-3.3482558466255434,257.9187598437579,70.03674739096317
80,-19.15843917814727,-249.0772376339451,-64.09788092044906,-11.087499037231778,69.09438747483878,-3.2554823095044525,257.9191130460377,70.13907400213662
81,-19.155710987243346,-249.07742762410402,-64.10346831845155,-11.092155987176044,69.18642032171081,-3.1609521477041986,257.9210787535392,70.22878566409386
82,-19.146945198889703,-249.0806595682093,-64.10413856156902,-11.083885798658205,69.26808802481816,-3.064868519659715,257.9243631389623,70.30572749033324
83,-19.13230058358773,-249.08688079832658,-64.09896110108534,-11.061757862045079,69.33958919877033,-2.9675715361868606,257.9286855539685,70.36997900206353
84,-19.112002172808168,-249.09602608346182,-64.08714974333496,-11.025156699266123,69.40134020560417,-2.869531675239161,257.9337928969815,70.42189648974518
85,-19.086331863361448,-249.10802119534227,-64.06808981155201,-10.973857049355987,69.45400275857925,-2.7713388299769512,257.939469402283,70.46214896602564
86,-19.05561816429422,-249.12278233822545,-64.04136108936052,-10.908084517092716,69.49850550704619,-2.673687735349569,257.94554135630057,70.49174604396553
87,-19.020225658841696,-249.1402118160918,-64.00675527223719,-10.828558304537221,69.53605821546057,-2.5773603674944687,257.95187681923295,70.51205589721972
88,-18.980544812396467,-249.16019080025325,-63.964287039686965,-10.73651297695294,69.56815712099879,-2.4832057504534326,257.95838100113974,70.5248114670613
89,-18.93698270768523,-249.18257037339126,-63.91419830318968,-10.633697064376983,69.59658017763105,-2.392117462507796,257.9649883471254,70.5321033145886
90,-18.88995520585618,-249.20716208474735,-63.85695553293919,-10.522347542386386,69.62337113609323,-2.3050090522898268,257.97165252013684,70.53635794127482
91,-18.839881005565807,-249.23372912086174,-63.79324025959867,-10.405140741405258,69.65081174057683,-2.2227875890093807,257.97833538786983,70.54030096758189
92,-18.78717806328335,-249.26197901871774,-63.723932919523406,-10.285121782559917,69.68138173577147,-2.146325708774338,257.98499596589517,70.5469052186448
93,-18.73226271147731,-249.29155871818435,-63.65009023659518,-10.16561596854784,69.71770685577123,-2.0764327745017668,257.99158014287343,70.5593244529101
94,-18.67555147863179,-249.322052677739,-63.57291642986327,-10.05012646723209,69.76249548480043,-2.0138260740544465,257.9980119488154,70.58081412227564
95,-18.61746512735172,-249.35298471230917,-63.49372881929692,-9.942223052485332,69.81846524135125,-1.9591032454373725,258.0041871087425,70.61464116335372
96,-18.558433966188712,-249.38382406870775,-63.41391881234463,-9.845426681321074,69.88826137919177,-1.9127172781294997,258.0099695642769,70.66398544100346
97,-18.49890327150863,-249.41399595848458,-63.334909603448395,-9.763094401640279,69.9743696450943,-1.8749554816914604,258.01519143755866,70.73183614446538
98,-18.439337774076193,-249.44289633741255,-63.25811216128886,-9.698308592179666,70.07902703081467,-1.8459237428109265,258.01965656623173,70.82088713818383
99,-18.38022451706096,-249.46991026846484,-63.184881296025395,-9.653773923890643,70.20413455886565,-1.8255372143663162,258.02314737894693,70.93343586166804
100,-18.322073769216914,-249.4944328355713,-63.11647376781571,-9.631724822462617,70.35117667944326,-1.8135182874114282,258.0254345899437,71.07129070381299
101,-18.265417946765652,-249.51589130806454,-63.05401040482067,-9.633845724793897,70.52115193806243,-1.8094022830823422,258.02628895035076,71.2356917707412
102,-18.210808670329094,-249.53376707777713,-62.99844398697793,-9.661206108840203,70.71451929464497,-1.812550793994491,258.02549407773785,71.42724962402457
103,-18.158812231055435,-249.54761582942916,-62.95053423594533,-9.714212103957724,70.9311638377317,-1.8221720682527898,258.0228592305129,71.6459058884721
104,-18.11000387573753,-249.5570844979745,-62.91083070801493,-9.792576344833455,71.17038462083079,-1.8373473386673724,258.0182308571712,71.89091858197393
105,-18.0649613612403,-249.56192382097683,-62.87966384577296,-9.89530743674398,71.43090596824737,-1.8570616317201574,258.01150186503406,72.16087359963953
106,-18.02425811869746,-249.56199570235594,-62.85714399897492,-10.02071980705699,71.71091196568648,-1.8802374058737676,258.0026178299739,72.45372208305456
107,-17.98845620239151,-249.55727511447026,-62.84316788595858,-10.166463841732785,72.00810216252049,-1.9057693586749824,257.9915797666802,72.76684161797364
108,-17.958099108262896,-249.54784674469158,-62.837431732392915,-10.329575211957541,72.31976501273496,-1.9325588296570302,257.9784434776913,73.09711759053478
109,-17.933704522354983,-249.53389692432603,-62.83945020436784,-10.506541376199218,72.64286449935899,-1.9595463492544978,257.9633157880955,73.44103984185033
110,-17.915757016135387,-249.51570157547616,-62.8485802048512,-10.693382519619586,72.9741348420697,-1.985741044461435,257.9463481477443,73.79480912759901
111,-17.904700652004465,-249.4936110549961,-62.86404852019772,-10.885743705570357,73.31017815270613,-2.0102458368631035,257.92772819555836,74.15444779303041
112,-17.900931462601058,-249.46803289524001,-62.88498211594655,-11.07899475062067,73.64756027174322,-2.032277666297872,257.9076699487375,74.51590940879437
113,-17.904789790072392,-249.43941352284926,-62.91043966079238,-11.268334290161404,73.98290068752304,-2.0511823304111654,257.8864033039754,74.8751827784097
114,-17.9165524034839,-249.4082200721073,-62.93944280190494,-11.448894721100224,74.3129533325952,-2.066443917574577,257.8641635523718,75.22838665625014
115,-17.936424164674104,-249.37492339986034,-62.97100597442802,-11.615845249870349,74.63467610133318,-2.077689166835734,257.84118165503725,75.57185264896951
116,-17.964528995807996,-249.3399833279907,-63.004164018552906,-11.764491112632886,74.94528807478414,-2.084687316006111,257.81767607146844,75.90219504318209
117,-18.000900173234662,-249.30383694538807,-63.03799730590938,-11.8903680068053,75.24231459812866,-2.087346023745648,257.79384687514386,76.21636760638839
118,-18.045470402477843,-249.26689050409658,-63.07165421514655,-11.989331627556087,75.52362142028566,-2.0857037969625996,257.7698726717826,76.5117085946884
119,-18.098062460621602,-249.2295151196796,-63.104370653817924,-12.057642709244607,75.78743990492774,-2.079919128450271,257.7459105111873,76.7859760684159
120,-18.15838132184067,-249.19204620364948,-63.13548602158788,-12.092048005768468,76.03238567756046,-2.0702563692566125,257.7220986448664,77.03737597230896
121,-18.226008656333708,-249.15478632240715,-63.1644546893618,-12.089857209453012,76.25747289662978,-2.05706830983974,257.69856167517963,77.26458519853706
122,-18.300400453555806,-249.11801095162798,-63.19085195985718,-12.0490150111394,76.46212569398713,-2.0407755560877114,257.6754173885626,77.46677110278493
123,-18.380888293873223,-249.08197634520897,-63.21437378964504,-11.968166519245981,76.64618738392868,-2.0218430254987054,257.65278438768763,77.64360787121343
124,-18.466684541947792,-249.04692850207562,-63.23483023542885,-11.846713308779446,76.80992695194092,-2.000754172759222,257.630789561362,77.79528892880565
125,-18.556891507637662,-249.01311209382325,-63.25213334320863,-11.684856704250665,76.95404125433254,-1.9779838118039392,257.6095744839084,77.92253341825278
126,-18.65051441494448,-248.9807782656251,-63.26628077281614,-11.483624692357324,77.07965047522202,-1.9539706063791649,257.5893000070539,78.0265838741888
127,-18.74647785931407,-248.95019038880915,-63.277336759248946,-11.24487916713541,77.18828391007467,-1.9290904512065303,257.5701485276148,78.10919179013842
128,-18.843645370908494,-248.92162705203032,-63.285412075054225,-10.971300983764273,77.28185322393716,-1.903632060398555,257.55232362147035,78.17258796680923
129,-18.94084171849568,-248.89538182415427,-63.2906445627171,-10.666351433028131,77.36261097494179,-1.87777611504448,257.5360469447999,78.21943533185649
130,-19.036877589890462,-248.87175964059077,-63.29318171713434,-10.334210106568555,77.43309326506326,-1.8515792733329077,257.52155258492525,78.25276317636151
131,-19.130576210693842,-248.8510700449022,-63.29316682587024,-9.979690548070938,77.49604668070093,-1.824964155691038,257.5090794077939,78.27588323706333
132,-19.220801330638306,-248.83361787734194,-63.29073021118989,-9.608136432756082,77.55434103404858,-1.7977160491313526,257.49886229291303,78.2922895620062
133,-19.306485829397452,-248.8196922567755,-63.28598690780582,-9.225302144001365,77.61087066699346,-1.7694865927921324,257.49112332576834,78.30554546621963
134,-19.38665992017426,-248.80955482913586,-63.27904150768502,-8.837222356450123,77.66844810966892,-1.7398042358262498,257.48606397096654,78.31916197283685
135,-19.460477522340693,-248.80342825894837,-63.270000032748904,-8.450075435910565,77.72969463085565,-1.7080908790233003,257.4838590092894,78.33647286669259
136,-19.52723897350154,-248.8014857987085,-63.25898785167994,-8.07004508538983,77.79693269953944,-1.6736838319625442,257.48465264993195,78.36051188769459
137,-19.586408167367587,-248.80384248710595,-63.24617200993674,-7.703183852145132,77.87208563652489,-1.6358620326161275,257.48855679477435,78.39389772394006
138,-19.637622609515816,-248.81054820582412,-63.231785815292554,-7.355281175151839,77.95658973937137,-1.593875395571762,257.49565103090544,78.43873233345651
139,-19.680695571820788,-248.82158260718327,-63.21615304046674,-7.0317379576176675,78.05132382053077,-1.5469761762743064,257.5059836614735,78.49651767423359
140,-19.715610159183125,-248.8368518523684,-63.199708845594515,-6.7374494736093276,78.15656034791408,-1.4944513040576874,257.51957300657995,78.56809512450843
141,-19.742505618663426,-248.85618710603188,-63.18301474608416,-6.476698830233477,78.27194125760838,-1.435654637158504,257.5364083096443,78.65361077445496
142,-19.761656783148766,-248.87934475867056,-63.166765654928874,-6.253063985234252,78.39648013748308,-1.370037959288362,257.5564498276263,78.75250845870265
143,-19.773448166957564,-248.90600840351613,-63.15178790263304,-6.069342019668112,78.52859097944638,-1.2971793333506219,257.57962800078633,78.86355095186852
144,-19.77834473247083,-248.9357927032024,-63.139027863442216,-5.927494540021351,78.66614214731291,-1.2168073278237657,257.60584191734927,78.98486821010819
145,-19.776861566027122,-248.96824940341025,-63.129531346476035,-5.828617507949588,78.8065326780985,-1.1288197964880866,257.6349575482218,79.11402997490069
146,-19.76953461579093,-249.00287579042853,-63.12441441811984,-5.772937543360758,78.94678664894876,-1.0332963515615063,257.66680637765495,79.24813859794624
147,-19.756894330436257,-249.03912577662837,-63.12482692191946,-5.759835094538537,79.08366027233974,-0.9305042897217997,257.70118506512716,79.38393678890436
148,-19.739443624439865,-249.07642354138642,-63.13191055769824,-5.787893112523026,79.21375578133164,-0.8208982904401976,257.73785663650193,79.51792429339926
149,-19.717641177204595,-249.11417931877864,-63.146753787436424,-5.854968216832348,79.3336361012874,-0.7051145459582338,257.77655344114555,79.6464773478975
150,-19.69189066163859,-249.15180658167176,-63.170345980779686,-5.95827995501511,79.43993474235734,-0.5839601019317303,257.81698178163475,79.76596510417686
151,-19.662536105516462,-249.18873959912386,-63.203533198827735,-6.094512794461984,79.52945615998448,-0.45839820177508367,257.8588278218762,79.87285795169251
152,-19.62986324426533,-249.22445020611633,-63.246977982846055,-6.259925051246672,79.5992628093203,-0.3295304298220228,257.9017642080669,79.96382359294206
153,-19.59410638425552,-249.25846266261587,-63.301125464801714,-6.450459063655287,79.64674606004762,-0.19857645555857176,257.9454568314603,80.0358076477305
154,-19.555459881788543,-249.2903656987341,-63.36617790165945,-6.66184749252934,79.66967896331396,-0.06685218062651868,257.98957128690114,80.08609640260852
155,-19.514092879692527,-249.3198211856877,-63.44207922653012,-6.889711615774549,79.66624963886012,0.06425292370919292,258.03377875100404,80.11236015064276
156,-19.470165576271732,-249.34656922399682,-63.52851037381812,-7.12964883711899,79.63507488537918,0.1932985316023342,258.0777611114536,80.11267649270437
157,-19.42384515218272,-249.37042972497215,-63.62489504653404,-7.377308281178475,79.57519456603231,0.31881553003125823,258.12121517867007,80.08553404619762
158,-19.3753195698581,-249.39130077832786,-63.73041454817561,-7.628455151932994,79.48604837825718,0.43932684775135467,258.1638557766886,80.02981820985963
159,-19.324807797229077,-249.40915425744362,-63.84402974249498,-7.87902622458677,79.36743772460001,0.5533666493848168,258.20541756077773,79.944781875204
160,-19.272565596616698,-249.42402922273286,-63.96450828862723,-8.125180051882033,79.21947642533739,0.6594977711544838,258.2456555921076,79.8300050823422
161,-19.21888671300259,-249.4360237732535,-64.09045569162011,-8.363345834643036,79.04253476020426,0.7563275730656144,258.284344947862,79.68534836494612
162,-19.164099857300364,-249.4452860726364,-64.22034898358807,-8.59027426052602,78.83718164165187,0.8425226637432724,258.3212798357454,79.51090475548664
163,-19.108562220678376,-249.45200529750502,-64.3525719039764,-8.803092085773683,78.60412957549714,0.9168232048807448,258.3562727411584,79.30695511628662
164,-19.052650424644394,-249.45640319795046,-64.48545039546113,-8.9993601902804,78.34418652790218,0.9780576826248449,258.38915407300357,79.07393072528265
165,-18.996749845817934,-249.45872681843375,-64.61728717731842,-9.177132691482402,78.05821798066711,1.0251590613303843,258.41977262083054,78.81238599327256
166,-18.941243201594304,-249.45924269147753,-64.74639421402843,-9.335012780985895,77.74712138641172,1.0571830472312904,258.4479969135199,78.52298290760166
167,-18.886499242137788,-249.45823249104438,-64.87112220976555,-9.472199488618443,77.41181401535648,1.0733287901482558,258.4737173265437,78.20648739262622
168,-18.83286240520827,-249.45598977437518,-64.98988684080672,-9.588518815927152,77.05323397927523,1.072961807085132,258.4968485814429,77.86377644917403
169,-18.780644267853667,-249.452817109927,-65.10119207914431,-9.684432851428646,76.67235323722178,1.0556383175221995,258.5173321169062,77.49585394313047
170,-18.730117480117823,-249.44902262238008,-65.20365137866033,-9.761021725826843,76.27020075462396,1.02112962444621,258.53513764382126,77.10387242592073
171,-18.681512603588523,-249.4449148694145,-65.29600753718334,-9.819935525340867,75.84789363339463,0.9694447195163397,258.55026307146824,76.6891583363712
172,-18.63501796031319,-249.44079513790962,-65.37715175703549,-9.863316228736563,75.40667377176972,0.9008489811429218,258.5627320576318,76.25323813127937
173,-18.59078224837038,-249.43694675242597,-65.44614194588159,-9.893692822663345,74.9479473466348,0.8158767299482768,258.5725887715473,75.79786311893693
174,-18.54891934862578,-249.43362168375018,-65.50221977193056,-9.913855413500112,74.47332420647547,0.7153355841229128,258.57988996745416,75.32503097938813
175,-18.50951456468239,-249.43102540778818,-65.54482556374946,-9.926716035033364,73.98465424655004,0.6003010622310716,258.5846949810373,74.83700220676923
176,-18.472631607007795,-249.4293014200369,-65.573609979427,-9.935164861436755,73.48405804446763,0.4721006678129844,258.5870546591091,74.33631003385499
177,-18.438319878253917,-249.42851696542814,-65.58844149062668,-9.94193073492916,72.97394938815368,0.3322876190299778,258.5870004278906,73.82576274883817
178,-18.40662181821098,-249.42865141353911,-65.58940894175942,-9.949454397802407,72.45704773501255,0.18260527349677283,258.58453464807826,73.30843762285825
179,-18.37758005788854,-249.4295884080747,-65.57681852257744,-9.959781685020875,71.93637905609947,0.02494399269099523,258.5796231335182,72.78766591066356
180,-18.351243970822576,-249.4311125601938,-65.55118447439645,-9.974482324909713,71.41526392607037,-0.1387073694344668,258.5721903487964,72.26700857113501
181,-18.327675112741442,-249.43291110505035,-65.51321305457951,-9.99459805213527,70.89729209998195,-0.30631297406434393,258.56211751359376,71.7502224810012
182,-18.306951139669682,-249.43458065106125,-65.46377993973132,-10.020621584210186,70.38628317263769,-0.4758421493316379,258.54924374671776,71.24121700082428
183,-18.28916801333769,-249.43563892604564,-65.40390216894298,-10.052505815568031,69.88623328764278,-0.6453200445668866,258.53337042795954,70.7440008541548
184,-18.274440506432008,-249.4355411985534,-65.33470643351598,-10.089700589143472,69.40124830322705,-0.8128749447228679,258.5142689406162,70.26261946924133
185,-18.262901173863696,-249.43370078366334,-65.25739566315951,-10.131212878936571,68.93546433925216,-0.976780692799249,258.491691747999,69.80108324093304
186,-18.254698072019284,-249.42951276862863,-65.17321548028617,-10.175685318114576,68.49295719398631,-1.1354929377225222,258.4653864045515,69.36328758894751
187,-18.249991555337196,-249.42237988293877,-65.08342153468513,-10.221487724958191,68.077642723091,-1.287678228751357,258.43511175933065,68.95292621802648
188,-18.24895042939903,-249.41173933573242,-64.98924838258766,-10.2668164702542,67.693170959708,-1.4322353319375583,258.40065541863885,68.57339965919567
189,-18.251747633517137,-249.39708945611426,-64.89188060337739,-10.309797010567681,67.34281753842649,-1.568308506629182,258.36185154489954,68.2277219848199
190,-18.258555553532357,-249.37801506288358,-64.7924271063906,-10.348585526633473,67.02937676139724,-1.6952928037614194,258.3185982148988,67.91842941860116
191,-18.26954108329186,-249.35421062377563,-64.69189981099882,-10.38146624700438,66.75506120750771,-1.8128317086217574,258.27087374692303,67.64749518730368
192,-18.2848606317079,-249.3255004403719,-64.591197925228,-10.406941623334543,66.52141294428932,-1.920807638434621,258.2187515909137,67.4162551822914
193,-18.304655326060878,-249.29185530894725,-64.49109884390421,-10.423812982540156,66.32923106641067,-2.019325931421851,258.1624135340686,67.22534871478997
194,-18.329046614729087,-249.25340528919003,-64.39225625079008,-10.431249571414043,66.1785194964573,-2.1086930735037734,258.10216103615517,67.07467789487663
195,-18.3581323030983,-249.2104482694946,-64.29520545123042,-10.428844055298885,66.0684578994582,-2.1893900432501905,258.03842441049613,66.96338809916108
196,-18.391982826690462,-249.1634539511719,-64.2003754297549,-10.416652608947794,65.99739736005961,-2.2620417994570037,257.97176935068194,66.88987080241135
197,-18.43063739015195,-249.11306278193018,-64.10810668400308,-10.395217828779183,65.96288126603835,-2.327384012819291,257.90290008776566,66.85178885919792
198,-18.474099551529484,-249.0600793340438,-64.01867350678741,-10.365572876885578,65.96169071728714,-2.3862280863280763,257.8326583270075,66.84612322549582
199,-18.522331891758007,-249.00545967288133,-63.93230905968559,-10.329225606682128,65.98991282940355,-2.439425340583318,257.7620170803071,66.86923921228146
200,-18.575249535021985,-248.95029241749862,-63.84923136085087,-10.28812198183412,66.04302956710968,-2.4878310676834268,257.6920686111592,66.91696971996845
201,-18.63271245128257,-248.89577347275392,-63.769668264987764,-10.244588937428633,66.11602416580637,-2.5322690835358164,257.6240059738966,66.98471247025198
202,-18.694516675992123,-248.84317476127725,-63.69387962447309,-10.20125795553063,66.20350169667546,-2.5734974725640996,257.55909800477076,67.06753795341582
203,-18.760384876525034,-248.79380758791035,-63.622174971450065,-10.160971954754261,66.29981987778237,-2.612176403857289,257.49865797390163,67.16030460484379
204,-18.82995712255144,-248.7489814819987,-63.55492517802368,-10.12667943264865,66.39922586261576,-2.648839139397158,257.44400637524626,67.2577776057259
205,-18.902783131063746,-248.70995960016415,-63.49256674890898,-10.101320898183323,66.49599451615094,-2.6838675604307753,257.3964286455195,67.35474768447064
206,-18.978317376240266,-248.67791217153865,-63.435597898844684,-10.087713293507028,66.58456370420008,-2.7174736408653843,257.35712912764234,67.44614642618194
207,-19.055918187039293,-248.65386996291485,-63.38456640396263,-10.088438284102658,66.65966242568742,-2.749688272738044,257.3271832666518,67.52715492397317
208,-19.13485147662379,-248.63868008537224,-63.340050112210804,-10.105740073168633,66.71642817453258,-2.7803586682592014,257.30749054933347,67.59330311249178
209,-19.214299251991786,-248.6329664852474,-63.30263160805052,-10.141437854516207,66.75051063624691,-2.8091551836417628,257.29873083622164,67.64055773957404
210,-19.2933726047801,-248.6370972127196,-63.27286878123114,-10.196857174748548,66.75815961586842,-2.8355878531146494,257.30132652429836,67.66539757774203
211,-19.37112850792493,-248.65116020709425,-63.2512631420018,-10.272783308515008,66.73629588392477,-2.8590322996375224,257.3154126316708,67.66487508263666
212,-19.44658950346555,-248.67494899211772,-63.23822780479634,-10.369438280617919,66.68256434737087,-2.878764117335345,257.34081656278784,67.63666420885474
213,-19.51876531561527,-248.70795934564228,-63.2340570721007,-10.486481515522732,66.59536956706452,-2.8940003297605776,257.3770489918937,67.57909447266964
214,-19.586675508942186,-248.7493976464482,-63.238899385458,-10.623032485183897,66.47389416203087,-2.903946089269543,257.4233069166601,67.49117163779631
215,-19.64937242569051,-248.79820116364817,-63.25273513016408,-10.77771243807576,66.3181010714304,-2.9078443987024265,257.4784894488709,67.37258563387013
216,-19.70596371651029,-248.85307003434832,-63.275360572314916,-10.948701542034229,66.12872094063374,-2.905026361591559,257.54122636062186,67.22370648186157
217,-19.75563381019232,-248.91251009330173,-63.306379137379935,-11.13380760500549,65.9072259806538,-2.894959344200713,257.6099188268053,67.04556903300372
218,-19.797663660852095,-248.97488509316958,-63.345201115185105,-11.33054280259689,65.65579151093843,-2.8772904608545917,257.682791168759,66.83984720438022
219,-19.831448120303733,-249.0384762109774,-63.39105243914042,-11.536205288433129,65.37724614838761,-2.8518829666668752,257.7579516754918,66.60881819412104
220,-19.856510364371115,-249.1015461438592,-63.4429924050607,-11.74796296300591,65.07501140705212,-2.818843471700435,257.83345982073376,66.35531700229613
221,-19.87251293509288,-249.1624046403889,-63.49993931119047,-11.96293688981719,64.7530313969505,-2.7785383789873994,257.907396546548,66.08268152029112
222,-19.879265072489005,-249.219472032845,-63.56070233110894,-12.178281830112793,64.41569334429619,-2.731598546967983,257.9779338568424,65.79468845983018
223,-19.876726070446708,-249.27133727729046,-63.62401760346951,-12.39126116464183,64.06773979295852,-2.6789117963444244,258.04339983094263,65.49548046971712
224,-19.865004478181383,-249.31680731090893,-63.688586421442835,-12.59931322315209,63.714173618999325,-2.6216034542191538,258.10233544095223,65.18948498444611
225,-19.84435317624957,-249.35494530050372,-63.75311337830635,-12.800105954582236,63.36015740979204,-2.5610056543903577,258.1535403055604,64.88132571425704
226,-19.815160643509213,-249.3850964071759,-63.816342375386995,-12.991577125471936,63.01090928068223,-2.49861663395917,258.196105564808,64.57572821552246
227,-19.777938966769163,-249.40690063442383,-63.87708861777221,-13.171957917177622,62.6715977380315,-2.4360517938695687,258.229433044275,64.2774216119876
228,-19.733309287395105,-249.4202928976258,-63.934265143763874,-13.33977889699498,62.34723866743138,-2.3749887645005536,258.2532405436243,63.99103919687851
229,-19.681985480728855,-249.42549072685895,-63.98690299561456,-13.493858822729088,62.04259788587292,-2.317109048353505,258.26755349552207,63.72102128655426
230,-19.624756919173308,-249.42297026894232,-64.03416473467237,-13.63327854914825,61.76210291255045,-2.26403895817281,258.27268363794,63.47152427861504
231,-19.562471098755164,-249.41343172112065,-64.07535150945796,-13.75734427291016,61.50976760895484,-2.2172925526263945,258.269195913867,63.246340281843274
232,-19.49601669846776,-249.39775603895606,-64.10990421633754,-13.865546087176506,61.289132996097955,-2.1782191321283384,258.25786556509263,63.04883172112204
233,-19.426307388411455,-249.37695551758583,-64.1373994804389,-13.957518768415179,61.103226779486576,-2.147957610991879,258.239628144687,62.8818847555129
234,-19.35426647807052,-249.35212135698094,-64.15754133134467,-14.033011455590444,60.95454290219031,-2.127399728559094,258.2155256847036,62.74788409769571
235,-19.280812291579842,-249.32437141710136,-64.17014959145185,-14.091871335238439,60.845040917699954,-2.117163600413647,258.1866523651256,62.64871000761726
236,-19.206844010900664,-249.29480108105983,-64.17514607681014,-14.134043918060458,60.77616331419793,-2.1175785428476317,258.15410275817993,62.58575611551927
237,-19.133227749111906,-249.26443960941853,-64.17253967006505,-14.15958951958767,60.74886735150554,-2.128681454159908,258.11892519334003,62.55996462868294
238,-19.06078284073804,-249.23421371023272,-64.16241117292147,-14.168712754707904,60.76366673508344,-2.1502243825100953,258.082082127288,62.57187372988941
239,-18.990268686705893,-249.20491935683495,-64.14489866653645,-14.161799768335179,60.82067777191718,-2.1816923541330815,258.0444187118034,62.62167089195809
240,-18.92237284913473,-249.17720222704364,-64.1201840230305,-14.139456870527576,60.91966465120605,-2.2223301327041036,258.0066401190257,62.709245594622416
241,-18.857701315772687,-249.1515465697477,-64.08848127717367,-14.102544250734981,61.06007914857324,-2.271176316309621,257.96929766699003,62.834235542543574
242,-18.796771844990865,-249.12827188211895,-64.050027678148,-14.05219932735949,61.24109123992595,-2.3271030107209083,257.93278340753216,62.99606180638766
243,-18.740011128312236,-249.1075365336517,-64.0050781938154,-13.989845767325074,61.461608634773356,-2.388859213397653,257.89733257633816,63.19395010383244
244,-18.687756335323844,-249.08934737479638,-63.953903939683784,-13.917185981031663,61.720284871110124,-2.4551159867144223,257.8630331224956,63.42693741414226
245,-18.64026144609094,-249.07357436737834,-63.89679456183938,-13.836176666035618,62.015517152461975,-2.524511489744889,257.82984141162336,63.69386500778078
246,-18.597708455273672,-249.05996934247685,-63.83406423934256,-13.748988495733158,62.34543639734102,-2.595693983238468,257.79760314845583,63.993360558777646
247,-18.560222963134198,-249.04818808539113,-63.76606084984841,-13.657952185931284,62.70789288993767,-2.6673610494520545,257.76607858484465,64.32381313974035
248,-18.5278930235291,-249.0378149863546,-63.693177914802426,-13.56549391154331,63.10044139816966,-2.738293525616677,257.7349710903935,64.68334551132264
249,-18.500789666868826,-249.02838944505376,-63.61586897273189,-13.474063470292144,63.52032966079122,-2.807383065276826,257.70395809171254,65.06978823415096
250,-18.47898736102609,-249.01943313191592,-63.534663840494794,-13.386058783467027,63.96449377032815,-2.8736527721631875,257.6727232472109,65.48065980292525
251,-18.462582723608843,-249.0104771433475,-63.450185858987226,-13.30375030747987,64.42956323987447,-2.93627087574004,257.6409885736914,65.91315627641013
252,-18.451709930778062,-249.00108803228892,-63.363168860188075,-13.229208688542423,64.91187754137381,-2.9945577979856988,257.6085451053104,66.3641528436339
253,-18.446551449477795,-248.99089164336417,-63.27447237800527,-13.164238546473735,65.40751480146675,-3.0479871435043386,257.57528057259555,66.83021858481261
254,-18.44734302903134,-248.9795936775188,-63.18509361059965,-13.110320712462407,65.91233230149078,-3.096181210220669,257.54120260265836,67.30764453806285
255,-18.454372409336635,-248.96699600144848,-63.09617481464783,-13.068564673453434,66.42201757547282,-3.138901700936122,257.506456111596,67.79248422037757
256,-18.467971878332683,-248.95300790540367,-63.009005108509804,-13.039672441393506,66.93214831145055,-3.176036475904852,257.471333868554,68.28060506296185
257,-18.488505443074256,-248.93765176701064,-62.92501599523082,-13.023914583028212,67.43825895581135,-3.2075833721071865,257.4362795888862,68.76774882571799
258,-18.51635177892624,-248.92106287687142,-62.845770227587394,-13.021118753957598,67.93591185293586,-3.2336322323055287,257.40188331035284,69.24959891211557
259,-18.551884227358354,-248.9034835258266,-62.7729439022052,-13.030670818949352,68.42077084788977,-3.2543462676280086,257.36886921317284,69.72185254351245
260,-18.595449014826972,-248.88525181638812,-62.708301869758536,-13.051528482316455,68.88867546742034,-3.2699437130988103,257.3380764384288,70.18029589591835
261,-18.647342724034583,-248.8667859747549,-62.653666680687415,-13.082247214694881,69.33571400493626,-3.2806804871672894,257.3104337863487,70.62088047158306
262,-18.70778993824403,-248.84856516568735,-62.61088140778588,-13.121018066021547,69.75829400097876,-3.286834325709606,257.28692941788717,71.03979909616218
263,-18.77692185225109,-248.83110795656614,-62.581766879869825,-13.165716637016521,70.15320871166197,-3.28869068463556,257.2685768625644,71.43355997190483
264,-18.854756460281063,-248.81494965265915,-62.56807415821614,-13.213962013884418,70.51769824706611,-3.286530584740022,257.2563787711792,71.79905722570791
265,-18.941180751651682,-248.80061974186512,-62.57143349463218,-13.263183910035258,70.84950419003516,-3.2806204787062976,257.25128995776487,72.13363642522508
266,-19.035935269380143,-248.78862063799744,-62.593301520936365,-13.310695736881472,71.14691661462717,-3.2712041652247827,257.25418135058095,72.43515356065176
267,-19.138601408832244,-248.7794087643422,-62.6349089187923,-13.353770957335842,71.40881238596025,-3.2584967915646312,257.2658064573026,72.70202590001851
268,-19.248591802598295,-248.77337874531847,-62.69721102523265,-13.38971991518058,71.6346834124004,-3.242681054541055,257.28677174006486,72.93327290463967
269,-19.365143940460428,-248.770851094984,-62.780843503917495,-13.415964423360492,71.82465326533507,-3.2239057570115994,257.3175118474142,73.12854517155534
270,-19.487316912485653,-248.77206339431868,-62.88608448813524,-13.430107777817247,71.97948044551305,-3.202286836436274,257.3582700845494,73.28813932001636
271,-19.613991052387018,-248.77716464698497,-63.01282393802332,-13.42999851883505,72.10054665810195,-3.1779108357662555,257.40908405127027,73.41299695273993
272,-19.743870374129077,-248.7862123474339,-63.16054064993542,-13.413787056241315,72.18982880693679,-3.1508405626616205,257.46977616404126,73.50468631888972
273,-19.87548794659505,-248.79917175064438,-63.328287290544154,-13.379975007196366,72.24985404961463,-3.121122429007615,257.53994873568894,73.56536606382228
274,-20.00721464714546,-248.81591683920988,-63.51468377189196,-13.327457580309714,72.28363814534183,-3.0887947373870457,257.61898329505004,73.59773141454322
275,-20.13727203812674,-248.8362325041564,-63.71791924590519,-13.255559478190388,72.29460838623119,-3.0538960636308117,257.70604385527395,73.60494421703584
276,-20.263750335791894,-248.85981748492821,-63.93576316293677,-13.164064605874453,72.2865134652201,-3.0164729405935424,257.8000839169342,73.59054925870878
277,-20.384632439419452,-248.886287680875,-64.16558626608061,-13.053239483221278,72.26332348999823,-2.9765862494498028,257.8998571514247,73.55838008966226
278,-20.497824708160024,-248.9151796014472,-64.4043928462973,-12.923849794385264,72.2291238280434,-2.934315948423554,258.0039319384486,73.51245794534104
279,-20.601194759224022,-248.94595399621417,-64.64886565332105,-12.777169046104074,72.18800652738666,-2.8897639128836237,258.1107101710205,73.45688734408144
280,-20.69261618704773,-248.97800006371884,-64.89542427800383,-12.614977889854813,72.14396283180241,-2.843054721691243,258.21845090766016,73.39575162190945
281,-20.770019763815306,-249.0106409568404,-65.14029673011736,-12.439552339225166,72.10077999179182,-2.7943342623689476,258.325299455987,73.33301127622748
282,-20.831450271162964,-249.04314144251822,-65.37960275820093,-12.253638950279827,72.06194528000684,-2.743766109198147,258.4293222714054,73.27240764901396
283,-20.875127612668543,-249.07471848908008,-65.60944652394895,-12.060415072396324,72.03055983662887,-2.6915258061129346,258.52854768069756,73.21737418433156
284,-20.8995103051677,-249.1045552901939,-65.82601559631739,-11.863432515355044,72.0092646139531,-2.637793471348442,258.6210119519977,73.1709571633475
285,-20.903358847804114,-249.1318188743163,-66.02568274850256,-11.666543427566706,72.00018023774373,-2.582745473627584,258.70480968396595,73.13574743208781
286,-20.885795872595605,-249.15568111173852,-66.20510659383993,-11.473807929367995,72.00486216177106,-2.5265461975873165,258.7781469663627,73.1138243107736
287,-20.846359544440933,-249.17534273456593,-66.36132661589897,-11.28938419701622,72.0242721940964,-2.4693410182231106,258.8393953794928,73.10671275667738
288,-20.78504653564209,-249.19005997597895,-66.49184765914836,-11.11740325308851,72.05876730963843,-2.411251501191014,258.88714471686046,73.11535493772863
289,-20.702341100460497,-249.19917357660265,-66.5947086677488,-10.961832559274713,72.10810645673486,-2.3523735604287377,258.9202523723724,73.14009746573667
290,-20.599227376919483,-249.2021400018026,-66.6685308874487,-10.826334379170085,72.17147561508055,-2.2927789063598256,258.9378876055136,73.18069539202473
291,-20.47718305996828,-249.1985643757369,-66.71254228813245,-10.714126431139288,72.24753060584788,-2.23251971623505,258.9395691399083,73.23633355954539
292,-20.338153849255022,-249.1882336352988,-66.72657732710876,-10.627853191434204,72.33445623370648,-2.171636160732599,258.9251944248677,73.30566511398966
293,-20.18450935585075,-249.17114710530947,-66.7110535034087,-10.569476033587154,72.43003952177395,-2.1101662663580862,258.89505844843484,73.3868661344252
294,-20.018982383348163,-249.14754084985535,-66.66692785990843,-10.540189142755459,72.53175428522285,-2.0481575405211863,258.8498597612625,73.47770466298752
295,-19.844594652934095,-249.11790223396324,-66.59563764426406,-10.540366044213648,72.63685407715164,-1.9856797679658489,258.7906918020527,73.57562193912733
296,-19.66457304017644,-249.08297203577956,-66.49902993209753,-10.56953903324139,72.74247046848969,-1.9228383536872804,258.7190186798959,73.67782326796126
297,-19.482261153377564,-249.04373278564032,-66.379285273813,-10.626411244126587,72.84571349323966,-1.8597875270234283,258.6366359313958,73.78137551919039
298,-19.301031441586673,-249.00138342841757,-66.23884035162546,-10.708898953308468,72.9437707798178,-1.7967426638937083,258.5456180973222,73.88330767462607
299,-19.124202643877865,-248.9573016818693,-66.08031414172385,-10.814200219670997,73.03400144302883,-1.733990970549285,258.4482559980459,73.98071018702326
300,-18.954966093966423,-248.91299637752547,-65.90644111115196,-10.938885171920127,73.11402044254696,-1.6718998190067689,258.34698709494523,74.07082840720085
301,-18.796322541531634,-248.8700524689108,-65.72001362513019,-11.079003086876183,73.18176907375174,-1.6109221051229567,258.244322205068,74.15114523438542
302,-18.65102950873042,-248.8300713684671,-65.52383423844702,-11.230201727418365,73.23556769299518,-1.5515980561279406,258.1427712865921,74.21944858337996
303,-18.52155827792571,-248.79460908905304,-65.32067713943529,-11.387855008834796,73.27414771531548,-1.4945529128458186,258.0447703759781,74.27388023598921
304,-18.410059342951094,-248.76511445972238,-65.11325687457996,-11.54719567129796,73.29666129428405,-1.4404899040316987,257.9526112161197,74.31296405075274
305,-18.31833525006734,-248.74286944190257,-64.90420187564708,-11.703450045316885,73.30266875248269,-1.390178017348688,257.86837471965487,74.33561316828862
306,-18.247820034890236,-248.72893338716162,-64.69603054185373,-11.851972131590898,73.29210556285234,-1.3444343131918421,257.7938693341189,74.34111754905834
307,-18.199564855906534,-248.7240932103215,-64.49112853923106,-11.988374131729476,73.26523227357376,-1.3041009023438987,257.73057580912484,74.32911471494708
308,-18.174229765196213,-248.7288218701258,-64.29172698232554,-12.108650389228982,73.22257205445398,-1.2700171548251524,257.67960059268773,74.29954778720695
309,-18.172081611605883,-248.74324770970054,-64.09988188506381,-12.209291551247928,73.16484138872414,-1.2429881826335232,257.64164045185754,74.25261570713783
310,-18.192997872762266,-248.7671366513404,-63.91745562673651,-12.28738571309336,73.0928797320214,-1.2237511224961886,257.61696046197426,74.18872079679598
311,-18.23647613442486,-248.79988818365905,-63.74610107437652,-12.340703411918565,73.00758363669479,-1.2129412003807176,257.6053864586988,74.1084185031822
312,-18.30164917779961,-248.84054512090879,-63.587248558889684,-12.367763646927541,72.90984989443173,-1.2110599290682365,257.6063120249669,74.01237328147604
313,-18.38730589165929,-248.8878165451562,-63.44209563888686,-12.36787862461699,72.80053081134545,-1.2184480017626784,257.6187194827239,73.90132323782716
314,-18.49191815083173,-248.94011302021568,-63.31159978239481,-12.34117558654911,72.68040307031596,-1.2352654058158605,257.64121408332977,73.77605462522239
315,-18.613673463997518,-248.99559291931538,-63.19647436718493,-12.28859478133563,72.5501500990951,-1.2614809056368954,257.6720703822264,73.63738588804293
316,-18.75051286633957,-249.05221853501595,-63.09718827561431,-12.211863352950962,72.41035672941192,-1.2968723279496905,257.7092895470327,73.48615995107954
317,-18.90017336041239,-249.1078205419587,-63.013968928750884,-12.113445670523477,72.26151432860676,-1.3410381268417308,257.7506661190035,73.32324297878668
318,-19.06023418461295,-249.16016930285386,-62.94680829887299,-11.996471484640516,72.10403447407538,-1.3934196512730561,257.79386257269584,73.14952786554137
319,-19.228166226988858,-249.2070514269412,-62.89547147574565,-11.86464425521149,71.93826944924113,-1.453332495222352,257.83648992534484,72.96594108558021
320,-19.401383830882672,-249.24634988697596,-62.85950764177707,-11.722132929476714,71.76453812424883,-1.5200043815496318,257.87619258565434,72.77345196835266
321,-19.577297885517325,-249.27612577004513,-62.838263653128,-11.573451188596728,71.58315594246082,-1.592616361835855,257.9107354557541,72.57308374212039
322,-19.753368546455054,-249.29469923764756,-62.83090069700909,-11.423328632626108,71.39446768893113,-1.6703438603612653,257.93809085886494,72.36592571748831
323,-19.92715559267744,-249.30072640341416,-62.83641460114559,-11.276578522855939,71.19888150926616,-1.7523942894137545,257.95652206772047,72.15314580555712
324,-20.096364600055185,-249.293267692231,-62.85366020391179,-11.137966548453129,70.99690236943911,-1.8380384979401192,257.9646591197905,71.93600227793631
325,-20.25888764698015,-249.27184228654954,-62.88137969594484,-11.012084634748964,70.78916289333807,-1.9266340205520172,257.96156162773,71.71585337229396
326,-20.41283781209965,-249.2364631916761,-62.91823410517216,-10.903233128707575,70.57644935552995,-2.0176388582167344,257.94676308961164,71.49416310623339
327,-20.55657707116623,-249.1876487109168,-62.96283631839157,-10.815313943691045,70.35972060188111,-2.110615282129785,257.9202922485303,71.27250156494823
328,-20.68873731632613,-249.1264085654419,-63.013783440536734,-10.751736622221218,70.14011789183044,-2.2052238568523896,257.88266926572845,71.05253807060693
329,-20.80823421512844,-249.05420577263865,-63.06968612207056,-10.715338908327968,69.91896414070008,-2.3012084883845394,257.8348772041727,70.83602607547202
330,-20.91427373972737,-248.97289772061498,-63.129192894059074,-10.708323284866754,69.69775171814241,-2.3983737885221452,257.77831167358846,70.62477927145262
331,-21.006351575691056,-248.8846610512258,-63.19100844963461,-10.732210885711103,69.4781186883307,-2.4965563945890388,257.7147128741926,70.42063911633467
332,-21.084246131894496,-248.7919051323887,-63.25390589121204,-10.787814080359416,69.2618140759254,-2.595592123705563,257.64608473989273,70.22543463875411
333,-21.14800628585115,-248.69717861111926,-63.31673399053843,-10.87522874503524,69.05065343325971,-2.6952810447369098,257.57460587436947,70.04093601231246
334,-21.197935201211315,-248.6030732129732,-63.37842142023587,-10.99384674396669,68.84646671418363,-2.795352775903261,257.5025368813471,69.86880402702938
335,-21.234571543821446,-248.51212872937083,-63.437980556969954,-11.142388441711553,68.65104120292924,-2.895434551044295,257.43212861344466,69.71053820836246
336,-21.258669280005638,-248.42674301619456,-63.49451353587301,-11.318954150769493,68.46606289937102,-2.9950247526198264,257.36553574385505,69.56742683600915
337,-21.27117710035506,-248.34909077754787,-63.547222670942496,-11.521092345746148,68.29306019221575,-3.0934745593662942,257.3047398560771,69.44050236745599
338,-21.2732183367314,-248.28105482734205,-63.59542636653005,-11.745881411124385,68.13335374448914,-3.1899800126960525,257.2514859030959,69.33050567879883
339,-21.266071714935585,-248.2241732321419,-63.638580450812505,-11.990020832219166,67.98801621199989,-3.283586150804033,257.207235268767,69.23786206569669
340,-21.251152237116493,-248.17960495536883,-63.676303596864976,-12.249927210260111,67.85784471726123,-3.373203950676951,257.1731375139509,69.16267112512371
341,-21.229990350586938,-248.14811505717557,-63.70840436662561,-12.521830332175421,67.74334795571994,-3.4576397857960206,257.1500210134843,69.10471152840557
342,-21.204207142281135,-248.13007834981084,-63.73490667834781,-12.801864790777861,67.64474852502501,-3.5356360904298136,257.13840040414425,69.06346042164625
343,-21.175484035301658,-248.12549855739402,-63.75607038464761,-13.086153348043444,67.56199973043981,-3.6059209859335652,257.13849702618313,69.03812594940801
344,-21.145526979004554,-248.13403927940615,-63.772404256560435,-13.370879310056024,67.49481494112173,-3.6672637910799786,257.1502681202489,69.02769039521947
345,-21.116026521329402,-248.15506328928086,-63.78466973916754,-13.652346514732306,67.44270667364256,-3.7185326827140144,257.17344118107405,69.03096076947622
346,-21.0886157547777,-248.1876772665771,-63.79387482787436,-13.927026948845311,67.4050319622709,-3.7587504313226106,257.2075507450449,69.04662332432903
347,-21.0648279616994,-248.23077959925052,-63.801258012976476,-14.191597283779998,67.38104020044726,-3.787144195226878,257.25197556818864,69.07329835259846
348,-21.04605531889341,-248.28310938490654,-63.80826256437888,-14.442966528891644,67.36991950170832,-3.8031857865182066,257.3059746772174,69.10959168146492
349,-21.03350958551463,-248.34329518876217,-63.81650160479245,-14.67829743512666,67.3708377754786,-3.806619541412079,257.3687211898173,69.15413952026438
350,-21.028185379471026,-248.40990233430097,-63.82771444654167,-14.895024253963523,67.38297520890059,-3.797475885540968,257.43933297264834,69.20564383578427
351,-21.030826556439635,-248.48147738569176,-63.84371462437248,-15.09086903180807,67.40554574101535,-3.7760698307558034,257.5168990531104,69.26289627319609
352,-21.041896450900005,-248.55658817859896,-63.866330184344584,-15.263857874734365,67.43780639352026,-3.742984878719648,257.60050044172635,69.32478981011414
353,-21.061553178082995,-248.63385769636162,-63.8973373264353,-15.412337685422381,67.47905484453743,-3.6990439998297937,257.6892241188355,69.39031870373783
354,-21.089631519211977,-248.71199059748457,-63.93838942411674,-15.534992975103696,67.5286171394515,-3.64527033916293,257.7821696734807,69.45856864112338
355,-21.125632999224766,-248.78979214508445,-63.990944386645104,-15.630861738900407,67.58582864378768,-3.5828409315352863,257.8784492181619,69.52870009166605
356,-21.168725705975252,-248.86618019112876,-64.05619386568816,-15.699349197035424,67.65001207553608,-3.5130369455609203,257.97718217824655,69.59992854037554
357,-21.217755129261363,-248.940191391563,-64.13499781487758,-15.740238401652075,67.7204566474877,-3.4371938905557102,258.07748701339403,69.67150549369038
358,-21.2712665268446,-249.01098306363446,-64.2278275942016,-15.753697104717155,67.79640199942263,-3.3566549022324472,258.17847199299587,69.74270386545327
359,-21.327537963213434,-249.07783229272314,-64.33472048454301,-15.74028065703569,67.87702974813384,-3.272729726630105,258.27922713267316,69.81281056901572
360,-21.384621714558328,-249.14013403118892,-64.45524825273652,-15.700930880608427,67.96146426749208,-3.1866613743977097,258.3788193550787,69.881127956238
361,-21.440391122790373,-249.1973997111443,-64.58850204822026,-15.636970752771834,68.04878294803069,-3.099601662894816,258.4762926093641,69.94698435014082
362,-21.492590765758763,-249.24925714856388,-64.7330951515703,-15.550094457806647,68.13803490635632,-3.012596075479671,258.5706738930512,70.0097525633342
363,-21.538889415114824,-249.29545148321475,-64.88718402495209,-15.442352124861204,68.22826612044982,-2.926577620726614,258.6609850504058,70.06887422875123
364,-21.576936436495753,-249.33584602224428,-65.04850705365496,-15.316128570780199,68.31854838130297,-2.8423687111995206,258.7462592426638,70.12388715802963
365,-21.60442239441494,-249.37042139726995,-65.21443950164905,-15.174115631026922,68.40800926001653,-2.7606895242986886,258.8255603278866,70.17445277939072
366,-21.619143947782025,-249.3992713927518,-65.38206257993322,-15.019278079144389,68.49586036809825,-2.68217089930001,258.89800309047774,70.22038084590598
367,-21.619072174308183,-249.42259405046792,-65.54824419683356,-14.854813564195275,68.58142143383512,-2.60736963386481,258.9627722942425,70.26164891684846
368,-21.60242244056198,-249.440677113406,-65.70972885848607,-14.684107353416218,68.6641381307033,-2.536784120888362,259.0191388208619,70.29841458516889
369,-21.567722868089824,-249.45387751799512,-65.8632340400935,-14.510682953878776,68.74359221189889,-2.4708685925204175,259.0664716078024,70.3310190896118
370,-21.513877485262437,-249.4625955343735,-66.00554992990318,-14.338149957056569,68.81950328610361,-2.41004472599985,259.1042447291233,70.35998177876131
371,-21.440219616876444,-249.467245242331,-66.13363884269438,-14.170150744210208,68.89172238630489,-2.3547099229625115,259.1320397795591,70.38598576738435
372,-21.346551302521892,-249.46822397467994,-66.24473013054141,-14.010307966562227,68.96021819853463,-2.30524212788468,259.1495445280713,70.4098558972683
373,-21.233165655599574,-249.4658837689213,-66.33640632568398,-13.862174834978374,69.0250573348091,-2.2620015284449435,259.1565493064277,70.43253066165458
374,-21.10085068875405,-249.4605076938308,-66.40667644196937,-13.729190049684423,69.08638032619302,-2.2253298126812764,259.15294267117565,70.45503001323533
375,-20.95087465544557,-249.4522933999717,-66.45403270737961,-13.61463859760555,69.14437512916496,-2.195547811917442,259.1387076427585,70.4784209885627
376,-20.784954169160677,-249.441345536622,-66.47748782040588,-13.521618763808602,69.1992499562907,-2.172952326442448,259.1139194941252,70.50378294409747
377,-20.6052073333652,-249.42767775844328,-66.47659151321544,-13.453014807769128,69.25120717079689,-2.1578127090374917,259.07874573882543,70.53217396957113
378,-20.41409479628557,-249.41122396904245,-66.45142737220881,-13.411474098175203,69.30041977377009,-2.1503673995709165,259.0334486015979,70.56459972110626
379,-20.2143519148708,-249.3918574549429,-66.40259250599946,-13.39938721761542,69.34701163566801,-2.1508201712992734,258.9783897751268,70.60198550235525
380,-20.008915154234302,-249.3694158653945,-66.33116321302793,-13.418869628330121,69.3910421185937,-2.1593355283749447,258.9140367295369,70.64515195659531
381,-19.800845651569187,-249.34372962582592,-66.2386495819419,-13.471743802427593,69.432495190301,-2.1760326052084635,258.8409693847926,70.6947942811151
382,-19.593252575006126,-249.31465125716366,-66.12694152727191,-13.559521111706758,69.4712726566142,-2.2009770853744284,258.759885674214,70.75146451821547
383,-19.389218452440538,-249.28208313281232,-65.99824846513974,-13.683383151537,69.50719082370878,-2.23417102915068,258.67160443908136,70.81555628201951
384,-19.19172814990108,-249.24600146157886,-65.85503475511334,-13.844162515091872,69.53997976416832,-2.2755409817356598,258.57706425407054,70.8872912571716
385,-19.003602891814204,-249.20647483364246,-65.69995306639322,-14.042323333511382,69.56928436216731,-2.324925212301214,258.47731727489645,70.9667069101802
386,-18.827440679054387,-249.16367645020804,-65.53577773794692,-14.277942123587605,69.59466640452479,-2.3820613011922718,258.37351791097564,71.05364502739147
387,-18.66556446022884,-249.11788988558746,-65.3653398580048,-14.550689594427375,69.61560713004404,-2.446575492713248,258.2669067245402,71.14774088896593
388,-18.51997924759148,-249.06950868511095,-65.19146531605884,-14.859814075381724,69.63150983893318,-2.517975260996095,258.15879024923197,71.24841309814435
389,-18.392338965746156,-249.01903035980604,-65.01691674511461,-15.204127247571288,69.64170243386128,-2.5956464111072215,258.05051754218795,71.35485436735375
390,-18.283923199499636,-248.96704554904477,-64.844340210782,-15.581993017919304,69.64544017619896,-2.6788557554124215,257.9434544163725,71.46602400373973
391,-18.195623351469653,-248.91422325994336,-64.6762175955747,-15.99132070394172,69.64190948662167,-2.766759956185145,257.8389564018843,71.58064343524335
392,-18.127937315767102,-248.8612930816032,-64.51482561526203,-16.429564106612855,69.63023415619996,-2.8584205378740317,257.7383414373272,71.69719671573192
393,-18.080971744158237,-248.8090252053212,-64.3622021732957,-16.893728390392557,69.60948565700708,-2.9528244470532674,257.642863163006,71.8139383131014
394,-18.054451188947898,-248.75820913730576,-64.22012042334539,-17.38038685876596,69.57869920541106,-3.048909014118644,257.5536856684892,71.92891045560673
395,-18.047733640384273,-248.70963218469907,-64.09007059968604,-17.885709648681722,69.53689680107622,-3.145589840729729,257.4718606714571,72.03997184219912
396,-18.05983213531987,-248.66405893897388,-63.973249389613116,-18.405505992587777,69.48311770960353,-3.2417899994463446,257.39830818132066,72.14483866334473
397,-18.089442199339068,-248.62221288292076,-63.870556355069134,-18.935280923267925,69.41645594055426,-3.3364689329624557,257.3338015445921,72.24113776924779
398,-18.134974878710462,-248.5847608961438,-63.78259675405232,-19.470306101333314,69.33610338751654,-3.4286495320770385,257.2789573895001,72.3264706442055
399,-18.194594965436934,-248.552300980007,-63.70969014709052,-20.005702958006115,69.24139656183827,-3.517442015563143,257.2342305470603,72.39848574151381
400,-18.266263749656474,-248.52535315066663,-63.65188435548753,-20.536534869031186,69.13186430059214,-3.6020633991894457,257.1999136940011,72.454955801605
401,-18.347785423241298,-248.5043532406909,-63.6089745196688,-21.05790400142793,69.00727349062642,-3.681851542053524,257.1761412955033,72.49385613990307
402,-18.436856237629726,-248.48964924089591,-63.58052703660954,-21.565048126711787,68.86766978227983,-3.756273069134258,257.16289733216786,72.5134397000635
403,-18.53111555441868,-248.48149969952496,-63.56590797940554,-22.053433172142576,68.71341050180361,-3.8249249320120406,257.16002615161693,72.51230499818617
404,-18.62819776139939,-248.4800735825567,-63.564315284600056,-22.518838404686562,68.54518746324709,-3.8875299218039823,257.16724559437273,72.4894538474385
405,-18.72578366027884,-248.485451006704,-63.57481364024593,-22.95743252712123,68.36403801192965,-3.9439269602930933,257.1841614464612,72.444336725212
406,-18.821649665678702,-248.4976244523946,-63.59637069543818,-23.365840189022883,68.17134327718432,-3.9940573688812844,257.21028236995636,72.3768845736439
407,-18.913713231993906,-248.51650034519005,-63.62789299392757,-23.74119917069848,67.96881319626128,-4.0379485304150835,257.2450346886103,72.28752654096353
408,-19.000073307446026,-248.5419010948173,-63.66825998945851,-24.081208689464052,67.75845839631253,-4.075696446321285,257.2877766173729,72.17719365105188
409,-19.07904506892855,-248.57356775457006,-63.716354731593874,-24.384169043018378,67.54254955086014,-4.107448673754598,257.3378116878438,72.04730873910376
410,-19.149188482105156,-248.61116348724167,-63.77109031237783,-24.649012445155613,67.32356542565502,-4.1333889966266195,257.3944012928897,71.89976336928997
411,-19.209330311482365,-248.65427804893912,-63.83143170877757,-24.87532471366078,67.10413149848432,-4.153724931005048,257.4567764416034,71.73688294954057
412,-19.25857924175301,-248.70243349429293,-63.89641295749814,-25.063357544760105,66.88695170754052,-4.16867880351423,257.52414888637276,71.5613818482308
413,-19.296333918893826,-248.75509123394878,-63.965149582439345,-25.21403136364633,66.67473644504858,-4.178482687996841,257.5957217187272,71.37631087028122
414,-19.32228393931314,-248.8116604709231,-64.0368460186717,-25.328929022689852,66.47013025767296,-4.183376953295388,257.670699399087,71.18499981634541
415,-19.33640400252751,-248.871507958832,-64.11079766929952,-25.41028081861092,66.27564277081143,-4.183611624562308,257.74829708835597,70.99099792886506
416,-19.338941585204108,-248.93396899855142,-64.18638734719299,-25.460941357705,66.0935861252632,-4.179449327973724,257.8277491596291,70.7980148142318
417,-19.330398604993242,-248.99835964241166,-64.26307615700762,-25.4843586647205,65.92602177074008,-4.1711683996797575,257.90831689913796,70.60986397478865
418,-19.311507603654817,-249.06399016684475,-64.34038915695615,-25.484535557603927,65.77471885143979,-4.159064807894598,257.9892955653381,70.43041041932347
419,-19.283203064089076,-249.13017986296026,-64.41789628435023,-25.465982690323806,65.64112562007654,-4.143451790369386,258.0700210040154,70.26352291825347
420,-19.246588742359563,-249.1962729301917,-64.495189217326,-25.433661873994254,65.52635428991917,-4.124656496763435,258.1498758340809,70.11303031860098
421,-19.202902331543857,-249.26165476080791,-64.5718553419114,-25.392917470956398,65.43117854776423,-4.103013431989365,258.2282949109969,69.9826800498913
422,-19.153479107846447,-249.32576741511602,-64.6474507218934,-25.349393021668412,65.35604182208797,-4.078855060598637,258.3047695315301,69.8760958064841
423,-19.09971618381864,-249.3881229056903,-64.72147454897362,-25.308930070255787,65.30107360004358,-4.052500426959559,258.37884982679486,69.79673072234986
424,-19.043038619192973,-249.44831313111501,-64.79334773232382,-25.277446671366924,65.2661107797413,-4.0242429695249635,258.45014502743555,69.74781241172217
425,-18.984868122501684,-249.50601574914555,-64.8623980789474,-25.260794434401916,65.2507212231098,-3.9943388256403414,258.5183216263306,69.73227708596283
426,-18.926594612737208,-249.56099572376775,-64.92785397851864,-25.264595087706645,65.25422721881925,-3.9629968252831556,258.5830997216325,69.75269142460674
427,-18.869550605955528,-249.6131026724316,-64.9888477054644,-25.294060094068445,65.27572730779634,-3.9303710645750005,258.6442479772993,69.81116269172787
428,-18.81498829217572,-249.6622645472406,-65.04442855708224,-25.353799407275122,65.31411567435778,-3.896556499835733,258.7015778006633,69.90923940516736
429,-18.764059278181364,-249.7084785697314,-65.09358525042974,-25.447627651191585,65.36809888885338,-3.8615875316850943,258.7549375169117,70.04780637551961
430,-18.717797216875336,-249.7518005716023,-65.13527637460905,-25.57837751700986,65.436210119371,-3.8254391701394983,258.8042074032641,70.22697894008003
431,-18.677103743676152,-249.792333921409,-65.16846722590331,-25.74773076462175,65.51682106268457,-3.78803013929307,258.84929636526476,70.44600169046146
432,-18.64273812196324,-249.8302190791985,-65.19217103128142,-25.956076729511665,65.60815193972613,-3.749227193011157,258.8901408177753,70.70315704480633
433,-18.615310755567858,-249.86562454781912,-65.20549237731733,-26.20240671032106,65.70828012777599,-3.708849962727189,258.92670599973883,70.99568883315644
434,-18.59528039341359,-249.8987395940748,-65.20767056816551,-26.48425035021183,65.81514841684925,-3.666675838025925,258.95898951730913,71.3197458064909
435,-18.582954560059573,-249.9297686342918,-65.19812061311389,-26.797657674077236,65.92657440316522,-3.6224446568591078,258.98702641582116,71.6703497379776
436,-18.578492565884556,-249.95892669917382,-65.17646962585067,-27.137228386928438,66.04026304049428,-3.5758632995846695,259.01089462034247,72.04139260963619
437,-18.581910413265792,-249.98643503218838,-65.14258669021794,-27.49618870854663,66.15382474104256,-3.5266105739224045,259.03071929758266,72.42566725383539
438,-18.5930870073205,-250.012515743929,-65.09660476800407,-27.866515319007117,66.26480153552924,-3.4743429675869275,259.04667469865535,72.81493560299276
439,-18.611771239865668,-250.03738454565837,-65.03893394018618,-28.239105495472103,66.3707035875507,-3.4187018854800426,259.0589823282399,73.20003817493262
440,-18.637589660823974,-250.0612407809066,-64.97026605155635,-28.603991811238014,66.46905782116457,-3.359322921008071,259.06790467784515,73.57104745344505
441,-18.670054544116166,-250.08425413419516,-64.89157155072498,-28.9505987041007,66.55746963653422,-3.2958476212473045,259.07373409940055,73.91746643821278
442,-18.70857223935974,-250.1065476110123,-64.8040898918745,-29.268036956276024,66.63369771336293,-3.227938120947915,259.07677674746145,74.22847194591112
443,-18.75245181486924,-250.128176880207,-64.70931517788469,-29.54543090912805,66.69574074939962,-3.155294894915992,259.07733207815085,74.49320034753556
444,-18.800914093252217,-250.14910685528156,-64.60897867316027,-29.772272242564487,66.7419336513801,-3.0776776738099607,259.07566913823507,74.70107139643659
445,-18.853101220526405,-250.1691871676594,-64.50502944943884,-29.93879349855215,66.77104922739359,-2.9949293246356747,259.07200153201495,74.84214373005247
446,-18.90808696744246,-250.1881286617523,-64.39961398040151,-30.036354298000003,66.78239997010478,-2.9070022997771776,259.0664632986192,74.90749369582912
447,-18.964888137154794,-250.20548313493381,-64.29505517535443,-30.057833346326962,66.77593334114523,-2.813987138456167,259.05908794510873,74.88960759722066
448,-19.022477725709315,-250.2206283130559,-64.19383117888135,-29.998019646304012,66.75231336408278,-2.71614241092726,259.04979262653416,74.7827764711945
449,-19.07980068772605,-250.2327596061571,-64.09855424139376,-29.853996607846998,66.71298149248575,-2.6139253685610186,259.03836903502366,74.58348217689975
450,-19.135793096465374,-250.2408896448009,-64.01195006627668,-29.62551282242715,66.6601906707272,-2.508022379119471,259.0244820486732,74.29076388141699
451,-19.18940505442328,-250.24385602341627,-63.93683816090497,-29.31533308988096,66.59700816204042,-2.3993779775401496,259.0076766311113,73.90655488943662
452,-19.239626998672975,-250.2403371034331,-63.876113683252484,-28.92956283030818,66.52728492226449,-2.289221054575133,258.9873928555774,73.43598104944279
453,-19.285518300265508,-250.22887518507738,-63.832730999899,-28.477938353916002,66.45559182765638,-2.1790863858708818,258.9629882779703,72.88761352280818
454,-19.32623653277982,-250.207905877842,-63.80968877381871,-27.974074760260383,66.38712564178981,-2.070829444465252,258.9337662837608,72.273670344883
455,-19.361065600205286,-250.17579214087183,-63.81001608017109,-27.43566264999178,66.32758992443995,-1.9666322926622517,258.8990085956102,71.61016273072264
456,-19.38944101553864,-250.13086130041262,-63.83675888239112,-26.884604416433554,66.28305785817709,-1.8689983388287297,258.85800993940387,70.91698325901224
457,-19.410970880851714,-250.07144339835045,-63.892966128180774,-26.347080658579824,66.25982497294304,-1.7807338986779235,258.81011291698104,70.21793372998826
458,-19.425451474275707,-249.9959093769319,-63.9816746878171,-25.853537324921003,66.26425988808654,-1.7049148697496428,258.75474130212575,69.54069061557323
459,-19.43287681623302,-249.90270771997135,-64.10589235259049,-25.438584782281794,66.3026605396942,-1.6448374413263134,258.6914301286491,68.916705788414
460,-19.43344213631539,-249.79039823297074,-64.26857811007922,-25.140801322175214,66.38112211006728,-1.6039525673091166,258.619851050404,68.38103991778723
461,-19.427541639946543,-249.65768176354885,-64.47261884685464,-25.002435709443073,66.50542121209664,-1.5857848170136586,258.5398316004374,67.97212575594826
462,-19.415761216638877,-249.5034249337541,-64.72080151529562,-25.069006059717438,66.68091893056254,-1.593837099762486,258.45136724293803,67.73145855094658
463,-19.39886674036824,-249.32667940002767,-65.01577976446865,-25.388795280972733,66.91248321213864,-1.6314835731050992,258.3546255515063,67.70321098275
464,-19.377788542935118,-249.12669579960001,-65.36003411254936,-26.01224619466488,67.20442902897007,-1.7018537194644803,258.24994250878143,67.93377035232542
465,-19.3536026147416,-248.9029333474144,-65.75582484824336,-26.99126203900699,67.56047297966524,-1.8077110578141473,258.13781176189764,68.47119638126846
466,-19.327509100452385,-248.65506672747767,-66.20513707314397,-28.378420341741606,67.98369776602846,-1.951330269654687,258.01886842606547,69.36459909358656
467,-19.300808680480465,-248.38299205250343,-66.70961789950456,-30.226110334914946,68.4765214245511,-2.134376731978912,257.8938693525254,70.6634380445977
468,-19.27487747055364,-248.08683309997,-67.27050684625556,-32.58560644031458,69.04066633786273,-2.357792593110755,257.7636715331327,72.41674676700235
469,-19.25114109657591,-247.76694804802253,-67.88856165042259,-35.5060930503846,69.67712386291744,-2.621693573839995,257.62920969431065,74.67228972803852
470,-19.231048514134905,-247.42393595213608,-68.5639827537858,-39.03365883845559,70.3861117527259,-2.9252805944902427,257.49147346785566,77.47566316039335
471,-19.216045887063704,-247.05864151034257,-69.29634053407246,-43.21028192645745,71.16702321582603,-3.2667701068097705,257.3514840624741,80.86935551412655
472,-19.20755047748118,-246.67215636429668,-70.08450987715838,-48.072830075732504,72.01836828009904,-3.643346640321254,257.21027018835343,84.89178761214066
473,-19.206924194724596,-246.26581523873855,-70.92661686323638,-53.65210232505579,72.93771000443509,-4.0511405410944255,257.06884306546965,89.57635657693231
474,-19.215446391052506,-245.84118550326502,-71.82000214431346,-59.97193995524155,73.92159993312832,-4.485233173701024,256.9281705569839,94.9505109884394
475,-19.234285721656427,-245.40004912064026,-72.76120508984143,-67.04843516037933,74.96551889129316,-4.9396909751965845,256.7891507084117,101.03488728213318
476,-19.26447121895997,-244.944376393313,-73.7459720790722,-74.88926521925762,76.06383062375203,-5.407628730565084,256.652585222764,107.84253883582697
477,-19.306862938272094,-244.47629144764315,-74.7692914749511,-83.49317817104603,77.20975676236222,-5.881301382651775,256.5191536696988,115.37828929368685
478,-19.362122598416793,-243.99802992943376,-75.82545675300666,-92.84965296764645,78.39538206275371,-6.352222730910076,256.38938942053414,123.63824028107474
479,-19.430684742719173,-243.5118897822063,-76.90815785312358,-102.93875292557148,79.61169862479683,-6.811308599181656,256.26365826245114,132.6094607033963
480,-19.51272919917101,-243.02017620692536,-78.01059908707128,-113.73118635156922,80.84869670364276,-7.249041464343232,256.14214035371816,142.26988035513304
481,-19.608155952967227,-242.52514209420733,-79.12564011645865,-125.18858285266059,82.09550760049878,-7.655653080116278,256.0248158294462,152.5884047904221
482,-19.716563818250872,-242.0289255461008,-80.245954946665,-137.26398825815548,83.34060104462381,-8.021321210705256,255.9114541983288,163.52526155012706
483,-19.837234418541442,-241.53348664233448,-81.36420277469196,-149.90257513553522,84.57203571618064,-8.336376077885282,255.80160781552138,175.03258003329586
484,-19.969122909290228,-241.04054630904065,-82.47320390786247,-163.04255921800168,85.77775756972507,-8.591511427807761,255.69461013942205,187.05519859985307
485,-20.110856606680144,-240.55153080425097,-83.56611374581215,-176.61630442575628,86.94593689870696,-8.777994284259549,255.58957995922003,199.53168302556938
486,-20.26074233567233,-240.06752558088138,-84.6365878926211,-190.5515907113874,88.06533202324623,-8.887866653617877,255.48543295740083,212.39553057553917
487,-20.416783028918264,-239.58924181370625,-85.67893180608505,-204.77301040242907,89.12566528757337,-8.914131893568873,255.38090156165097,225.57652444622897
488,-20.576703957162852,-239.11699769143854,-86.68822904748353,-219.20345120092725,90.11799571918665,-8.850918306162415,255.2745630814301,239.00219515818807
489,-20.73798889458245,-238.6507150406834,-87.66044324282443,-233.7656187628573,91.03507209276631,-8.693612840111076,255.16487498387477,252.599339702141
490,-20.897926392535723,-238.18993041681387,-88.59249029009169,-248.38354972210996,91.87165012608847,-8.438958612970143,255.05021525434734,266.2955466302435
491,-21.053666020712818,-237.73381874684318,-89.48227899636922,-262.98406746564575,92.62475810638468,-8.085111310267683,254.92892530963607,280.02067617120554
492,-21.202283900423758,-237.28122702290943,-90.32872000403427,-277.4981376515197,93.29389653329383,-7.6316513807662405,254.79935289092012,293.7082486855551
493,-21.340856221022772,-236.83071539197738,-91.13170441821842,-291.8620877479762,93.88115952293943,-7.079551239085141,254.65989268831473,307.2967018491146
494,-21.466538887653225,-236.38060314369537,-91.89205488279792,-306.01866394725494,94.39126876444753,-6.431099234570566,254.50902300372758,320.73048610774157
495,-21.576651083595394,-235.92901738575833,-92.61145288034422,-319.91790882199473,94.8315145636759,-5.689784710173102,254.3453373509319,333.960978306792
496,-21.6687602534604,-235.47394252361664,-93.29234671277526,-333.51785321027586,95.211602658856,-4.860150776268423,254.16757041221854,346.94720405825177
497,-21.740765683808583,-235.01326908122869,-93.93784503027459,-346.7850251834276,95.54340984216006,-3.9476232041369843,253.97461828215626,359.6563694680163
498,-21.790977440533418,-234.5448409676385,-94.55160100425186,-359.69478661678573,95.84065588025841,-2.9583249496597666,253.76555351015372,372.06421135556144
499,-21.818186998382547,-234.06650093895306,-95.13769220665097,-372.2315128509294,96.11850368574434,-1.898886194501297,253.53963601557166,384.15518106513116
500,-21.82172562554896,-233.57613457360014,-95.7005007753816,-384.3886324436885,96.39310388913415,-0.7762594181272144,253.2963212950087,395.92247958515884
501,-21.801506678842426,-233.0717134475835,-96.2445974948101,-396.1685419197074,96.68110348865945,0.40245209430495144,253.03526736807896,407.3679606911948
502,-21.758048586596313,-232.55133831722773,-96.77463229402343,-407.5824053518945,96.99914065521466,1.630145640562873,252.75634169146016,418.5019146789723
503,-21.692476435037307,-232.0132829889188,-97.29523279083041,-418.649841814956,97.36334865213863,2.899845900107267,252.45962896668752,429.34273907042984
504,-21.606501524625003,-231.45603916690874,-97.81091212008339,-429.398496771891,97.78889096836319,4.204805062247068,252.1454404331571,439.91649590051395
505,-21.502379697520773,-230.87836190011825,-98.3259872613318,-439.86348778573876,98.28954718471721,5.538576579156981,251.8143247792378,450.25634930759765
506,-21.382850352362446,-230.27931437510665,-98.84450909129892,-450.08671182379805,98.87736509332187,6.895064908563534,251.46708013830812,460.4018734482471
507,-21.251058790951898,-229.65830997295214,-99.37020517575039,-460.11600163280406,99.56238964215163,8.268555164602555,251.10476588641959,470.39822013501
508,-21.110465095383752,-229.01514902273541,-99.90643586431875,-470.00412245799305,100.35247391473621,9.653727561142384,250.72871241209268,480.29513841655995
509,-20.964743320388976,-228.3500476586737,-100.45616367442207,-479.8076074488392,101.25317212648925,11.045661909070343,250.34052685514365,490.14584438910083
510,-20.81767529508478,-227.66365645300797,-101.02193529984862,-489.5854396334881,102.26771004706708,12.439837207482059,249.9420928666864,500.0057481473533
511,-20.673043441601074,-226.95706679716582,-101.60587484153154,-499.3975991815081,103.39702474235209,13.83213057274995,249.53556245800172,509.93105486883024
512,-20.534526616264195,-226.23180327262966,-102.20968607137017,-509.30350549788704,104.63986326688841,15.21881852024309,249.12333792384666,519.9772673194224
513,-20.405602284834888,-225.48980065152057,-102.83466084251133,-519.3603932801185,105.99292893269053,16.596582177941432,248.70804186592645,530.1976263752698
514,-20.289457645715355,-224.73336488553022,-103.48169038531225,-529.6216690581792,107.45106388969492,17.96251657292991,248.2924737979604,540.6415335032207
515,-20.18891172651469,-223.96511847764523,-104.1512764502383,-540.1352992977199,109.00745770910609,19.314142828215342,247.8795528055618,551.3530038680201
516,-20.106349987360524,-223.18793176285004,-104.8435401758445,-550.9422826393062,110.65387310944952,20.649421064078766,247.47224710263683,562.3692005383847
517,-20.043672555057285,-222.40484261056244,-105.55822793284177,-562.0752574408057,112.38088152691493,21.966761167124307,247.07349275385698,573.719099242535
518,-20.002256877996032,-221.61896779787722,-106.29471481406928,-573.557292043955,114.17810257321045,23.265028500719485,246.68610505483628,585.4223297607476
519,-19.982935310710516,-220.833409756332,-107.0520076140262,-585.4008998977584,116.03444234136558,24.54354212908019,246.3126869263976,597.4882350814947
520,-19.98598787458738,-220.05116250735009,-107.82874990898081,-597.6073155810697,117.93832599838295,25.802064155064418,245.95553906366564,609.9151836115404
521,-20.01115013277432,-219.27502034698946,-108.6232320025575,-610.1660612512477,119.87792029143397,27.04078012491183,245.6165763681832,622.690163412349
522,-20.057635688745652,-218.50749234824454,-109.43340787800864,-623.0548260070129,121.84134166982764,28.260271772219365,245.2972544216825,635.78868056171
523,-20.124172256745354,-217.75072527493253,-110.25692009399738,-636.2396726783918,123.81684576477598,29.461484291795674,244.9985087460645,649.1749759066853
524,-20.209049635574637,-217.0064372191355,-111.09113231304727,-649.6755772447216,125.79299396846709,30.64569068685327,244.7207087271769,662.802565283029
525,-20.310177392808427,-216.2758641364362,-111.93316828114392,-663.3072953547683,127.75879288507194,31.81445559088249,244.463627509068,676.6150976696534
526,-20.425149797397232,-215.55972132714638,-112.77995561135953,-677.0705386659469,129.7038027169996,32.96960050046338,244.2264287973777,690.5475141563909
527,-20.551315583581456,-214.85818177434768,-113.6282725072855,-690.8934316875059,131.61821145583696,34.113171722635386,244.0076712642999,704.5274788281832
528,-20.685850365066646,-214.17087309338652,-114.47479552627198,-704.6982083624512,133.49287314803848,35.247411634870346,243.80533108280494,718.4770415690758
529,-20.825829720164673,-213.49689446438558,-115.31614666632021,-718.4030974719748,135.31931033352652,36.374733107925636,243.61684285580955,732.3144830356479
530,-20.968300973482044,-212.8348540406585,-116.14893850196556,-731.9243376141743,137.08968272120433,37.497696165769156,243.43915861768605,745.9562840947937
531,-21.11035152418549,-212.18292601845872,-116.9698167386233,-745.1782564009762,138.79672603151081,38.61898520964093,243.26882370546778,759.3191562198648
532,-21.249171410485815,-211.53892523452552,-117.7755001977545,-758.0833450097126,140.43366654801744,39.7413844995521,243.10206741029808,772.3220660394214
533,-21.382107905876982,-210.90039615227278,-118.56281864299264,-770.5622586750371,141.99411808661495,40.867749099582426,242.93490561660815,784.8881867562628
534,-21.50671045372403,-210.26471237288953,-119.32874897646785,-782.5436763718562,143.47196852534722,42.00096810624529,242.7632520870634,796.9467117088545
535,-21.620765101312852,-209.62918217201536,-120.07045038550221,-793.9639588646761,144.8612624947476,43.14391663513476,242.58303458399698,808.434470938176
536,-21.722318571361942,-208.99115494542062,-120.78529914666608,-804.768553230424,146.15608533241686,44.299392782293914,242.39031161858134,819.2973000169719
537,-21.809692948398173,-208.34812295812762,-121.4709238418389,-814.9131033846321,147.35045137237816,45.470035773951416,242.1813852811182,829.4911211752888
538,-21.881492481326422,-207.69781264744472,-122.12524143185578,-824.3642394137181,148.43819775844548,46.65822197200941,241.95290536490342,838.9827094176329
539,-21.9366041937756,-207.03826016540668,-122.74649390740942,-833.1000329536039,149.41288388269194,47.86593640938336,241.7019600234398,847.7501303156482
540,-21.9741939992339,-206.36786697729238,-123.3332843440588,-841.110120634342,150.26769652328016,49.09461903576392,241.4261487327751,855.7828507118493
541,-21.99370003959141,-205.68543305309993,-123.88461047348912,-848.3955116251951,150.99536158106295,50.34498672398262,241.12363446082202,863.0815375559324
542,-21.9948250489921,-204.99016723873874,-124.39989354076049,-854.9681072262345,151.58806450040615,51.6168341986504,240.79317354845747,869.6575721112895
543,-21.977529491451538,-204.28167651017998,-124.87900025802816,-860.8499690572727,152.03738259014105,52.9088193243015,240.4341236451804,875.5323155585946
544,-21.942026785328824,-203.55993772853506,-125.32225603718739,-866.0723771083425,152.33423342915674,54.21824054575101,240.04643184047245,880.7361669899119
545,-21.8887810995036,-202.8252569031597,-125.73044833994942,-870.6747200010831,152.46884446371314,55.54081657877529,239.63060659274467,885.3074562026613
546,-21.818507230274253,-202.07822158493244,-126.10481984909369,-874.7032581959016,152.4307498032075,56.870480524675685,239.18767795503138,889.291212473201
547,-21.73217123400919,-201.31965186798166,-126.44705210386353,-878.2097977526897,152.20882083126176,58.19920219256999,238.71915090100774,892.7378477186974
548,-21.630989978896604,-200.55055481128642,-126.75924109974898,-881.2503086770135,151.79133714454815,59.51685329040082,238.22695640386053,895.7017890969627
549,-21.51642765668805,-199.77208611111888,-127.04386702646529,-883.883518567003,151.16610321203703,60.811130051337585,237.71340444728347,898.2400927766423
550,-21.39018754047331,-198.9855216290847,-127.30376073794314,-886.169509509315,150.32061397462536,62.067546637052224,237.18114237286093,900.4110676064388
551,-21.254197791656456,-198.19223999378312,-127.54206956758925,-888.1683439004516,149.2422695901709,63.26951028232559,236.63312087439823,902.2729347037097
552,-21.110590791761183,-197.39371615829475,-127.76222456580498,-889.9387428268222,147.91863612689352,64.3984858143909,236.0725686177251,903.8825463943215
553,-20.961676225004023,-196.59152469092166,-127.96791023744667,-891.5368384905087,146.33774587133203,65.4342532920648,235.50297508469973,905.294185265576
554,-20.80990890087543,-195.78735073235794,-128.16303675408307,-893.0150196643793,144.48842865994,66.35525851478172,234.92808002228867,906.5584612143848
555,-20.657852937198037,-194.98300596683367,-128.35171371931148,-894.4208862909543,142.3606645538078,67.13905241431634,234.35186697253113,907.721321338215
556,-20.508144214141733,-194.1804466944543,-128.53822392299622,-895.7963264267887,139.94594813274162,67.76281204934163,233.77855782978546,908.8231846306198
557,-20.363452857380697,-193.38179121127442,-128.72699503442286,-897.1767262594991,137.23765530627503,68.20393303409855,233.2126052020651,909.8982111095614
558,-20.226447003324594,-192.58933413412495,-128.92256683242977,-898.590322121818,134.2314043856674,68.44068053480774,232.65867948332803,910.9737133641686
559,-20.099758397246884,-191.80555585310054,-129.12955150508375,-900.0577019914834,130.92540381585684,68.45288324351357,232.12164790948927,912.0697171676212
560,-19.985949613626296,-191.03312572998195,-129.35258500719732,-901.5914622150423,127.32077898808642,68.22265192244302,231.6065434279873,913.1986760222073
561,-19.8874820492087,-190.27489786348278,-129.59626852542232,-903.196022632561,123.42186951946692,67.7351013565423,231.11852192106343,914.3653417351128
562,-19.806683558748425,-189.53389827001465,-129.86510055325306,-904.867600108146,119.23648616057238,66.97905219750393,230.66280713601267,915.5667895707973
563,-19.745714824427054,-188.8133023667203,-130.16340150560146,-906.5943375215413,114.7761134810403,65.94768760891453,230.24462352442245,916.7925930942932
564,-19.706534170614702,-188.11640186411248,-130.49523379386324,-908.3565833482744,110.05604154362985,64.63913908126591,229.869117979506,918.0251414333869
565,-19.690861245524058,-187.446560644011,-130.8643205737303,-910.1273161115937,105.09540786666851,63.056976350969094,229.54127206375364,919.2400905375238
566,-19.700140512989787,-186.80715988891288,-131.27396595559642,-911.8727074588626,99.91713085190506,61.210577980070255,229.26580668428073,920.4069394265855
567,-19.735505789836765,-186.20153355866273,-131.72697863964237,-913.5528163587622,94.547717974931,59.11536173332886,229.04708140236048,921.4897214201503
568,-19.79774727203572,-185.6328961055082,-132.22560021311313,-915.122404316604,89.01693653911222,56.79285733922085,228.8889908145897,922.4477983103376
569,-19.88728271772134,-185.10426484834457,-132.77143908736298,-916.5318577112391,83.35734148360497,54.27060850384424,228.79486073992078,923.236742496717
570,-20.00413462017393,-184.61837959729772,-133.36541121829725,-917.7281992075307,77.60366304898142,51.5818961382494,228.76734718097472,923.8092889852852
571,-20.147915191893087,-184.1776220623275,-134.00768904715446,-918.6561668839566,71.79206614256974,48.765280551690736,228.80834112470808,924.1163369148503
572,-20.31782084228075,-183.78393744230075,-134.6976603344043,-919.2593383062908,65.95930193036061,45.863966597625065,228.91888223341675,924.1079798240509
573,-20.51263772827461,-183.4387603236891,-135.43389884841073,-919.4812777712707,60.14177955274028,42.92500208960681,229.09908440627558,923.7345455796343
574,-20.73075992649229,-183.14294649432648,-136.2141493623579,-919.2666880401083,54.374591382687434,39.998325945417285,229.34807606105602,922.9476304049315
575,-20.97022162602827,-182.8967116013719,-137.0353298911518,-918.5625521180363,48.69052890223402,37.135688323466134,229.66395772229228,921.7011158466045
576,-21.22874417039362,-182.69957709535478,-137.8935540891692,-917.3192547501336,43.11912840816675,34.38947038079153,230.04377905268728,919.9521616066763
577,-21.503797584617793,-182.5503238463984,-138.7841760655131,-915.4916761080846,37.68578679862518,31.81143599183607,230.48353690092884,917.6621698225553
578,-21.792674462412595,-182.4469541672294,-139.70185884131607,-913.040250757375,32.4109879250095,29.451451480698683,230.9781954194975,914.7977167579304
579,-22.092572095027347,-182.3866635839138,-140.6406665528609,-909.9319829449488,27.309679454576397,27.35621175915027,231.52172891487746,911.3314455139791
580,-22.40067703845177,-182.36582440135894,-141.59417928707217,-906.1414045569213,22.390838638663382,25.56801188740097,232.10718774703474,907.2429083152724
581,-22.71424544794568,-182.37998373977356,-142.55562802201473,-901.6514553918233,17.657262295503156,24.123601792237313,232.7267871386494,902.5193398085617
582,-23.030672654966228,-182.42387914016572,-143.51804559802954,-896.4542578560497,13.105610922055758,23.053158790719174,233.37201814169256,897.1563348447847
583,-23.347546475976344,-182.49147500327038,-144.47442818835427,-890.5517512530889,8.726728305889589,22.379408052976807,234.03377932927788,891.1583968873874
584,-23.662680329329454,-182.57602296066352,-145.4179006236799,-883.9561458557242,4.5062457298472065,22.116915658134,234.7025271089782,884.5393179211609
585,-23.974124072456757,-182.6701486265198,-146.34187840627752,-876.6901550124343,0.4254638300758291,22.271572910257543,235.36844190163077,877.3223486777456
586,-24.280152274657567,-182.76596594869494,-147.24021955682463,-868.7869655134392,-3.537513885179741,22.840284559199244,236.02160684241696,869.5401200369762
587,-24.579231285550332,-182.85521865703964,-148.10736062755487,-860.2899130376089,-7.406442389014106,23.810867935974375,236.65219523647147,861.2342832766072
588,-24.869967988936267,-182.92944634797405,-148.9384330463256,-851.251841180612,-11.205457661991817,25.162164977213646,237.25066279408966,852.4548487873893
589,-25.151044597811634,-182.98017084421605,-149.72935793144566,-841.7341391711611,-14.957542939401971,26.864364621552458,237.80794060223988,843.2592196658668
590,-25.42114517544361,-182.99909683861245,-150.47691908970168,-831.8054736097941,-18.683031193357152,28.87952887753382,238.31562466269352,833.7109368517547
591,-25.678880591627408,-182.9783195945108,-151.17881474409813,-821.5402507942825,-22.39823792800741,31.162311752784426,238.76615750269173,823.8781735712851
592,-25.922719166015266,-182.91053177311096,-151.83368863490713,-811.0168651545172,-26.114310676537865,33.66085615627208,239.1529969338013,813.832035588485
593,-26.150930162314864,-182.78922144525262,-152.44114074359723,-800.3158032433232,-29.836365343537217,36.31785002221968,239.47076676109103,803.6447374797193
594,-26.361546501404565,-182.60885404768064,-153.00171731592548,-789.5176802032504,-33.56295681526474,39.071719421707066,239.7153843399172,793.3877324405495
595,-26.552351634839102,-182.36503227507248,-153.51687936911756,-778.7012866708714,-37.285905009908234,41.85793323803159,239.88416037083758,783.1298739490131
596,-26.7208937065755,-182.05462930404252,-153.98894869824275,-767.941719725046,-40.990470992797164,44.61039083746377,239.97586711822353,772.9356828491199
597,-26.864528256879783,-181.6758919419329,-154.42103085903278,-757.3086633360526,-44.655853986151925,47.26286097763076,239.9907722732242,762.8637845866448
598,-26.980489054051894,-181.228511066316,-154.8169159410167,-746.864873668756,-48.255961518134924,49.75043722919475,239.93063697402437,752.9655702822081
599,-27.065985231478457,-180.71365716043982,-155.18095999169694,-736.6649142521784,-51.76039308095445,52.01097301697188,239.79867801277922,743.2841239316684
600,-27.11832160761346,-180.13397919048555,-155.51795210438453,-726.754176518293,-55.135572853206746,53.986458658364334,239.5994958477661,733.853447580703
601,-27.135037750281178,-179.4935658305911,-155.83297378876645,-717.1682124968262,-58.34596860805335,55.624303927484874,239.3389715102754,724.6980070091406
602,-27.114060124715323,-178.7978691891224,-156.1312579571102,-707.932397493578,-61.3553405291508,56.87849278581789,239.02413668776705,715.8326113733741
603,-27.053860760385437,-178.05359257583655,-156.41805465231712,-699.0619301760289,-64.1279736865644,57.71058178725573,238.66302207066633,707.2626302072771
604,-26.953615314982564,-177.26854531722347,-156.69850965200766,-690.5621653039335,-66.62985979643547,58.09051992566929,238.2644894418104,698.9845397481728
605,-26.81335300479331,-176.4514691208024,-156.97756047558647,-682.4292612756271,-68.8298060972102,57.997274860755226,237.83805301174394,690.9867784574858
606,-26.634090480309844,-175.61184198469545,-157.25985228466322,-674.6511122229425,-70.70046026804613,57.41925792087855,237.39369524714175,683.2508801138907
607,-26.4179415101185,-174.75966703182252,-157.5496739941479,-667.2085236430753,-72.2192489377146,56.35454743200515,236.94168202261864,675.7528427922675
608,-26.168194614331373,-173.90525465244738,-157.85091305318946,-660.0765816434265,-73.36923246136566,54.81091629957224,236.4923814793152,668.4646833756007
609,-25.889351792150286,-173.05900660395986,-158.16702625996936,-653.2261584777215,-74.13987985595831,52.80567505107569,236.05609055551344,661.3561196003221
610,-25.58712320290101,-172.2312099919517,-158.5010238353994,-646.6254912347642,-74.52776536423556,50.36534549523597,235.64287271810986,654.3963151073184
611,-25.268374838986713,-171.43184741268192,-158.855464654015,-640.2417671374492,-74.53718292383977,47.525182663057315,235.26240990864886,647.5556184911715
612,-24.941028564021064,-170.67042734565266,-159.2324616098357,-634.0426491209863,-74.18066801645469,44.3285638025024,234.92387109330704,640.8072262427032
613,-24.613916172589676,-169.9558366112509,-159.633697054199,-627.9976799048634,-73.47940912495528,40.826263006120186,234.63579903126387,634.1287026202266
614,-24.29659123851054,-169.29621476195987,-160.06044869966348,-622.0795112368244,-72.46352432652169,37.07562869837943,234.4060159716939,627.5032965770558
615,-23.99910433095599,-168.69884894917195,-160.51362631529145,-616.2649159080296,-71.17217320281208,33.139678906107335,234.24154813609078,620.9210055834434
616,-23.731748580455836,-168.1700871930564,-160.99381909164637,-610.5355518405075,-69.65347093824356,29.086126285062196,234.14856819571773,614.3793469649792
617,-23.50478355896622,-167.71526790980516,-161.50135271674594,-604.8784590474494,-67.96417087830166,24.986341657407458,234.13235438517216,607.8838083947791
618,-23.32814608283087,-167.33866369971295,-162.0363539601621,-599.2862814571274,-66.16908465906205,20.91426179400667,234.1972641735072,601.44796047558
619,-23.211156902949224,-167.0434375682681,-162.5988192901952,-593.7572166433672,-64.34021586086175,16.945244963216737,234.34671966414015,595.0932262497271
620,-23.162232248472755,-166.831609975613,-163.18868334048793,-588.2947072927293,-62.55559392297538,13.154877053318796,234.58320153851912,588.8483149163633
621,-23.188608757544557,-166.70403549091296,-163.80588311991676,-582.9068983209064,-60.89780889121398,9.617732300727683,234.90824861656117,582.7483394948342
622,-23.296089518783997,-166.6603883559589,-164.45041449202023,-577.6058923292297,-59.45226310430327,6.406095661033848,235.3224608202525,576.8336498567111
623,-23.488817984065516,-166.6991568343637,-165.12237834466916,-572.4068428343836,-58.30517185676952,3.588657902282191,235.8255042432972,571.1484224949363
624,-23.76908566287625,-166.8176467344158,-165.8220148755286,-567.3269288169467,-57.54136027771226,1.229198748844696,236.41611799542972,565.7390557973803
625,-24.13717892583671,-167.0119948680938,-166.54972545755035,-562.3842556670827,-57.24191710129723,-0.6147225232397732,237.09212341223238,560.6524243023212
626,-24.591269898421164,-167.2771934250462,-167.30608253880808,-557.5967272827648,-57.48177683042963,-1.893045654793309,237.85043702530584,555.9340480181909
627,-25.12735615750812,-167.60712634443192,-168.09182883253334,-552.9809327045133,-58.32730943725372,-2.5644297276056567,238.6870892926981,551.6262341166087
628,-25.73925359725312,-167.99461884018703,-168.90786747322812,-548.5510886588379,-59.834000753716445,-2.5973839205252185,239.5972514015502,547.766248517649
629,-26.41864628628914,-168.43150136760178,-169.75524468508743,-544.3180767170608,-62.044306675742334,-1.9712739644537953,240.57527240803404,544.3845740297527
630,-27.15519624166652,-168.90868953923948,-170.635125765817,-540.2886100486465,-64.98576008711504,-0.6771671975738388,241.61472853394457,541.5033093615212
631,-27.93671463516472,-169.4162816747586,-171.5487639683341,-536.4645592103537,-68.66940135089615,1.2815215418228298,242.7084855814052,539.1347587611449
632,-28.749394014533383,-169.94367560270342,-172.49746056397848,-532.8424585496178,-73.0885921664905,3.8886192229751106,243.84877429360338,537.2802547862514
633,-29.578098876673565,-170.47970595007197,-173.48251348968643,-529.4132051140105,-78.21825975279567,7.115050611618732,245.02727739543727,535.9292472969064
634,-30.40670964675056,-171.012802492623,-174.5051518443444,-526.1619519410394,-84.01460501549155,10.918985100641981,246.2352262754183,535.0586816973042
635,-31.218512911393557,-171.531169194546,-175.566454234806,-523.068188784379,-90.41529567345168,15.246289067066478,247.46350492655972,534.6326802251473
636,-31.996628562719238,-172.02298232568555,-176.6672505725071,-520.1059963816647,-97.34015368141772,20.031287739671342,248.7027588338868,534.6025322810159
637,-32.724462330186526,-172.47660459907388,-177.80800912924636,-517.2444549586306,-104.69233523404537,25.19782963414865,249.94350686058084,534.9069929221924
638,-33.386170264137526,-172.88081081803608,-178.98871296096723,-514.4481830040042,-112.35999011637787,30.66063629751837,251.17625463739532,535.472881735051
639,-33.967120455308795,-173.22501924571526,-180.20873174524542,-511.6779780153761,-120.2183742854896,36.32691083917924,252.3916083393299,536.2159667707316
640,-34.45433677954894,-173.49952190582658,-181.4666964911939,-508.8915275434821,-128.13237515972196,42.09817047928889,253.5803880049977,537.0421106577961
641,-34.83690962970354,-173.69570635017678,-182.76038546801712,-506.044158042609,-135.95939365369807,47.872260909553496,254.73373974388684,537.8486500203702
642,-35.1063592923227,-173.80626116176327,-184.08662997500602,-503.0895921859716,-143.55251145422898,53.54550361938975,255.8432462637234,538.5259764814923
643,-35.2569387943665,-173.82535765086692,-185.44124805756283,-499.98069236232817,-150.76385778082633,59.01492170279421,256.9010350381436,538.9592880519342
644,-35.28586463213553,-173.748800862497,-186.8190129027433,-496.67017713913276,-157.44807879536742,64.18048531668276,257.8998830925367,539.0304822338144
645,-35.193465674909724,-173.57414415378278,-188.21366068593662,-493.1113056659307,-163.46580676183697,68.94731520087372,258.83331698527894,538.6201645222507
646,-34.983242588936506,-173.30076310101242,-189.61794053500844,-489.2585298026854,-168.6870259070097,73.2277817311921,259.69570631482435,537.609746292448
647,-34.66183240304268,-172.92988604301047,-191.02370731505684,-485.0681142853984,-172.99423709751454,76.94343794489703,260.48234897960043,535.8836036281244
648,-34.23887560218624,-172.46457985433256,-192.42205615463342,-480.4987225432763,-176.28533223294625,80.02672783482123,261.18954631845196,533.331264290816
649,-33.72678663884004,-171.9096905369193,-193.80349603128897,-475.5119621602398,-178.47609994565582,82.42241611162686,261.81466618545716,529.8495856368469
650,-33.140432871114555,-171.27173918998184,-195.15815831466853,-470.07288155529574,-179.50229582960316,84.08869298893089,262.35619212804465,525.3448837486948
651,-32.4967311494998,-170.55877522338125,-196.47603481844163,-464.150408969542,-179.32122265036813,84.99791755071688,262.8137572133203,519.7349740495652
652,-31.814175067783534,-169.78019050024912,-197.7472385042285,-457.7177254243236,-177.91277861824344,85.13697543130193,263.18816162151535,512.9510853275809
653,-31.112309097636285,-168.94650027774813,-198.96227855321183,-450.75256342744996,-175.27994473857257,84.50723995174324,263.48137380017647,504.9396108663387
654,-30.411168478068017,-168.06909894543458,-200.11234027578922,-443.2374219248539,-171.44869578791796,83.12413980076158,263.6965156346876,495.6636614549864
655,-29.73070570134587,-167.16000020278443,-201.18955950690497,-435.1596855836462,-166.46733429793622,81.01635050234145,263.8378326318229,485.1043859234666
656,-29.09022531930835,-166.23157221425353,-202.18728096399036,-426.5116341803715,-160.40526361052963,78.22464085884809,263.9106505111414,473.26202678003824
657,-28.507848261294505,-165.29627835652548,-203.10029064232185,-417.2903273496837,-153.351234227923,74.80041827960406,263.92131988155137,460.15668267886906
658,-28.00002505848689,-164.36643342545952,-203.92501351596783,-407.4973527081103,-145.41111572887192,70.80402696604682,263.8771507558779,445.82875622212737
659,-27.581114766908783,-163.45398360560884,-204.65966918088498,-397.13843183747775,-136.70526238200168,66.30285930208058,263.78633828337513,430.33907442904496
660,-27.263043168471636,-162.5703161817963,-205.30437932132799,-386.22288779762187,-127.3655529136411,61.36934352498727,263.6578801198472,413.7686788231279
661,-27.05504982904531,-161.72610215033055,-205.86122209762317,-374.7629878933641,-117.53219339137415,56.07887074180164,263.5014845535572,396.218291123005
662,-26.963528812531607,-160.93117208761973,-206.33423005183926,-362.77318459382536,-107.35037682343486,50.50772270005381,263.3274674253656,377.80746784045306
663,-26.99196288036921,-160.19442335470066,-206.72933006188947,-350.2692846213158,-96.96689347136578,44.73105920319237,263.1466354789305,358.67346190587
664,-27.14094667231107,-159.52375508826768,-207.05422612714753,-337.26758073848856,-86.52678190121291,38.82102107417181,262.970154087625,338.96981151067365
665,-27.40829114732186,-158.9260263434058,-207.31822808806575,-323.7839827218172,-76.17010340203846,32.845001102591034,262.80939809726794,318.8646762190936
666,-27.78919947617246,-158.40703225252824,-207.53203152123945,-309.83318403245676,-66.02891339863984,26.864131037691212,262.675785632485,298.5389392821004
667,-28.27650344758348,-157.97149333939376,-207.70745583544678,-295.4278996145047,-56.224494604680864,20.9320268291393,262.5805961094899,278.18409432398647
668,-28.860949115456464,-157.62305418587445,-207.8571489476998,-280.57820861097326,-46.86490886227091,15.093826590591162,262.5347753167221,257.99993501926053
669,-29.53152065852217,-157.36428919739535,-207.9942678195411,-265.29103361394687,-38.04291803223624,9.38554613291055,262.5487320530075,238.19206818907995
670,-30.275791950562276,-157.19671477395505,-208.13214455116793,-249.5697849793093,-29.834318509894075,3.833765648287699,262.6321321075493,218.96927354384334
671,-31.080295927400954,-157.12080827415025,-208.283947677138,-233.41419421851944,-22.296728248066536,-1.5443512531626402,262.7936960144705,200.54073646731172
672,-31.930902379522188,-157.13603450205,-208.46234796412756,-216.82035423516942,-15.468858748101196,-6.740717689502327,263.04100699022143,183.11318332372483
673,-32.813195218895764,-157.24088023554532,-208.67919768929508,-199.78097650256134,-9.370296370654446,-11.755686584432818,263.3803351098794,166.88795187649194
674,-33.712840552729084,-157.4328970002164,-208.94523227573396,-182.28586703992713,-4.001806575373636,-16.597151306463562,263.81648352373406,152.0580331940951
675,-34.615937148067644,-157.70875217771254,-209.26980317706855,-164.32261507684862,0.6538392045301256,-21.27942751006549,264.35266247241566,138.80512653962464
676,-35.509341201707166,-158.06428863378648,-209.6606506764341,-145.87748077017463,4.630531243940226,-25.82196677534484,264.9903967642848,127.29675516583282
677,-36.38095779254998,-158.49459328825066,-210.12372439029224,-126.93646061173948,7.977020070149922,-30.24795757703494,265.7294718805328,117.68349769810551
678,-37.21999206848074,-158.99407542709423,-210.66305752510198,-107.486500259985,10.754702303313008,-34.58287191517075,266.5679228146846,110.09639528706023
679,-38.017154248242804,-159.55655599890892,-211.28069841078678,-87.5168139837184,13.035069753989813,-38.853016144228114,267.5020681790381,104.64459741474789
680,-38.764813956917536,-160.17536934452082,-211.97669989053338,-67.02025847886378,14.89691469882253,-43.084141621994895,268.5265901327471,101.41330836860914
681,-39.45710110137595,-160.84347844919037,-212.74916429246966,-45.9946985193236,16.4233967097568,-47.30016474670237,269.63465848088333,100.46209229451176
682,-40.089952129162974,-161.5536038388852,-213.5943394176366,-24.44429526363377,17.699083056908858,-51.522037427886815,270.8180951608443,101.82358861151513
683,-40.66110187887643,-162.29836495884803,-214.50675948363127,-2.380647033939809,18.807075153726476,-55.766799072968524,272.0675735973519,105.50268268608643
684,-41.170022369649494,-163.0704316502974,-215.47942418844994,20.176282356204855,19.826328058451022,-60.04683085306023,273.372846242196,111.47616951160707
685,-41.617811085799836,-163.8626823980965,-216.5040087540339,43.19750192751348,20.829259304016723,-64.36932335159852,274.7229929977728,119.69294018334418
686,-42.007032842880186,-164.6683653987443,-217.57109775276697,66.6446382995349,21.879728111254543,-68.7359603993608,276.10668304341317,130.0747110764991
687,-42.34152114434094,-165.48125814863135,-218.67043562169434,90.46991062869718,23.031447411719462,-73.1428150995751,277.51244273738666,142.5173028465385
688,-42.626146816114066,-166.29582109319452,-219.79118703723375,114.61644352261375,24.32687045219651,-77.58044850175727,278.9289226743772,156.89246051005836
689,-42.866563381006436,-167.10734084031506,-220.9222007605546,139.01891104596737,25.79657266602246,-82.03419694472377,280.34515755813385,173.050187934985
690,-43.06893989783113,-167.91205853842877,-222.05227106512052,163.60449213973752,27.45912937416674,-86.48463088468122,281.7508131925609,190.82155204586795
691,-43.23969270592374,-168.7072792881289,-223.17039121249425,188.29410740062838,29.32147150446332,-90.90816614037087,283.1364154365196,210.02189612574492
692,-43.38522765989762,-169.49145885780376,-224.26599346139335,213.0038995923418,31.379685029134507,-95.27780763610718,284.493556234546,230.45438927828567
693,-43.51170406839229,-170.26426443773016,-225.32916978462274,237.6469153234672,33.6202050471917,-99.56400527976413,285.8150718017784,251.91383069416213
694,-43.62483065779525,-171.02660669520552,-226.35086714563258,262.13494220205945,36.021342275770095,-103.73560089175456,287.09518796113576,274.1906220768078
695,-43.7297023086482,-171.7806410551293,-227.32305134258962,286.3804535012078,38.55506840080023,-107.76084357110096,288.3296279152088,297.0748183576802
696,-43.830683891647716,-172.52973696202847,-228.23883434648894,310.2986105215296,41.18897794130989,-111.60844825207961,289.51567861018503,320.3601650903686
697,-43.931344339814665,-173.27841483022112,-229.0925616189296,333.80927160308727,43.88833885145518,-115.24866850903649,290.6522132006066,343.8480307305895
698,-44.034440518535725,-174.03225135171894,-229.87985778175636,356.83895635694864,46.618142580133686,-118.65435041780593,291.7396686917067,367.3511436459211
699,-44.141947008425355,-174.79775471211005,-230.59763096486896,379.3227140442153,49.34506677119753,-121.80193048993357,292.77997942376624,390.69704721563966
700,-44.25512503622413,-175.58221206153274,-231.2440379536421,401.205845972696,52.039269924878845,-124.67233863685918,293.7764685468783,413.7311918386498
701,-44.374621740128134,-176.39351239196307,-231.81841366038066,422.44543363618203,54.67594677232433,-127.25176786457294,294.7337009215674,436.3195904846797
702,-44.50058976389907,-177.23994883115162,-232.32116937068875,443.01162783466816,57.236585392348125,-129.53227636912013,295.6573019392173,458.35097518347857
703,-44.63281666669978,-178.1300051890731,-232.7536648119845,462.88865971007726,59.70988166314535,-131.51219458608674,296.55374762817127,479.7384056775032
704,-44.77085367992988,-179.0721322374999,-233.1180595003747,482.07554238710344,62.09228285460738,-133.1963187489568,297.4301321070724,500.4202977458764
705,-44.914134003910945,-180.07451958342259,-233.41714897331093,500.58644116694705,64.38814929773622,-134.59588269294034,298.293918875922,520.3608563867832
706,-45.062072221237294,-181.14486911244882,-233.65419126330036,518.4507004233844,66.60954025638411,-135.72831012519632,299.1526825028664,539.5499170955849
707,-45.21413846795803,-182.29017580082353,-233.83272828857554,535.7125259772158,68.77564650681178,-136.61675961765195,300.01384693214845,558.0022159887533
708,-45.369903596214485,-183.51652109441284,-233.95640584818435,552.4303319668782,70.91190696830705,-137.28948351147486,300.88442589922045,575.7561254193822
709,-45.529054473023955,-184.8288829941091,-234.0287948728559,568.6757698405655,73.04885936571982,-137.7790291525737,301.7707699416376,592.8719045906089
710,-45.69138145957363,-186.230965757817,-234.05321584631042,584.5324628259522,75.22078465822261,-138.12131590917082,302.67832362590786,609.4295231508742
711,-45.856742572289114,-187.7250511519592,-234.03256805538734,600.0944715983347,77.46421117787372,-138.35462404674607,303.61139619162947,625.5261193294307
712,-46.02501049079983,-189.3118726229941,-233.9691653896475,615.4645164818122,79.81634660144412,-138.51853199114595,304.5729487590235,641.2731535417482
713,-46.19600931054257,-190.99051350328972,-233.86458048020683,630.7519797541039,82.31350388210194,-138.65283740385584,305.5644012288448,656.7933151393589
714,-46.36944777470164,-192.7583303310652,-233.71949892630414,646.0707099510497,84.98958144346982,-138.79649547800997,306.5854618961234,672.2172358326912
715,-46.54485480899217,-194.6109025639963,-233.5335853635191,661.5366496213251,87.87464919178603,-138.98660533790624,307.6339827595249,687.6800596799836
716,-46.72152177259594,-196.5420103337896,-233.30536340945486,677.2653095373914,90.9936815326626,-139.25747247206968,308.7058437114228,703.3179173995022
717,-46.89845424188167,-198.54364222575074,-233.03211219995836,693.369116400613,94.36546796416363,-139.63977166017511,309.7948692533655,719.2643527769534
718,-47.07433466715499,-200.60603519445894,-232.70978326128957,709.9546677111541,98.00172211182038,-140.15983076888756,310.8927819985572,735.6467513840241
719,-47.24749610818851,-202.71774859371197,-232.33294264755986,727.1199363496924,101.90640203734804,-140.83905108033287,311.9891978410651,752.5828264881186
720,-47.41590651282618,-204.86577392410425,-231.89474428318286,744.9514777014443,106.0752486101442,-141.6934745975782,313.0716680612994,770.1772232207572
721,-47.577162569190115,-207.03568127963112,-231.3869409850724,763.5217027123001,110.49554454237418,-142.73350331291135,314.1257735547101,788.5183087705807
722,-47.72849198789598,-209.21180258331037,-230.79993955157815,782.8862898595482,115.14609379564986,-143.96377012718136,315.13527568635476,807.6752224174355
723,-47.86676322065753,-211.37745056418734,-230.12290557451774,803.0818163777476,119.9974186668789,-145.38315638208445,316.08232700306826,827.6952633998745
724,-47.988502152119494,-213.51517112971138,-229.3439222646,824.1236930204127,125.01216923233723,-146.98494704104414,316.94774325328575,848.6016957315475
725,-48.08991612280649,-215.60702543977422,-228.45020559545821,846.0044862450641,130.1457365923285,-148.7571113781163,317.71133594954665,870.3920462212794
726,-48.166926490178206,-217.63489673396893,-227.4283755389424,868.6927065037586,135.34705748031627,-150.68269440467844,318.352302173216,893.0369646128078
727,-48.21521147256446,-219.5808160106841,-226.26478022161,892.1321313677149,140.55959344734666,-152.74030208928644,318.8496656600781,916.4797030195821
728,-48.23026099010045,-221.42730018251845,-224.9458666330471,916.2417181314911,145.72246327133928,-154.9046618772336,319.1827606174823,940.6362563597008
729,-48.2074445371433,-223.15769629271043,-223.45858822783228,940.9161433454524,150.77170280290616,-157.14723942366234,319.33174729102876,965.3961873897708
730,-48.14209191464714,-224.75652546323425,-221.79083667732684,966.0269875447623,155.64162248482884,-159.43689306609298,319.2781460366757,990.62414038213
731,-48.029585268030075,-226.20982001072468,-219.9318826031793,991.4245632649997,160.2662295408746,-161.74054933065173,319.0053746247205,1016.162027468633
732,-47.86545976442805,-227.50544626886207,-217.8728087951295,1016.9403639204724,164.58067951333632,-164.0238852870752,318.49927183055905,1041.8318517736134
733,-47.645509627657084,-228.63340419010072,-215.6069193578085,1042.3900904807515,168.52272063553994,-166.25200623968348,317.748589268337,1067.4391117918203
734,-47.3658959941005,-229.58609338133053,-213.130109295874,1067.5771919838835,172.03409470871762,-168.3901095416123,316.7454331951955,1092.7767118412855
735,-47.02325292117441,-230.35853456931514,-210.44118083435674,1092.2968348525992,175.06185988798936,-170.4041269911763,315.4856388333555,1117.6292838831941
736,-46.61478781776141,-230.94853593228282,-207.5420947997277,1116.3401956698501,177.55960390597437,-172.2613393245941,313.96906151925197,1141.777807416632
737,-46.13837267488959,-231.3567952286927,-204.43814730704133,1139.498954387037,179.48852018795466,-173.93095690726437,312.1997714407232,1165.0043982420577
738,-45.592622837622535,-231.58693098542315,-201.13806373193356,1161.5698520097005,180.8183233284733,-175.38466099626902,310.18614167585963,1187.097125595291
739,-44.976960647634776,-231.6454388493087,-197.6540036838699,1182.3591701350026,181.5279841041574,-176.59709999608916,307.9408225917801,1207.854711877139
740,-44.29166195850677,-231.54157215033817,-194.00147276111878,1201.6869897195727,181.6062676602293,-177.54633498804884,305.48059929290156,1227.0909703514876
741,-43.53788411047778,-231.2871484713381,-190.19913951836998,1219.391092646807,181.05206208547003,-178.21422844995402,302.8261326480049,1244.6388433245866
742,-42.71767437986658,-230.8962865497481,-186.2685593799896,1235.330381159411,179.87448864297795,-178.58676949064358,300.00158848849793,1260.3539156393697
743,-41.8339582519584,-230.38508031882247,-182.23381100934478,1249.3877061553803,178.09278962157833,-178.65432827088742,297.03416386992546,1274.1172950109974
744,-40.89050720878174,-229.77121943559118,-178.1210544990458,1261.472015050859,175.73599501225118,-178.4118319358302,293.95352365980654,1285.8377711719836
745,-39.89188616950886,-229.073568211686,-173.95802421560748,1271.5197530680716,172.8423746559165,-177.85885478798835,290.7911648528933,1295.453189674198
746,-38.843381362148385,-228.31171736122704,-169.77347190169849,1279.4954784030163,169.45868775007017,-176.99961693322803,287.5797296645041,1302.9310034876717
747,-37.75091029380808,-227.50552521956197,-165.59657757167727,1285.391681638055,165.63924640685278,-175.84288835575424,284.3522914010642,1308.2679960984335
748,-36.62091653932623,-226.67466667767803,-161.45634678230124,1289.227832010303,161.44481438874004,-174.40179913969996,281.14163901754915,1311.4892026647296
749,-35.460253047442045,-225.83820842826526,-157.38101308601054,1291.0487054732534,156.94136648286513,-172.69356091918377,277.97958668642553,1312.6460887111266
750,-34.27605835442926,-225.01422771606875,-153.39746403857998,1290.9220787352892,152.198738381082,-170.73910906000282,274.89633327644856,1311.8140756727983
751,-33.075630447387816,-224.21948856609893,-149.5307081143367,1288.9358965624124,147.28920118051457,-168.56267901139228,271.9198933619073,1309.0895262427364
752,-31.866303054521644,-223.46918490751597,-145.8033982272893,1285.1950346124422,142.28599811486123,-166.19133321619063,269.07561661175123,1304.586317840681
753,-30.65532883973722,-222.7767548952548,-142.23542520465608,1279.817786431115,137.26188325507653,-163.65445650021957,266.3858067402275,1298.4321390060973
754,-29.449773346696126,-222.15376582275985,-138.84359153393606,1272.9322017986296,132.2877022930267,-160.98323770028634,263.869445286819,1290.76464185032
755,-28.256422648326765,-221.60986482669142,-135.6413721834873,1264.672396066364,127.43105392176365,-158.21015347483987,261.54201987409306,1281.7275755605087
756,-27.08170663582146,-221.1527872686855,-132.6387656387063,1255.1749386311092,122.75506654820907,-155.36846716981879,259.4154516266202,1271.4670135209578
757,-25.931638905103554,-220.78841223085465,-129.84223490609304,1244.57541541954,118.31731905181005,-152.49175179965118,257.4981123680502,1260.12777212625
758,-24.81177343744327,-220.52085304504988,-127.25473539061755,1233.0052468481442,114.1689264939282,-149.6134419883249,255.7949192772675,1247.8501045448663
759,-23.72717772428101,-220.35257033555237,-124.8758243278565,1220.5888299711419,110.35380330025168,-146.76641527438278,254.3074930499308,1234.7667384778479
760,-22.68242148855079,-220.2844957559583,-122.70184475389823,1207.44106134724,106.90810908547978,-143.98259882052676,253.03436527155188,1221.0003134487674
761,-21.68157956577143,-220.31615635482544,-120.72617565836849,1193.6652849127208,103.85987711494971,-141.29259395146914,251.97122149161058,1206.661259917235
762,-20.728246819632886,-220.44579209132903,-118.93953891308709,1179.3516961269136,101.22882242935219,-138.72530904352976,251.11116816606682,1191.8461489431554
763,-19.825562251015334,-220.67046209579368,-117.33035282499046,1164.576219398836,99.02632485360841,-136.30759197352535,250.4450139229989,1176.6365268123304
764,-18.976238826621902,-220.98613838117683,-115.88512173336466,1149.3998602741215,97.25558005559981,-134.06385682521633,249.96155811819847,1161.0982338428207
765,-18.182595177188333,-221.38778841262402,-114.58885090353206,1133.8685176084214,95.91190857033516,-132.01570515043784,249.64788197305975,1145.2811909046345
766,-17.446585401549573,-221.86944992286067,-113.42547599008498,1118.0132252656113,94.98320828874769,-130.18154841447205,249.4896394280418,1129.2196221016818
767,-16.769823847274008,-222.42430253009584,-112.37829650407974,1101.8507796241693,94.45053127312643,-128.5762438983977,249.47134609720322,1112.9326693208184
768,-16.153602770165577,-223.0447411443573,-111.43040304591842,1085.3847002480265,94.28876222270877,-127.21076038161142,249.57666542805185,1096.4253458106682
769,-15.598901919372995,-223.72245591904124,-110.56508864599964,1068.6064677546124,94.46737447636616,-126.09189211130877,249.7886914375441,1079.6897729255893
770,-15.106390161279734,-224.448522688684,-109.7662353696901,1051.4969853745567,94.95124035262866,-125.22203991353305,250.09022724237454,1062.706646872211
