time,ax,ay,az,gx,gy,gz,accmagnitude,gccmagnitude
0,-12.884028289746219,-253.05281130505617,-49.12050820009904,7.094689849587492,72.90519157001687,-6.536201770134677,258.10097407167177,73.68566355587294
1,-12.659380082271348,-252.9261992631731,-49.68839186077611,8.533091268348405,72.39883960108504,-6.811418960565836,258.0822155501051,73.51226210518685
2,-12.440716145440327,-252.79868970583027,-50.244536238206884,9.932336861988878,71.93523894459184,-7.0953476332677665,258.0603852251246,73.37235895522974
3,-12.229441319677228,-252.67059881634552,-50.78441971213298,11.280558101514698,71.52253191499892,-7.383786439702305,258.03495421290427,73.27132668884433
4,-12.026888319617537,-252.54226665667525,-51.303789107129674,12.566071270735831,71.1683113021635,-7.67269902918631,258.00546840343964,73.21405444265027
5,-11.834295276431176,-252.4140648192613,-51.798747699088175,13.777532268740105,70.87944149187172,-7.958315835917465,257.97157231766744,73.20480653908587
6,-11.652785743994961,-252.2864019246635,-52.265830432742575,14.904104535321617,70.66188061240747,-8.237218069957832,257.9330284133263,73.24708340320657
7,-11.483351922050048,-252.15972599805733,-52.702064166705526,15.935637247585602,70.52050839387037,-8.506400571775094,257.88973049397487,73.34348878587723
8,-11.326841686951278,-252.03452314940515,-53.10501182287721,16.862849025439257,70.45896554009589,-8.76331124469174,257.84171046347944,73.49560812351542
9,-11.183949672655825,-251.911312711955,-53.472800207006955,17.67751106872354,70.47951114560385,-9.005865978221266,257.7891385458868,73.70390336947345
10,-11.055212154180817,-251.79063969054627,-53.80413195278016,18.372622997868355,70.58290492428486,-9.232439328986453,257.73231788892076,73.96762976169128
11,-10.941005057394817,-251.67306572552718,-54.09828256393729,18.942574547908094,70.76832073458934,-9.441832663147263,257.6716749012346,74.28477972609551
12,-10.841544225981517,-251.5591597378339,-54.3550839367355,19.383286458225164,71.03329713625583,-9.633222845221171,257.6077467048841,74.65205846304738
13,-10.756887147507024,-251.44948908232513,-54.57489605009858,19.692324246324027,71.37372957907014,-9.806095746796071,257.54116681402564,75.06489476361823
14,-10.686935618945192,-251.34461153278954,-54.758568713342505,19.868979006546724,71.7839073904374,-9.9601697565782,257.4726497079279,75.5174893197941
15,-10.631439244647318,-251.2450679286067,-54.9073953369459,19.914309998172875,72.25659706988347,-10.095315050887564,257.40297451577277,76.00290131520299
16,-10.590000090694796,-251.15137502862973,-55.023060588097835,19.831144731445406,72.78317160042191,-10.211474586263732,257.3329677510842,76.51317253570923
17,-10.562079091116406,-251.0640181306744,-55.107583549947314,19.62403367378593,73.35378366838195,-10.308592543931193,257.26348501056384,77.03948677822852
18,-10.547004787407303,-250.98344321284193,-55.16325778371127,19.29915857804518,73.95757898098636,-10.386555264140382,257.1953917023513,77.57236108514623
19,-10.543984723391624,-250.91004855273866,-55.19258958559214,18.86419555218286,74.58294438529876,-10.445148652264862,257.1295430325451,78.10186431637342
20,-10.552119447309744,-250.84417591552295,-55.19823565986796,18.32813601773319,75.21778423565881,-10.48403481060581,257.06676358073634,78.61785770952574
21,-10.570418698903714,-250.7861015045648,-55.18294132328303,17.701070432773857,75.8498173557679,-10.5027493824365,257.0078268578142,79.11025124249714
22,-10.59781906915317,-250.736026945639,-55.14948027481799,16.99394109236875,76.46688591772322,-10.50071977603012,256.9534352857688,79.56926872905586
23,-10.633202308293454,-250.69407059633883,-55.10059700429428,16.218271590486797,77.0572666364826,-10.477303020608472,256.90420106379554,79.98571370728607
24,-10.675413569702462,-250.66025943987077,-55.038953052522025,15.385881684613132,77.60997401435584,-10.431840549369566,256.86062838802894,80.35122750470364
25,-10.723279169629588,-250.63452179989653,-54.967078459074365,14.508597237393403,78.1150451776494,-10.363725842691153,256.8230975089968,80.65853058074927
26,-10.775623788512215,-250.61668118596015,-54.88732978041396,13.597965413137537,78.56379624387861,-10.272479724328168,256.7918512064949,80.9016384487051
27,-10.83128727240941,-250.6064517574904,-54.80185605598432,12.664985203450906,78.9490410924402,-10.157827310738082,256.7669844447825,81.07604411524999
28,-10.889141230831546,-250.60343605615446,-54.71257402284582,11.719862558108517,79.26526472591068,-10.019770313750865,256.74843811541405,81.17885992626722
29,-10.948105563500931,-250.60712565567704,-54.62115361959511,10.771797912729726,79.50874495729636,-9.858648664371248,256.73599771901206,81.20891287540857
30,-11.007165020005791,-250.61690520925674,-54.529014307107296,9.828811868781559,79.67761786854444,-9.67518619266218,256.729297565529,81.1667887836571
31,-11.065385883983044,-250.63206017146186,-54.437332053222924,8.89761248819859,79.77188432922198,-9.47051622988205,256.7278307327526,81.05482229679589
32,-11.1219327543743,-250.65178834757407,-54.3470561663791,7.983505491791622,79.79335681972051,-9.246184392636847,256.73096475926394,80.87703138092675
33,-11.17608513467652,-250.67521535568335,-54.25893461739794,7.0903468979655795,79.74554786351288,-9.004127389413581,256.7379628571255,80.63899693336764
34,-11.227253220784378,-250.70141397453762,-54.1735459918513,6.220536443011,79.63350353291163,-8.746628347999398,256.7480102025131,80.34769025611905
35,-11.2749919964189,-250.72942714118648,-54.09133572190149,5.375049485398264,79.4635876886377,-8.476250749781284,256.76024454328365,80.01125337486688
36,-11.319012539641069,-250.758294088982,-54.01265391331055,4.553504897798025,79.24322470430235,-8.195754438255985,256.77379001675786,79.63873935884169
37,-11.359189337491268,-250.78707883895964,-53.937792134864644,3.75426645059582,78.98061026301791,-7.907998258081494,256.78779280627003,79.23982172727908
38,-11.395562505421417,-250.81489999558795,-53.867017005176734,2.974575083877194,78.68440130368835,-7.615834637757403,256.80145711328134,78.82448360133473
39,-11.428334229937589,-250.84096052711723,-53.800599092901194,2.2107090247344385,78.36339728396268,-7.322001839177397,256.8140798229766,78.40269840993243
40,-11.457859400942212,-250.86457595007553,-53.73883628781847,1.4581678805779068,78.02622552074894,-7.02901965579871,256.8250821549365,77.98411459376656
41,-11.48463098461092,-250.8851991928421,-53.68207127695963,0.7118757308009107,77.68104331700843,-6.739094069893109,256.8340365783573,77.57775673590828
42,-11.509261012400364,-250.902440485095,-53.63070307039813,-0.033602937575988714,77.33526875952711,-6.454035859466835,256.84068742100993,77.19175476880353
43,-11.5324581473944,-250.91608090742733,-53.58519267713627,-0.7838415610637607,76.99535047706594,-6.175197480704784,256.84496391598793,76.8331113758775
44,-11.555002725142002,-250.92607865552978,-53.54606304854809,-1.5443316777682798,76.66658444254007,-5.903431775856087,256.8469848380441,76.50751558196205
45,-11.577720019648861,-250.93256753438953,-53.51389337151866,-2.320272400630898,76.35298335636736,-5.639075113869126,256.8470543144109,76.21920807187779
46,-11.601452333564763,-250.93584765111723,-53.48930782143631,-3.1163759484964295,76.05720154846063,-5.381956405679838,256.8456488336368,75.97090126951373
47,-11.627030406889448,-250.9363687156954,-53.47295902289176,-3.936694866870133,75.7805159157648,-5.1314320795523924,256.8433959277537,75.76375487791739
48,-11.655244545604836,-250.93470678550145,-53.46550670500404,-4.7844751288725265,75.52286130097376,-4.886445679845738,256.8410454632241,75.59740555137411
49,-11.686815740415716,-250.9315356781391,-53.46759237461725,-5.662037749518698,75.282916910893,-4.64560941844858,256.839434918401,75.4700476334231
50,-11.722366930325833,-250.92759459079537,-53.479811209809874,-6.570690096770266,75.05823876355106,-4.40730386236808,256.8394504046785,75.37856033904644
51,-11.762394608184339,-250.9236536539762,-53.50268262880285,-7.510666914522318,74.84543167161854,-4.169791013623181,256.84198542840335,75.3186753151787
52,-11.807241266201176,-250.92047916527716,-53.53662094871785,-8.481100286182592,74.64035298580087,-3.9313353473238672,256.8478994141355,75.28517725964127
53,-11.857069686005598,-250.91880009977342,-53.58190724058653,-9.480017394616162,74.43833938392241,-3.6903269632910134,256.8579778247056,75.27212937438952
54,-11.911840563459148,-250.91927725595968,-53.638663118233175,-10.504364903304161,74.23444751029515,-3.4454009087310147,256.872895428444,75.27311498815858
55,-11.971295146262166,-250.92247616707277,-53.706826963877404,-11.550058897750828,74.02369929004331,-3.1955469469690088,256.89318400111046,75.28148673744522
56,-12.034944346158944,-250.92884473392036,-53.786133062004446,-12.612059334489071,73.80132324395353,-2.940204570069434,256.91920556459587,75.29061519951198
57,-12.102065321468817,-250.93869638262322,-53.8760942589331,-13.684467685547483,73.5629839982283,-2.6793388439348877,256.95113212448524,75.29412969482235
58,-12.171706067019796,-250.95219932692189,-53.97598900336984,-14.760645973910787,73.30499322372437,-2.413493632958475,256.98893267812673,75.28614492067443
59,-12.24269824284675,-250.96937216151656,-54.08485382373891,-15.833354855460815,73.02449625024728,-2.1438197555629332,257.03236794660444,75.26146795744674
60,-12.31367828341905,-250.99008559686328,-54.201482327581736,-16.894907960906895,72.7196294638292,-1.872076628236667,257.0809928738375,75.21578090055331
61,-12.383116620518534,-251.01406982317403,-54.32443158194336,-17.937339338634793,72.3896442952785,-1.600607007051696,257.13416656315223,75.14579490044713
62,-12.449354547790778,-251.04092685052603,-54.45203626983456,-18.952580387837884,72.0349942141007,-1.3322855440759975,257.1910690727789,75.04937178615158
63,-12.510647908935638,-251.07014713511145,-54.5824304634185,-19.932642018578587,71.6573817775386,-1.070442945645537,257.2507243234936,74.92560980347645
64,-12.565216478147004,-251.10112972911352,-54.71357641716207,-20.86979693764486,71.25976359120497,-0.8187684197055399,257.3120281942655,74.77489045551388
65,-12.611297587532055,-251.13320506021773,-54.843299592513105,-21.756756134803872,70.8463120805301,-0.581193772662701,257.37378069825195,74.59888409873955
66,-12.647202206277326,-251.16565934804206,-54.96932912504757,-22.586833149679318,70.4223341877277,-0.36176299343651147,257.4347210185364,74.40051284470088
67,-12.671371414324861,-251.19775965240257,-55.08934295197623,-23.35408981161561,69.99414839057411,-0.1644915293978872,257.49356416020123,74.18387042809822
68,-12.682431209598299,-251.22877857752604,-55.20101672031086,-24.05345796638603,69.56892274698335,0.006780170533279083,257.549037983232,73.95410004012435
69,-12.679243801389678,-251.258017666337,-55.30207543418011,-24.68083312067297,69.15447801752049,0.14853380881822706,257.5999193663079,73.71723269512843
70,-12.660953728420735,-251.2848285067023,-55.390346616376306,-25.233137657012012,68.75906129549922,0.25771552784686974,257.6450682086455,73.4799904125102
71,-12.627027148132303,-251.30863059896282,-55.46381354028475,-25.708352943421296,68.3910969176648,0.3318673655908573,257.6834579566157,73.24956018333327
72,-12.577282614196985,-251.32892521053753,-55.52066691944437,-26.105521022909354,68.05892264799961,0.36924184328654774,257.7142014776149,73.03334618148222
73,-12.511911829913762,-251.3453048401483,-55.55935349634146,-26.424717570146992,67.77052013478904,0.3688940478586148,257.7365715149834,72.83870887532487
74,-12.431489237183825,-251.35745843650713,-55.57862024263092,-26.66699858850119,67.53324936180871,0.3307464136010017,257.7500155486053,72.6727005819253
75,-12.33696966357838,-251.36517293708957,-55.57755312656509,-26.834324069144373,67.35359716590779,0.2556226166074791,257.7541653684859,72.54180757306929
76,-12.229673521099617,-251.36833185715537,-55.55560944069406,-26.929462600587765,67.23694974132002,0.14524850419482901,257.7488418483067,72.45170898784386
77,-12.111259391370734,-251.36691159246476,-55.51264260304456,-26.95588160123088,67.18739822934195,0.0022197083066248686,257.7340553363128,72.40706233445174
78,-11.983684404719058,-251.3609759263662,-55.448918355350685,-26.91762829844455,67.20758493159056,-0.17006259959925443,257.71000193942416,72.41132414212726
79,-11.84915355504802,-251.35066907837356,-55.365121475393174,-26.81920672905267,67.29859552944181,-0.3674846524413598,257.67705590294725,72.46661244332049
80,-11.710059744469088,-251.3362075752296,-55.26235242828406,-26.665455942751834,67.45990024789971,-0.5853371661236451,257.63575833078534,72.57361551516931
81,-11.568916762083337,-251.3178712566846,-55.14211364799943,-26.46143433655955,67.68934447548419,-0.818450996970618,257.5868025961338,72.73154899531315
82,-11.428287630826972,-251.29599377046495,-55.00628522903431,-26.21231463840039,67.98318716139069,-1.0613452364125018,257.531016858384,72.93816131666246
83,-11.290710932587467,-251.27095293340582,-54.85708975704953,-25.92329341976973,68.33618352683943,-1.308381361041248,257.4693441139352,73.18978551940462
84,-11.15862784358724,-251.24316137681413,-54.69704609315261,-25.599518101169686,68.74170738080888,-1.5539171551815387,257.40282026588034,73.48143401346128
85,-11.034312582929873,-251.21305795230734,-54.52891244246304,-25.246033232701336,69.19190762264458,-1.7924546176556944,257.33255085900055,73.8069318008894
86,-10.919808773475104,-251.1811003744211,-54.355619974884874,-24.86774642193752,69.67789318623667,-2.018776974391919,257.25968731592667,74.15908290111349
87,-10.81687392010834,-251.14775945313653,-54.1801992835799,-24.46941268942323,70.18994054741096,-2.2280711467007444,257.1854035931855,74.52986409874212
88,-10.726933899056398,-251.11351503006384,-54.00570268728437,-24.0556343661882,70.71771789967192,-2.4160333599862587,257.1108740791765,74.91063960763131
89,-10.651049017388706,-251.07885345814546,-53.83512567096792,-23.630872105681473,71.25052020174346,-2.5789567687359396,257.0372533298484,75.29238986109816
90,-10.589892796485186,-251.04426626308276,-53.67133073358173,-23.199461412395696,71.77750947086422,-2.7138008472007575,256.96565801034546,75.66594742089514
91,-10.543744123374864,-251.01024953844288,-53.51697676392136,-22.765628509229586,72.28795482588578,-2.8182428265530195,256.8971512655732,76.02223290729424
92,-10.512492849152247,-250.97730361322434,-53.37445687803733,-22.333499503377837,72.77146679892658,-2.8907117284309742,256.8327296593857,76.3524838680968
93,-10.495658402344365,-250.94593254213243,-53.2458473255914,-21.907097664537933,73.21822040246094,-2.9304056462018604,256.77331274003535,76.64846969968781
94,-10.492420504064514,-250.91664301373848,-53.13286942897236,-21.490325059257078,73.61916152579907,-2.9372929326021424,256.71973518315906,76.9026862229513
95,-10.501660460991545,-250.8899423778229,-53.036865505821616,-21.086926583254805,73.96619155743977,-2.912097920976258,256.67274134498075,77.10852434230122
96,-10.522010798561634,-250.86633562479736,-52.95878853135061,-20.700436412017087,74.25232568591521,-2.856271779802924,256.6329819280804,77.26040831381401
97,-10.551910486986607,-250.84632121531948,-52.89920424310782,-20.334108874546427,74.47182105852202,-2.7719491180700904,256.6010122999293,77.35390040472342
98,-10.58966292406101,-250.83038563713086,-52.85830371478343,-19.990837540654198,74.6202718386632,-2.661891057965052,256.5772918438132,77.3857700463475
99,-10.633494065021026,-250.8189965652408,-52.83592417543512,-19.673067694934883,74.69466920800576,-2.5294156831017918,256.5621836748734,77.35402691849018
100,-10.681608410490943,-250.81259460505274,-52.831575962163114,-19.382708214776937,74.69342550969523,-2.3783170502089037,256.5559541856715,77.2579187257962
101,-10.73224089724067,-250.8115837471296,-52.84447387408895,-19.12104912676866,74.61636297447427,-2.212774306801547,256.55877211876475,77.0978956881303
102,-10.78370312577937,-250.8163207598216,-52.873571683515735,-18.888690816871907,74.46466874183524,-2.0372528507203356,256.5707070728366,76.87554491928012
103,-10.83442280733148,-250.82710377992768,-52.91759893756174,-18.685490126048315,74.24081911793833,-1.8563998445168723,256.5917274766775,76.59349888168985
104,-10.882975723185265,-250.84416036538846,-52.975099343591594,-18.510527541161313,73.94847710822964,-1.6749367064977365,256.62169811715495,76.25532293046244
105,-10.928109778368286,-250.86763527366818,-53.04447006369345,-18.362098546708197,73.59236808576044,-1.4975513931538824,256.66037732284997,75.8653874959658
106,-10.968760941418145,-250.89757827140448,-53.12400125163633,-18.23773103736001,73.17813888953583,-1.3287933271798011,256.7074139532526,75.42873060762085
107,-11.004061100353,-250.93393240404563,-53.2119151240278,-18.134229567299087,72.71220567781057,-1.1729737030042657,256.76234446220417,74.9509162313584
108,-11.033338188489056,-250.97652330471308,-53.30640373867938,-18.047746172585054,72.20159556602839,-1.0340736400323722,256.82459043818284,74.43789336390245
109,-11.056109352551115,-251.02505019841706,-53.40566456490502,-17.973876550784052,71.65378655975987,-0.9156622997239728,256.8934570972002,73.89586009878461
110,-11.072068440890863,-251.07907924978952,-53.507933007181535,-17.907779479627806,71.0765496403236,-0.8208266963353205,256.96813323313603,73.33113603231115
111,-11.081069581949047,-251.13803987354538,-53.611511277727004,-17.84431647383057,70.4777961396542,-0.7521145593924429,257.04769317146616,72.75004546911126
112,-11.083108898507561,-251.20122458346805,-53.71479325837881,-17.778207844030337,69.86543278279393,-0.7114912704904774,257.13110129191085,72.15881295194387
113,-11.078306306669843,-251.2677928397169,-53.81628512811657,-17.70420060019488,69.24722601269941,-0.7003115932263289,257.21721959522887,71.56347172279229
114,-11.066888892692454,-251.33677915629747,-53.914621626223266,-17.617243079496795,68.63067652602751,-0.7193066077965177,257.3048185957004,70.96978491160839
115,-11.049176683748989,-251.40710552092682,-54.00857805881435,-17.51266077320163,68.02290445427911,-0.768585914908042,257.39259163859543,70.38317865480977
116,-11.025570922888653,-251.47759801119145,-54.09707857221074,-17.386327532414903,67.43054538766344,-0.847654790048441,257.4791726379484,69.80868601984314
117,-10.996544435400669,-251.5470073419953,-54.17920159023294,-17.234826085263126,66.85965745423813,-0.9554455703618876,257.563157144044,69.2509005340827
118,-10.9626334684387,-251.61403294160152,-54.25418340958456,-17.05559158973205,66.3156398852286,-1.0903621400745296,257.64312652885235,68.71393823636544
119,-10.924430445978103,-251.67735010020795,-54.32142073875962,-16.847031887891525,65.80316380983147,-1.2503359383627484,257.7176749838688,68.2014074101069
120,-10.882577222237325,-251.73563979831476,-54.38047256226742,-16.60861840757389,65.32611626470602,-1.4328914833239013,257.7854390063479,67.71638540866029
121,-10.837758505198568,-251.78762085831715,-54.431061243817034,-16.340942415432266,64.88755845210433,-1.6352190693941215,257.8451289890022,67.2614021672846
122,-10.79069514491234,-251.83208385044844,-54.47307241103618,-16.04573255311191,64.48969912338865,-1.8542521064084396,257.8955622425472,66.83843010086186
123,-10.742136943407901,-251.86792566297763,-54.506553055080005,-15.725831155374586,64.1338836605926,-2.086746496619224,257.9356962461171,66.44888013481966
124,-10.692854520594606,-251.89418302584806,-54.531707451799164,-15.385128624954977,63.820599070636554,-2.329359431480244,257.9646603456382,66.09360366160048
125,-10.64362963086565,-251.91006289614552,-54.548890825867474,-15.028457090145812,63.54949481603492,-2.5787250299275524,257.98178380928005,65.77290036489184
126,-10.595243366273769,-251.9149676596764,-54.55860100906289,-14.661446723756843,63.31941928075883,-2.8315243913081494,257.9866182659879,65.48653221397596
127,-10.548462034218739,-251.9085134727451,-54.561468625671644,-14.290350419458107,63.12847171542468,-3.084547970526285,257.9789529897329,65.23374449932169
128,-10.504021038672148,-251.890540549124,-54.55824643646906,-13.921844830046759,62.97406963139162,-3.3347487539955147,257.9588220075893,65.01329542428913
129,-10.462607538499375,-251.86111470326162,-54.54979823632311,-13.562817790572947,62.85303168090667,-3.5792855141536486,257.926502476268,64.82349627676194
130,-10.42484280835146,-251.82052002399794,-54.537087217303785,-13.22015356178959,62.76167591659941,-3.81555634030819,257.88250422969793,64.66226434845089
131,-10.391265124566637,-251.76924319530883,-54.52116329383418,-12.9005278386429,62.695932822912944,-4.04122350766153,257.8275509372067,64.52719034522688
132,-10.362313826608144,-251.7079506649272,-54.50314874867641,-12.610223837938529,62.6514715997034,-4.2542313759356984,257.76255394347754,64.41562096243045
133,-10.338315108372038,-251.63746048487621,-54.484221647350886,-12.354978896411502,62.623836983163116,-4.452819272179909,257.6885804835994,64.32475573550249
134,-10.319470089544804,-251.558711068414,-54.46559664715835,-12.139867969194562,62.60859268004007,-4.635531159128662,257.60681841405847,64.25175554516736
135,-10.305845762322308,-251.4727292250861,-54.44850304056194,-11.969226590327791,62.60146651292024,-4.801223376289618,257.51853976198817,64.19385857660738
136,-10.297369482383669,-251.38059962967583,-54.43416014560897,-11.84661186943153,62.5984917471906,-4.949071005851422,257.4250652547181,64.14849829575334
137,-10.293827737901273,-251.28343740382917,-54.423750521041086,-11.774796666118478,62.59613880405159,-5.078572637041345,257.3277316056192,64.11341719186657
138,-10.294869883109646,-251.18236486331068,-54.418391895009115,-11.755789763862689,62.591431600881776,-5.189552658806037,257.2278628062277,64.08676965767572
139,-10.300017292457698,-251.07849287677084,-54.41910900317132,-11.790873888681544,62.58204302507881,-5.282159834510707,257.1267461375502,64.0672074216292
140,-10.308678050809341,-250.97290682687867,-54.42680659944538,-11.880653661341675,62.56636452670762,-5.356860842736768,257.02561316968894,64.05394141514891
141,-10.320166976669837,-250.86665688125248,-54.442244757315386,-12.025106661291327,62.54354559086478,-5.414427657535979,256.9256256984766,64.04677489107382
142,-10.333730505285162,-250.76075209226823,-54.466017384346486,-12.223632268205819,62.513500024823365,-5.455918006743225,256.82786633148737,64.04610402971537
143,-10.348575655702865,-250.65615768637454,-54.49853474882577,-12.475094466890742,62.47687759280301,-5.482648596348047,256.73333324216605,64.05288412173958
144,-10.363901930936786,-250.55379476976353,-54.54001074793371,-12.777856153376463,62.43500147080628,-5.4961612334375465,256.6429384492729,64.0685615724463
145,-10.378934644932892,-250.4545415845941,-54.59045557424167,-13.129803641031685,62.3897740982137,-5.498182371740169,256.55750885688263,64.09497424785853
146,-10.392957974622806,-250.35923542481876,-54.64967434677983,-13.528361131529785,62.34355603574053,-5.490576948282232,256.47778923606734,64.13422487110675
147,-10.405346048067186,-250.26867439345966,-54.71727212440893,-13.97049599628917,62.29902418384683,-5.475297684066369,256.40444636651307,64.18853409145167
148,-10.415590528219733,-250.18361834278417,-54.79266542850406,-14.452716828697646,62.2590170292805,-5.454331258523656,256.3380736533772,64.26008135091888
149,-10.423323331769314,-250.1047885369922,-54.87509995688543,-14.971067259047038,62.22637537995463,-5.429642917507433,256.2791956380621,64.35084264819314
150,-10.428333291504778,-250.03286577841635,-54.963673708106874,-15.521119278632343,62.20378725531161,-5.403121164931566,256.2282719246119,64.46243464001388
151,-10.430575774895543,-249.96848690722905,-55.05736447086129,-16.097970174687575,62.193645217065104,-5.376524252597453,256.1857001604493,64.59597419666473
152,-10.430174576609367,-249.9122396647261,-55.155060664597194,-16.69624718651526,62.19792353740187,-5.351430210206732,256.1518178102234,64.75196163164738
153,-10.427415799082084,-249.86465590497295,-55.25559465935145,-17.310123794957907,62.21808132928581,-5.329192109710428,256.1269025071166,64.9301945015792
154,-10.422733857741948,-249.82620316412098,-55.35777765128413,-17.933351181702708,62.254996204317976,-5.310900116605308,256.1111707996032,65.12971721915788
155,-10.416690167616547,-249.79727474534795,-55.46043487940275,-18.559307718548148,62.3089312555573,-5.2973516559529905,256.1047752133094,65.34880978503408
156,-10.409945488220803,-249.77817869411882,-55.562439704877754,-19.181068263171966,62.37953626886731,-5.289030732890952,256.1077997200775,65.58501677901728
157,-10.40322727463002,-249.76912621555726,-55.66274507897927,-19.79149359880672,62.46588213809918,-5.286097117326849,256.12025389470557,65.83521545855088
158,-10.397293612431193,-249.77022020797517,-55.7604111851327,-20.38333873084794,62.566525612829935,-5.28838576724974,256.14206622292295,66.0957195477714
159,-10.392895381217087,-249.78144468138188,-55.8546283677731,-20.949377122443714,62.67959990994209,-5.2954165818583885,256.1730771881209,66.36241327286618
160,-10.390738298712142,-249.80265586986732,-55.94473467916486,-21.48253645355972,62.80292555144708,-5.306414369142839,256.2130328491929,66.6309086198958
161,-10.391446564698398,-249.83357579011223,-56.03022745483543,-21.976040245939153,62.934135139079004,-5.320338727763963,256.2615795848315,66.89671777630598
162,-10.395529940047124,-249.8737888529185,-56.110768393334595,-22.423548850717072,63.07080559340256,-5.33592330314029,256.3182605550075,67.15543226110647
163,-10.40335612538289,-249.922741935075,-56.18618179155589,-22.819293010415766,63.21059155358562,-5.351723566176188,256.38251427337457,67.40290029597989
164,-10.41513011145575,-249.97974808638773,-56.25644587139177,-23.158193612670125,63.35135404087162,-5.366171909563836,256.4536755102733,67.63539446972152
165,-10.43088173164286,-250.04399379536125,-56.321677468367454,-23.435962355257242,63.49127903111102,-5.377638486538342,256.5309785552133,67.84976262222465
166,-10.450462065315241,-250.114549491341,-56.382110736973736,-23.649179681324444,63.628981170547185,-5.384495850407972,256.61356268866285,68.04355599443
167,-10.473548794364355,-250.1903827603501,-56.43807098759179,-23.795348249411628,63.7635884796003,-5.3851851151057835,256.7004795969963,68.21512994121127
168,-10.4996601952924,-250.27037364785326,-56.489945241828764,-23.872922089919136,63.89480456532132,-5.378281075913355,256.7907024508886,68.3637138202218
169,-10.528177092678215,-250.3533314645612,-56.53815140493058,-23.881313222909935,64.02294564292141,-5.362553535951669,256.88313646472926,68.48944799482595
170,-10.558371697711145,-250.43801272088498,-56.583107970598775,-23.820878689469478,64.14895053772261,-5.3370219973923225,256.9766309477705,68.59338714477661
171,-10.589441797744866,-250.523140129461,-56.625205923166114,-23.692891605099515,64.27436276370476,-5.301000907719645,257.069993091623,68.67747020499677
172,-10.620548352876618,-250.60742286984876,-56.66478414075767,-23.499500024887755,64.40128472515673,-5.254132850659942,257.1620038920903,68.74445824967151
173,-10.65085431912032,-250.6895783420438,-56.702109276405686,-23.243677217254223,64.5323050529287,-5.196407533076575,257.251436553815,68.79784254522149
174,-10.679562513085374,-250.76835542313884,-56.73736081952336,-22.929166467752086,64.67040106553559,-5.128165179175121,257.33707745783454,68.84172584909776
175,-10.705950523083253,-250.84255891219343,-56.77062172604148,-22.560422873943768,64.81881932906585,-5.05008388932352,257.4177493886417,68.8806808446112
176,-10.729400957630869,-250.91107457466194,-56.80187461163669,-22.142553863844928,64.98093825567737,-4.963151453506604,257.4923363747676,68.9195903699584
177,-10.749425620792797,-250.9728940834061,-56.83100313715867,-21.681259451523637,65.1601176046466,-4.868622885675712,257.5598093170665,68.96347480967245
178,-10.765682513806516,-251.02713917313565,-56.857798013355044,-21.182772526568186,65.35954060910815,-4.767965554141003,257.619251566601,69.01731264441682
179,-10.77798493926085,-251.0730843600784,-56.88196700230805,-20.653798727967317,65.58205519915727,-4.662794315120446,257.66988365290206,69.08586065554961
180,-10.786302452357422,-251.1101775322684,-56.90314828309553,-20.10145472226281,65.83002134030687,-4.554799595794882,257.71108633537347,69.1734805911036
181,-10.790753933805108,-251.1380576067201,-56.92092654457968,-19.53320312602092,66.10517174600126,-4.44567190190037,257.74242106511167,69.28397915324373
182,-10.791593593165619,-251.1565683822865,-56.93485122280811,-18.956782028559427,66.40849306111775,-4.337026639296414,257.7636469127839,69.42046790987197
183,-10.78919117929406,-251.16576775606026,-56.94445640793914,-18.38012714531101,66.74013398421422,-4.230333331835139,257.7747330994421,69.5852491142736
184,-10.784008014057267,-251.16593158323673,-56.949282005462656,-17.81128502236061,67.09934565207766,-4.12685321227613,257.77586640378723,69.77973237603051
185,-10.776570639902213,-251.15755160612557,-56.94889566028977,-17.25831632436883,67.48445795859439,-4.027588715242477,257.76745285201196,70.00438564279962
186,-10.76744387062992,-251.14132708594795,-56.94291472382356,-16.729188991863754,67.8928934476777,-3.933247631774068,257.7501132486517,70.25872212455813
187,-10.757204881172754,-251.1181500372543,-56.931027223900564,-16.231661896810508,68.32121823505997,-3.8442236977492503,257.7246722894099,70.5413228252568
188,-10.746419692319941,-251.08908418365132,-56.91301053301485,-15.77316050151568,68.76522731194291,-3.760594332332472,257.6921411405512,70.84989245553435
189,-10.735622999550793,-251.05533788843331,-56.8887463927158,-15.360646858697056,69.22005974966494,-3.6821352383498462,257.6536934764488,71.18134484482789
190,-10.725301813564602,-251.01823152063645,-56.85823120835071,-15.000487009225296,69.68033789152226,-3.6083506576829008,257.61063520610463,71.53191266432785
191,-10.715882983126992,-250.97916012511064,-56.82158101583488,-14.698319425370947,70.14032368149041,-3.5385172012472488,257.56436860924015,71.89727540640504
192,-10.707724482339685,-250.93955275001446,-56.77903112686655,-14.45892865865638,70.59408491071122,-3.471738326775813,257.5163522013722,72.27269922807778
193,-10.701110304058789,-250.90083011879483,-56.7309310375561,-14.286128822917417,71.03566437059361,-3.4070058093362805,257.4680580990625,72.6531824849039
194,-10.696248751287357,-250.86436244091402,-56.677735563495226,-14.182661942223284,71.4592455636174,-3.3432641171722968,257.42092884286205,73.03360144421279
195,-10.69327379240186,-250.83142909887934,-56.619993245502585,-14.150116396794637,71.85930951146436,-3.2794736104156605,257.3763355927753,73.40885153772835
196,-10.692248999523295,-250.8031817905401,-56.55833293189409,-14.188870521328067,72.2307781230002,-3.2146689095880685,257.3355394186996,73.77398037663438
197,-10.693173489364867,-250.78061248898297,-56.49344924173879,-14.298065665527895,72.56914047725341,-3.1480094734074138,257.2996571465103,74.12430951128083
198,-10.695989264227991,-250.76452734807748,-56.4260874334852,-14.4756116242338,72.87055926027166,-3.0788201998151594,257.26963294923587,74.45554257845234
199,-10.700589437701979,-250.7555274211565,-56.35702803743035,-14.718225371379459,73.13195549153014,-3.0066206349700564,257.246216584092,74.76385807710335
200,-10.706827015507802,-250.75399672465304,-56.287071448429906,-15.021501788476433,73.35107055623982,-2.931142149905419,257.22994882010954,75.04598556122305
201,-10.714524088955729,-250.7600977686282,-56.21702258297307,-15.380012981343018,73.52650533659481,-2.852333221316685,257.2211541887459,75.29926450096448
202,-10.72348139470914,-250.77377426766097,-56.14767576708625,-15.787431179881725,73.65773680653582,-2.7703536426297757,257.21994080913964,75.52168538307174
203,-10.73348819783338,-250.79476042277653,-56.079800169939475,-16.23666928504125,73.74511277836405,-2.6855589788762635,257.22620675707174,75.71191278240742
204,-10.744332373685014,-250.82259597822687,-56.01412610323182,-16.720032849562877,73.78982561056428,-2.5984768371580005,257.23965226148266,75.86929019027647
205,-10.755810373971142,-250.85664620173438,-55.951332233051495,-17.229377515008732,73.79386571040497,-2.509776619561183,257.25979689062774,75.99382642679592
206,-10.767736514326009,-250.89612592365268,-55.89203335765233,-17.756266504208664,73.75995571016603,-2.420234434937819,257.2860007817787,76.08616358900575
207,-10.779950864749978,-250.9401266877859,-55.83676822798008,-18.292123547947913,73.69146634170372,-2.3306948195801818,257.31748884434313,76.14752675073571
208,-10.792325061475378,-250.9876459162379,-55.785987121300565,-18.82837751527822,73.59231530804874,-2.2420308803022477,257.3533767736121,76.1796560447717
209,-10.804765561053623,-251.03761689546243,-55.74003937220318,-19.356595971794825,73.4668508664277,-2.155104431796952,257.3926977363832,76.18472232743107
210,-10.817214142094636,-251.0889384708198,-55.69916147239876,-19.868605920686353,73.31972242033407,-2.070727656594769,257.4344287687017,76.16522838090346
211,-10.829645750474956,-251.14050360693773,-55.66346648562748,-20.35660112369527,73.15574117746094,-1.9896277925741754,257.477516230845,76.12389856984662
212,-10.842064007769647,-251.1912263031388,-55.63293552628977,-20.81323662662917,72.97973480471667,-1.9124163523858213,257.5208999980594,76.0635609709115
213,-10.854494826264272,-251.24006655929833,-55.607412145002186,-21.231712276594276,72.79640085790155,-1.8395643374223405,257.56353629156786,75.98702705687548
214,-10.866978625117007,-251.28605311718016,-55.58660063163365,-21.605847875848184,72.61016441340647,-1.7713847412680237,257.60441912098605,75.8969748111534
215,-10.879561656388713,-251.32830369676714,-55.570069238788406,-21.930152943464737,72.42504566668138,-1.70802331326739,257.64260030281355,75.79584150022784
216,-10.892286937040343,-251.36604253471114,-55.55725898678313,-22.199893730012725,72.24454324027509,-1.6494580867365207,257.6772080315978,75.68573216534543
217,-10.905185253905607,-251.39861516635955,-55.54749815966492,-22.411159157486328,72.0715385511123,-1.595507594787354,257.7074639920511,75.56834920417347
218,-10.9182666763072,-251.42550043949794,-55.54002210541938,-22.560925848909317,71.9082258250656,-1.5458470657508172,257.7326989371724,75.44494723294449
219,-10.931512984192143,-251.4463196494766,-55.533997651959666,-22.647120602753187,71.75607123717622,-1.5000313345980845,257.75236649321397,75.31631583125713
220,-10.944871408670075,-251.46084251112146,-55.52855130855293,-22.668676927119602,71.61580324808494,-1.4575228381571455,257.7660547485186,75.18279092175847
221,-10.95825009689336,-251.46898953916968,-55.52280038004245,-22.62558100842307,71.48743458415227,-1.4177228992248072,257.773495032855,75.0442936275613
222,-10.971515757204793,-251.47083033774703,-55.515886143870325,-22.51890207509387,71.37031457296654,-1.3800045036258337,257.7745672316706,74.90039368436874
223,-10.984493975079262,-251.46657733670014,-55.50700823276651,-22.35080260369606,71.2632088274739,-1.3437449025472323,257.7693010184739,74.75039302142699
224,-10.996972628731003,-251.4565747784828,-55.495459205191054,-22.124525004528344,71.1644017461676,-1.3083566038313432,257.7578726133502,74.59342407631932
225,-11.008708635614862,-251.441283297325,-55.48065794775345,-21.844352963400056,71.07181613014957,-1.273315584573679,257.7405971209458,74.42855681342992
226,-11.019437983407455,-251.42126101088533,-55.46218013791873,-21.51554717026101,70.98314346969234,-1.2381857904323954,257.7179169650625,74.25490821287853
227,-11.028888698937706,-251.39714234487803,-55.43978368161862,-21.14425651947931,70.89597807690498,-1.202639183953289,257.69038715046827,74.07174806863377
228,-11.036796108223792,-251.36961577798994,-55.41342703594118,-20.737406927531282,70.80794819745545,-1.1664708352459814,257.6586580373498,73.87859521752478
229,-11.042919487652332,-251.33940151959527,-55.383278736072334,-20.302570673669752,70.71683755020022,-1.1296088648659794,257.6234562211675,73.67529884449291
230,-11.047059055247674,-251.30722996233442,-55.34971720024676,-19.847819682561614,70.62069144849613,-1.0921194242631498,257.5855641007109,73.4621003227809
231,-11.049072206818584,-251.27382157234746,-55.31332081582593,-19.381566506582914,70.5179027061804,-1.0542072542795236,257.5457987412471,73.23967213292829
232,-11.04888792536839,-251.23986866074017,-55.274849181142535,-18.912396961721544,70.4072738219418,-1.0162126073182622,257.5049906161447,73.00913167631676
233,-11.04651832823776,-251.2060192908913,-55.23521694550751,-18.448898433750824,70.28805337787666,-0.97860537468934,257.4639627514839,72.77202917661246
234,-11.042066333361918,-251.1728635139039,-55.1954618754998,-17.99948784026021,70.15994612726594,-0.9419770965412458,257.42351077815243,72.53031030659966
235,-11.035728455450167,-251.14092217608652,-55.15670874519963,-17.572243163575255,70.02309781325512,-0.9070312155269882,257.38438443862736,72.28625563813821
236,-11.027791871001591,-251.11063860206693,-55.120130618477205,-17.174742359194365,69.87805722301339,-0.8745716111539427,257.3472711489863,72.04240036556041
237,-11.018625217262885,-251.08237344696792,-55.086909144152955,-16.813913212560013,69.7257191866722,-0.8454892313021621,257.3127822277977,71.80143883102487
238,-11.008663150587653,-251.05640291605647,-55.05819555799901,-16.49589726438466,69.56725307999199,-0.820746523197621,257.28144234729035,71.56611906838613
239,-10.99838537298555,-251.03292037439616,-55.035074043345325,-16.22593025939231,69.4040218668187,-0.8013593045362244,257.25368260861893,71.33913286524113
240,-10.988291448238241,-251.01204112936398,-55.01852884799245,-16.00824086676398,69.23749684111684,-0.7883756966706539,257.229837378719,71.1230067777842
241,-10.978873188821472,-250.99380990886027,-55.00941612770308,-15.845968887407526,69.06917302195833,-0.782851799821294,257.2101446973587,70.91999918961272
242,-10.970586764110747,-250.97821031949337,-55.008441010656036,-15.74110388623186,68.90048964409208,-0.785823932331007,257.19474973984154,70.73200792612731
243,-10.963826970849253,-250.96517537313218,-55.016139947970466,-15.694445100592231,68.73275941605795,-0.7982774667747633,257.18371054541143,70.56049214879609
244,-10.958906169894162,-250.95459805282982,-55.03286806417082,-15.70558349198965,68.56710927825718,-0.8211126008094596,257.17700502965107,70.40641132872359
245,-10.956040035773235,-250.9463409228518,-55.0587909720116,-15.77290690650234,68.40443441517114,-0.8551078398883419,257.17453826048313,70.27018316039448
246,-10.955341407692066,-250.94024402293266,-55.09388043900724,-15.89362949119321,68.24536638432537,-0.900882487670714,257.1761491562451,70.15166144525605
247,-10.956822317504596,-250.9361306817765,-55.1379134351592,-16.06384668380032,68.09025553413981,-0.9588598712118572,257.18161613790585,70.05013433792975
248,-10.960403111793378,-250.93381133231284,-55.19047435079219,-16.27861700190706,67.93916749435215,-1.0292332266537532,257.1906617242102,69.96434294756898
249,-10.965926923901545,-250.93308581920533,-55.250960396581156,-16.532071218362564,67.79189342933677,-1.111936140368426,257.20295648827425,69.89252005760237
250,-10.973177666217588,-250.93374498906616,-55.31859040493692,-16.817548227211628,67.6479737537684,-1.2066192893024483,257.21812313386243,69.832448463663
251,-10.981899890410142,-250.9355724699503,-55.392417552962144,-17.127755188676094,67.50673486273007,-1.312635020243668,257.23574163560846,69.78153792038908
252,-10.991818999672644,-250.9383474267984,-55.471346820426774,-17.45494779879461,67.36733802303918,-1.4290310301149438,257.255356335988,69.73691891193879
253,-11.002660363690996,-250.94184875241152,-55.55415797257598,-17.791125151133787,67.22883902272443,-1.5545540359917116,257.2764855660824,69.69555060746494
254,-11.014166002577985,-250.94586071736595,-55.63953433634318,-18.12823284759427,67.09025665667112,-1.6876638764314096,257.2986338212817,69.65433964807481
255,-11.02610773905728,-250.95017966549662,-55.7260967881562,-18.458367729747188,66.95064772435506,-1.8265579828146392,257.3213059224492,69.61026591691085
256,-11.038296091827162,-250.95462100392302,-55.812441566920725,-18.7739776437,66.80918590168463,-1.9692056131217932,257.34402210573154,69.56051110395192
257,-11.050584716070748,-250.9590255905142,-55.89718001573531,-19.068049828439445,66.66524153021163,-2.113390718222689,257.36633275425595,69.5025855630664
258,-11.06287080976274,-250.96326470231713,-55.97897813802147,-19.33428175740438,66.51845897125017,-2.2567619170267035,257.3878315427054,69.43444858899696
259,-11.075092390510811,-250.9672430138671,-56.05659387461367,-19.567228622658547,66.36882773836895,-2.3968878352606287,257.4081660301481,69.35461687313924
260,-11.087223548090712,-250.9708993228386,-56.128910303350565,-19.762422231407847,66.21674329416679,-2.53131595151827,257.42704510916604,69.26225569828577
261,-11.099268710196936,-250.9742050512349,-56.19496350887392,-19.9164569421616,66.06305331097629,-2.657632988526898,257.4442431173689,69.15724755058105
262,-11.111256736555921,-250.9771607438195,-56.253964484765085,-20.027039418631148,65.90908539232164,-2.773524746424687,257.4596007286369,69.04023331094442
263,-11.123235367760367,-250.9797908259181,-56.30531491565543,-20.093000437142457,65.75665273497685,-2.8768331848399833,257.47302287244287,68.91262205190286
264,-11.135266278013702,-250.9821368334651,-56.348616979241704,-20.11426871905766,65.6080350326032,-2.9656086666125296,257.4844739316933,68.77656675536507
265,-11.147420834668521,-250.98424933948976,-56.38367747133465,-20.091808631057354,65.46593315962629,-3.038155614971233,257.49397050850035,68.63490500960866
266,-11.159776713835669,-250.9861789291853,-56.41050668501167,-20.027525364449815,65.33339780756272,-3.0930702866427815,257.50157220113,68.49106583537615
267,-11.17241563384752,-250.9879667350282,-56.42931258368758,-19.924142640545153,65.21373408774393,-3.129269797904745,257.5073710188383,68.34894597447312
268,-11.185422432061726,-250.98963515473957,-56.440490845957264,-19.78505897360417,65.1103858977796,-3.146011957037793,257.5114801759452,68.21276096160821
269,-11.198885447331296,-250.99117942209477,-56.444611311296,-19.614189061765206,65.02680537433845,-3.1429059198557567,257.5140230294143,68.08687791005426
270,-11.212897787813263,-250.99256064697974,-56.442401257008186,-19.415797036638114,64.96631392694617,-3.1199141941643767,257.51512283253965,67.9756381066357
271,-11.227558726384228,-250.99370074696904,-56.43472581322379,-19.19432817642243,64.93196210567663,-3.0773469691814355,257.51489374517047,67.88317819575576
272,-11.242974284027829,-250.99447941111285,-56.42256566970489,-18.95424540941044,64.92639582745993,-3.0158499956827645,257.51343322357155,67.81325889671754
273,-11.259256074723918,-250.99473298979112,-56.40699205570012,-18.699876640058594,64.95173621527587,-2.9363872080104407,257.5108156335758,67.76910982394634
274,-11.276517705167642,-250.99425510141674,-56.38913883592499,-18.435278646417178,65.00947948609189,-2.840218988060551,257.5070868082342,67.75329807074057
275,-11.294868450304069,-250.9927988258239,-56.370171533142525,-18.164122890040385,65.10042201210176,-2.7288765533748705,257.50225935961265,67.76762679674569
276,-11.314404494659582,-250.9900805330877,-56.35125321541824,-17.889607811759326,65.22461400480478,-2.6041325739423766,257.49630878286814,67.81306819864625
277,-11.335198568719656,-250.98578553861518,-56.33350750168108,-17.61440085389107,65.38134343032651,-2.467967915569299,257.48917062377734,67.88973309313798
278,-11.357289134791543,-250.97957582940379,-56.31797942592374,-17.340611489339608,65.5691499615402,-2.3225344191061947,257.48073915572206,67.99687709734181
279,-11.380670303597027,-250.9711000683422,-56.30559548357558,-17.069794093092746,65.78586715178811,-2.1701138188418616,257.4708681048492,68.13294123532445
280,-11.40528342173671,-250.9600058875882,-56.29712474258295,-16.802976941568346,66.02868965828048,-2.0130731981175494,257.45937388432293,68.2956228926598
281,-11.431010893161444,-250.94595410397645,-56.293143305124225,-16.54071154903048,66.29426130923417,-1.8538176960229964,257.44604150333475,68.48197156284891
282,-11.457672478695052,-250.92863407552855,-56.29400457192609,-16.283135528946026,66.57877912874058,-1.694741476667792,257.4306329361079,68.68850294381532
283,-11.48502417670298,-250.90777915918466,-56.2998176710454,-16.030042483362205,66.87810805977047,-1.5381782531064996,257.4128974574821,68.91132468357752
284,-11.51275978648275,-250.88318118423842,-56.31043604472742,-15.780953878065212,67.18790093860932,-1.386352912957468,257.39258332678367,69.14626728923245
285,-11.540515281604273,-250.85470298499285,-56.325457519332076,-15.535189875419714,67.50371820020277,-1.2413359714161583,257.36945018470055,69.38901418200638
286,-11.567876091969415,-250.82228829987204,-56.34423630533004,-15.29193799021271,67.82114190142975,-1.1050026252194967,257.34328159557356,69.63522548124672
287,-11.59438727817214,-250.78596869093943,-56.365906495715635,-15.050319704506608,68.1358790740095,-0.9789980825431684,257.31389731146675,69.88065082927932
288,-11.619566400306327,-250.74586748497765,-56.389415913530044,-14.809455653274004,68.4438502229165,-0.864710614743696,257.28116500888916,70.12122745474196
289,-11.642918698989968,-250.70220098484947,-56.413568628930825,-14.568529812067036,68.7412599160319,-0.763253440292837,257.24501136531745,70.3531607135799
290,-11.663954047181226,-250.65527724472832,-56.43707410144162,-14.326852584925613,69.02464774642723,-0.6754561207256604,257.20543229762194,70.57298551114259
291,-11.682204953527567,-250.60549253315662,-56.45860071000941,-14.083922123934899,69.2909193659821,-0.6018656117798867,257.1625019667381,70.77760824931326
292,-11.697244687301172,-250.5533253988239,-56.476831407229305,-13.839482845024147,69.53735868444988,-0.5427564746612982,257.11637993175407,70.96433020683952
293,-11.708704441903668,-250.4993282349156,-56.49051930371075,-13.593579995136304,69.76162359359941,-0.49814909022470594,257.0673158242593,71.13085445357198
294,-11.716288459423113,-250.44411644979502,-56.4985410556983,-13.346609115039602,69.96172857993696,-0.4678341646553641,257.0156511331302,71.2752793587774
295,-11.719786209717892,-250.38835563525947,-56.49994596649743,-13.099359077015217,70.1360182129525,-0.45140147411140125,256.9618179801161,71.39608231459506
296,-11.719080993354812,-250.33274731762492,-56.49399878891501,-12.85304692836891,70.28313567699173,-0.4482707109542257,256.9063349834825,71.49209737379911
297,-11.714154653529615,-250.27801394382888,-56.4802144055927,-12.609342136272357,70.40199025312185,-0.45772246321636084,256.8498004273019,71.56249011455783
298,-11.705088390703759,-250.22488374509288,-56.45838288210712,-12.37037724848569,70.49172701175789,-0.4789277397277091,256.7928830280144,71.60673229612746
299,-11.692059953056587,-250.17407608173855,-56.4285838320307,-12.138741709684002,70.55170108060211,-0.5109749729684172,256.73631066221225,71.62457793513296
300,-11.675337712805074,-250.12628780002916,-56.391189582919644,-11.917455779039125,70.58145789974263,-0.5528940116856063,256.68085748079295,71.61604153650805
301,-11.655272278606335,-250.08218100447115,-56.34685717546397,-11.709922243530505,70.58072005080334,-0.6036771625897901,256.62732983711527,71.58137855075537
302,-11.632286255257645,-250.04237247803235,-56.29650962642239,-11.51985486117593,70.54938064315147,-0.6622977255275777,256.57655137697117,71.52106778139657
303,-11.606862558450974,-250.00742478353894,-56.241307161501275,-11.351184059178236,70.48750283905578,-0.7277265734843629,256.5293474962222,71.4357953856136
304,-11.579531474445215,-249.97783884803349,-56.18260946081834,-11.207942155548746,70.39532482288199,-0.7989471450676383,256.4865292112009,71.32644017825932
305,-11.550856544116584,-249.95404760206603,-56.12193045226292,-11.094132031238658,70.27326929738292,-0.8749688542326028,256.44887636729834,71.19406004749727
306,-11.521419343126526,-249.93641010887978,-56.06088767866891,-11.013584525743545,70.12195639019997,-0.9548385580264381,256.41712008624046,71.03987934211315
307,-11.491803297841907,-249.92520564749614,-56.00114851509152,-10.969810730806895,69.94221865784093,-1.037649526214528,256.3919244396638,70.86527705565298
308,-11.462576825276336,-249.92062741269908,-55.94437548561619,-10.965855804667209,69.73511665718884,-1.122547420291519,256.373867531212,70.67177549129565
309,-11.434276284284175,-249.92277580871817,-55.89217277586715,-11.00416097259256,69.50195332279297,-1.208733101446457,256.36342244957774,70.46102886789828
310,-11.407389405638503,-249.9316516573005,-55.84603585351446,-11.086440074991826,69.24428524399903,-1.295462553348665,256.3609388565357,70.23481113746546
311,-11.38233996429914,-249.94714995357901,-55.807305869091195,-11.213576437982747,68.963929035731,-1.382044702855714,256.366626229288,69.99500229259974
312,-11.359474415004401,-249.969055063088,-55.77713021370234,-11.385545036165125,68.66296141984081,-1.467838323999975,256.3805399622661,69.74357273554783
313,-11.339051051104123,-249.99703840496605,-55.756430335061104,-11.601363916109236,68.34371233271592,-1.552249389326324,256.4025716131539,69.48256581313377
314,-11.321232085005526,-250.03065960870575,-55.7458776991845,-11.85907762957731,68.00875122741745,-1.6347300948772492,256.4324444664913,69.21407927097815
315,-11.306078981736272,-250.06937184611922,-55.74587857925357,-12.155773974129442,67.66086758419824,-1.714780358855349,256.4697152601078,68.94024698585152
316,-11.293551385016176,-250.11253163597308,-55.75656809505333,-12.487633711109808,67.30304729962027,-1.7919520517263572,256.5137824675075,68.66322272244766
317,-11.283509996638823,-250.15941299679628,-55.77781361110271,-12.850011259564209,66.9384469424333,-1.86585575057825,256.56390104787715,68.38516769611716
318,-11.275723767155707,-250.2092253963064,-55.809227213566395,-13.237542816488885,66.5703677717204,-1.9361694810361003,256.61920307239245,68.1082433541466
319,-11.269881676345996,-250.26113453687952,-55.850186469916444,-13.644277092699912,66.20223091582785,-2.002648650609301,256.67872312009,67.83461004655443
320,-11.26560913353524,-250.31428473866382,-55.89986205806368,-14.06382302703517,65.83755430126979,-2.06513615081087,256.74142692188525,67.56643126599845
321,-11.262488552190007,-250.36782166051248,-55.957250316353914,-14.489508548716548,65.47993098856153,-2.123571460043865,256.806241576387,67.30588211245843
322,-11.260083040798927,-250.42091433279887,-56.02120852062852,-14.914544671587018,65.13300775355586,-2.1779975546899037,256.8720858122624,67.0551598212486
323,-11.257961645005492,-250.47277579827136,-56.09049081691825,-15.332189724707183,64.80046223083252,-2.228564511393279,256.93789909207464,66.81649372767806
324,-11.255724407738036,-250.52268187117912,-56.163783164705,-15.735909071484636,64.48597677198134,-2.2755288489040266,257.00266864753956,66.5921519335871
325,-11.253025737248024,-250.5699875954723,-56.239736211289994,-16.11952606816539,64.19320731497447,-2.3192479586694414,257.0654537394434,66.38444210649519
326,-11.249595022397074,-250.61414102785415,-56.316995505315,-16.477360275614068,63.92574590858324,-2.3601694479138455,257.12540660733777,66.19570418855122
327,-11.245253840752515,-250.65469406928676,-56.39422873391938,-16.804349196610662,63.687076008948054,-2.3988158141760416,257.1817897485409,66.0282932727529
328,-11.239929291458692,-250.69131017283635,-56.470149778982375,-17.096150206395464,63.48052023802617,-2.4357654388427354,257.23398929857956,65.8845515215634
329,-11.233662989861593,-250.72376880413873,-56.54353946633817,-17.349219966715957,63.30918096492503,-2.471631275766163,257.2815243462383,65.7667687746021
330,-11.226615246626311,-250.7519665450303,-56.613263027348985,-17.560869465295216,63.17587482716686,-2.5070387587925027,257.32405205716344,65.67713240424709
331,-11.219064010689452,-250.77591479034666,-56.6782845386251,-17.72929382060482,63.08306310066881,-2.542604401003677,257.3613685902313,65.61766796549861
332,-11.211398241946808,-250.7957341337214,-56.737678876921294,-17.853577016578328,63.032780570522036,-2.578916379965629,257.39340599312845,65.59017314024732
333,-11.204105443413876,-250.8116457145423,-56.79064181717696,-17.933672677024823,63.02656616275748,-2.61651814478495,257.42022545727434,65.59614828516366
334,-11.197753184310958,-250.82395991240185,-56.83649866204089,-17.970362783432897,63.065399014786294,-2.655895773388108,257.442007377794,65.636727483247
335,-11.192964742755999,-250.83306280983993,-56.874711372895476,-17.965196847033145,63.149643854866,-2.6974694682949427,257.4590386241353,65.71261432763636
336,-11.190389586647916,-250.83940086520147,-56.904883933638295,-17.92041445475425,63.27900948938148,-2.7415891971642568,257.47169742648276,65.82402669007695
337,-11.19067017449877,-250.84346430827662,-56.926765780630355,-17.83885433246074,63.45252382099568,-2.7885340659669455,257.48043641246926,65.97065441021005
338,-11.194407190842028,-250.84576988749754,-56.940253380673475,-17.72385317223996,63.66852811082877,-2.838514620437106,257.485764526555,66.1516331759192
339,-11.202125578172195,-250.84684368936894,-56.94539015827596,-17.57913754850694,63.92469214131497,-2.8916769797285315,257.4882286911379,66.36553686524135
340,-11.214243576551956,-250.84720474888587,-56.942364884354745,-17.408712326796593,64.21805059305365,-2.9481075331642677,257.48839603844647,66.61038935147053
341,-11.231046607150356,-250.84735007331741,-56.93150844994915,-17.216748949649823,64.54505949819558,-3.0078368667403206,257.48683738765266,66.88369537983704
342,-11.252667396210375,-250.84774156013734,-56.91328882255581,-17.00747671799229,64.90167029295796,-3.0708416692522733,257.4841124544084,67.182488779677
343,-11.279073293116902,-250.8487951211947,-56.88830401368651,-16.785079618708846,65.28341789944768,-3.1370436783327986,257.48075710218626,67.50339510372511
344,-11.310061318175446,-250.85087210616302,-56.857273027177726,-16.553600487973345,65.68551849513662,-3.206305282243131,257.47727274440143,67.84270488746309
345,-11.345261102787669,-250.85427287547483,-56.821024862882766,-16.316853557987514,66.10297225436538,-3.278422079395246,257.4741177769861,68.19645321829357
346,-11.384145533089335,-250.85923222107084,-56.78048560315668,-16.078345898221414,66.53066640478663,-3.3531133276235403,257.4717007471506,68.56050126394345
347,-11.426048518656351,-250.86591634573307,-56.73666342575242,-15.841208000792287,66.96347436446469,-3.4300116481644114,257.47037491776,68.93061577417654
348,-11.470188853898563,-250.87442120721576,-56.69063123052767,-15.608133739977985,67.39634739150435,-3.5086535354397332,257.4704339242604,69.30254321311524
349,-11.515698703617291,-250.8847720818308,-56.64350662757372,-15.3813301056756,67.82439597439851,-3.5884721855790165,257.47210826141264,69.67207598202738
350,-11.561655001190315,-250.89692417800993,-56.5964293405738,-15.162477450082953,68.24295901234889,-3.6687939638678264,257.4755623695727,70.03510905162396
351,-11.607112083713504,-250.9107640845395,-56.55053647068299,-14.952701455906348,68.64765960213415,-3.748839558247115,257.48089213246124,70.38768615669865
352,-11.65113407283506,-250.92611180973068,-56.5069363480522,-14.752558505051418,69.03444696159264,-3.8277305517317863,257.4881226394159,70.72603548629141
353,-11.692825664373265,-250.94272321053725,-56.46668181623787,-14.562036427602404,69.39962475330833,-3.9045018084258234,257.49720613788753,71.04659556374547
354,-11.731360106592513,-250.9602928078078,-56.430743860994006,-14.380572612568129,69.73986689534233,-3.9781197217258373,257.508020312275,71.3460327965857
355,-11.766003341216772,-250.97845731277465,-56.39998660604208,-14.207091093455716,70.05222284922183,-4.047506022409376,257.5203673778944,71.62125296819191
356,-11.796133607870049,-250.996800455699,-56.37514476373059,-14.040059482751815,70.33411524186384,-4.111566493481234,257.53397476752076,71.86940963222747
357,-11.82125619302094,-251.01485974501227,-56.356804502553366,-13.877565626816232,70.58333329489423,-4.169223631408761,257.5484982164954,72.08791277100325
358,-11.841013292640067,-251.03213564401898,-56.34538843211282,-13.717412751096784,70.79802566831799,-4.219452082435899,257.56352787384066,72.27444099205853
359,-11.855189080013723,-251.0481034733539,-56.341145181067965,-13.557230765150013,70.97669586243438,-4.261315560794136,257.5785978509289,72.42695986852716
360,-11.863710089966638,-251.0622281735497,-56.3441438424218,-13.394600305713515,71.11820236486723,-4.294003863007695,257.59319940684327,72.54374787811886
361,-11.866641055943088,-251.07398186836994,-56.35427322918474,-13.227185025664134,71.22176453657742,-4.316868500603493,257.6067977084067,72.62343001777838
362,-11.864176420463384,-251.0828639356937,-56.37124545331006,-13.052866673134739,71.28697405747629,-4.329455426362,257.61885178358506,72.66501783458453
363,-11.856627885933953,-251.08842297209827,-56.394603077080035,-12.869876772017161,71.31381075497723,-4.331533379931731,257.62883692284953,72.66795349472439
364,-11.844408555757315,-251.09027962615042,-56.423729190758976,-12.676918315001025,71.30266088730639,-4.323116511439976,257.6362684132647,72.63215469654702
365,-11.828014369514678,-251.0881489365763,-56.457860161217496,-12.473270892918816,71.25433547798839,-4.304480095531545,257.6407252518916,72.558056763103
366,-11.808003584658131,-251.08186073881475,-56.49610118089725,-12.258873164944747,71.1700861188234,-4.276168300351422,257.6418724999205,72.4466481556588
367,-11.784975014304571,-251.07137686433944,-56.53744485911185,-12.034377499727446,71.05161578723805,-4.238993161134179,257.6394811176991,72.29949594255741
368,-11.759545734983334,-251.05680402625072,-56.580792872859604,-11.801172867727786,70.90108261540409,-4.1940241669269875,257.6334442363847,72.11875837273479
369,-11.732329123832782,-251.0384013265665,-56.62498026710421,-11.561373520028628,70.72109506374139,-4.142568205304787,257.62378877649877,71.90718248082227
370,-11.703914252420715,-251.01658133256868,-56.6688016003282,-11.31777263039071,70.51469742709772,-4.086139989012738,257.61068125785937,71.6680854271893
371,-11.674847665336838,-250.99190384436358,-56.7110379823668,-11.073761947149537,70.28534496979684,-4.0264234737957825,257.59442678447306,71.40531899246207
372,-11.645618398047175,-250.96506191505813,-56.75048420329043,-10.833220564426115,70.03686829163523,-3.9652251769840663,257.57546064214534,71.12321733948427
373,-11.61664685569921,-250.93686035912154,-56.78597546870586,-10.600377993364587,69.77342685384417,-3.9044207667479895,257.55433266258154,70.82652887029003
374,-11.588277927246514,-250.9081877623529,-56.816413535312996,-10.379658507906102,69.4994519930295,-3.8458968214881666,257.53168531567434,70.52033373324505
375,-11.560778450632883,-250.87998369073617,-56.840792138707094,-10.175514971861826,69.21958021447324,-3.791490185183132,257.50822716782557,70.20994921368698
376,-11.534338919081836,-250.85320321831324,-56.858221491907,-9.992260830505442,68.9385780365552,-3.7429277475198726,257.4847037203668,69.90082579446754
377,-11.50907913012385,-250.82878099470423,-56.867951408002966,-9.833908623437454,68.6612601182802,-3.701769655567061,257.4618676806722,69.5984370688947
378,-11.485057255540628,-250.80759687917848,-56.86939242889912,-9.704022363667997,68.39240281496242,-3.669358874564933,257.4404504804895,69.3081669319165
379,-11.462281516288423,-250.79044479043924,-56.862134282548396,-9.605589658556653,68.13665559718557,-3.6467796752511172,257.4211364607051,69.03519753160484
380,-11.440723349014103,-250.77800601796122,-56.845960945818504,-9.540917753594202,67.89845282229992,-3.634827076034852,257.4045407255925,68.78440125480223
381,-11.42033076585573,-250.77082788895683,-56.82086150609659,-9.511555936252796,67.68192813365249,-3.633988557607374,257.3911913013914,68.56023953902799
382,-11.401040624688601,-250.7693083380271,-56.78703601716023,-9.518245089774886,67.49083340244302,-3.6444385626843405,257.3815158995134,68.36667068522416
383,-11.382788757101494,-250.7736865445284,-56.744895756140224,-9.560893780238132,67.32846381587417,-3.666045488063707,257.3758332717551,68.20706830304304
384,-11.365517282425188,-250.78403944869666,-56.69505763384993,-9.638579195418805,67.19759056878746,-3.6983901574164415,257.3743488945632,68.08415167983705
385,-11.349178866091789,-250.80028372682975,-56.638332800824536,-9.749570523763696,67.10040260561378,-3.7407941860113407,257.37715457764426,67.99992920033073
386,-11.333738070751268,-250.8221826992097,-56.57570961155993,-9.891371879301794,67.03845887425034,-3.792356232319431,257.38423153112336,67.95565584009822
387,-11.319170252889469,-250.8493575567547,-56.508331115709396,-10.060781589130178,67.01265248857426,-3.8519938573321584,257.3954563533306,67.95180560537925
388,-11.305458674334755,-250.88130214195277,-56.43746732272847,-10.253964585146399,67.02318799738347,-3.9184885529611875,257.4106092795999,67.9880595460563
389,-11.292590634012123,-250.91740034991145,-56.364482770652224,-10.466534796674342,67.06957263865492,-3.9905314773810336,257.429383933838,68.06330964787034
390,-11.280553447880541,-250.9569451493925,-56.29080035480367,-10.693644771512359,67.15062208999387,-4.066767592818092,257.45139785325136,68.1756785808445
391,-11.269330966739501,-250.99915834785926,-56.21786274572318,-10.930080177433263,67.26448087955553,-4.14583621795467,257.47620325223136,68.32255500074487
392,-11.258901047212177,-251.04321050618248,-56.147092914812525,-11.170357304321957,67.40865733168921,-4.226406409604568,257.50329779413494,68.50064389297792
393,-11.249234068700108,-251.08824072550325,-56.07985528599522,-11.408822172681162,67.58007271310692,-4.307206056892224,257.53213543339064,68.70603133403358
394,-11.240292274077746,-251.13337629272422,-56.0174188953486,-11.639750309143913,67.77512413072164,-4.387044129275392,257.5621376035345,68.93426303012616
395,-11.232029446734137,-251.1777523429396,-55.960923707630954,-11.85744660719935,67.98976065957166,-4.464826129516983,257.59270513194167,69.18043600976458
396,-11.22439032695325,-251.22053168193776,-55.911350949327925,-12.056344919272972,68.21957204156853,-4.539563359044445,257.62323117995567,69.43930277700598
397,-11.217309295751008,-251.2609246107364,-55.86949806959444,-12.231107137088326,68.4598890139305,-4.610377016133895,257.65311516524326,69.70538699234592
398,-11.210708146179437,-251.29820807902274,-55.83595884484761,-12.376721522534304,68.70589389282507,-4.676498380551039,257.6817771123716,69.97310933116718
399,-11.204493079213435,-251.3317430217486,-55.81110919023298,-12.488599942761004,68.95273948396428,-4.737266398294671,257.7086714396262,70.23692160548676
400,-11.198551306278173,-251.36098859204697,-55.79509927023728,-12.562673428790397,69.19567374296471,-4.792123904824833,257.7332990682107,70.49144654899438
401,-11.192747763005661,-251.38551232449524,-55.78785233631312,-12.595485107864851,69.4301668838454,-4.840613563154086,257.7552170218185,70.73161987890468
402,-11.186922437280774,-251.40499588919687,-55.78907032166588,-12.584279056587482,69.65203688347488,-4.882374374130145,257.77404520916974,70.95283041120766
403,-11.18088876986516,-251.4192367023343,-55.798245706891166,-12.52708301775597,69.85756865577238,-4.9171393524227796,257.7894705587302,71.15105322558284
404,-11.174433593449805,-251.42814602944446,-55.81467870243476,-12.422782304793435,70.04362169851727,-4.944734675942962,257.8012489354292,71.32297029218896
405,-11.167319115234347,-251.431744359833,-55.837498501181564,-12.271181703623661,70.20772084203305,-4.965080333109047,257.8092053463122,71.46607269797794
406,-11.159287395443174,-251.4301548344487,-55.86568731618093,-12.073051880272718,70.34812490299818,-4.978192008145582,257.81323293585416,71.57873871173065
407,-11.150067559003212,-251.42359542127028,-55.89810615667732,-11.830156787815291,70.46386861240612,-4.984183656168318,257.81329122887223,71.66028246105164
408,-11.139385654553033,-251.4123703758613,-55.93352170600757,-11.545258869174143,70.5547742013881,-4.983269973996727,257.80940400249864,71.71096902606571
409,-11.126976738483917,-251.3968613625367,-55.970634014111795,-11.222099429839012,70.6214305090544,-4.975767844260467,257.80165707231174,71.73199329683433
410,-11.11259846516873,-251.37751849551876,-56.00810479145592,-10.865352301791853,70.66513931653687,-4.9620958500835055,257.7901961678439,71.725421872579
411,-11.09604524074364,-251.3548514663571,-56.0445858958799,-10.480549751743819,70.68783058599782,-4.942771091286795,257.7752249296888,71.69409936183344
412,-11.077161884115332,-251.3294208172125,-56.078747407519025,-10.073980508363908,70.69195016313813,-4.918402739054811,257.7570029093446,71.64152244720218
413,-11.055855741802276,-251.3018293127126,-56.10930478177435,-9.65256087334248,70.68032515573351,-4.889682046807531,257.7358433711624,71.57168689318361
414,-11.03210628524176,-251.272713270657,-56.135044954729814,-9.223681191961898,70.65601359909883,-4.857368901726899,257.71211069536605,71.48891428146017
415,-11.005971339893266,-251.24273363363463,-56.154851652473766,-8.795031419677859,70.62214616249337,-4.82227539428228,257.6862171943788,71.39766663743833
416,-10.97758924686643,-251.21256653891635,-56.16773026140005,-8.37441095897587,70.58176848337317,-4.785247171583364,257.6586191612333,71.30235816885309
417,-10.947176467278641,-251.18289320745163,-56.172832422631096,-7.969529182779739,70.5376930888972,-4.747143424516011,257.62981199752477,71.2071738867599
418,-10.915020428601382,-251.15438906170837,-56.16948011473083,-7.587803988958846,70.49236958225036,-4.708816252967958,257.6003242801686,71.115904713819
419,-10.88146774937309,-251.12771201286816,-56.15718848124868,-7.236166287478419,70.44778071662353,-4.6710899694534405,257.57071055963195,71.03180768990289
420,-10.846908321973498,-251.10348985856155,-56.13568616807932,-6.920878516245665,70.4053702076151,-4.634740769348321,257.54154258991935,70.95749813067164
421,-10.811756101071222,-251.08230677484048,-56.10493161166239,-6.6473751285095855,70.36600587505822,-4.600477197111811,257.51339867634636,70.89487832568598
422,-10.776427848811595,-251.0646889670522,-56.065123671771424,-6.4201323969165704,70.3299792719855,-4.568921973863732,257.48685091252963,70.84510489712392
423,-10.741321411036736,-251.05108964684518,-56.016705264777094,-6.242573631630768,70.29704064886097,-4.540595951648742,257.4624502493181,70.80859456998664
424,-10.706795175872497,-251.04187365669193,-55.96035917374229,-6.117013887045776,70.26646612520624,-4.515905120125695,257.44070960638464,70.78506603792076
425,-10.673150179437172,-251.03730225469417,-55.896995868801824,-6.044645584476822,70.23715239306252,-4.495131620260712,257.42208555979255,70.77361394693547
426,-10.64061601607038,-251.03751872465742,-55.8277338358491,-6.025563638714663,70.20773317396629,-4.478429558490616,257.40695941902413,70.7728097868741
427,-10.609341404444642,-251.04253557622786,-55.75387347341556,-6.05882615895632,70.17671097609345,-4.465826059641427,257.3956187131422,70.78082366633818
428,-10.57938995012183,-251.05222420895475,-55.676865950162984,-6.142544968804636,70.14259738396113,-4.457227527264192,257.38824027064896,70.79556049520748
429,-10.55074126742693,-251.0663080307706,-55.59827843434016,-6.273999203909199,70.10405505321214,-4.452430637331885,257.38487617859806,70.81480392451924
430,-10.523297188846852,-251.08436004077998,-55.51975690676596,-6.449765092960215,70.06003472170246,-4.451137285802333,257.38544386216046,70.83636146262151
431,-10.496892408470183,-251.10580570657373,-55.44298757873817,-6.665855612236533,70.00990090951674,-4.452972551196883,257.3897212907952,70.85820453322623
432,-10.471308690132357,-251.1299315666984,-55.36965788787067,-6.917864849557083,69.95354057459024,-4.457504647954082,257.3973479046334,70.87859786561897
433,-10.446291733704136,-251.155899442876,-55.30141809169708,-7.201113370010735,69.89144974528726,-4.464265755485148,257.4078313271236,70.89621341138145
434,-10.421569841202137,-251.18276561897198,-55.23984452523343,-7.510792342684338,69.82479398017064,-4.472772479382285,257.42055942394506,70.91022484318451
435,-10.396873544401238,-251.20950401435803,-55.18640556914344,-7.842105350943714,69.75543941776657,-4.4825445545608895,257.4348169402325,70.9203795819631
436,-10.37195531912826,-251.23503230318627,-55.14243126192035,-8.190407419715235,69.68595227759037,-4.493120285765722,257.44980584435655,70.92704629550168
437,-10.346608505048328,-251.2582400015459,-55.10908734840549,-8.551340770765883,69.61956602031076,-4.50406720865569,257.4646685400386,70.93123697475096
438,-10.320684683798895,-251.27801761254892,-55.08735452977908,-8.920966292524886,69.5601168872552,-4.514986623425326,257.4785131689306,70.93460396575489
439,-10.294109047179406,-251.2932859145036,-55.07801383304745,-9.29588896922638,69.51195004163084,-4.525511053656078,257.49044025924076,70.93941357546868
440,-10.26689356364727,-251.30302442055697,-55.08163920767915,-9.673374856194444,69.4797998755219,-4.535294284594567,257.4995699688706,70.9484989585557
441,-10.239147821151086,-251.30629800693507,-55.098598343884575,-10.051456798895876,69.46864913822444,-4.543994316482193,257.5050691227811,70.96519585329276
442,-10.211087218361673,-251.30228079224176,-55.129062023321545,-10.429026028348378,69.48357233435966,-4.551250194497137,257.5061771853222,70.99326532462294
443,-10.18303787147945,-251.29027657007,-55.17302121605727,-10.805907035595947,69.52956934626559,-4.55665417680747,257.50223029278084,71.03680801226145
444,-10.15543747839358,-251.26973534897232,-55.23031015838229,-11.18291372758077,69.61139553070115,-4.5597210676199005,257.49268251526195,71.10017455822258
445,-10.128831555427048,-251.2402657208122,-55.30063322999803,-11.561885730543322,69.73339468908405,-4.5598567792462354,257.47712360210716,71.18787696547632
446,-10.10386483126803,-251.2016428574802,-55.38359364857004,-11.945704717163123,69.89934129028093,-4.556328302548527,257.4552925982917,71.30450558592894
447,-10.081267975705854,-251.1538120181745,-55.478722540270795,-12.338291667734815,70.1122980428041,-4.548237260863158,257.4270869280683,71.45465614879863
448,-10.061840124780728,-251.0968876205074,-55.58550745967332,-12.744586912632432,70.37449428073226,-4.534499065711929,257.39256682758395,71.64287061719287
449,-10.046427748723985,-251.03114819778577,-55.703419699959674,-13.17051551396464,70.68722962247695,-4.513829329981136,257.35195532867544,71.87359465875167
450,-10.035900314566986,-250.9570278308127,-55.831939791353896,-13.622940919002318,71.05080606745747,-4.48473864930825,257.30563426196244,72.15115320301683
451,-10.031123107542612,-250.8751047454962,-55.97058060992329,-14.10960978233094,71.4644903000125,-4.445536279720916,257.2541368479947,72.4797441166298
452,-10.032927684526907,-250.78608765486098,-56.11890762377897,-14.639090335974455,71.92650667798537,-4.3943427847057,257.19813736028016,72.86344866418294
453,-10.042080756383015,-250.69080023147504,-56.27655598210774,-15.220705630632263,72.43406030033951,-4.329111459407323,257.13843820462324,73.30625624380463
454,-10.059252732248368,-250.59016398441955,-56.44324436063184,-15.864461459079333,72.98338863892775,-4.247658207945473,257.075954709033,73.81209987266821
455,-10.08498756998207,-250.48517979252466,-56.61878566850443,-16.58096711088802,73.56983938618124,-4.147699465980706,257.01169795124935,74.38489799568052
456,-10.119675779665506,-250.37690832845783,-56.803094820508,-17.381345710785496,74.18797136720246,-4.026897685087114,256.9467559611493,75.02859742000683
457,-10.163532275719897,-250.26644956780018,-56.99619372231257,-18.277130063604172,74.8316746365641,-3.8829138173467577,256.8822735759328,75.7472116378091
458,-10.21658031935517,-250.1549215493166,-57.19821343146617,-19.280139737474336,75.49430530435146,-3.7134661183898263,256.81943113971494,76.54484858418495
459,-10.2786422675551,-250.04343855797137,-57.409393240918156,-20.402335447731346,76.16883026812522,-3.5163943729820506,256.7594221763824,77.42572202290873
460,-10.349337448917568,-249.93308892442204,-57.63007628637589,-21.655647504514718,76.84797690440855,-3.2897283455885407,256.70343013914055,78.3941412686015
461,-10.428087250875961,-249.8249126407049,-57.860701265077864,-23.051776119697532,77.52438291060477,-3.031758947012172,256.6526043346763,79.4544748574199
462,-10.514127344257702,-249.71987896581732,-58.10178995645458,-24.60196282414669,78.19074184803226,-2.7411103600542575,256.6080351121563,80.61108506417602
463,-10.60652679521119,-249.61886421344119,-58.35393035695196,-26.31673418693154,78.83994043367876,-2.4168111704341313,256.5707284462956,81.86823176427521
464,-10.704213545951124,-249.52263012979904,-58.617755285665375,-28.205621341364704,79.46518420174338,-2.058362334031568,256.5415802540867,83.22994594979431
465,-10.806005365377668,-249.43180370387861,-58.89391629973384,-30.27686124014291,80.06010883208774,-1.6657995483386001,256.52135119063684,84.69987515494127
466,-10.910644946382506,-249.34685967865693,-59.183052816006665,-32.53708779596735,80.61887529277799,-1.2397473234809504,256.5106430842433,86.28110508384091
467,-11.016837447477382,-249.26810718408817,-59.48575659513606,-34.991022925169695,81.13624795223745,-0.7814618258964964,256.5098783664787,87.97596376613244
468,-11.12328848888909,-249.19568172544984,-59.80253218095404,-37.64117891138396,81.60765579772237,-0.2928594555066387,256.519283762003,89.78581636813648
469,-11.228740480702925,-249.12954333669376,-60.13375435434356,-40.48758437019122,82.0292375898117,0.22347182527974901,256.5388791944374,91.71086006517291
470,-11.332005307055635,-249.0694811692012,-60.47962402977601,-43.527546329881496,82.39787204916185,0.7642811218384983,256.5684724346514,93.74992894476867
471,-11.431991878484554,-249.01512424139588,-60.84012425091222,-46.75546051707793,82.71119409791757,1.3256853962978108,256.60765956639676,95.9003188035338
472,-11.52772775880805,-248.96595764828038,-61.21497803272946,-50.162680942269326,82.96759799142468,1.9032238403173,256.6558309865262,98.15764114378294
473,-11.618374714643117,-248.9213433213921,-61.603609790322025,-53.73745845096108,83.16622807432624,2.4919362376408354,256.71218248576196,100.51571487800484
474,-11.70323844019029,-248.88054443816108,-62.00511209525231,-57.464956081201485,83.30695794109418,3.0864645435941935,256.7757309863022,102.96650325676691
475,-11.781772851931272,-248.84275270154103,-62.418219597889205,-61.32734678240132,83.39035892740236,3.6811756790019707,256.8453346633686,105.50010225404165
476,-11.853579326087196,-248.80711783082933,-62.84129204023186,-65.30399623281917,83.4176590456989,4.270302331927515,256.9197173154056,108.10478497020429
477,-11.918401212183714,-248.77277867107225,-63.27230811329541,-69.37173016574664,83.39069369352636,4.84809744878173,256.9974968693449,110.76710453567826
478,-11.976113980468714,-248.7388953296497,-63.70887140497648,-73.50518189896432,83.31184970751823,5.408997179114837,257.0772177857512,113.47205557451719
479,-12.026711425065738,-248.7046816584135,-64.14822902406127,-77.67721182061926,83.18400455144237,5.947786421754852,257.1573868818732,116.20329155682252
480,-12.070288421665401,-248.6694371805088,-64.58730293501216,-81.85938661657966,83.010462520742,6.4597608442520915,257.2365117441801,118.94339238153927
481,-12.107020864694473,-248.6325772151836,-65.02273373334664,-86.0225023507722,82.7948898198497,6.9408792846493,257.31314049430995,121.67417350778648
482,-12.137143608970398,-248.5936595710841,-65.45093644547684,-90.1371326176416,82.54125037395123,7.387900741782118,257.38590127172057,124.3770253628837
483,-12.16092746744736,-248.5524059222091,-65.86816767363614,-94.17418142730995,82.25374446878354,7.798500655114226,257.4535394911034,127.03327017202164
484,-12.17865648556258,-248.50871599986945,-66.27060281424049,-98.10542067079207,81.93675283464769,8.171361793484614,257.5149508088683,129.62452318441314
485,-12.190606760220499,-248.46267309397734,-66.65442124354144,-101.90399400940866,81.5947894461442,8.506235753296597,257.5692078701933,132.13304653288074
486,-12.19702798978171,-248.41454005260826,-67.01589656722192,-105.5448725056997,81.23246678322052,8.80397179809371,257.61557936964033,134.54208628310937
487,-12.198128771205162,-248.36474591842352,-67.35148846764444,-109.00525170283343,80.85447727641903,9.066510612122928,257.6535407171132,136.83618605403706
488,-12.194066440807436,-248.31386433899834,-67.65793238732273,-112.26488458395596,80.46559391823094,9.296841613122062,257.6827764704577,139.0014733985637
489,-12.18494199844182,-248.26258567566794,-67.93232324769782,-115.3063493214751,80.07069145334215,9.498923879347466,257.70317542507587,141.02591743729474
490,-12.170800373663937,-248.21168516277604,-68.17218964299686,-118.11525432867013,79.67478721068423,9.677572462211144,257.714819704506,142.8995575580666
491,-12.151636012213185,-248.16198954853343,-68.37555547801583,-120.68038526139156,79.28309779215773,9.838313687103929,257.71796939102563,144.61470297678466
492,-12.12740350152887,-248.1143444775787,-68.5409867453854,-122.99379895136522,78.90110497204869,9.98721473640797,257.71304424393975,146.16610155178827
493,-12.0980327140206,-248.06958456134663,-68.66762189312557,-125.05086790555671,78.53462177985871,10.130694158722394,257.700603934218,147.55107378928076
494,-12.06344770036739,-248.02850770039325,-68.75518490184177,-126.85027660186103,78.18984816751964,10.275320858058578,257.6813280177977,148.76960514639902
495,-12.023588295001321,-247.99185479304649,-68.80398080397507,-128.39396827377254,77.8734051011948,10.427609569202478,257.65599660367235,149.82438739479443
496,-11.97843316146166,-247.96029545988523,-68.8148740168805,-129.68703903668265,77.59233653798844,10.593820832280537,257.6254723456141,150.72079872479253
497,-11.928022907037935,-247.93441980602785,-68.78925050918856,-130.73757549551127,77.35407063710342,10.77977304279011,257.5906839704519,151.46681284456668
498,-11.872481940429791,-247.91473557876918,-68.7289653785485,-131.55643242744176,77.16633461371669,10.990673268136433,257.5526110678076,152.07282953010647
499,-11.81203785552891,-247.9016694919842,-68.63627781896007,-132.15694865106386,77.03702158600927,11.230972225004122,257.5122694130565,152.55142266078164
500,-11.74703729495818,-247.89557111885696,-68.51377569242587,-132.55460169387348,76.97401215696733,11.504247234012976,257.4706958084193,152.9170064276503
501,-11.677957543925894,-247.8967176503025,-68.36429206211439,-132.76660523811805,76.98495772985544,11.813115307917759,257.42893137632484,153.18542572287373
502,-11.605413487478058,-247.90531793882164,-68.19081622916427,-132.81145727586843,77.0770360158701,12.159176960503569,257.3880024218894,153.37348212791812
503,-11.530159870784294,-247.92151454396037,-67.99640217399019,-132.70845095127083,77.25669132019286,12.542989928750353,257.34889837465255,153.49841173358163
504,-11.45308893866825,-247.94538296490637,-67.7840778613325,-132.47716361873842,77.5293728178682,12.964070783442942,257.31254692515625,153.57733465314286
505,-11.375223557552953,-247.9769278882911,-67.5567594480338,-132.13694216786095,77.8992833923572,13.420921345738385,257.2797872458244,153.62669818580144
506,-11.297705957867327,-248.0160769773786,-67.31717465700766,-131.70640381106983,78.36915016268988,13.911075967160535,257.25134292151034,153.66173607103974
507,-11.221782368506704,-248.06267327950573,-67.06779912828527,-131.2029711599152,78.94002600234721,14.431165188178236,257.22779663782427,153.69596524363462
508,-11.148784072815838,-248.11646762305145,-66.81080846166829,-130.64245860363374,79.61112943180154,14.976991215653879,257.20956869029175,153.74073916862437
509,-11.08010569499073,-248.17711243845514,-66.54804729759753,-130.03872405723828,80.37972833605558,15.543611144883174,257.1969011005432,153.80487353040408
510,-11.017181627901671,-248.24415831120342,-66.28101556462687,-129.4033965505135,81.24107098886839,16.125424867812047,257.1898486959326,153.8943561776489
511,-10.96146132857271,-248.31705429081177,-66.010871167646,-128.74568637576402,82.18836586195063,16.716265989796398,257.1882780070547,154.01214919938863
512,-10.914383837818106,-248.39515261103148,-65.7384478404286,-128.07228094403482,83.21280979247771,17.309495573630755,257.1918743225764,154.15808716415722
513,-10.877351543502323,-248.47771809828424,-65.46428645014826,-127.38732629288666,84.30366247533125,17.8980998792886,257.20015674721617,154.32887211807807
514,-10.851703044627287,-248.5639421788382,-65.18867765129052,-126.69249144478243,85.44836408144555,18.474794228405397,257.2125006459736,154.51816304259813
515,-10.838684974417497,-248.652961022132,-64.91171354916358,-125.98711062257019,86.63269210333432,19.032135492066754,257.22816643530336,154.7167551845279
516,-10.839422744123912,-248.74387697452912,-64.63334601175923,-125.26839671343683,87.840953207552,19.562645364844144,257.2463333104204,154.91284295885498
517,-10.854890395190672,-248.83578210627687,-64.35344935486795,-124.53171820490984,89.05620579382649,20.058945554980188,257.2661362101264,155.09235881525643
518,-10.885880147401444,-248.927782532417,-64.0718852240551,-123.77093080621977,90.26050899771465,20.51390442423675,257.2867042074674,155.2393792680125
519,-10.932972729280905,-249.01902224104356,-63.78856765013374,-122.97875380833041,91.43519393401262,20.920792704289756,257.30719864555994,155.33658794360667
520,-10.996509967597365,-249.10870537618658,-63.50352646268212,-122.14717979796328,92.56115297376992,21.27344401296379,257.3268496136812,155.36578388169806
521,-11.076571242624748,-249.19611609335678,-63.21696735498294,-121.2679047559619,93.61914272777416,21.566414272253915,257.34498955570587,155.3084215450068
522,-11.172955301184913,-249.28063514357834,-62.929326784894485,-120.33276413341137,94.59009621351504,21.795133000695525,257.361082805698,155.1461673449694
523,-11.285168664817679,-249.36175231306794,-62.64131966883219,-119.33415951946886,95.4554394678555,21.9560389596985,257.37474974837085,154.86145628051727
524,-11.41242155351505,-249.43907387624864,-62.353977688365944,-118.26546025657449,96.19740756991669,22.04669283097838,257.38578428246973,154.43803170385604
525,-11.553631888152296,-249.51232439571476,-62.06867607119036,-117.12136506325031,96.79935449958224,22.06586043581785,257.39416342925034,153.8614513667598
526,-11.707437532482153,-249.58134252365898,-61.78714691010323,-115.89821058510513,97.24605042525737,22.013561337030403,257.4000482695828,153.11954387056227
527,-11.872216511913287,-249.64607084247984,-61.511477506968745,-114.5942168183122,97.52395908411857,21.89107930288516,257.403775847572,152.20280153651865
528,-12.046114573721894,-249.7065401379372,-61.24409299817977,-113.20966322556885,97.6214872574693,21.70093286559888,257.4058421930657,151.10469847371377
529,-12.227079212060652,-249.7628487998383,-60.98772358144993,-111.74699347697324,97.52919829663925,21.446805926623057,257.4068771553674,149.8219259511447
530,-12.412899213583007,-249.81513831939984,-60.74535774995417,-110.21085036254482,97.23998237319493,21.13343997027706,257.40761226669156,148.3545405984975
531,-12.601248844848094,-249.86356612132866,-60.52018380075788,-108.60804496549292,96.7491775517724,20.766490936962757,257.408843324528,146.70602400872576
532,-12.789735853305372,-249.9082772044415,-60.31552245654809,-106.9474654778198,96.05463775361949,20.35235520819175,257.4113897478311,144.88325478977595
533,-12.97595234861829,-249.94937620555686,-60.13475375251218,-105.23993133035115,95.15674602026485,19.897970490205893,257.4160529650589,142.89639611129124
534,-13.157527405382679,-249.98690151951917,-59.98124137667524,-103.49799808392717,94.05837400354899,19.410598611237262,257.423576105335,140.75870354891939
535,-13.332180057625743,-250.02080302708836,-59.85825735111898,-101.73571827524346,92.76479106795148,18.897598264239768,257.4346071061581,138.48625972991027
536,-13.497771331046115,-250.05092483143036,-59.76890932789409,-99.9683634804559,91.28352856781753,18.36619641734049,257.44966706162637,136.09764401194698
537,-13.652353987415436,-250.07699419476415,-59.716072058888884,-98.21211341786199,89.62420656353387,17.8232674035646,257.4691252696665,133.61354716170294
538,-13.794218614984391,-250.09861760073943,-59.7023240793463,-96.48371892745921,87.79833129282581,17.27512856518005,257.49318205827075,131.05634260034654
539,-13.921934600507438,-250.1152845482091,-59.729890455875726,-94.80014693375169,85.81907198131763,16.727360774520204,257.52186011351245,128.44962701375044
540,-14.034384458692053,-250.12637931852336,-59.80059248342441,-93.17821669364079,83.70102504193886,16.18466118355132,257.5550046858382,125.8177437362122
541,-14.13079004231192,-250.13120055582337,-59.91580528442917,-91.63423740625194,81.4599725362553,15.650734151228566,257.5922926805231,123.18530215357474
542,-14.21072935091264,-250.12898805682187,-60.07642426140702,-90.18365738622936,79.11264028384443,15.128224482199784,257.6332502201837,120.57670547981935
543,-14.274143019388154,-250.118955695443,-60.2828412411263,-88.84073446837097,76.67645960568143,14.618694981474599,257.67727780619737,118.01569790090119
544,-14.321330047938538,-250.1003289267665,-60.53493088900633,-87.61823629220231,74.16933567328118,14.122648025564557,257.72368170880134,115.52494058528927
545,-14.352932808422302,-250.07238484550854,-60.83204757936838,-86.52717782400937,71.6094249207524,13.639588537672381,257.77170969927585,113.12562467601826
546,-14.369911736341889,-250.03449237977773,-61.17303250204061,-85.57660208228266,69.01492392961866,13.168123665837223,257.8205887857212,110.8371282231166
547,-14.373510403158908,-249.9861499973462,-61.556230529639144,-84.77340867855588,66.40387248175297,12.706092856026155,257.869562376828,108.67672311716247
548,-14.365211941378107,-249.92701839542278,-61.97951630446571,-84.12223359232486,63.79397386016841,12.2507210456696,257.91792439213526,106.65933739260879
549,-14.346688147157332,-249.85694605410404,-62.440329006631245,-83.62538264978606,61.20243567737304,11.798787391644456,257.9650482552866,104.79737766590372
550,-14.319743026331667,-249.775986173698,-62.93571520016661,-83.28282047092026,58.64583428057165,11.346802227255353,258.01040933551377,103.10061580596293
551,-14.286252968356454,-249.68440424659562,-63.46237900725899,-83.0922160817618,56.140004975464294,10.891185728129006,258.05360009634325,101.57614303718675
552,-14.24810594184436,-249.58267619947378,-64.01673866009725,-83.04904576671296,53.6999589402199,10.428442917891577,258.0943378334433,100.22839340278534
553,-14.207142014698956,-249.47147759708608,-64.59498818757875,-83.14675282264162,51.33982596924351,9.9553309258204,258.1324653399195,99.05923677382906
554,-14.16509722634041,-249.3516647978468,-65.19316262244593,-83.3769624486364,49.072820391759095,9.469015530442528,258.1679451115355,98.06813933088586
555,-14.123552590647087,-249.22424918304483,-65.8072048723881,-83.72974796797803,46.91122593737959,8.967214773207466,258.20084784967935,97.25238672384812
556,-14.08388987019765,-249.09036564222723,-66.4330325246584,-84.1939421054648,44.86639420432518,8.448327766269424,258.23133609639297,96.60736219878345
557,-14.047255617069167,-248.9512364450298,-67.06660328883079,-84.75748458026906,42.94875089765797,7.9115468519182475,258.25964387776594,96.12686934659978
558,-14.014534671688464,-248.80813158396816,-67.70397817162169,-85.40779533637968,41.167804219004374,7.356951153199057,258.28605325751806,95.80348726615357
559,-13.986333860707187,-248.66232670396522,-68.34138154884332,-86.13216164017953,39.53215065606336,6.785579423808579,258.3108687122236,95.62894510636941
560,-13.962976188557679,-248.51505978473602,-68.97525714817549,-86.91812705093326,38.04947475627222,6.19948005343428,258.33439021108154,95.59450310130634
561,-13.944505471347322,-248.36748770609162,-69.60231890781132,-87.75387073490414,36.72654099271363,5.601736167293851,258.3568858042218,95.6913280626267
562,-13.93070104845737,-248.2206436920066,-70.21959590969892,-88.62856653526725,35.56917727564065,4.99646400564199,258.378564426022,95.91085255135744
563,-13.921101805808279,-248.07539648037954,-70.8244709547834,-89.53271250868218,34.58225089451411,4.388783179023561,258.39954953903447,96.24510846387389
564,-13.915038269706697,-247.93241197008865,-71.41471256114754,-90.45842329396287,33.76963870360187,3.7847579408489125,258.4198541698184,96.68702755252458
565,-13.911671146079435,-247.7921180700867,-71.98850009423606,-91.39967971965274,33.134194255726165,3.1913092838445136,258.43935780918997,97.23070352716127
566,-13.910034507224207,-247.65467350490155,-72.54444151303406,-92.35253242615079,32.67771534640264,2.616098463855955,258.4577855971954,97.87161280907087
567,-13.90908181099913,-247.5199413870506,-73.08158306688408,-93.31525879043029,32.400915946388075,2.0673834956814066,258.474690217976,98.60679353271343
568,-13.907732952197826,-247.38746843110903,-73.59941030265496,-94.28847484271844,32.303406620934446,1.5538512346770312,258.4894369929172,99.43498472497257
569,-13.904920557892524,-247.2564707717721,-74.09783986925032,-95.27520585964295,32.38368715126177,1.0844288196314653,258.5011927741971,100.35672942150867
570,-13.899633801611257,-247.12582746709262,-74.57720177040339,-96.28092057092339,32.63915418123107,0.6680794600200312,258.5089193987998,101.3744464801292
571,-13.890958194281291,-246.99408289222444,-75.03821201110742,-97.31353410711463,33.066125436920956,0.3135887307875221,258.51137267401174,102.49247574829363
572,-13.878110152804217,-246.85945931652537,-75.48193618573355,-98.38338377448828,33.659880641909865,0.029348593028573167,258.5071081447145,103.71709993346666
573,-13.860465615134844,-246.71988094993173,-75.90974546815713,-99.50317960515935,34.414717913171444,-0.17685281266531777,258.4944951830138,105.05654420205784
574,-13.837582433715019,-246.57301056951204,-76.32326737663506,-100.68792892372336,35.32402334885632,-0.29802706450255884,258.47174107180984,106.52095174742419
575,-13.809216602879957,-246.4162994430544,-76.72433420665426,-101.95483168562274,36.380350841386104,-0.32815850962873666,258.43692655337674,108.12233111296129
576,-13.775332547203051,-246.24705066641494,-77.11493200094196,-103.32314173788482,37.575508935746186,-0.2623465642367885,258.3880537489927,109.87446958731542
577,-13.736107799368167,-246.0624952948195,-77.497152457391,-104.81398857640794,38.90065175063818,-0.0969107209185912,258.32310652742547,111.79280663342871
578,-13.691932474113171,-245.8598798429605,-77.87314941530452,-106.45015425295672,40.346371418013874,0.1705462807957482,258.2401224205432,113.89426166372971
579,-13.643403986343781,-245.63656287892834,-78.2451006510946,-108.25580031968067,41.90278996185201,0.5411192414032157,258.13727411745776,116.19701097968561
580,-13.591317471616565,-245.3901175592936,-78.61517487076203,-110.25613987375341,43.55964886151222,1.0146247610331534,258.01295749338027,118.72020908097834
581,-13.53665236395755,-245.11843611605707,-78.98550325854997,-112.47705008896529,45.30639469014354,1.5896659078185305,257.8658821875068,121.48364998643777
582,-13.480555547656227,-244.81983163081077,-79.35815483152332,-114.94462163121574,47.13225933935865,2.2637318629949585,257.6951600804042,124.50736524077298
583,-13.424321391022941,-244.4931320280557,-79.73511502606688,-117.68464367838182,49.02633372289901,3.0333251254707005,257.50038669903716,127.81115758943771
584,-13.36936879533643,-244.13776115125202,-80.11826717699584,-120.72202730380185,50.97763471268424,3.8941074034626655,257.2817105869942,131.41407334296014
585,-13.317215196402707,-243.75380209798755,-80.5093766929279,-124.08017565931027,52.97516640346998,4.8410545021169,257.0398860183574,135.33382215980316
586,-13.269447308959883,-243.3420387431626,-80.91007772600119,-127.78031610777519,55.00797844449958,5.868610380781124,256.77630514804025,139.5861597413936
587,-13.227688368891572,-242.90397257283814,-81.3218619842387,-131.8408162268569,57.06522585979426,6.97083106903581,256.4930067856017,144.18425576340167
588,-13.193561705806948,-242.44181342619842,-81.74606910921878,-136.27651131109818,59.13623622541918,8.141510200798491,256.19266032188955,149.13807513102526
589,-13.16865060905249,-241.9584441988829,-82.18387781085825,-141.09807464266,61.21059100422928,9.374279444933974,255.8785246610469,154.4538043295311
590,-13.154454598120065,-241.4573607253552,-82.63629672473466,-146.3114627626346,63.278228022120565,10.66267898973085,255.55438305664626,160.13335559484392
591,-13.152342414128949,-240.942588861163,-83.10415375342862,-151.91746612780153,65.32957135264384,12.000195386019596,255.22445546214664,166.1739796831025
592,-13.163502370072795,-240.41858137950436,-83.58808257173702,-157.9113911925216,67.35569318304341,13.38026636734184,254.89329056160994,172.56801342854985
593,-13.188891123036452,-239.89009786778814,-84.08850513928836,-164.28289370743676,69.34850956738033,14.796254649954983,254.56564026370594,179.30278158864692
594,-13.229182401682596,-239.36207139329787,-84.60560952799077,-171.01597558521934,71.30100848386407,16.241395076040472,254.24632016924969,186.36066438467245
595,-13.284717714836802,-238.83946621050197,-85.1393231006831,-178.08914972567317,73.20750469390026,17.708721678761133,253.94006026224463,193.7193334121545
596,-13.355461563801185,-238.3271311401789,-85.68928195938625,-185.47576927459087,75.06391216084566,19.190983173726824,253.65135072817426,201.3521499467353
597,-13.440964038489211,-237.82965350224032,-86.2547984501059,-193.14451034972686,76.8680218720972,20.680556882328986,253.38428834579855,209.22871174098162
598,-13.540333676683625,-237.35121870629112,-86.83482920253999,-201.0599906810688,78.61977122661187,22.169372054354536,253.14242933455836,217.31552768758866
599,-13.652223042197859,-236.89548075923705,-87.42794660577731,-209.1835012216483,80.32149072829068,23.648853886666625,252.9286547986306,225.57679452627414
600,-13.774828786327477,-236.46544886901827,-88.03231677944096,-217.4738238204195,81.97811430973478,25.10989916570794,252.74505484123222,233.9752462014039
601,-13.905907193964289,-236.06339488460856,-88.64568706159793,-225.8881055644299,83.59734086781232,26.54289336947403,252.5928369462278,242.47304445505338
602,-14.042805490862666,-235.6907855416521,-89.26538584925798,-234.38275932689848,85.18973623347277,27.937777271968848,252.47226338595786,251.03267860067825
603,-14.182508562010574,-235.3482424384373,-89.88833725578979,-242.91436034847894,86.76876661746043,29.284168665521907,252.3826212587326,259.61784305342013
604,-14.321700241677226,-235.03553132566626,-90.51109242618438,-251.44051035110104,88.35075645302948,30.571541855048835,252.32222724519494,268.1942630876412
605,-14.456837943647468,-234.75158068811777,-91.12987850200074,-259.92064375715324,89.95476544764976,31.78946421921468,252.28846733751772,276.73044247241603
606,-14.584238972353841,-234.494528014827,-91.74066525971807,-268.31675496335134,91.60238156998753,32.92788554700503,252.27786993864905,285.1983110359686
607,-14.70017628810391,-234.26179101265578,-92.33924846103885,-276.5940309779766,93.31742870046654,33.97747224378388,252.28620926926286,293.5737555743723
608,-14.800980860355635,-234.0501604994598,-92.92134803847168,-284.7213794480842,95.12558981137114,34.929975086777795,252.30863516265856,301.8370233020537
609,-14.883147245547567,-233.85591166269046,-93.48271845032201,-292.67184730715434,97.05394876971116,35.7786162561227,252.33982495814342,309.97299243304104
610,-14.943438838125351,-233.67493050208313,-94.01926784672888,-300.4229291461483,99.13045606588054,36.51847912166141,252.3741530534994,317.97130870508994
611,-14.97898932084639,-233.5028523834567,-94.5271820265809,-307.9567665833043,101.38332592858008,37.1468828666251,252.405873527805,325.82638937274106
612,-14.987396968048674,-233.33520965676934,-95.00304852108883,-315.26024060153316,103.840374509012,37.663723473455676,252.42931102690062,333.53729765002845
613,-14.96680848718412,-233.16758526878107,-95.44397553889782,-322.3249586023833,106.52831128016528,38.07176283297937,252.4390548473032,341.10749136548213
614,-14.915989101239248,-232.99576924172388,-95.84770001507101,-329.1471373027778,109.47199854132631,38.37684877663837,252.4301509027294,348.5444501968986
615,-14.83437577671855,-232.81591475121172,-96.21267881227607,-335.727381834744,112.69369674794649,38.588050738582304,252.39828605712688,355.8591864673476
616,-14.722111034084385,-232.62469024248665,-96.53815750682026,-342.0703606253983,116.21231590529324,38.7176985490041,252.33995920791506,363.0656450944231
617,-14.580055690367624,-232.41942351502462,-96.82421230609732,-348.18437504934974,120.04269498866523,38.78131543630445,252.25263351452418,370.17999891801543
618,-14.409780119047781,-232.1982330639198,-97.07176234673035,-354.0808228484514,124.1949318774121,38.79744047852117,252.13486430989502,377.2198464925054
619,-14.213534991717372,-231.9601414586267,-97.28255156791633,-359.773555392989,128.67378541097867,38.78734028820865,251.98639760284416,384.20332088008826
620,-13.994203778520463,-231.70516543307355,-97.45910124473396,-365.27813146702437,133.47816890009074,38.774614399786856,251.8082347899065,391.1481204159733
621,-13.755240380414978,-231.43437772562393,-97.60463600267461,-370.61097468989345,138.6007509278076,38.784703304199304,251.60266026151885,398.0704761093529
622,-13.500596019447233,-231.1499364219404,-97.72298771540721,-375.78844793443886,144.02767489049063,38.84431192225913,251.37322989156416,404.9840753345818
623,-13.23463976225567,-230.8550784478609,-97.81848302185107,-380.825865731409,149.7384039653906,38.98076417961384,251.1247197429988,411.89896744198796
624,-12.962076680314532,-230.55407484471064,-97.8958210705028,-385.7364737062011,155.70569367104363,39.221306082695214,250.86303553832138,418.82048314629634
625,-12.687866728489004,-230.25214656660876,-97.95994829932334,-390.53043124816094,161.8956905289409,39.59237535792739,250.5950844870066,425.74820499106437
626,-12.417146226407336,-229.95534082602788,-98.01593654982283,-395.21383853788257,168.26815299450237,40.11885558428015,250.3286119868105,432.67502979978985
627,-12.155152679968637,-229.6703694674684,-98.06886975877853,-399.78785092773796,174.77678991564477,40.82333225816813,250.0720065886663,439.5863651605275
628,-11.907152792926087,-229.40441242743208,-98.12374307573387,-404.24792249882614,181.36971201117657,41.72536781327146,249.83407748486755,446.4595006522284
629,-11.678372950343057,-229.16489105373398,-98.18537663437742,-408.58321715858193,187.9899926789883,42.84081249831736,249.62380970589223,453.263191263186
630,-11.473931167191793,-228.9592178990461,-98.25834447895696,-412.77622083436006,194.57633522856102,44.18116812521646,249.4501032270387,459.95748592499854
631,-11.298769419860234,-228.79453138821532,-98.3469175453114,-416.80258265756606,201.06384387671616,45.75302180446217,249.32150320620576,466.4938285426974
632,-11.15758538704428,-228.67742516999795,-98.4550183885931,-420.6312063742746,207.3848952034482,47.55756665236374,249.2459294076361,472.8154520600077
633,-11.054762928419642,-228.6136827500598,-98.58618468986457,-424.2246050916776,213.47010499929638,49.59022590956462,249.23041334314914,478.8580774234644
634,-10.994301116977013,-228.6080280418293,-98.74353844261249,-427.5395226354572,219.24938237569665,51.840395795896754,249.28085166723963,484.5509184985078
635,-10.979742263285365,-228.66390170567277,-98.92975799285381,-430.5278136241906,224.65305861682802,54.2913205738291,249.40178379488077,489.8179813473101
636,-11.014100039470133,-228.7832716190751,-99.1470506564785,-433.1375628467315,229.6130727626828,56.920110585155626,249.59620056139744,494.5796327746926
637,-11.09978941001452,-228.96648384693367,-99.39712436940435,-435.31441392692,234.0641899238966,59.697910538394595,249.86538925955944,498.7544000880843
638,-11.238560501510833,-229.21215863494203,-99.68115766996395,-437.0030686742727,237.9452227212326,62.59022132387011,250.20881906192298,502.26095299585256
639,-11.431438771219527,-229.51713466547108,-99.99976826094728,-438.1489125096308,241.20022195667238,65.55737438332476,250.62407006119824,505.02021043506466
640,-11.678673908348786,-229.87646400921116,-100.35298147321808,-438.69971787329507,243.77960037689024,68.55515332451664,251.1068088716435,506.95751018475534
641,-11.979699834164332,-230.28345944157698,-100.74020104745586,-438.60737612108875,245.64115350764735,71.53555321974186,251.65081348690111,508.0047771705688
642,-12.333107915570018,-230.72979476502852,-101.16018551284694,-437.82960850349616,246.75094395694484,74.44766406959268,252.24804949677954,508.1026268964435
643,-12.736635069230255,-231.20565746387197,-101.61103389232724,-436.3316078530647,247.0840199753946,77.23866134517318,252.8887987318481,507.202342837799
644,-13.187167902794155,-231.69995150144504,-102.09018450812574,-434.087564180114,246.6249449650969,79.85488327002659,253.5618400153554,505.26767033835455
645,-13.680763542091784,-232.20054643654478,-102.59443035842018,-431.08202932448756,245.3681215659694,82.24297147913806,254.2546800662429,502.27637418487194
646,-14.21268737512177,-232.69456739147554,-103.11995389587518,-427.3110781250861,243.31790147227508,84.35104894213796,254.95383081645986,498.2215123721559
647,-14.7774675454572,-233.16871886558172,-103.66238304736035,-422.7832262876408,240.48847980405145,86.12990674701472,255.6451275784476,493.1123844541062
648,-15.368965583389263,-233.60963402114916,-104.21686898731213,-417.52006832726624,236.9035802533023,87.53416976339184,256.3140806882866,486.97511919090556
649,-15.980462089156974,-234.00423982979768,-104.77818462353042,-411.5566028271386,232.59594401891965,88.52341057479045,256.9462514619449,479.8528729863307
650,-16.60475595312256,-234.3401272521297,-105.34084120579425,-404.9412170999058,227.60664156898648,89.06318153889474,257.5276415370039,471.8056180772349
651,-17.23427528745582,-234.6059144227679,-105.89921915826365,-397.7353094768534,221.98423140081252,89.12593647181679,258.04508301957605,462.90950782303605
652,-17.861198097396166,-234.79158981310252,-106.44770821037642,-390.0125350828261,215.78379396213654,88.69181625029657,258.48661550699387,453.2558158206292
653,-18.477580724224925,-234.8888218522356,-106.98085107294618,-381.8576701720717,209.06587137002796,87.74927646799226,258.84183525832674,442.94945583938375
654,-19.075492159593747,-234.89122177913552,-107.49348435250407,-373.3651009965954,201.89534420156596,86.29553991727765,259.10220181499045,432.10710064653773
655,-19.647152330416066,-234.79454771071858,-107.98087037384201,-364.63695595752375,194.3402754830265,84.33686175208919,259.26128844975096,420.85492983124533
656,-20.185072287544802,-234.59684001066987,-108.43881416841955,-355.7809146346351,186.47074961898682,81.88860035398561,259.31496494066573,409.3260500803281
657,-20.68219389506576,-234.29848089416663,-108.8637608402414,-346.9077439908883,178.35773119248827,78.97509186055332,259.2615041006175,397.65764612119204
658,-21.132026174538776,-233.90217461106337,-109.25286957774112,-338.1286296617915,170.0719660093261,75.62933085124547,259.10160696491425,385.9879361397759
659,-21.528774993293556,-233.41284824045786,-109.60406171704989,-329.55238699887906,161.68294477883,71.89246380883586,258.83834529777755,374.453020460456
660,-21.867462378192656,-232.837476757384,-109.91604156912338,-321.2826500873558,153.25794844558428,67.81310572766562,258.47702385433377,363.18372455543494
661,-22.14403144984233,-232.184839343309,-110.18829015678317,-313.4151448925412,144.86119323240814,63.44649362850808,258.0249683849023,352.3025448126037
662,-22.355432861417558,-231.46521685243252,-110.42103334846314,-306.0351533000391,136.5530924999898,58.853493788587436,257.4912485576575,341.9208062343075
663,-22.49968875197999,-230.69004287619694,-110.61518691802137,-299.215267737567,128.3896508722111,54.09948234569628,256.8863476887374,332.13613475418003
664,-22.575930638849155,-229.87152272984116,-110.77228180856805,-293.01352242153786,120.42200296331316,49.25312180971398,256.22179319884134,323.03033382372115
665,-22.5844084179309,-229.02223563672595,-110.89437349916682,-287.4719691513338,112.69610403756171,44.38505903545722,255.50976288722964,314.66773698351966
666,-22.52646875672996,-228.15473539800902,-110.98393997679082,-282.61574521807825,105.25257314057028,39.56657325230775,254.76268247245838,307.09408726764474
667,-22.40450263280663,-227.2811641602574,-111.04377337368365,-278.4526602075699,98.12668128977104,34.868205480797116,253.99282960979806,300.33597228403426
668,-22.221863431905245,-226.4128927937482,-111.07687076479885,-274.9733085391309,91.34846913755356,30.35840271032624,253.21195894473183,294.4008221420112
669,-21.982758664508868,-225.56019999298982,-111.08632985451676,-272.15169640346716,84.94297108761751,26.102211190710843,252.43096175543351,289.27745724521196
670,-21.69211988374255,-224.7320005242412,-111.07525523135605,-269.94635596134503,78.93051697893468,22.160052781659772,251.6595723399236,284.93715522748863
671,-21.355456741529622,-223.9356310750869,-111.0466804655559,-268.3019065293188,73.32707887363249,18.58661636551748,250.90613148270268,281.3351915603754
672,-20.978702137843158,-223.17669994953735,-111.00351051247118,-267.151011947318,68.14462980926336,15.429892959118705,250.17741508804144,278.41279684734036
673,-20.56805587646145,-222.45900443745282,-110.9484875808755,-266.41667504611206,63.39148393169964,12.730378587448312,249.47853336985665,276.0994654212219
674,-20.129834081023898,-221.7845170754174,-110.8841817607244,-266.0148035817379,59.072593077605305,10.520463428789016,248.81290281222215,274.3155441045108
675,-19.67033098526902,-221.15343925945123,-110.81300536287358,-265.8569765878709,55.1897829911717,8.824019444125593,248.18228955775498,272.9750261444263
676,-19.19569876067257,-220.56431795488905,-110.73724742274165,-265.8533352654868,51.741921898188494,7.656191970706877,247.58691926728181,271.9884725410272
677,-18.71184989021608,-220.01421884163943,-110.659122615878,-265.9155178568657,48.725023871874065,7.023393924979769,247.02564527117295,271.2659804389268
678,-18.224385299144874,-219.49894729634855,-110.58082726940326,-265.95955329229474,46.13229806935134,6.923494604472474,246.49616430298522,270.7201154450341
679,-17.738550027748605,-219.0133071280408,-110.5045943173342,-265.90862418382414,43.95416139297299,7.3461888720996,245.99526729569328,270.2687218224612
680,-17.259216669956523,-218.5513858911773,-110.4327388901266,-265.69560718270344,42.178235588168995,8.273527123487359,245.51911155797416,269.83752255222066
681,-16.79089515409942,-218.10685490319622,-110.36768677087063,-265.26529951870043,40.78934988379916,9.680582330438849,245.06350015339882,269.3624219559343
682,-16.337765813074427,-217.67327179885805,-110.3119793220331,-264.5762461514077,39.769567415627705,11.536227931637097,244.62415455501417,268.79142854541175
683,-15.903731143171399,-217.2443735693513,-110.26825070873225,-263.6020929449911,39.098248937071986,13.803999346477111,244.19696766473487,268.0861258055379
684,-15.49248021110181,-216.8143486337662,-110.23917599322263,-262.3324071995403,38.7521620881785,16.44301197293912,243.77822598645707,267.22263350401005
685,-15.107558462810617,-216.37807764129926,-110.22739140924767,-260.77292665411034,38.70563995845927,19.40890907713615,243.36479193630856,266.1920208960878
686,-14.752434985069094,-215.93133435900845,-110.23539049327002,-258.94522036224276,38.930789527967974,22.654813504165357,242.9542397750122,265.0001545379135
687,-14.430559348600314,-215.47094004536046,-110.26540171540731,-256.8857682112743,39.39774883391144,26.132257487951144,242.5449413557244,263.6669859006225
688,-14.145401118495792,-214.99486700747985,-110.31925484159085,-254.64448898529034,40.0749908401666,29.79206522509223,242.13610069827627,262.22530620966137
689,-13.900466804222209,-214.50228935350503,-110.39824443118532,-252.2827687222296,40.929671202554275,33.58516377820934,241.7277390933269,260.7190168362553
690,-13.699291131996167,-213.9935809502197,-110.50299963989713,-249.87106106417346,41.92801587746984,37.46329984390872,241.32063469667145,259.2009825244996
691,-13.545401761589158,-213.4702621229686,-110.63336988638407,-247.486149000269,43.03574279269977,41.37964334915178,240.91622224659002,257.7305514819558
692,-13.442258761961364,-212.93489788659198,-110.78833581277652,-245.2081724428735,44.218509979221565,45.28926375742851,240.51645972582776,256.37084060241233
693,-13.39317222558564,-212.39095177287487,-110.96595403103616,-243.1175376741828,45.44238107069928,49.1494710940127,240.12366962770443,255.18589516010732
694,-13.401203204207064,-211.84260069810722,-111.16334224946505,-241.29183168443845,46.67429801679462,52.92002067399591,239.74036296844682,254.23783914155155
695,-13.4690543931143,-211.29451768557294,-111.37670871494042,-239.8028656505697,47.88254997416781,56.56318797971284,239.36905428831753,253.58413386616868
696,-13.59895739424681,-210.75163050858475,-111.60142688537657,-238.71396674087725,49.037226309393546,60.043727653086066,239.01207565828543,253.27505813655276
697,-13.792562984813292,-210.21886534410697,-111.83215319826566,-238.07762642262088,50.110640427181636,63.3287376606075,238.67139720956067,253.35151315785666
698,-14.050839958551283,-209.70088522350596,-112.06298292092914,-237.93359751020137,51.07771003965786,66.3874559763339,238.34846094547325,253.84324087620706
699,-14.37398714281076,-209.20183341326248,-112.2876365007441,-238.30751258332603,51.91627893987176,69.19102232730553,238.04403364527087,254.76752644438872
700,-14.761362273870498,-208.72509191002115,-112.49966677083746,-239.21007426976286,52.60736559000952,71.71224126621136,237.75808367728982,256.12843524362967
701,-15.211430549815784,-208.27306503452155,-112.69267604937488,-240.63684406257286,53.1353248954592,73.92538453554673,237.48968566166576,257.9166128733193
702,-15.721734858198703,-207.8469976494344,-112.86053174442091,-242.5686314313164,53.487911259006985,75.80606988528899,237.2369562269656,260.10965311925816
703,-16.288888833641405,-207.44683678976222,-112.99756948493027,-244.9724596311744,53.65623323915361,77.33124997836265,236.99702355407297,262.67301459517824
704,-16.908592960201094,-207.07114447468481,-113.0987739199003,-247.80305970441745,53.63459293598742,78.47933877061593,236.7660329380048,265.5614423714426
705,-17.57567294353639,-206.71706811496944,-113.1599291647278,-251.00482087021996,53.420207006274154,79.2304938825841,236.53919019642854,268.7208277124454
706,-18.28413875184953,-206.38037312504957,-113.17773347541127,-254.5141052085624,53.01281152286347,79.56706216523477,236.3108443580915,272.0904185852492
707,-19.02726225457029,-206.0555400151786,-113.14987594983491,-258.2618188842851,52.414159998815414,79.47418234807151,236.07461054996003,275.60527759181093
708,-19.797671269040197,-205.7359254666032,-113.07507646554504,-262.17612278170924,51.62743247279063,78.94052427869595,235.8235332329118,279.1988740615573
709,-20.58745787418008,-205.41398394172884,-112.95309310884558,-266.18516339281194,50.65658282753137,77.95913021359807,235.5502888395275,282.8056942549987
710,-21.38829885961729,-205.08154350326987,-112.78470355505345,-270.21970988231436,49.50566051462616,76.52831143780477,235.24742540169265,286.3637577756223
711,-22.19158605818257,-204.73012680447846,-112.5716679379823,-274.2155937936797,48.178150449321926,74.65254442867511,234.90763485359756,289.8169378203103
712,-22.98856406517036,-204.3513056915931,-112.3166805844651,-278.1158615403014,46.676379694157355,72.34330553531431,234.52405133460098,293.1169955833776
713,-23.770472467728098,-203.9370756440746,-112.02331663234757,-281.8725646930422,45.00104040839616,69.61978189533862,234.09056613025516,296.2252530799448
714,-24.528689157231362,-203.48023456047815,-111.6959772431425,-285.4481281811648,43.15087466604803,66.50939893360194,233.60214717174492,299.1138430287955
715,-25.25487062274599,-202.97474937494374,-111.33983431558059,-288.81625188195034,41.12255821888147,63.0481110417903,233.0551486616888,301.7664893981793
716,-25.941084505152162,-202.4160938598403,-110.96077287694341,-291.9623171783211,38.91080793536392,59.280411577626296,232.447594871142,304.17878838500985
717,-26.579929392415238,-201.80154186633519,-110.5653272384834,-294.883287364178,36.50872279323099,55.259030651736644,231.77942186587316,306.35797743272036
718,-27.16463707907992,-201.130402074452,-110.16060601674484,-297.5871093512488,33.90835241024276,51.04430367801027,231.05266202517532,308.3221993785354
719,-27.689153353412326,-200.40418274528452,-109.75420155063384,-300.0916436510314,31.101471496811122,46.70320971759973,230.2715585870989,310.09928948264775
720,-28.148194713774494,-199.62667773163432,-109.35408109009417,-302.42316957478056,28.08052435260461,42.30809560344349,229.44260086086655,311.7251342711253
721,-28.537280135459074,-198.80396809441518,-108.96845999889086,-304.6145325598725,24.839691425285917,37.93511894216408,228.57447497919986,313.24167219030784
722,-28.852739009777782,-197.94433715243142,-108.60566040251405,-306.70301986835534,21.376020707971165,33.66245942882729,227.67792983085897,314.69462622129566
723,-29.09169844116189,-197.05810055739016,-108.27396143121281,-308.7280682160735,17.690560990545833,29.568362396973153,226.76556262194532,316.1310763117033
724,-29.252054854135476,-196.15735679661333,-107.98144881639661,-310.7289197213444,13.789432199584542,25.72909004862296,225.85153280879106,317.59699226136365
725,-29.332435997179832,-195.2556672033288,-107.73587188159144,-312.7423480991096,9.684770538362509,22.216863415544072,224.9512166285721,319.13485282167255
726,-29.33215977817921,-194.36767791751112,-107.5445151375345,-314.8005734723039,5.395492673652707,19.09788114968796,224.08081704838096,320.7814725812899
727,-29.2511959636923,-193.50869891126857,-107.41409000548917,-316.92947163475225,0.9478329596500222,16.430499434203,223.25694545480823,322.5661449444941
728,-29.090135802676322,-192.69425676894767,-107.35064981250054,-319.14716384960826,-3.62438067339795,14.263650687668214,222.49619155630185,324.5091890065373
729,-28.85017333485597,-191.93963833746733,-107.35952847166203,-321.4630488195116,-8.279734303598701,12.635567588452812,221.81469690903282,326.62096297222183
730,-28.53310074941345,-191.2594419008539,-107.44530081871034,-323.8773118334252,-12.969529223275051,11.57286372423736,221.22774576312727,328.9013795496873
731,-28.141318899950953,-190.66715143108814,-107.61176104096552,-326.38091955582223,-17.638375481817587,11.090003612288,220.74938510103374,331.3399318161752
732,-27.67786314565759,-190.17474782331354,-107.8619152722443,-328.95608449220634,-22.225065672400333,11.189174171858127,220.3920840507362,333.91621335621306
733,-27.146444073420312,-189.79236892088093,-108.19798506080086,-331.5771624086832,-26.66370680058852,11.86054861110285,220.1664413003516,336.60089540076575
734,-26.55150207509417,-189.52802776482883,-108.62141956015138,-334.2119297401472,-30.885078886431696,13.082913807344417,220.08094761236822,339.3571068809137
735,-25.89827383437623,-189.38739612503448,-109.13291544665186,-336.82317636568206,-34.81818066648708,14.824615050431088,220.141808967852,342.14215071454396
736,-25.192867376193988,-189.37365817908156,-109.73244443674187,-339.3705415939034,-38.391915344812524,17.044758672157275,220.35283426301584,344.9094808307214
737,-24.442340607496412,-189.487437231329,-110.4192887021736,-341.81251700936855,-41.536862959709296,19.69460459731329,220.71538980018877,347.6108587895324
738,-23.654776527756557,-189.72679653422333,-111.19208433648075,-344.1085381121187,-44.18708110849415,22.71907787094056,221.22842097061115,350.19860578032836
739,-22.839346817537667,-190.08731350702735,-112.04887234814423,-346.22108670557,-46.281873334233275,26.058330768861147,221.88853950216597,352.62786490416346
740,-22.006354562754055,-190.5622248778531,-112.98715578927236,-348.1177272891591,-47.76746533221843,29.649294512637592,222.69017258129708,354.8587898559527
741,-21.167246516265834,-191.14263843253872,-114.00396103208202,-349.7730030746228,-48.59853386564401,33.4271706400181,223.62576823239098,356.8585794178799
742,-20.334585503630972,-191.81780509063398,-115.09590110593224,-351.17012071651345,-48.739541725068605,37.326825092839485,224.68604962111007,358.6032825494092
743,-19.521974382770885,-192.57544298661966,-116.25923926917419,-352.30235778131976,-48.165843162749844,41.284061333949694,225.86030941425255,360.0793063045762
744,-18.743924506648586,-193.40210330814307,-117.48995123916188,-353.17413384121573,-46.864536342342966,45.23676078872963,227.1367339699505,361.28456825859206
745,-18.015664029036905,-194.28356613050826,-118.78378439306077,-353.8016950558271,-44.83505085367761,49.125888527580585,228.50274603674126,362.22924627254577
746,-17.352884620008332,-195.2052535735631,-120.1363117357532,-354.21337295788123,-42.08946816202092,52.89636865914608,229.94535393921942,362.9360907074046
747,-16.771429007427,-196.15264721720942,-121.54297781207995,-354.44939051086203,-38.65258058071877,56.49783714534035,231.45149498451437,363.4402771416463
748,-16.286925852212462,-197.1116966603449,-122.99913343072208,-354.56120220970735,-34.56170004917555,59.88528002786157,233.0083610432759,363.78879117749483
749,-15.914382417463854,-198.06920634811524,-124.50005635601453,-354.61037013080556,-29.866231877032302,63.019563252363966,234.6036950034147,364.0393512845973
750,-15.667749028266751,-199.01318840293536,-126.04095613112437,-354.66699442901466,-24.627030849532375,65.86785750974246,236.2260481658404,364.2588910338415
751,-15.559472178511859,-199.93317020718374,-127.61696283914198,-354.8077345388555,-18.915557881237337,68.4039588348354,237.86499061553695,364.5216384129106
752,-15.600055011798336,-200.82044687446665,-129.22310152909822,-355.11347547438703,-12.812855060663283,70.60850388739159,239.5112689317652,364.90684657913357
753,-15.797644546456194,-201.66827052968492,-130.85425566146984,-355.66671058308765,-6.408355786852372,72.46907821985363,241.15690800376476,365.496245985243
754,-16.1576644124618,-202.471970503291,-132.50512374983725,-356.548725605226,0.20145482970806633,73.98021618548513,242.79525593795444,366.37130009302393
755,-16.682510197275413,-203.22900101979286,-134.17017325224742,-357.83667673361157,6.914515355530578,75.14329183774709,244.42097293138787,367.6103536824131
756,-17.371321974017036,-203.9389155391042,-135.84359505123473,-359.60065662664823,13.624785186911392,75.96630069377872,246.02996659250962,369.28576313033403
757,-18.219845374499823,-204.6032694351135,-137.51926117156066,-361.9008377832535,20.223947137813912,76.46353257884233,247.61927771766656,371.4610927977659
758,-19.22038881597669,-205.22545505663163,-139.19068819056915,-364.78477449170634,26.603194363794216,76.65513639492873,249.18692214157005,374.18845304256934
759,-20.36188037746559,-205.8104753004248,-140.8510091939378,-368.2849355681871,32.65507407432132,76.56657908410988,250.7316959368721,377.5060462552359
760,-21.630023591892723,-206.36466349975666,-142.492957881,-372.4165329579825,38.27535398975647,76.22800354980804,252.25295270940532,381.4359803442112
761,-23.007547328643657,-206.8953586273322,-144.10886912765363,-377.175707448945,43.36487279487902,75.67349377289301,253.75036275491465,385.98240575132934
762,-24.474541197828643,-207.41054569123753,-145.69070057549203,-382.538132034399,47.83133421600492,74.94025939477238,255.22366433715098,391.1300321842821
763,-26.008864700659778,-207.9184721346359,-147.230079328426,-388.4580940753319,51.591006033025984,74.06775601899726,256.6724174679756,396.8430830532148
764,-27.586615859860206,-208.4272522990174,-148.71837646554238,-394.86811625137165,54.5702894924209,73.09676087060791,258.0957704800889,403.0647459871556
765,-29.18264336749918,-208.94447342194374,-150.14680998575767,-401.67916969253105,56.70712979963061,72.06842601075864,259.4922493598969,409.71717308357336
766,-30.771085328640822,-209.47681765549174,-151.50657445522356,-408.7815181453084,57.95224335025734,71.0233330613242,260.85957906099264,416.7020721385446
767,-32.325917427109005,-210.02971463090321,-152.78899355483884,-416.04620988274576,58.270141387171826,70.00057442867659,262.1945446817329,423.9019102157758
768,-33.82149388164101,-210.60703798006992,-153.98569022746815,-423.32720740794565,57.63993270473575,69.03688624096446,263.49289852602993,431.1817264180249
769,-35.23306593573688,-211.21085724989618,-155.08876823689752,-430.46411784489356,56.05589011868532,68.16585733291618,264.749316965173,438.39152542001403
