time,ax,ay,az,gx,gy,gz,accmagnitude,gccmagnitude
0,31.85262373680644,-257.62729527219886,-50.16736280594604,-141.10612652959512,-57.22389046128821,-3.640144058996732,264.40098047098905,152.41641285278345
1,31.905857408325666,-257.80843923889796,-50.71134934778395,-141.22191650260908,-59.19927329913048,-3.2693403333955033,264.69522736609196,153.38538591639792
2,31.96326716916592,-257.9990536145325,-51.231161738805675,-141.4356925182653,-61.1790094172633,-2.891114543333258,264.99389124237,154.4413119065977
3,32.02687836098103,-258.19694482567877,-51.72551086048292,-141.75227239970118,-63.15322274584387,-2.5067589351543917,265.29486548922426,155.5840805631813
4,32.09857801082867,-258.40008811871485,-52.19350107436348,-142.17509257245635,-65.11205665687429,-2.1172735608133415,265.59627334558473,156.81239139339857
5,32.18004632757498,-258.6066930881884,-52.634636268250375,-142.70599988679322,-67.04572670365091,-1.7233348072437606,265.8965233284697,158.12359570888538
6,32.27269572612625,-258.8152554882611,-53.04881640103598,-143.34501796561528,-68.94456971501275,-1.3252839878179727,266.19435035328695,159.51351455765158
7,32.37761906583165,-259.0245931310689,-53.43632467289598,-144.09009234460322,-70.79909028839634,-0.9231377191121626,266.48884067808933,160.97623677075558
8,32.495548376227156,-259.2338644348365,-53.7978059719813,-144.9368239430039,-72.60000540151374,-0.5166204684719339,266.779439595911,162.50390589608955
9,32.62682504461085,-259.4425689501879,-54.134237598166344,-145.87820522802585,-74.33828728283284,-0.1052183389331679,267.0659415717152,164.08650881103506
10,32.771382142740435,-259.65053001450264,-54.446893512124575,-146.90437719608755,-76.0052040253399,0.3117479829453071,267.3484633249443,165.71168181003574
11,32.928739265319074,-259.85786058302773,-54.73730341677751,-148.00242747131756,-77.59235696314266,0.7350341021435874,267.6274011989282,167.36455161102737
12,33.09800992141117,-260.06491419396735,-55.00720782824634,-149.15625008254722,-79.09171377807955,1.165370318677464,267.9033749630936,169.02762884026717
13,33.2779211198317,-260.2722238208637,-55.25851012077908,-150.3464857840813,-80.49563674011421,1.6033518383751513,268.17716087727104,170.680770169991
14,33.46684434988362,-260.48043193461507,-55.493226526108536,-151.55055842873296,-81.7969063258164,2.0493255033621427,268.4496173393702,172.30122264954483
15,33.66283676027609,-260.690215379257,-55.71343519793393,-152.7428184512421,-82.98874152898654,2.503278025566876,268.7216066816285,173.86376032117911
16,33.86369102734013,-260.90220866608325,-55.921225561001066,-153.89479963057974,-84.06481930039891,2.9647307768155318,268.9939166575988,175.34091943722873
17,34.06699218372232,-261.1169290641268,-56.118649251186575,-154.97559047929965,-85.01929656681466,3.432646023542237,269.26718492929234,176.70333485459477
18,34.27017951786555,-261.33470651119563,-56.30767414352304,-155.95231710465265,-85.84683898586574,3.905349098755825,269.5418295424418,177.92017658724677
19,34.47061147367518,-261.5556210204547,-56.49014319698648,-156.79073027135723,-86.54266076189697,4.38047043619057,269.81798807040394,178.95968199222762
20,34.66563126234635,-261.7794500004867,-56.667739844615156,-157.45588571083115,-87.10257930838902,4.854910703367997,270.09546783479084,179.7897756008903
21,34.85263078188307,-262.00562771881675,-56.84196129513279,-157.91290349240722,-87.52308728044973,5.324831457940163,270.3737093388763,180.3787652020116
22,35.02911057752062,-262.2332189203706,-57.01410053663854,-158.12778941466067,-87.80144265051506,5.785672791548037,270.6517647332268,180.6960994309447
23,35.192733972058996,-262.46090826209877,-57.185237214423914,-158.0682986724824,-87.93577526579642,6.232198334534555,270.928292712547,180.71316872783274
24,35.34137404801461,-262.68700669349454,-57.3562369175666,-157.70481928028332,-87.92520590381436,6.658566835550991,271.20157066426145,180.40412799157318
25,35.473152755789094,-262.90947523601056,-57.52775775397957,-157.01124980283612,-87.76997141286432,7.0584283941432755,271.4695241728651,179.7467155889726
26,35.58647191781218,-263.12596589360885,-57.70026252642977,-155.9658430122018,-87.47154731585543,7.4250424258653585,271.7297732307738,178.7230398211495
27,35.680036201046214,-263.33387875174304,-57.87403451829422,-154.55198455019075,-87.03275757423292,7.751413669327509,271.9796938273242,177.32030099771112
28,35.75286828758132,-263.53043370253437,-58.049194984204156,-152.758874150426,-86.45786036539879,8.030442013576115,272.2164930265103,175.53141561424718
29,35.80431660783,-263.71275458734755,-58.225720858241004,-150.5820771590902,-85.75259895138163,8.255081586519191,272.4372951262605,173.3555094868002
30,35.834056128721684,-263.8779627884307,-58.40346169341233,-148.0239164963049,-84.92420809725118,8.418504376582966,272.63923588326264,170.79824955111252
31,35.84208274550468,-264.02327647915297,-58.58215521985496,-145.09367994422072,-83.98136894303484,8.51426367561155,272.81956108105675,167.8719894447165
32,35.828701850356275,-264.1461110709805,-58.76144115364617,-141.80762450290595,-82.93410849019749,8.536452834302569,272.97572512545435,164.59571162843793
33,35.79451176377972,-264.2441761096467,-58.94087310287427,-138.1887680860826,-81.79364360044059,8.479855170799578,273.1054851347876,160.9947581233967
34,35.74038291054292,-264.3155640691985,-59.11992864205118,-134.26646848940706,-80.57217326175325,8.340081298632015,273.2069862543178,157.10035228159862
35,35.66743376745187,-264.3588270986751,-59.29801783469954,-130.07579969858483,-79.28262648333147,8.113690576042076,273.2788345720067,152.94892461227826
36,35.57700463844353,-264.37303863560504,-59.474490659161226,-125.65674544243757,-77.93837619044487,7.7982937890374595,273.32015488292143,148.58126570366403
37,35.47063028111054,-264.357837750283,-59.648643947573945,-121.05323863432959,-76.55293164736712,7.392634565199338,273.3306314947966,144.04153787992098
38,35.350012363522275,-264.31345497286674,-59.81972853855943,-116.31208230003327,-75.13962312416132,6.896647403870389,273.31053113819564,139.37618375848652
39,35.216992597138926,-264.2407190596688,-59.98695718980452,-111.48179230850486,-73.71129274336268,6.311490659586235,273.2607076769194,134.6327739315828
40,35.07352705801666,-264.14104465836266,-60.14951327733152,-106.6114045429343,-72.28000475867343,5.639553394990993,273.1825886521744,129.8588374837277
41,34.921661700925775,-264.0164012554421,-60.306559663181496,-101.74928923398537,-70.85678703652509,4.884435748784365,273.07814390787115,125.10071817369958
42,34.76350858463574,-263.8692642705159,-60.457246801399926,-96.94201342541854,-69.4514134097742,4.050903303468031,272.94983688694896,120.40249629625085
43,34.60122204566121,-263.70254970988395,-60.600719391450056,-92.233289377725,-68.0722340952733,3.144816816900588,272.80055973717543,115.8050119963245
44,34.43697400524801,-263.51953432795284,-60.7361215198176,-87.66304242712076,-66.72605876237427,2.1730395316192697,272.6335540138115,111.34502053110035
45,34.27292770721269,-263.3237637359479,-60.862600949068685,-83.26662657354282,-65.41809429045954,1.1433250332496383,272.4523194111007,107.05450392721875
46,34.11120946773179,-263.1189513646228,-60.97931375055375,-79.07420998796344,-64.1519368601378,0.06418923786942005,272.26051355801144,102.96015684554861
47,33.95387850329474,-262.90887163555186,-61.08543068195644,-75.11034580902222,-62.929615831419504,-1.0552294957671409,272.06184645051337,99.08305739301998
48,33.80289547130833,-262.6972510845357,-61.18014660614157,-71.3937361825347,-61.75168490384879,-2.2053179367993736,271.8599735138309,95.43852628069097
49,33.660090761933354,-262.4876614359091,-61.26269395142664,-67.93718972450534,-60.617354367401404,-3.376139068447386,271.6583915157523,92.03617036388663
50,33.527133684850384,-262.28341867644235,-61.33236078067629,-64.74776481239216,-59.524656884141265,-4.557582740721361,271.4603415122321,88.88009953245738
51,33.40550361545685,-262.0874920137609,-61.388513450875706,-61.82708375586897,-58.47063821882222,-5.739512313004425,271.2687227023442,85.96929948810653
52,33.2964641169853,-261.9024262686317,-61.430623161873875,-59.17179640611728,-57.451563675038955,-6.911904209046281,271.08602058124455,83.2981374731871
53,33.2010411176082,-261.7302807630104,-61.4582950925186,-56.77416655547553,-56.46313071739681,-8.064977903005012,270.9142521763516,80.85697380846236
54,33.12000630427748,-261.5725871112803,-61.471298463803286,-54.62275094123454,-55.500678420400455,-9.189314507400695,270.75493044308365,78.63284944981224
55,33.05386688767358,-261.4303274947224,-61.469595749603684,-52.70313906116923,-54.55938503625442,-10.275962793399934,270.609049062584,76.61021889933603
56,33.00286274934172,-261.3039340435923,-61.453369285668984,-50.998722357842944,-53.634446150671096,-11.31653206475766,270.47708794308085,74.77169873537807
57,32.96697166987073,-261.1933089641393,-61.42304370035009,-49.491463365905226,-52.72122758226997,-12.303271740473456,270.3590387688554,73.09880454702363
58,32.94592280928575,-261.09786412285,-61.379302952765656,-48.16263865981625,-51.8153892453321,-13.229137747215585,270.25444906365465,71.5726527323654
59,32.939217919572116,-261.01657798893524,-61.32310118576875,-46.99353334734468,-50.91297835138637,-14.087845931615483,270.1624824676035,70.17460786570263
60,32.946159163453004,-260.94806718433364,-61.255666744618146,-45.96606892676946,-50.01049221728759,-14.873912769771923,270.08199226670735,68.88686056525471
61,32.96588215548899,-260.8906694528673,-61.17849841509878,-45.063350129806544,-49.104912308113676,-15.582683792418349,270.0116047079132,67.69292452395342
62,32.99739289189269,-260.84253463551255,-61.093352534575416,-44.270119600733196,-48.19371188701051,-16.21035045691792,269.94980834678876,66.5780443417329
63,33.03960729592033,-260.80172013058217,-61.00221966204511,-43.573111842810064,-47.274839857905185,-16.75395668301361,269.8950455964069,65.52950802750584
64,33.09139198872234,-260.76628721821726,-60.90729012030019,-42.96129998201752,-46.346683257569765,-17.21139680058835,269.8458026828455,64.53685975590801
65,33.15160468170722,-260.7343945411948,-60.810908665796305,-42.42603088452241,-45.40801060555824,-17.581407041136206,269.8006943159155,63.59201000925506
66,33.21913242446598,-260.7043850523631,-60.71551945234903,-41.9610463529857,-44.457898191502565,-17.863552783521122,269.75853958503006,62.68924196558048
67,33.292925864900226,-260.67486290883187,-60.62360315449958,-41.56239078098992,-43.49564157940227,-18.058213480474688,269.71842589812945,61.82511521673906
68,33.3720276611867,-260.64475707256486,-60.53760858017472,-41.228208911097006,-42.52065524132194,-18.166566575837738,269.6797581480026,60.99827079104139
69,33.455593266622046,-260.61336872068836,-60.4598813659534,-40.958441230354815,-41.53236424329532,-18.190570866761053,269.64229068515243,60.209145000178246
70,33.54290257964357,-260.5803999949726,-60.392592436479084,-40.75442893327826,-40.5300931115235,-18.132948824915463,269.6061401354309,59.459603658654295
71,33.633361495390616,-260.54596223570326,-60.33766884751904,-40.61844504430105,-39.51295817470775,-17.99716656226408,269.57177774473047,58.75251244877588
72,33.72649323209331,-260.5105627757316,-60.29672949274398,-40.553172822083376,-38.479770577865956,-17.7874095748152,269.540000902653,58.091263222799405
73,33.82192029820955,-260.47507056763857,-60.271028030106386,-40.56115644899907,-37.42895757262654,-17.508552184408607,269.5118847489576,57.47927934204345
74,33.919338815801424,-260.44066213383513,-60.261405301800586,-40.64425173860269,-36.35850942866212,-17.166118677930154,269.4887160294351,56.91952526267024
75,34.01848737364168,-260.40875037805876,-60.26825340847002,-40.80310582523819,-35.26595832009609,-16.76623444007638,269.47191241100955,56.41404619032934
76,34.11911265187029,-260.3808996832249,-60.29149336897205,-41.03669436383197,-34.14839390064362,-16.315565873361948,269.4629312760748,55.96356268533941
77,34.220933930605284,-260.3587314846216,-60.330567972524584,-41.34194261194398,-33.002518142981216,-15.821248612967706,269.4631726605154,55.567142689705484
78,34.323608448026434,-260.34382509697804,-60.38445106489771,-41.71345294637413,-31.82473953907334,-15.290804412628411,269.47388146369167,55.22196969379872
79,34.42669948497795,-260.33761889232835,-60.45167400571723,-42.143356093554466,-30.61130410784576,-14.732047934100262,269.4960542376908,54.92322084920832
80,34.52964904019422,-260.34131689621194,-60.53036919257301,-42.62129698483075,-29.35845803265006,-14.152985334142327,269.53035564375625,54.664063045405435
81,34.63175699003071,-260.3558054757561,-60.61832938428692,-43.13455911469142,-28.062634371720623,-13.56170690352905,269.5770490294736,54.43576866127374
82,34.73216855307808,-260.38158410548795,-60.71308039615113,-43.66832401573598,-26.72065436695403,-12.966276066752332,269.635944651147,54.22794627886349
83,34.82987152356922,-260.41871335490066,-60.81196390313371,-44.20605539800147,-25.32993259959598,-12.37461687707468,269.7063680215345,54.02887552086064
84,34.92370410110546,-260.4667823879553,-60.912226598205365,-44.72999107859633,-23.88867470594943,-11.794401876605338,269.7871498458858,53.82592975329548
85,35.012373424064926,-260.5248974567328,-61.01111168356713,-45.221720475041884,-22.39605658512313,-11.232941976587854,269.8766380734603,53.60606603500856
86,35.094484260940725,-260.5916920537523,-61.1059486392981,-45.662821443989735,-20.85237495947219,-10.697079924320914,269.97273171101926,53.35635861898818
87,35.16857671856304,-260.6653584941175,-61.194237555102134,-46.035527698923495,-19.25916069294932,-10.193088969061604,270.0729351884154,53.064550559272135
88,35.233171248979545,-260.74369976986327,-61.27372500234409,-46.32339684876924,-17.61924827661329,-9.726578533367165,270.1744312608327,52.71959743942667
89,35.286818716484,-260.8241996614222,-61.34246921128164,-46.51194913633857,-15.936797163958184,-9.302409064108318,270.27416972290786,52.312177763191485
90,35.32815290339665,-260.90410835343187,-61.39889294767279,-46.58924818558074,-14.217263025161154,-8.92461872524581,270.36896859304073,51.835146067009525
91,35.35594264961663,-260.9805401419648,-61.44182287519396,-46.546397563574736,-12.46731939364211,-8.596365014016069,270.45562385185747,51.28390736479749
92,35.36914086233023,-261.05057920072414,-61.47051445009957,-46.37793078624968,-10.694732542523704,-8.319884478190506,270.5310232810621,50.656695153937946
93,35.36692789088885,-261.11138887061156,-61.484661732267966,-46.082077469123554,-8.908194710818119,-8.096473298171535,270.5922595699447,49.954739835125054
94,35.34874720114313,-261.16031970516605,-61.48439205505865,-45.660894421747486,-7.1171229570373935,-7.926490558191885,270.63673781458635,49.18231985216962
95,35.31433182751616,-261.19501162007896,-61.4702462183598,-45.120257249208755,-5.331432857975162,-7.809384728512784,270.6622728795422,48.346693838752195
96,35.26372062484224,-261.21348589150983,-61.44314558929402,-44.4697149470395,-3.5612977947641435,-7.743742474299487,270.66717270667976,47.45791809631696
97,35.1972638161295,-261.2142233182788,-61.40434808171062,-43.72221646203551,-1.816905409664275,-7.727357643553705,270.6503043987363,46.528559252593574
98,35.11561775313945,-261.19622555121583,-61.35539533665324,-42.893723747907,-0.10822278261509384,-7.757317336182537,270.6111407018095,45.57331651190504
99,35.01972923594708,-261.1590573836195,-61.29805348766579,-42.00273022651505,1.5552190180691086,-7.830101387693183,270.5497853428904,44.60857132407546
100,34.91081018291141,-261.1028686840858,-61.234249757210854,-41.06970674219151,3.1645119141196476,-7.9416913582299316,270.4669765609329,43.65188460094491
101,34.79030381540449,-261.0283955859968,-61.16600696277591,-40.11649911253841,4.711522241978889,-8.087685051421051,270.36406907980876,42.72146289346167
102,34.65984374687804,-260.93694138342386,-61.095377904017624,-39.165702241652426,6.18900190943442,-8.263412578983159,270.24299558113177,41.835615268177385
103,34.52120751195053,-260.8303382118368,-61.02438155422762,-38.24003540541999,7.59065722618222,-8.464050043840228,270.10620934789995,41.012221986569514
104,34.37626627693837,-260.7108911031803,-60.95494292960289,-37.36174166155729,8.911176140593323,-8.684727142870223,269.9566102572375,40.26823446699868
105,34.22693275323148,-260.5813065598208,-60.88883834365236,-36.55203141177103,10.146217301967571,-8.920625499598518,269.79745683409016,39.619223448796554
106,34.075109564768766,-260.4446083850014,-60.82764740477306,-35.83058618580584,11.292366710696546,-9.167065339618919,269.6322676004729,39.07898896533752
107,33.922640400616956,-260.3040440015259,-60.772712654880344,-35.21513412416578,12.347069509258985,-9.419579076875438,269.464715336727,38.659241917751544
108,33.77126619946653,-260.1629847826773,-60.72510732704772,-34.72110384529352,13.30854552751146,-9.673971254414006,269.2985180453152,38.36936295417872
109,33.62258833253545,-260.0248239576224,-60.685611456106926,-34.36135880288946,14.175697409516937,-9.926364902288789,269.1373303518662,38.21624023735879
110,33.47804020080949,-259.8928754123968,-60.65469655782805,-34.146010261223985,14.94801949783124,-10.173234714798207,268.9846387718791,38.204183844695535
111,33.3388678935437,-259.7702762605407,-60.63251920024382,-34.082303987288995,15.625514204234326,-10.411427617132931,268.8436637697888,38.33491135781157
112,33.20611980705878,-259.6598956049107,-60.618923845621126,-34.17457387504237,16.208620483892084,-10.638171443035938,268.7172710207755,38.607596934138705
113,33.08064457764838,-259.56425163705734,-60.61345526403994,-34.42425497487636,16.698156483943748,-10.851072694160075,268.6078939342809,39.018974903804775
114,32.96309627950659,-259.48543910730604,-60.61538066232853,-34.82994864883453,17.095275843376623,-11.048104704820291,268.51746930151006,39.56348865303435
115,32.85394548772385,-259.42506906725964,-60.6237214614876,-35.387533563087594,17.40143494559996,-11.227587903174374,268.44738770999925,40.23347610167661
116,32.75349462740383,-259.3842225278843,-60.63729430322213,-36.09031765437783,17.618367030542753,-11.388164152972013,268.39846001781393,41.019384253114104
117,32.66189617175983,-259.36341935147834,-60.65476029670801,-36.9292277477793,17.748058585761942,-11.528767354528137,268.3709007583904,41.9100068505329
118,32.579172591044006,-259.3626033632629,-60.674680832058876,-37.89303487328968,17.792723761140135,-11.648592575049433,268.36432891707256,42.89274085187231
119,32.5052372061154,-259.38114425949874,-60.69557772175979,-38.968614266135646,17.754773480584323,-11.747065930679899,268.37778603130624,43.9538589427051
120,32.439915164997146,-259.41785632907613,-60.71599512645674,-40.14123930390514,17.63677723412717,-11.823817219961844,268.40977096417646,45.07879635025621
121,32.38296376120462,-259.4710333489218,-60.73456059455094,-41.39490809833336,17.44141703845716,-11.878656932979375,268.45829003524426,46.252450611771145
122,32.33409136928004,-259.53849840754896,-60.750042436171285,-42.712700178917885,17.171434611446074,-11.911558810653927,268.5209205855651,47.459492680485006
123,32.29297440170064,-259.6176669810315,-60.761400557966844,-44.077158916189305,16.82957428145003,-11.922648687530145,268.59488562873923,48.68468696558748
124,32.25927186536865,-259.70562136027536,-60.767827995796615,-45.47069332655748,16.418525358787033,-11.912199950591392,268.6771370656698,49.913216757911805
125,32.23263729002661,-259.79919445751113,-60.7687809103929,-46.87599093059624,15.940868415220377,-11.880635535496092,268.76444501574673,51.131010099311325
126,32.21272798711867,-259.89506105257914,-60.76399577960699,-48.276431622790604,15.39903000488175,-11.828535866777141,268.8534910946849,52.32505964163079
127,32.19921174789915,-259.9898346229622,-60.75349367821458,-49.656491262286536,14.795249843954572,-11.756651498417952,268.9409638355896,53.48372863641003
128,32.19177121001429,-260.0801679279243,-60.73757251036609,-51.00212303393272,14.131563533152189,-11.665918507463365,269.02365471414527,54.59703413367063
129,32.190106258259206,-260.1628553976324,-60.71678862737525,-52.301104471243214,13.409802805447622,-11.557474077779307,269.09855326898423,55.656897807785825
130,32.19393498108991,-260.2349351354847,-60.69192945908479,-53.54333810107241,12.631614209575877,-11.432669319468697,269.16293963553176,56.657354415789406
131,32.20299379196593,-260.2937880294262,-60.66397879068123,-54.72109371627154,11.798496193072442,-11.293076301896441,269.21447251893807,57.59470755215552
132,32.21703726046367,-260.3372310918346,-60.63407628798798,-55.82918031379441,10.911853739376888,-11.140486574181475,269.25127025128603,58.467622117782064
133,32.235838011060636,-260.3636017501394,-60.60347287651315,-56.865036026002315,9.973068997533009,-10.976899061456907,269.271982169084,59.277143015197616
134,32.25918687235438,-260.3718295265593,-60.57348359813671,-57.82872529603786,8.9835856400125,-10.804496045040223,269.2758472529091,60.02663033656396
135,32.286893428210796,-260.3614915198581,-60.54543954946668,-58.722834424764955,7.945003929539024,-10.625606849106704,269.26273693639365,60.72160300240094
136,32.31878721097179,-260.33284839637076,-60.52064040411302,-59.552259676772884,6.859182672005841,-10.442659817353514,269.23317926454246,61.369485656447914
137,32.354719795190746,-260.28685817820957,-60.50030885826696,-60.32388650558955,5.728343440498271,-10.258124153949575,269.188362111145,61.97925776653896
138,32.39456785538499,-260.22516591947124,-60.48554817661546,-61.04616411239641,4.5551717559147225,-10.074444160820665,269.130113885049,62.56100929949372
139,32.438236900222826,-260.15006835048644,-60.477303883951365,-61.72858621769975,3.3429094020829355,-9.893969206789967,269.0608610422548,63.12541375792563
140,32.485665060494604,-260.0644536919706,-60.476330530948665,-62.38109605708099,2.0954318715338904,-9.718883294101985,268.9835627395604,63.683136245959425
141,32.536826145113054,-259.97171797063834,-60.48316433379705,-63.0134404543716,0.817305232955178,-9.551138284663558,268.9016240084646,64.2442008260719
142,32.591731261827164,-259.87566020071205,-60.498102335858974,-63.63450356202926,-0.48618239548244285,-9.392394729315821,268.81878980119217,64.81734694439015
143,32.650428561101855,-259.780359735149,-60.521188576089195,-64.25165477098975,-1.809018056147249,-9.243973876637808,268.73902316226986,65.40940843424373
144,32.71300090993786,-259.69003996071353,-60.55220758864432,-64.8701468740785,-3.144491086640208,-9.106823884522854,268.666371613046,66.0247500463081
145,32.77956137395516,-259.60892327207915,-60.590685396584895,-65.49259958324737,-4.485249116701982,-8.981502536011531,268.6048265437099,66.6647953345641
146,32.850246313268045,-259.541082849813,-60.63589799245885,-66.11859998570789,-5.823379637402536,-8.868177870287294,268.55818093008156,67.32767605119241
147,32.92520586455574,-259.49029711586587,-60.68688713748676,-66.74444572847118,-7.150511993278767,-8.766647119276703,268.529890989437,68.00802721393634
148,33.004591689840254,-259.45991274903196,-60.742483159096246,-67.36304905894394,-8.457933367121896,-8.676373288874421,268.52294737692375,68.69694415709536
149,33.08854203347044,-259.452721749475,-60.801334214723795,-67.96401087707416,-9.73671175969472,-8.596537762231486,268.5397611149119,69.38210878954649
150,33.17716422484072,-259.4708572851026,-60.861941158262674,-68.5338643637524,-10.97781915662452,-8.526106525036633,268.5820686521728,70.04808272320398
151,33.270514815911675,-259.51571203743356,-60.92269676578262,-69.0564783221644,-12.17224894686094,-8.46390706648032,268.6508593877055,70.67675571790382
152,33.36857766720763,-259.5878816185773,-60.98192781236282,-69.51360186552884,-13.311123051124346,-8.408712683122705,268.74632784063454,71.2479297576815
153,33.47124055228355,-259.68713449566684,-61.03793843067752,-69.88552513211403,-14.385785968903116,-8.359330731686313,268.86785156718213,71.74001260105943
154,33.578271164815405,-259.81240883862574,-61.08905327074489,-70.15182573291233,-15.387884906652745,-8.314691246112341,269.0139949972988,72.13079019378148
155,33.689293670859314,-259.9618358226415,-61.13365911887476,-70.29216782523984,-16.30943711349638,-8.273932208289965,269.18253857032664,72.39824501499076
156,33.803767117322565,-260.1327881361032,-61.17024378317189,-70.28711996134,-17.142887254815786,-8.236477660116577,269.3705318469712,72.5213870885918
157,33.92096710521395,-260.3219517287036,-61.19743124949948,-70.11895883153534,-17.881158809225703,-8.202104805950288,269.5743686372904,72.48106562757496
158,34.039972161198605,-260.52541817192906,-61.21401240744853,-69.77242820911863,-18.51770389138004,-8.170996306647698,269.78988161398655,72.2607315724637
159,34.159656194875836,-260.7387944571006,-61.21897100179468,-69.23542531741532,-19.046555598809007,-8.143774151827962,270.01245342972845,71.84712416748113
160,34.278688335816675,-260.95732672701627,-61.21150472516411,-68.49959016445983,-19.462386160758577,-8.121511902705343,270.23714109259623,71.23085793418873
161,34.395541295428814,-261.17603433563454,-61.191041423788555,-67.56077710562471,-19.76057307841331,-8.105722813732175,270.458810255343,70.40688998764897
162,34.50850914792634,-261.38985061992133,-61.157250319297965,-66.41939216250384,-19.937274249207107,-8.098322368943643,270.6722760194563,69.37485178153648
163,34.61573503362265,-261.59376669081274,-61.11004812462787,-65.0805845295304,-19.989511825580088,-8.101564993328948,270.8724467246713,68.13923413976524
164,34.71524872142937,-261.7829743631512,-61.049600053046625,-63.554286098135364,-19.915263298123655,-8.117955986269804,271.05446696806393,66.70941968079885
165,34.805013231135504,-261.95300414012866,-60.97631596729312,-61.8550984403154,-19.71355706154705,-8.150141026343306,271.2138558623254,65.0995621930437
166,34.88297898054447,-262.09985412466386,-60.89084216626111,-60.00203223323216,-19.384568604487598,-8.20077692307193,271.34663646637586,63.328317914384456
167,34.94714347266953,-262.2201060049843,-60.79404940998561,-58.01810933447757,-18.929712576589328,-8.272388591788744,271.44945255554836,61.418438792015536
168,34.99561446222889,-262.31102481720586,-60.687017671184705,-55.92984241727512,-18.351725437574014,-8.367218368140524,271.51966940185224,59.396242449269714
169,35.02667458768268,-262.37063975130064,-60.571017831022075,-53.76661102704598,-17.654733230819588,-8.487074605733556,271.55545572531094,57.2909775483924
170,35.038845327706554,-262.3978035968125,-60.447490262723626,-51.55995591552879,-16.84429922361571,-8.633186893800007,271.55584421895674,55.13410629750989
171,35.03094782974073,-262.3922286073227,-60.31802009997359,-49.34281538647273,-15.927446670515732,-8.806075123382497,271.52076815387744,52.9585278447779
172,35.00215789119026,-262.35449693110155,-60.184308967002046,-47.148728093346165,-14.912652749969983,-9.005439030949322,271.45107188680566,50.79776718298327
173,34.952052357629846,-262.28604453598007,-60.04814300575831,-45.011026344944845,-13.809810758113482,-9.230073858740036,271.34849385553053,48.68515403482677
174,34.88064450139309,-262.1891186698993,-59.91135720770451,-42.96204269023916,-12.630158850471167,-9.477816539363394,271.21562179720553,46.653015175615685
175,34.78840649350828,-262.0667100742438,-59.77579639138787,-41.032350630575344,-11.386174910993624,-9.745525460912642,271.0558212030575,44.73190199358247
176,34.67627772936947,-261.9224621841914,-59.64327360180391,-39.25005804445262,-10.091438397736479,-10.02909547238454,270.8731391836451,42.949873026128685
177,34.54565836417901,-261.7605603406978,-59.51552714741026,-37.640169585456064,-8.760461173211636,-10.323508410444829,270.6721868548488,41.33184896394915
178,34.39838790999121,-261.58560461578276,-59.39417789598066,-36.22403210523829,-7.408490300416484,-10.622918134296839,270.45800406487683,39.89905532730394
179,34.23670920425981,-261.40247027000447,-59.28068873253965,-35.018875102051666,-6.051286514192144,-10.920767879629004,270.2359108084671,38.66856571882083
180,34.06321857578233,-261.21616022946694,-59.17632806658957,-34.037456257156485,-4.704882533549945,-11.209936666456935,270.0113500978333,37.652956205888685
181,33.88080363525058,-261.0316543665399,-59.08213894673256,-33.287820238759785,-3.385325614115569,-11.482910471201853,269.78972745337484,36.860078951822054
182,33.69257072059915,-260.85376071755474,-58.99891494352446,-32.77317701918047,-2.1084089013650495,-11.731972870974518,269.57625250696526,36.292960652289885
183,33.501764510707915,-260.6869738999438,-58.92718369473386,-32.49190372742407,-0.8893964104198375,-11.949408935659628,269.3757883371379,35.949828501599825
184,33.31168262286779,-260.5353457693579,-58.86719880594385,-32.437671257676136,0.2572530992342312,-12.12771541984954,269.1927139306807,35.82426313457419
185,33.125588135987016,-260.4023727438647,-58.818940515641295,-32.599693356473445,1.3181575448347151,-12.259809942379302,269.0308045198704,35.90547422747044
186,32.94662297909489,-260.29090327831847,-58.7821251473659,-32.963091883907865,2.28127195622777,-12.33923191141051,268.89313353989775,36.17869039280361
187,32.77772507225095,-260.20306785234106,-58.75622296327928,-33.50936775873723,3.1361313940073137,-12.360328447458427,268.7819987648753,36.62565102468401
188,32.62155206310567,-260.1402327244327,-58.74048368176415,-34.21696317763335,3.874069855583392,-12.318419392897603,268.6988740164685,37.22518420772244
189,32.4804144052788,-260.1029777694309,-58.73396864707754,-35.06189738304638,4.488408994893258,-12.209936529589196,268.6443868561167,37.95385193747483
190,32.35622020549109,-260.09109808885563,-58.73558839180977,-36.01845571211161,4.974611047459715,-12.032533215459084,268.61832196777397,38.786641803480066
191,32.25043363741682,-260.10362876676544,-58.7441440456242,-37.059909927407986,5.330391136855679,-11.785161736780113,268.6196494917349,39.69768296932635
192,32.16404790637967,-260.1388919341939,-58.75837072742887,-38.159246924381215,5.555785127260276,-11.468116759765874,268.64657720089036,40.660963773138484
193,32.09757296703089,-260.1945649361077,-58.77698082856456,-39.28988285677959,5.653170369530246,-11.083044349530889,268.69662490929187,41.651028595362895
194,32.051037570804674,-260.26776778031507,-58.79870509300463,-40.42634049649904,5.62723802124395,-10.632917079009875,268.76671883062915,42.643632758510016
195,32.02400476803167,-260.35516732021784,-58.8223296905955,-41.54486915115413,5.484916986456434,-10.121976740572796,268.8533029055634,43.61633601130931
196,32.01559968631372,-260.4530949584139,-58.84672800590829,-42.623988580900246,5.235250759151684,-9.555647053921117,268.9524635476333,44.54901745378617
197,32.024548208001775,-260.5576741411499,-58.87088648241826,-43.64494098059765,4.889229451054217,-8.940419485475497,269.06006386345445,45.42429745164491
198,32.04922503712548,-260.6649535513216,-58.893924409323255,-44.592038144960085,4.459580013073942,-8.283715830860933,269.1718831515357,46.227855089059865
199,32.08770958448649,-260.7710416757511,-58.91510794937217,-45.452894346658766,3.960518172102183,-7.593731575431806,269.2837573384611,46.948632974208394
200,32.137848109338634,-260.8722382772146,-58.933859002344015,-46.21853915598341,3.4074660129953678,-6.879264276190788,269.39171593616635,47.57892470001876
201,32.19732053505578,-260.96515820681407,-58.94975960968957,-46.883408361305136,2.8167395972001485,-6.149531342097287,269.49211103999534,48.11434395412558
202,32.263710136709655,-261.0468429599907,-58.96255238008289,-47.445215346203824,2.2052117042049986,-5.413981651331386,269.58173379414245,48.553678229925374
203,32.33457384746411,-261.11485549109966,-58.97213696867733,-47.90470984800534,1.5899558356409,-4.6821054370615,269.6579137247012,48.898634437451314
204,32.40751047783893,-261.16735421327604,-58.97856240242448,-48.26533598645691,0.9878789970045899,-3.963246789063731,269.71859664571826,49.153488468959445
205,32.480224039921126,-261.2031429665844,-58.98201525818143,-48.532806567447324,0.41535225154488636,-3.266422951048041,269.7623977133177,49.32465567928315
206,32.55057978123017,-261.2216949892078,-58.982804168970496,-48.71461539725007,-0.11215065588915946,-2.6001543625994588,269.78862756802994,49.42020374201836
207,32.61665126860363,-261.2231503092779,-58.98134152369919,-48.819513046742536,-0.5803954187393016,-1.9723091298209832,269.7972910171313,49.449332799638256
208,32.676757567087385,-261.20828723984096,-58.97812340998274,-48.85697369484985,-0.9766985551900137,-1.3899652876226563,269.78905905609304,49.42184976809977
209,32.72949006903793,-261.17846976975983,-58.97370886778058,-48.83668111821526,-1.2901970119348884,-0.8592937574267377,269.7652161647595,49.34766387582683
210,32.77372896597716,-261.1355736980494,-58.96869939051729,-48.76806051299897,-1.5120661169192788,-0.38546424553802017,269.727585855395,49.23632899271579
211,32.80864987919807,-261.08189537620524,-58.96371931041791,-48.65987965168398,-1.6356779109520097,0.02742450929693143,269.67843843002237,49.096655114966815
212,32.83372173122075,-261.0200477789224,-58.959397311651834,-48.51993800498664,-1.6566944078957522,0.37638965932210705,269.62038571465393,48.93640667288707
213,32.84869735143745,-260.9528491676406,-58.9563490085518,-48.35485618174811,-1.573093269488157,0.659584771158553,269.5562680458465,48.762099391061035
214,32.853598442171005,-260.88320974532525,-58.9551604290378,-48.16997085335549,-1.3851264230010512,0.8762971466849895,269.4890389060127,48.57890066521121
215,32.84869645848284,-260.8140214110904,-58.956372351000795,-47.96933287314461,-1.095214994078152,1.0269236721199924,269.4216523332016,48.39063135917158
216,32.83449084633344,-260.74805512454935,-58.96046571327576,-47.75579924422589,-0.7077863784403606,1.1129272062197393,269.35695769338713,48.199860158706436
217,32.811686012000415,-260.6878696475058,-58.96784871244505,-47.53120353289027,-0.22906126142080468,1.1367756024904718,269.2976057576371,48.0080757201675
218,32.7811682513658,-260.6357345957356,-58.978846551245944,-47.296584728994674,0.33320008331981427,1.1018654212861574,269.2459692764078,47.815917293431454
219,32.743983492494735,-260.59356977218556,-58.99369490803252,-47.05245170405691,0.9699818094575776,1.0124322898622828,269.20408028904774,47.62344159471605
220,32.70131611699073,-260.5629017359122,-59.01253795577493,-46.79905944402603,1.6713158122039453,0.8734497785444119,269.17358529781154,47.43040261802862
221,32.65446853857793,-260.5448376601089,-59.03543125174165,-46.53667413099599,2.4265932256565135,0.6905186434299443,269.1557183803668,47.23652182465949
222,32.60484080775702,-260.5400558286252,-59.062349144061145,-46.26580674090243,3.2248734172899027,0.4697483784899323,269.151291434142,47.0417285855064
223,32.553909275780846,-260.54881159365766,-59.093195585694744,-45.98739874083738,4.055180693220125,0.21763320310167886,269.160700039955,46.846354515164776
224,32.503203231272295,-260.5709572739175,-59.12781662339434,-45.70294817481399,4.90678015302044,-0.05907520703399322,269.18394294724135,46.65126989924563
225,32.45427844217786,-260.6059742814757,-59.166012637735655,-45.41456934693813,5.769425520538814,-0.353495874526757,269.22065295725025,46.45795520288844
226,32.40868676461249,-260.653015579023,-59.207548782760796,-45.12498402955198,6.633573237585003,-0.6587453016579092,269.2701369091431,46.26850524628248
227,32.367941457246,-260.710956291263,-59.25216284676711,-44.83744647585186,7.490558635723856,-0.9680608646108628,269.33142243426937,46.085567887448
228,32.33347853714809,-260.77845000650854,-59.29957056585544,-44.555608468478425,8.332731596887655,-1.2749190854035135,269.4033091331661,45.91222293759388
229,32.3066153046688,-260.85398813207377,-59.34946892471708,-44.28333412707297,9.153550701032303,-1.5731472726148203,269.4844218768131,45.75181048272103
230,32.28850785545469,-260.93595963623216,-59.40153807493152,-44.02447712307585,9.947636314080153,-1.8570271607926858,269.5732640149203,45.60772067501392
231,32.28010983368757,-261.0227085839364,-59.45544236082497,-43.782635209581485,10.710784320644487,-2.1213892443292783,269.6682683704187,45.48315928331757
232,32.28213480824407,-261.11258705110475,-59.5108308202936,-43.560898480267504,11.43994326898962,-2.361696526297745,269.7678440585729,45.38090477587812
233,32.29502449198561,-261.2040013345358,-59.567337575068855,-43.361608427957954,12.133158588263429,-2.5741163893426946,269.8704174796554,45.303073361938566
234,32.31892466919288,-261.29544988697944,-59.6245826908392,-43.18614458404778,12.789488215421665,-2.7555792081943684,269.974466322861,45.250908137418016
235,32.35367029676268,-261.3855520359465,-59.68217416569394,-43.03475423590063,13.408894373494705,-2.9038221335256083,270.0785459967864,45.224607203913756
236,32.39878088420389,-261.47306720685646,-59.73971158015992,-42.906438472878996,13.992116387797362,-3.0174162258732817,270.18130847097547,45.223203403642756
237,32.453466891978294,-261.556905050772,-59.7967917103888,-42.79890468014183,14.54052940646994,-3.09577494742202,270.28151407457057,45.24450525755445
238,32.51664744559153,-261.63612755358884,-59.85301617499514,-42.70859165514456,15.055993814124983,-3.1391421313056944,270.3780373472804,45.285104942623065
239,32.58697914743987,-261.70994474365096,-59.90800091871804,-42.63076889170272,15.54070006044063,-3.1485580873962262,270.4698684378926,45.340454865191404
240,32.66289522012537,-261.7777058485292,-59.96138696774133,-42.55970657318624,15.99701359151572,-3.1258034536236163,270.55611162254144,45.40500988023969
241,32.74265362732182,-261.83888761422594,-60.012851492978875,-42.48890794622082,16.42732452621416,-3.0733216093497067,270.63598222135033,45.47242789314927
242,32.82439218967512,-261.8930810460254,-60.062118005596076,-42.41139154772455,16.833906524735095,-2.9941217522724086,270.7088026293391,45.535817862425404
243,32.906188151434385,-261.93997722201493,-60.108964660580355,-42.32000766254006,17.21878879892359,-2.891665960736157,270.7739975554127,45.58802140836597
244,32.98611932428888,-261.9793523660445,-60.1532300715672,-42.20777168697522,17.583644393162032,-2.769744594158029,270.8310881707242,45.62191257242815
245,33.0623239177823,-262.011052322768,-60.194816455593454,-42.068196875707855,17.92969686778033,-2.632345092293109,270.8796849170715,45.63069991621667
246,33.133056409921046,-262.03497690303806,-60.23369016888541,-41.895610152358856,18.257646544168914,-2.483519512876925,270.9194791253886,45.608216071272565
247,33.196737208247335,-262.05106492453996,-60.269879847511376,-41.685437010761994,18.567616671781273,-2.3272559686401744,270.95023402065897,45.54918186755976
248,33.251994317493484,-262.05928092598754,-60.3034725381332,-41.434444681920574,18.859119342110635,-2.167358549039852,270.9717759308033,45.44943499763842
249,33.297695741310164,-262.0596045054695,-60.33460837750205,-41.14093625486022,19.131040753482296,-2.007339474624307,270.98398658939664,45.30611643103926
250,33.33297191918801,-262.0520231055546,-60.3634744909962,-40.80489178991275,19.38164550954854,-1.8503263181175185,270.98679739241135,45.11781098753362
251,33.35722811165476,-262.03652885425225,-60.39029877545034,-40.428055125353715,19.608599907374256,-1.698986293487964,270.9801863363999,44.88464109009671
252,33.370147173632986,-262.01311978662454,-60.4153440636367,-40.013966708435206,19.809014468524307,-1.5554688919027497,270.9641781179211,44.608314375803026
253,33.37168348323777,-261.98180550361405,-60.43890287767562,-39.56794336713672,19.979506122535813,-1.4213674507930087,270.93884759048365,44.292126476909225
254,33.362048958959875,-261.942617177034,-60.46129270557469,-39.09700577148433,20.11628034236529,-1.2976995474006743,270.9043265924655,43.94092011593996
255,33.341692226860616,-261.8956217591414,-60.48285155189917,-38.609753811924946,20.2152330781191,-1.1849055240011999,270.8608140856272,43.561001021041214
256,33.311272157089874,-261.84094012519427,-60.503933353215004,-38.11618960478307,20.272071509048622,-1.0828641258930314,270.80858940099915,43.160010377448394
257,33.27162715784344,-261.7787685324844,-60.52490268694753,-37.62748766090086,20.282451457621047,-0.9909241780697681,270.74802803902446,42.7467529117285
258,33.22374171796665,-261.70940229609744,-60.54612818628525,-37.155712258725806,20.242127872819612,-0.9079512972279572,270.6796190121572,42.33097960358299
259,33.16871163213433,-261.6332601484472,-60.567974335033774,-36.71348344727955,20.147113279213904,-0.8323886460109281,270.6039823504838,41.923124689704146
260,33.107709115369474,-261.550907439986,-60.590791732899326,-36.31359532393196,19.99383778312418,-0.7623305704298393,270.5218851564346,41.53399812830742
261,33.04194873041706,-261.4630760933764,-60.61490620805038,-35.96859305199839,19.779303398015465,-0.695607587645273,270.4342543861275,41.17443691868478
262,32.97265482709246,-261.3706790454763,-60.640607172990094,-35.69031819408713,19.501225237798963,-0.6298806256492873,270.3421843387122,40.854921393184064
263,32.90103102542114,-261.2748169386609,-60.668135523146404,-35.48943504211015,19.158152539138673,-0.5627417342062772,270.24693681847583,40.58516556559822
264,32.82823210165172,-261.1767751605844,-60.69767141943051,-35.374953466687664,18.749563483854644,-0.49181784026296643,270.1499322482066,40.37369360466257
265,32.75533847162033,-261.0780099093531,-60.72932254944699,-35.35376612552542,18.275929352247694,-0.4148736672211418,270.05273060631487,40.2274172704786
266,32.68333343003233,-260.98012263516495,-60.763113751326294,-35.43021939613372,17.738745522616064,-0.3299097462819513,269.95700177081983,40.15123143036979
267,32.613083514182925,-260.8848229515788,-60.798978977541914,-35.605737973452015,17.14052902120422,-0.23525151856482956,269.86448561625093,40.14764632102691
268,32.54532277718958,-260.79388098964074,-60.836756390414884,-35.87852269816067,16.484784441427212,-0.1296258528929445,269.7769430693398,40.21647590081192
269,32.48064214794415,-260.7090711539522,-60.8761870023729,-36.243339893150896,15.775941807954888,-0.012221877898151911,269.69610024590577,40.354601310582005
270,32.419485161895146,-260.6321101249876,-60.91691685766632,-36.6914182260056,15.019271154070461,0.11726621048608422,269.62358856758334,40.55582696050364
271,32.36215106185406,-260.56459251771264,-60.95850242545789,-37.21046578941761,14.220779160144144,0.2586158638366912,269.56088419700995,40.81084396383228
272,32.30880564927372,-260.507927783481,-61.00041868782757,-37.78481572126849,13.387093267897702,0.41107308622854855,269.5092501859288,41.10731160860542
273,32.25949946289777,-260.4632817721538,-61.04206936409691,-38.39570346050438,12.525338400374064,0.573369404049553,269.4696844625916,41.43006253359183
274,32.21419208400503,-260.43152589417224,-61.08279880716323,-39.021672946252416,11.64301092107981,0.7437580157947952,269.4428762547274,41.76143157504259
275,32.17278081739922,-260.4131961153842,-61.12190526435662,-39.63910307007969,10.74785385706012,0.9200675319594575,269.4291728329694,42.0817022347152
276,32.13513174401359,-260.4084632813665,-61.15865526887738,-40.222839911198804,9.847736766060772,1.099771109164329,269.42855773477055,42.36965881170703
277,32.101111112372244,-260.41711569856136,-61.192298850554096,-40.746915174113276,8.950543009382237,1.2800683119195972,269.4406410559177,42.603226900251826
278,32.07061510852631,-260.4385544979095,-61.22208512693582,-41.185327153100225,8.064066627801262,1.4579766970704624,269.4646619860666,42.76018054806629
279,32.04359608648039,-260.4718019383627,-61.24727780687867,-41.51285761018515,7.195920480429849,1.630429857829238,269.49950340552886,42.81889106177696
280,32.02008329030748,-260.51552238676607,-61.267170253857955,-41.70589615054474,6.353456719452721,1.7943784174991972,269.54371797290014,42.75909023694435
281,32.00019609062527,-260.5680552483999,-61.2810999413378,-41.74324295605527,5.543699956781087,1.9468902082449864,269.59556472742594,42.56261964516211
282,31.984148059879843,-260.62745867463974,-61.28846228754753,-41.606861105362796,4.773292618979838,2.0852456894478877,269.65305486934386,42.21413756736223
283,31.972240943782047,-260.69156248350635,-61.28872394245646,-41.28255122769844,4.048451089419698,2.207024712842219,269.71400511252506,41.70175631685712
284,31.964848594366323,-260.7580283974087,-61.28143563230442,-40.76052392950792,3.3749304862086116,2.31018114425777,269.7760968131789,41.01758510425459
285,31.962391933904755,-260.82441542396026,-61.26624463424147,-40.035849228710894,2.7579954840399914,2.3931025571069826,269.8369389231249,40.15815720603891
286,31.965306798994334,-260.8882480029005,-61.242906778421926,-39.108766969884606,2.202394532776931,2.454653031689055,269.8941326739775,39.12472484106782
287,31.974006964452006,-260.94708446467956,-61.211297526077104,-37.98484764819594,1.7123351501495045,2.494197843170666,269.94533579834183,37.92341059056337
288,31.988844772842377,-260.9985834551381,-61.171421286406215,-36.67499897758686,1.2914586085389526,2.5116094359501213,269.9883241265859,36.56521013945467
289,32.01007171341244,-261.04056629363697,-61.12341793924029,-35.195319580987395,0.942813163467472,2.5072546205100887,270.0210486449221,35.06584723958541
290,32.03780117411133,-261.0710736674877,-61.06756563187751,-33.56680695605119,0.668825769853863,2.4819635031837177,270.041686528055,33.44548768517534
291,32.0719755316342,-261.0884154885689,-61.00427924084745,-31.81493196995432,0.47127277961851227,2.4369813585567472,270.04868513173983,31.72832432790135
292,32.11233969031289,-261.09121306738786,-60.934104303230676,-29.96909626720824,0.3512503069717367,2.3739054793008565,270.0407983331746,29.942049439480545
293,32.15842299046975,-261.0784330137869,-60.857706664315344,-28.061991978067322,0.30914485291529653,2.29460989407871,270.0171149272882,28.11723388576419
294,32.20953101046076,-261.0494125224545,-60.775858542587066,-26.12888489771237,0.34460458072104316,2.201161613403347,269.9770790811327,26.286634502819417
295,32.264748218502476,-261.0038759723131,-60.68942212761293,-24.206842804059455,0.4565115349081906,2.095732669365092,269.9205031354481,24.48445169009692
296,32.3229517471268,-260.94194299493665,-60.59933209051356,-22.33392984072969,0.6429552437292811,1.9805125866629607,269.84757323953954,22.745558596738267
297,32.38283582890058,-260.8641282820213,-60.506578377611405,-20.548386171988803,0.9012085736042923,1.8576259506271828,269.75884832888175,21.104721625599353
298,32.44294575840755,-260.77133346896187,-60.41219030686998,-18.887809869014273,1.2277073431615464,1.7290593428189118,269.6552528634829,19.59582975903724
299,32.50171974280857,-260.66483156135985,-60.31722237949606,-17.388355679604533,1.6180359244860498,1.596601136174668,269.53806367780186,18.25114788423055
300,32.55753670436934,-260.546244522731,-60.22274163216175,-16.08396328636301,2.066921704008378,1.4617966157084914,269.40889127485013,17.10060717699648
301,32.608767979042874,-260.4175146675622,-60.12981602815104,-15.00562600805536,2.568241703639926,1.3259197499588145,269.2696558350574,16.171143819766865
302,32.65383088014804,-260.280870387608,-60.039503254188176,-14.180709656106337,3.1150448047213177,1.1899617599485066,269.1225580697867,15.48609588852962
303,32.691242198212414,-260.13878663903193,-59.9528391361381,-13.632330369078245,3.6995928935264955,1.0546354635993835,268.97004492713097,15.064667093633608
304,32.719669792592775,-259.993940676478,-59.87082471247026,-13.37879963270035,4.3134239151909,0.9203932888848293,268.81477018176366,14.921465124058699
305,32.73798046393529,-259.849163708733,-59.79441104573757,-13.433144285440944,4.947439323907468,0.7874559785501359,268.6595501328506,15.066121560065737
306,32.7452823415233,-259.7073892941041,-59.72448124525101,-13.802709080595898,5.592017771011292,0.6558484796951836,268.5073148632576,15.502999662292002
307,32.74096015397735,-259.5715992438337,-59.66182975535859,-14.488849306907213,6.237156072559145,0.5254393536663151,268.36105560943884,16.23099581014147
308,32.724702002479695,-259.4447675995232,-59.60713944157191,-15.486721020880742,6.872637499552547,0.3959801889867459,268.2237687323422,17.243439921898638
309,32.69651659550769,-259.3298030736781,-59.560957268748666,-16.785176561711275,7.488226222280987,0.26714186815189667,268.0983967097878,18.528099806085432
310,32.65674026489887,-259.22949030330096,-59.5236695372785,-18.3667731301977,8.073885426341942,0.13854507754145962,267.9877666182994,20.067294024871114
311,32.60603341621545,-259.1464303597511,-59.49547785450404,-20.207902177197465,8.620015385577679,0.009783152159241543,267.894526753775,21.838117401997973
312,32.54536640122674,-259.0829811746248,-59.47637724882516,-22.279046943950764,9.117706709579773,-0.11956376189986681,267.82108234371645,23.812782597234268
313,32.47599518099835,-259.04119887087126,-59.4661380078166,-24.545174456131825,9.559002998183791,-0.24992318378749784,267.76953170699966,25.95907993281662
314,32.39942754643206,-259.0227813428718,-59.46429290945979,-26.966266338298578,9.937166106734265,-0.3817322824782344,267.7416046263668,28.240955617611863
315,32.317381030154934,-259.0290157052236,-59.47013148887797,-29.49798981486183,10.246936150814587,-0.5154453446352639,267.7386050030753,30.61920551400611
316,32.23173399483405,-259.06073140106537,-59.482702754529804,-32.09250615143833,10.484777424160324,-0.6515441578844351,267.76136002028744,33.05227767842643
317,32.14447174797169,-259.11826084690273,-59.50082725198517,-34.69940863323481,10.649100785159547,-0.7905485777171273,267.8101780556889,35.497172273113044
318,32.05762985724728,-259.20140951282696,-59.52311862156424,-37.26677617572697,10.740452900180495,-0.9330246857569212,267.88481747865575,37.91042234274324
319,31.97323699893807,-259.30943729889026,-59.5480140262451,-39.742322202339444,10.761663016057593,-1.079588271574558,267.9844682796183,40.249133682995364
320,31.89325956609977,-259.44105291369965,-59.573812283158894,-42.074612034818905,10.717938638382169,-1.2309017918660452,268.10774819687185,42.47205699295656
321,31.81954990244195,-259.5944226098338,-59.59871831965489,-44.21431627678416,10.616902575980442,-1.3876634755646393,268.25271457623495,44.540661127079595
322,31.753799541561072,-259.7671941201248,-59.62089261970498,-46.11546301556249,10.468565197257753,-1.55058788533803,268.41689265749056,46.42017293621216
323,31.69749836715601,-259.95653613074774,-59.63850448168022,-47.73664850498849,10.285227351982423,-1.7203779986518866,268.5973204694598,48.08054723482875
324,31.651900234132903,-260.15919320988866,-59.64978804591286,-49.04216456688212,10.081311235232274,-1.8976896744826217,268.79061009740417,49.497330091560464
325,31.617995315524407,-260.37155568524844,-59.65310004078164,-50.00300137542801,9.873118567605799,-2.0830901668463775,268.9930246390407,50.65238006018922
326,31.5964892659231,-260.5897433725268,-59.646977916714555,-50.597686622446226,9.678517872041054,-2.2770130532513657,269.20056950966574,51.534415226647816
327,31.58778918427729,-260.8097012750981,-59.63019649460077,-50.81292633381537,9.51656528149382,-2.479712454960906,269.4090958657119,52.13935905515823
328,31.591996275217117,-261.027304560825,-59.601820643797836,-50.64401876525887,9.407066074641357,-2.691219679314909,269.61441298096696,52.47046487431546
329,31.60890505604428,-261.23846949994913,-59.56125108866981,-50.09502064669703,9.370086856654101,-2.9113054431540175,269.81240570707706,52.53820720557147
330,31.638008959535657,-261.4392667103184,-59.50826039413001,-49.17865421317995,9.425430837940796,-3.139450675748114,269.9991528102925,52.35993761121681
331,31.678512215461907,-261.62603289476556,-59.443016524502355,-47.91595347274573,9.592090867632416,-3.3748285154160675,270.171041898224,51.959312804304254
332,31.729347898470788,-261.79547713865173,-59.36609200589789,-46.33565842293573,9.887696598099666,-3.6162994485549413,270.32487667761364,51.365512783046384
333,31.789201952013347,-261.9447777790369,-59.278457491305915,-44.47337579214937,10.327973279405075,-3.862420629690457,270.4579723900894,50.61227604450343
334,31.856542791599924,-262.0716659454071,-59.181459307672434,-42.370533781303635,10.926230170848813,-4.1114694445352225,270.5682355069056,49.73678690168497
335,31.929655778161944,-262.17449212965226,-59.07678132599722,-40.07316586022821,11.692896410457747,-4.361480536879325,270.6542241449736,48.77845619418926
336,32.00668157999568,-262.25227258081514,-58.96639227114266,-37.6305648134864,12.635121355988357,-4.610294866715466,270.71518622909406,47.77764109041084
337,32.08565737562551,-262.3047129969289,-58.85248040211627,-35.093852924085716,13.756454807944474,-4.855618796637352,270.7510732506977,46.77435217555096
338,32.16456001074383,-262.33220792789587,-58.7373782994232,-32.51451737845533,15.056620101046377,-5.095090625447376,270.7625285791352,45.80699651533076
339,32.241350475572645,-262.3358154288738,-58.623481164002975,-29.942961536666918,16.5313898757655,-5.326351440045665,270.75085054535583,44.91120373269083
340,32.31401924384583,-262.3172076750183,-58.51316243922846,-27.427122483192562,18.172570589596415,-5.547116748467286,270.71793175902525,44.11877820628437
341,32.38063200444314,-262.2785993557517,-58.408690683817454,-25.011203130414966,19.968097760843595,-5.755245176569057,270.66617721361985,43.45681429924474
342,32.439375121551045,-262.22265667939956,-58.31215148062404,-22.734562991283763,21.90223989323964,-5.9488006032305965,270.5984046584092,42.94700331154147
343,32.48859989908787,-262.1523907767432,-58.22537781079134,-20.63080550805436,23.955905343724236,-6.1261044829797555,270.51773153563926,42.60515123746908
344,32.526864576691466,-262.071040204412,-58.14989183724884,-18.727091569048675,26.107043277764454,-6.285775748391398,270.4274535434379,42.44091635840562
345,32.5529730059936,-261.9819479983531,-58.086860518089296,-17.043698804230676,28.331127326434423,-6.42675657710433,270.3309205008181,42.45776623068228
346,32.566009001440904,-261.88843911125355,-58.03706691195594,-15.593834889381062,30.601708519018167,-6.5483233801837075,270.2314154465298,42.65314542316361
347,32.5653652755842,-261.79370394976763,-58.00089833025316,-14.38370109863881,32.89102243195114,-6.650083460988235,270.1320426248441,43.01883857458611
348,32.55076572481953,-261.700693139823,-57.978351527611856,-13.412790599754864,35.17063425427564,-6.731958745412454,270.0356292171741,43.54150775341771
349,32.52227985475513,-261.61202774566857,-57.969053978994665,-12.674395432560598,37.41210461381734,-6.794158758126599,269.94464456268145,44.20337840270808
350,32.48032843695658,-261.529928108419,-57.97229924540606,-12.156287623170874,39.58765847580886,-6.83714566657874,269.8611393978059,44.98304415882765
351,32.42567991538263,-261.4561633356202,-57.98709375210269,-11.841534138921888,41.67083912304113,-6.861594727683566,269.7867064523145,45.85635758346306
352,32.3594373391774,-261.39202227016665,-58.01221206502215,-11.709402746027518,43.637129110371696,-6.868353749765246,269.7224625535916,46.79737158112929
353,32.28301558333903,-261.33830550797694,-58.04625780963919,-11.736316272636412,45.46452024427812,-6.858405125791907,269.66905118247104,47.779295341334056
354,32.19810856469987,-261.2953368346153,-58.08772750474304,-11.896815937595614,47.134015307883146,-6.832833573598675,269.6266632849548,48.77542938586403
355,32.10664636666416,-261.2629914910948,-58.13507467588368,-12.164499671753866,48.630045738405336,-6.792801971002378,269.59507326088203,49.760046901124866
356,32.01074266386826,-261.2407380815408,-58.186771748056806,-12.512907939217039,49.94079198115181,-6.739536700750374,269.5736865591802,50.709192883499135
357,31.912633395327184,-261.22769071414746,-58.24136745161211,-12.916336562410134,51.05839677694806,-6.674322863787553,269.5615952115097,51.601378291701586
358,31.814608202696657,-261.2226680547508,-58.29753771386621,-13.350562678247108,51.979065918281606,-6.598508673538376,269.55763783784437,52.4181527667365
359,31.718936799121074,-261.2242562698454,-58.35412817419428,-13.793475696219094,52.70305560724812,-6.513517323039356,269.5604610546755,53.14454593416251
360,31.627793128585918,-261.2308732451181,-58.410186642052594,-14.225609728064548,53.23455004088866,-6.420863650806735,269.568579730059,53.76937336049264
361,31.5431807340464,-261.2408319007766,-58.464984182102484,-14.630577250303958,53.58143694145674,-6.32217215723122,269.5804340915218,54.28540859105457
362,31.46686304236913,-261.25240083607855,-58.518024140136156,-14.99540563724821,53.75499229688228,-6.2191925319508705,269.59444225745045,54.689427212852934
363,31.40030229003367,-261.2638609568872,-58.56903922341115,-15.310778675058025,53.769488483583196,-6.113808956407161,269.60904734354244,54.98213249411203
364,31.344610545122197,-261.2735572435281,-58.617977501563836,-15.57118443424625,53.641742043991044,-6.008040022462103,269.6227589149993,55.1679747437438
365,31.30051564946852,-261.2799453460034,-58.66497877329883,-15.774969333271402,53.390618482173316,-5.904027040552348,269.63418912180435,55.25487798605003
366,31.268343905456938,-261.2816330548292,-58.7103432384332,-15.924296460307847,53.036511435338014,-5.8040096287355585,269.6420841981023,55.25388787183532
367,31.248020136463836,-261.277416772143,-58.75449493862773,-16.025004967916868,52.600812581406274,-5.710288586656932,269.64535205836546,55.17875419245257
368,31.23908459870083,-261.26631296907885,-58.79794288094347,-16.086367306633683,52.10538688710679,-5.625177035033004,269.6430865546525,55.045460347790026
369,31.240725295011416,-261.24758438950084,-58.841242886669384,-16.12074262838798,51.57206556859609,-5.550941629243467,269.6345886603939,54.87171109998439
370,31.251823629322658,-261.22076052379225,-58.88496289649701,-16.14312789716983,51.02216672492158,-5.489736373253875,269.619384475935,54.6763892951409
371,31.271011029334208,-261.185651683168,-58.92965385968243,-16.1706128180469,50.47605130333321,-5.443532132605407,269.5972395918464,54.478992170989244
372,31.296734038615988,-261.14235591629927,-58.97582770305013,-16.221750198341606,49.952720101923916,-5.414045256041923,269.56816910165435,54.299058423317476
373,31.327325293882833,-261.09125804486865,-59.023943337772195,-16.31585927315803,49.46945604008562,-5.402668680962587,269.53244245590116,54.155598240485034
374,31.36107764495757,-261.03302020444613,-59.0744011043146,-16.47228530299027,49.04151493004663,-5.410408550246715,269.4905823114399,54.066539757624454
375,31.396318402575226,-260.96856342947734,-59.12754532093357,-16.70964377938252,48.681867378493564,-5.437828831065158,269.4433564843546,54.04820648846602
376,31.431480422163514,-260.89904006628365,-59.18367374255089,-17.04508123404871,48.40099413824414,-5.485005854326487,269.39176213356996,54.114840950043195
377,31.465166686683496,-260.8257972048638,-59.24305201013337,-17.49358640172143,48.206737117890746,-5.551494213668617,269.33700153263516,54.2781896946575
378,31.49620540512091,-260.7503318812461,-59.30593080754416,-18.06738498290441,48.104208219252776,-5.636305122818944,269.28044929107165,54.54716422340155
379,31.523693332864376,-260.6742394222815,-59.37256350257333,-18.775448330174736,48.09575807022101,-5.737898093037532,269.22361157920216,54.92759080704315
380,31.547025834006476,-260.59915685787973,-59.44322240085469,-19.62314107815976,48.18100645186035,-5.854186602406625,269.1680786171917,55.42206020393991
381,31.56591300861813,-260.52670369830247,-59.5182121238919,-20.612025349753218,48.35693574742401,-5.982558278862133,269.1154722276813,56.029885803493
382,31.58038201736448,-260.4584224772689,-59.59787883542649,-21.739830333541075,48.61804804105157,-6.1199100494809455,269.06739049464653,56.74717591854941
383,31.59076653648789,-260.39572125870853,-59.6826141604711,-23.000586697293894,48.95658545293619,-6.262698732656607,269.02535149934505,57.56702269519135
384,31.59768487828552,-260.33981987513505,-59.77285294516098,-24.384916578086425,49.362811726783875,-6.4070075796483,268.99073783256006,58.47980619992799
385,31.602008502417537,-260.2917012300969,-59.86906462396795,-25.8804626849016,49.825350862894396,-6.548629138353189,268.9647433281882,59.47360762808791
386,31.604822442382684,-260.2520688120464,-59.971738710953254,-27.47243479774096,50.331575785002364,-6.683164363149566,268.9483234350352,60.53472048850334
387,31.607378876572263,-260.2213117067647,-60.08136552908281,-29.14424856855534,50.8680368938222,-6.80613708127765,268.9421508830974,61.64824349762185
388,31.611045021262704,-260.19947864723247,-60.198413614881375,-30.878229694198915,51.4209172675554,-6.913121836313603,268.94657861257093,62.79873426068693
389,31.61724679999815,-260.1862626842577,-60.32330534295082,-32.65635592826668,51.97649865938914,-6.999881965580969,268.9616120331873,63.9708991066257
390,31.62741014154728,-260.1809977641953,-60.45639231113502,-34.461009752989085,52.52162072493346,-7.062513751368291,268.98689243927964,65.15029202409771
391,31.64290201063627,-260.182667974765,-60.59793198189011,-36.275715511440225,53.04411533640516,-7.097591745028422,269.02169291671873,66.32399461194798
392,31.66497329762515,-260.18992963970527,-60.74806700801416,-38.08583605117107,53.53319845193428,-7.1023099352857635,269.06492750328744,67.48124918097065
393,31.694705578453156,-260.2011458885608,-60.90680855335268,-39.87920524487792,53.97980373577014,-7.074613345473917,269.1151737865024,68.61401846386819
394,31.732963594315716,-260.21443279496555,-61.07402469538586,-41.64667417442555,54.37684484980358,-7.013314938789417,269.17070853623966,69.71744773754021
395,31.780355077911715,-260.2277156348829,-61.249434612061634,-43.3825505401572,54.71939688125707,-6.918193356386871,269.22955533121785,70.7902085240487
396,31.83719922608626,-260.2387932531088,-61.43260868901326,-45.084913312563074,55.0047914782222,-6.790067863924076,269.2895424278897,71.83470737333259
397,31.90350471097862,-260.2454079802649,-61.62297401756961,-46.755788057004544,55.23262465631081,-6.630847754121846,269.34836839682197,72.85714846982277
398,31.97895771561997,-260.2453181202542,-61.81982420784886,-48.40117287671965,55.4046807013472,-6.443554227335301,269.4036724768364,73.86744486877494
399,32.06292015440241,-260.2363699019742,-62.02233222069468,-50.03091048197778,55.524779944283644,-6.2323134010501064,269.45310639118986,74.87897990861921
400,32.15443804202889,-260.21656608788834,-62.22956502587017,-51.65840825317464,55.59856215757484,-6.002319571097804,269.4944046609672,75.90822743265836
401,32.2522598956489,-260.18412905154855,-62.440499158672516,-53.30021491082164,55.63322050229732,-5.759768201495935,269.525451099499,76.97424634185325
402,32.35486499341705,-260.1375567667911,-62.654036543990344,-54.97546900525525,55.63720285480683,-5.511758461999961,269.5443398387453,78.09807100825338
403,32.46050114784108,-260.07567056529194,-62.8690202498514,-56.70524030929132,55.61989757187778,-5.266165592024141,269.549429682562,79.30202354358502
404,32.567231359198104,-259.9976537042818,-63.08425010229094,-58.51178979894584,55.59131920876857,-5.031484032722708,269.5393907839014,80.60897637843127
405,32.672988352537466,-259.90307980307347,-63.2984983105791,-60.41777684580793,55.561806638221945,-4.816643143060024,269.51324266233974,82.04159391773456
406,32.775635621153754,-259.79193012267626,-63.51052541110408,-62.445443345928,55.54174195787574,-4.6307983405880915,269.47038248416504,83.62158037587834
407,32.87303322679804,-259.6645986579411,-63.719096940460005,-64.61580388271699,55.541294181697836,-4.483101599826511,269.4106024969564,85.36895773392048
408,32.963106275787005,-259.5218843322603,-63.923001269902635,-66.94786907341243,55.5701876705303,-4.382456325681285,269.3340957791737,87.30139382612168
409,33.04391370537701,-259.3649702766511,-64.1210689614376,-69.45792659783062,55.63749214788617,-4.337262628339421,269.241450074151,89.43359667814335
410,33.11371472742198,-259.1953909924921,-64.31219385447925,-72.15890169342521,55.75142930925288,-4.3551599015134626,269.1336301875033,91.77678807254638
411,33.17102996777683,-259.014988829744,-64.49535585519433,-75.0598165813062,55.919190504721115,-4.44277431142642,269.0119499343761,94.33826726219553
412,33.214694118827936,-258.8258615318839,-64.66964504768774,-78.16536649085282,56.14676057716972,-4.605479295490079,268.8780348109874,97.1210747501827
413,33.243896995465036,-258.63030271620886,-64.83428629104425,-81.47562842755069,56.43874443803119,-4.847177363339046,268.7337765702991,100.12376575207348
414,33.258210420656,-258.4307372931762,-64.98866300864192,-84.9859170573458,56.7981951939939,-5.17011131235853,268.5812809619564,103.34030284523921
415,33.25759936130324,-258.2296540880533,-65.13233853091852,-88.68679943839818,57.22644550891698,-5.57471240989162,268.42281018299775,106.76007686684088
416,33.24241695187188,-258.029538227257,-65.26507316440902,-92.56427629479526,57.7229472500876,-6.0594921934221295,268.2607219779909,110.36806386365112
417,33.213384134440346,-257.8328060396676,-65.38683518935888,-96.60013190343565,58.28512796010241,-6.620983319101497,268.0974076528864,114.1451234278398
418,33.171555442588016,-257.641745182164,-65.49780441598061,-100.77244770365493,58.908275704521365,-7.253733368133399,267.93523143937813,118.06843983631443
419,33.11827307435691,-257.45846234827195,-65.59836784773235,-105.05626698878018,59.585465709951634,-7.95035377566717,267.77647362697957,122.1121020235543
420,33.0551119227125,-257.28484027940834,-65.68910816120952,-109.4243901235348,60.30754247409572,-8.701624192752256,267.62327963307416,126.24781178806725
421,32.983818524277304,-257.1225050525002,-65.77078670092433,-113.84827226541685,61.063169570089926,-9.496650703437657,267.477616754935,130.44570226678482
422,32.90624683411057,-256.972803990356,-65.84432323362117,-118.29898916831327,61.83895632045586,-10.323074405459112,267.3412398737847,134.67524133595705
423,32.82429345057958,-256.8367940925169,-65.91077472195876,-122.74823187350587,62.61966617811007,-11.167324936084034,267.21566691351046,138.9061879915269
424,32.73983459344292,-256.7152404990014,-65.97131492094945,-127.16928832037112,63.38850641326466,-12.014911688249347,267.102164328399,143.1095645659369
425,32.65466685676203,-256.60862409081096,-66.02721589072966,-131.53796925837665,64.12749302629724,-12.850743915083568,267.00174228691816,147.25860425448556
426,32.570453497917285,-256.51715696233435,-66.07983176954069,-135.83343727806945,64.81787922104384,-13.65946984910482,266.9151586425774,151.3296320916785
427,32.48867781298074,-256.44080426691755,-66.13058443155694,-140.03890127068627,65.4406308782472,-14.42582444040972,266.8429303502886,155.3028384608282
428,32.41060505566952,-256.37931082515,-66.18095005591255,-144.1421441923097,65.97692884696912,-15.134975331734044,266.78535071717744,159.1629076776455
429,32.33725429113128,-256.3322308034895,-66.23244538727704,-148.13585959257088,66.40867593305572,-15.77285719627236,266.742510729709,162.89947025871564
430,32.269381267248626,-256.29895865715986,-66.28661269358051,-152.01778167939008,66.71898631349103,-16.326485494346343,266.71432261286657,166.5073559337445
431,32.20747271493255,-256.278759418462,-66.34500288522369,-155.790604163312,66.89263654830302,-16.78424193632939,266.70054370796345,169.98663467972963
432,32.15175168478741,-256.2707964031351,-66.40915658154574,-159.46169401570268,66.91646006193814,-17.136125336917196,266.70079873449396,173.34244422277362
433,32.10219291123247,-256.27415458760146,-66.480583004242,-163.04261682606972,66.77967063440478,-17.373963003861565,266.71459862324696,176.58461374954703
434,32.05854684859054,-256.2878582928101,-66.56073666801447,-166.5484999638032,66.4741048901159,-17.491579250863367,266.74135445276806,179.72710427768362
435,32.020370815127755,-256.3108823719345,-66.65099213783394,-169.99726759219314,65.99437882034975,-17.484919018432926,266.78038560514835,182.78729558087488
436,31.987065483200865,-256.3421567847612,-66.75261759525544,-173.4087871441594,65.33795872885739,-17.35212592322621,266.8309220048956,185.78515707111498
437,31.957914743694516,-256.380565145418,-66.86674840477585,-176.80396970844126,64.5051521702091,-17.093575342554193,266.8921010628731,188.7423449963091
438,31.932126825193325,-256.42493845259173,-66.99436217130415,-180.2038667882696,63.49902883954115,-16.71186432969086,266.9629605986221,191.681270346102
439,31.908874568276527,-256.47404570049804,-67.13625695415598,-183.6288033866551,62.32528437853857,-16.211761118124326,267.042429527324,194.62418098144911
440,31.887332949986888,-256.52658336116593,-67.29303435471132,-187.09758293399085,60.992061315611856,-15.600117571711744,267.1293184127688,197.59229808916427
441,31.866712228644392,-256.58116576694573,-67.46508903396516,-190.62679386577366,59.50974084865719,-14.885748139885475,267.2223120160819,200.60504172102466
442,31.846285404058523,-256.63631826909096,-67.65260582145096,-194.23024126519132,57.89071727995137,-14.079278788555943,267.31996576251845,203.67937361151726
443,31.825409131063115,-256.6904748418673,-67.85556505645299,-197.9185203545099,56.14916422998939,-13.192969181825156,267.4207077728418,206.82927833923478
444,31.80353780804805,-256.7419815745011,-68.07375623588449,-201.69874204696524,54.30079886336303,-12.240511257883014,267.5228478153596,210.06539669773647
445,31.780231198109853,-256.78910716958944,-68.30679943237507,-205.57441443417378,52.362647631396364,-11.236807365522202,267.6245941464793,213.39481816927795
446,31.755156491599525,-256.8300611373418,-68.5541733220292,-209.54547807684466,50.352814693304886,-10.197731298455617,267.7240787042274,216.8210328005158
447,31.728086073481332,-256.8630199274606,-68.81524810802526,-213.60848730227605,48.29025238346717,-9.139875812511695,267.8193905919987,220.34403661101888
448,31.69889236437893,-256.8861608094707,-69.08932125726768,-217.75692435009037,46.19453195150824,-8.080290460200937,267.9086172956093,223.9605789027676
449,31.667540962447887,-256.8977028377299,-69.37565392285515,-221.98162813092242,44.08561229325704,-7.036213792577205,267.98989259505714,227.6645344559394
450,31.634082976419332,-256.89595368768,-69.67350624398371,-226.27131465438615,41.983604364321494,-6.02480417281864,268.0614496493435,231.44737863738976
451,31.598647016470025,-256.87936059290297,-69.98217019911245,-230.61316206521784,39.90852921993235,-5.062873647036516,268.1216772742191,235.2987390866169
452,31.561430927808562,-256.84656314169655,-70.3009990488237,-234.99343003531217,37.88006796554275,-4.166629533426293,268.16917702838407,239.20699417353927
453,31.522693095232025,-256.7964453483117,-70.62943254004755,-239.39808136095462,35.91730220340929,-3.3514286151894517,268.20281839673095,243.1598861877317
454,31.48274303235728,-256.728184195299,-70.96701707100445,-243.81337336327172,34.03844380373439,-2.631549042026113,268.2217891406029,247.14511658021516
455,31.44193098276703,-256.6412917403924,-71.31342008091507,-248.22638841824102,32.260553118235386,-2.0199852100994833,268.2256378023133,251.1508918995816
456,31.40063638050215,-256.5356479059169,-71.66843809702074,-252.62547688196668,30.599245235264632,-1.5282708943457486,268.2143054311284,255.16639261316848
457,31.35925520204882,-256.41152126700445,-72.03199817100216,-257.00059182540815,29.068384645106562,-1.1663356078499234,268.18814388761604,259.1821428076954
458,31.318186419530477,-256.26957556602565,-72.4041528492669,-261.3435030104455,27.679769765101668,-0.9423984487539683,268.1479186072078,263.1902664993411
459,31.27781784869373,-256.1108602894068,-72.78506921978966,-265.6478867081973,26.442810154315783,-0.8629025579217204,268.09479440342955,267.1846252446247
460,31.2385116285495,-255.93678443129363,-73.17501277642354,-269.9092972817084,25.364200924532383,-0.9324918780058089,268.030303693943,271.16084094317756
461,31.200589451709018,-255.74907358143705,-73.574326801267,-274.12503489624186,24.447600846256044,-1.154030390377634,267.95629748011345,275.1162161397434
462,31.16431767088278,-255.54971171436586,-73.98340788072142,-278.2939304583174,23.693322927501672,-1.528662577096648,267.87488057797736,279.0495709437087
463,31.12989263605103,-255.34087031172396,-74.40267819693143,-282.4160734106427,23.098048620814914,-2.0559125143591728,267.7883338345318,282.9610203625666
464,31.097426954746876,-255.12482837936182,-74.83255524924286,-286.49251012336276,22.65457890641391,-2.7338176461251598,267.69902699556195,286.85171814965184
465,31.066937612569095,-254.9038873508611,-75.27341949909646,-290.52494036574234,22.351636881746074,-3.5590918714520337,267.6093262872485,290.723593195393
466,31.03833692264275,-254.68028489815072,-75.72558022518253,-294.5154369176619,22.173736939881014,-4.52731120835114,267.521500750711,294.57910222478915
467,31.011427087664156,-254.45611149704325,-76.18923990688832,-298.46620908700726,22.101135231213373,-5.633114136027998,267.43763119441303,298.42101841126095
468,30.985898855786946,-254.23323335016443,-76.6644578530395,-302.37942513535506,22.10987514012552,-6.870407896830018,267.3595254748908,302.2522699020807
469,30.96133448429884,-254.0132249787556,-77.15111448343018,-306.2571019280883,22.171940160570852,-8.232571634999907,267.2886437046736,306.07583574002535
470,30.937215056896168,-253.79731439744438,-77.64887844237651,-310.1010632487653,22.255524788234688,-9.712647303582404,267.22603680879485,309.894699994227
471,30.91293205719497,-253.58634318103313,-78.1571792999362,-313.9129619904376,22.325431660527716,-11.303509779090852,267.1723014245597,313.7118589094987
472,30.88780291326518,-253.3807428751161,-78.67518874949904,-317.6943566117561,22.343599953100995,-12.998008515856526,267.12755334742167,317.53037128980503
473,30.861090024550123,-253.1805281640746,-79.20181282849089,-321.44682929138486,22.269765849351984,-14.78907427052704,267.0914206071696,321.3534396122258
474,30.83202260903052,-252.98530616887982,-79.7356967914005,-325.1721322212269,22.06225073361254,-16.66978591996931,267.06305599173913,325.184508617192
475,30.79982055616904,-252.79430042223436,-80.27524305195169,-328.87234922239605,21.67886678160596,-18.63339421473138,267.0411676842516,329.02736912158304
476,30.763719322704066,-252.6063875846112,-80.81864143369486,-332.5500619470985,21.07792313035256,-20.673301458835276,267.02406585925706,332.88625715876196
477,30.722994787909414,-252.42014479481182,-81.36391014477405,-336.2085128402881,20.21930917476436,-22.782998520607602,267.0097226667093,336.7659417599616
478,30.676986937546527,-252.23390560859272,-81.90894553235655,-339.85176017346623,19.06562524003825,-24.9559631245804,266.9958429745377,340.67179814725284
479,30.62512130349296,-252.04582266715832,-82.45157864066641,-343.4848231850637,17.583325548905854,-27.185525890399717,266.9799434114289,344.60986616428534
480,30.566927269523593,-251.85393541741723,-82.98963667157157,-347.1138171090199,15.743834671214795,-29.464712927578745,266.9594374591259,348.58689587220346
481,30.502052664667527,-251.65624131696705,-83.5210074995218,-350.7460782844501,13.524596880037786,-31.786075809012996,266.93172449310896,352.61038302072546
482,30.430274461766654,-251.45076907982653,-84.04370538516531,-354.390278508166,10.910018063482333,-34.141521231030545,266.8942808220261,356.6885964415565
483,30.351505819198536,-251.2356527253612,-84.55593593123818,-358.0565254571291,7.892261874829092,-36.522153453510896,266.8447509797685,360.8305974102668
484,30.26580011374082,-251.00920542816763,-85.05615812760777,-361.75644268719924,4.471865464387017,-38.9181426523136,266.7810377237055,365.0462479716916
485,30.173352973502293,-250.76999230648565,-85.5431411304441,-365.5032188638158,0.6581453250882676,-41.31863164230647,266.7013892954046,369.3462015534758
486,30.07450353566174,-250.51690120289112,-86.0160133358113,-369.31161214063684,-3.5306295434499697,-43.71169204926335,266.6044824131887,373.7418655134848
487,29.96973612987713,-250.24921012914146,-86.47430136349784,-373.19789281847807,-8.067311868773514,-46.08433888717524,266.4894991155046,378.24532238426076
488,29.859683343405234,-249.966649433095,-86.91795672436388,-377.1797064722457,-12.91620321171853,-48.42260966400538,266.35619501340784,382.86919532946234
489,29.745131059307933,-249.66945610594115,-87.34736828674104,-381.27584125733824,-18.033629510943353,-50.71171078807804,266.2049559741749,387.6264443036571
490,29.627025609355115,-249.35841719076384,-87.76335934271994,-385.5058872814813,-23.36875074375148,-52.93623050023849,266.03683999886385,392.5300827698467
491,29.50648260491041,-249.0348990473387,-88.16716906468115,-389.8897825172488,-28.86458118713089,-55.080414111668055,265.8536011210849,397.59281034901716
492,29.384796330632824,-248.70085924165173,-88.56041916480842,-394.4472482110007,-34.459188765300475,-57.1284941648361,265.65769242515415,402.82656396714435
493,29.26344793840469,-248.35883811433192,-88.94506737318933,-399.1971263466388,-40.0870355412358,-59.0650653758305,265.4522457379868,408.2419982359346
494,29.144110168282978,-248.01192778778682,-89.32334985299516,-404.1566414092311,-45.68041693943675,-60.875491999493505,265.241026313796,413.8479140363762
495,29.028646026856332,-247.6637175179898,-89.69771491096601,-409.3406172391116,-51.17095517169911,-62.5463336926787,265.0283619450859,419.6506614912899
496,28.919098921666954,-247.3182156886376,-90.07075040368208,-414.7606860010797,-56.49110277795937,-64.06577501862142,264.81904725453154,425.6535486862227
497,28.81767229351723,-246.9797501221104,-90.44510716896961,-420.4245294064992,-61.5756150153022,-65.42404334171792,264.61822524637364,431.85628992252305
498,28.726697670284214,-246.65284955069282,-90.82342075469779,-426.3351920990518,-66.36295445002253,-66.61379996276173,264.4312493692026,438.25452678265447
499,28.64859101837478,-246.3421099928446,-91.20823377715752,-432.4905039205318,-70.79659667375859,-67.63048995066204,264.2635303119498,444.8394521863228
500,28.585798160827025,-246.05205049128165,-91.60192138479646,-438.882642324601,-74.82621167883462,-68.47263719700557,264.12037256863573,451.59756251759075
501,28.54073083911587,-245.78696325723067,-92.0066224209071,-445.4978592482953,-78.40870037383101,-69.14207262741077,264.0068064862373,458.5105564135474
502,28.515695635501768,-245.5507636445838,-92.42417894591794,-452.31638892816494,-81.50906957089995,-69.64408511809829,263.92742195787497,465.55539145496334
503,28.51281839084058,-245.34684543824417,-92.85608682180234,-459.312545039872,-84.10113142839914,-69.98748644555138,263.8862100391854,472.7045023144319
504,28.533967044953275,-245.17794672063974,-93.30346000683264,-466.45500767066306,-86.16801501209692,-70.1845835825452,263.8864185706671,479.9261764376141
505,28.580676080498055,-245.0460311847277,-93.76701093520522,-473.7072934087573,-87.70247884066183,-70.2510538736485,263.9304274496999,487.1850765293147
506,28.65407588424883,-244.95218918454634,-94.24704883615281,-481.0283955135322,-88.70701463073809,-70.20572102597987,264.01964848968146,494.44289333114125
507,28.75483024342265,-244.8965620097149,-94.74349714642818,-488.37357587285936,-89.19373455086105,-70.07023234192002,264.15445379817305,501.6591076447941
508,28.88308494123986,-244.87829195927884,-95.25593033579649,-495.6952863500954,-89.18403758364909,-69.86864015489651,264.3341354372754,508.7918374275434
509,29.038430197412577,-244.89550000219177,-95.78362947085964,-502.9441941863405,-88.70805532325883,-69.62689307886778,264.5568980225498,515.7987441212975
510,29.219879626550973,-244.9452922355603,-96.32565463940082,-510.0702842452138,-87.8038837400732,-69.37224563500313,264.8198849500068,522.6379720916241
511,29.425868387147847,-245.02379590140245,-96.8809309953581,-517.0240098328537,-86.51661501544359,-69.13259830118035,265.11923804379074,529.2690959173277
512,29.654273017249764,-245.12622531962836,-97.44834385482919,-523.7574633058474,-84.89719218557093,-68.93578412438167,265.450189558102,535.6540519380749
513,29.902454779587277,-245.24697774391282,-98.02683720306256,-530.2255374349951,-83.00111839405722,-68.80882244988668,265.8071846975574,541.7580324934916
514,30.167326981098437,-245.3797588185202,-98.61550928243582,-536.38704833823,-80.88706098613417,-68.77716432155034,266.1840321396278,547.550323164253
515,30.445444851138145,-245.51773684146346,-99.213698591961,-542.2057906281822,-78.61539723237263,-68.86395679830235,266.5740793071188,553.0050645932325
516,30.733114689674135,-245.65372417400314,-99.82105359849527,-547.6514952015237,-76.24675207260763,-69.08935417781788,266.970408164023,558.1019208469709
517,31.026517670210893,-245.7803827319414,-100.43757986828483,-552.7006598753708,-73.84057827869393,-69.46990276235901,267.36604606675525,562.8266357743681
518,31.321843004818053,-245.89044868887905,-101.06365936509351,-557.3372230555508,-71.45382568027982,-70.01802260192528,267.75418489909333,567.1714577435058
519,31.615424876216085,-245.97696970380514,-101.7000382963014,-561.5530511914119,-69.13973890675217,-70.74160512482716,268.1284006608732,571.1354120725981
520,31.9038773944691,-246.03354651501664,-102.34778185836609,-565.3482124189177,-66.94681333355992,-71.64374038447562,268.4828650727856,574.724400138719
521,32.184221833929,-246.05456974654967,-103.0081962782193,-568.7310119826025,-64.91792788817517,-72.72258251907847,268.81254062237,577.9511052501232
522,32.45400061218002,-246.0354422228481,-103.68272054309828,-571.7177700955313,-63.08966251533199,-73.97135750508947,269.11335074560276,580.83468844192
523,32.711372960993266,-245.97277696888725,-104.37279210688783,-574.3323299530907,-61.491798652793314,-75.378513639272,269.3823174927201,583.4002626389084
524,32.9551880733191,-245.86456141359045,-105.07969259155826,-576.6052925134627,-60.14699381725959,-76.92801228674425,269.61766007347495,585.6781410276371
525,33.18503261349904,-245.71027909034143,-105.8043810378857,-578.5729850999471,-59.07061664776653,-78.59975387861579,269.8188490719642,587.702864682344
526,33.401250590454815,-245.51098124399667,-106.54732368186008,-580.2761825300921,-58.27072640589151,-80.37013144518164,269.98661277503885,589.5120251032181
527,33.60493449188571,-245.26930212925737,-107.30833063337096,-581.7586119402348,-57.74818064067561,-82.21270077378232,270.1228939048294,591.1449088928683
528,33.79788730605188,-244.98941343129033,-108.08641110265977,-583.0652852717388,-57.496856011639544,-84.09895247189641,270.2307570576972,592.6410037859666
529,33.98255584230679,-244.67691525381952,-108.87965957726337,-584.2407159576659,-57.50396959154171,-85.99916689382427,270.31424929934207,594.0384170615628
530,34.16193674243485,-244.3386636204791,-109.68518512305683,-585.3270880069441,-57.750490819153015,-87.88332828521585,270.37821859246776,595.3722682981065
531,34.33945773737674,-243.9825374492006,-110.49909444751097,-586.3624555017904,-58.211637165560205,-89.7220699478712,270.42809694439967,596.673127553498
532,34.518837994485224,-243.61715135494828,-111.31653644172474,-587.3790573052654,-58.857449062405564,-91.48761815030569,270.4696572074754,597.9655761932457
533,34.70393274837248,-243.25152415716371,-112.13181175348198,-588.4018341802653,-59.65344128198239,-93.15469937631737,270.50875415966993,599.2669694567746
534,34.89856866391512,-242.89471627384603,-112.93854591494998,-589.4472323727143,-60.56132843367915,-94.70137379838668,270.5510616419245,600.5864763466601
535,35.106377380289096,-242.55545188333622,-113.7299192048311,-590.522368353071,-61.539821462609765,-96.10975811097015,270.6018179480593,601.9244630169022
536,35.33063535714104,-242.24174351153667,-114.49894133734203,-591.6246139042515,-62.54549019407416,-97.36660362303195,270.66559126560674,603.2722707594786
537,35.574118391822594,-241.960537388759,-115.2387548026483,-592.7416398260166,-63.53368443344318,-98.46370119774018,270.74607581602675,604.6124198416663
538,35.838978718311054,-241.71739741484527,-115.94294784806577,-593.8519314300061,-64.45950324680366,-99.39809312797793,270.84592758876875,605.919247103111
539,36.126651136277694,-241.51624382461802,-116.60585723542728,-594.9257613639166,-65.27879888310042,-100.17208244137548,270.96664639428434,607.1599598245151
540,36.43779220560591,-241.3591597754333,-117.22284222544307,-595.9265772230146,-65.9491981171143,-100.79304088883302,271.1085086141304,608.2960626120199
541,36.772253675348594,-241.2462753702226,-117.7905143719411,-596.8127354500074,-66.43111941710944,-101.27302640895613,271.27055269998846,609.2850900287879
542,37.129088664452325,-241.17573440329986,-118.30691190090809,-597.5394919349943,-66.68875963753206,-101.62822822416626,271.45061721250437,610.0825579477513
543,37.50658715639469,-241.14374464867316,-118.7716118862985,-598.0611458343876,-66.69101984306896,-101.87826282531687,271.64542892818906,610.6440334558963
544,37.90233625424006,-241.14470806688087,-119.18577757268918,-598.3332277854086,-66.4123374107008,-102.04534749385887,271.85073627613644,610.9272181740233
545,38.313300274131024,-241.1714232120341,-119.55214184896545,-598.3146270189851,-65.83339141007978,-102.15338042996657,272.06148128679774,610.893943424005
546,38.73591595206804,-241.2153487800374,-119.8749309748214,-597.9695627882938,-64.9416507331534,-102.2269585168311,272.2720016467267,610.511986877003
547,39.166198531471125,-241.2669150280708,-120.15973500399764,-597.2693220019089,-63.73173960794405,-102.29036539724628,272.4762535652149,609.7566372199956
548,39.59985493051022,-241.31586887474043,-120.41333280318786,-596.1937043699536,-62.205602827369006,-102.36656372265557,272.66804600609,608.611953401013
549,40.03240031602806,-241.35163870785937,-120.64348038049324,-594.7321359938423,-60.37246269284673,-102.47622588019804,272.84127736565034,607.0716853593528
550,40.45927430442147,-241.36370590853787,-120.85867184022796,-592.8844297968951,-58.24857030780339,-102.63683692576717,272.99016675850856,605.1398413297276
551,40.875952909181734,-241.34197142549976,-121.0678827930994,-590.6611850497485,-55.85676419312731,-102.86190165776983,273.10947342483297,602.830901202557
552,41.278052398552305,-241.27710705603886,-121.28030621434132,-588.0838282006345,-53.22585801361887,-103.16028471343674,273.19469899634566,600.1696855739548
553,41.661421469849316,-241.16088218217845,-121.50509030236184,-585.1843039815344,-50.389885571041866,-103.53570834879875,273.24226815136416,597.1908966265191
554,42.02221870781093,-240.98645748403004,-121.75108689354674,-582.0044305414361,-47.387234640598486,-103.98642735726601,273.2496835128947,593.9383510316469
555,42.35697326352659,-240.7486376813281,-122.02661770508858,-578.5949363723098,-44.25970170656865,-104.50509461484326,273.2156506954943,590.4639279185991
556,42.662627960119885,-240.44407585908618,-122.33926435464409,-575.0142009810356,-41.051497676499864,-105.07882420892808,273.1401694709834,586.82625765093
557,42.936565350782566,-240.07142266713598,-122.69568685057361,-571.3267262689412,-37.80823108480192,-105.68945214433468,273.0245873294561,583.0891804458985
558,43.17661840568069,-239.6314147762121,-123.10147404727246,-567.6013718139128,-34.57589116444649,-106.31398735733967,272.8716123338426,579.3200082786207
559,43.3810683741694,-239.12689838661288,-123.56102834399333,-563.9093948022003,-31.39984940191754,-106.92523843872316,272.6852830178481,575.5876292263001
560,43.5486329346092,-238.5627852156474,-124.07748562361452,-560.3223438914157,-28.323895433362637,-107.49259442946497,272.47089403972757,571.9605001912079
561,43.678448035319164,-237.9459402016114,-124.65267012280766,-556.9098650422029,-25.389321662646626,-107.9829317609586,272.23487736799405,568.5045811307557
562,43.77004688592536,-237.28500222219003,-125.28708272603254,-553.7374853049242,-22.634070704280386,-108.36161437533269,271.9846400599146,565.2812705884883
563,43.82333941831189,-236.59014152374422,-125.97992022043934,-550.8644465714152,-20.091960287394112,-108.59355077860573,271.7283613436851,562.3454074378591
564,43.8385952422639,-235.87276029012835,-126.72912237206921,-548.3416643400958,-17.792001007893415,-108.64427058387307,271.4747537469165,559.74340633252
565,43.816432648512404,-235.14514566307832,-127.5314432007881,-546.2098857541076,-15.757822638016183,-108.48098399956866,271.2327952259434,557.5115935815053
566,43.75781542095964,-234.42008718973665,-128.3825424982583,-544.4981161462085,-14.00722403658969,-108.0735903524175,271.0114412788469,555.6748055782549
567,43.66405798337743,-233.71047265345393,-129.27709357264627,-543.2223742912241,-12.551859682365949,-107.39560552667925,270.81932750615596,554.2453036377061
568,43.53683784694923,-233.02887718622452,-130.2089035685739,-542.3848244275891,-11.397072369993587,-106.42498257070875,270.6644738013407,553.2220479141351
569,43.3782128874266,-232.38716042596369,-131.1710434652445,-541.9733191634062,-10.54187684662694,-105.14480425380592,270.55400133114193,552.5903601763246
570,43.190640171076915,-231.79608556563818,-132.15598576975592,-541.9613729096931,-9.979093586050112,-103.54383085146982,270.49387293581486,552.3219918135784
571,42.97699303318998,-231.26497281217164,-133.15574875510526,-542.3085714318114,-9.695626136806075,-101.61689090308528,270.488666776445,552.375600453989
572,42.74057357297885,-230.80139820181716,-134.16204672502406,-542.9614099673187,-9.672870161799153,-99.36510730028692,270.5413920248117,552.697626496092
573,42.48511815341945,-230.41094692013743,-135.16644617108926,-543.8545402020137,-9.887237797579235,-96.79595603696349,270.65335403917413,553.2235497933056
574,42.214793619433316,-230.09702832893058,-136.16052773215793,-544.9123951069023,-10.3107774030542,-93.92316030307805,270.82407477834266,553.8794965626147
575,41.93418189730017,-229.86075800528192,-137.1360535062521,-546.0511501573718,-10.91186611453578,-90.76642804842828,271.05127233150245,554.5841571856704
576,41.64825069595089,-229.70091036894712,-138.08513858648413,-547.1809698994298,-11.655950970304067,-87.351046194239,271.3309015737998,555.250966943761
577,41.362308374589304,-229.61394378664542,-139.0004248404124,-548.2084804261422,-12.506314020026885,-83.70734886298423,271.65725609126105,555.7904940209605
578,41.08194170433541,-229.5940981335562,-139.875253936061,-549.0394012760466,-13.424838118248426,-79.87008006986977,272.02312944098264,556.1129724883322
579,40.812936210041485,-229.6335625643276,-140.70383538423516,-549.5812646405593,-14.372753026032564,-75.87767332046995,272.420031409978,556.1309125550251
580,40.56117996627772,-229.72270888812756,-141.48140406089485,-549.7461455577311,-15.311345555820548,-71.77147175883051,272.83845243416715,555.7617161901572
581,40.33255298112512,-229.85038373568483,-142.20436063738703,-549.453323962511,-16.20262204856449,-67.5949131125257,273.268167124688,554.9302233091145
582,40.132805408424026,-230.00425078237248,-142.87038782922892,-548.6317981308488,-17.00991575053827,-63.39270359239787,273.6985661236602,553.5711121406874
583,39.96742862169607,-230.17117263880596,-143.47853542825064,-547.2225693994108,-17.6984351719267,-59.21000383501082,274.1190042687306,551.6310773183181
584,39.841523644288706,-230.33762061218502,-144.0292677505783,-545.180620333271,-18.235752031044033,-55.09164773474906,274.5191522871408,549.0707109335049
585,39.75967162384164,-230.49009937245214,-144.52446850050458,-542.4765129666041,-18.592228881183257,-51.08141168342712,274.88933902196806,545.8660155073139
586,39.725810996843435,-230.61557266185744,-144.967400050381,-539.0975405567775,-18.74138709943609,-47.22134765154045,275.22087151545077,542.0094838456567
587,39.743125683311966,-230.70187568651784,-145.36261646526947,-535.0483758617004,-18.660215851533017,-43.55118917948995,275.5063210712545,537.5106895110935
588,39.81394805456888,-230.7380998831673,-145.71583191870468,-530.3511719288714,-18.329422257646193,-40.10783517583189,275.739764634494,532.3963438858989
589,39.93967958150602,-230.7149364407295,-146.03374829338702,-525.0450884041209,-17.733622483850656,-36.924912776600564,275.91697245070975,526.7097921873271
590,40.12073116431621,-230.624966256489,-146.3238477498017,-519.1852375380305,-16.86147289932705,-34.032417499433414,276.0355350061194,520.5099414451819
591,40.35648436920118,-230.46288586413488,-146.5941579015504,-512.8410686291577,-15.705739738057177,-31.456426427186695,276.0949247039392,513.8696375966842
592,40.64527424217962,-230.22566118632295,-146.85299885776894,-506.09423599644504,-14.263304965059024,-29.218878059873827,276.0964904708672,506.8735348878478
593,40.984393970323524,-229.91260362244296,-147.10872250785155,-499.03602158703507,-12.535105504884907,-27.33741081383986,276.043386267642,499.61552656715173
594,41.370121307777964,-229.52536594260388,-147.36945471827485,-491.76440669096434,-10.52600296164934,-25.8252511271773,275.94043708790105,492.1958291225933
595,41.797766329581385,-229.06785870363714,-147.64285052525298,-484.3809057767703,-8.244581731617508,-24.691142027247245,275.7939484163763,484.71783089150426
596,42.26173971572572,-228.54609128886662,-147.93587123305792,-476.9872874460374,-5.702875109960233,-23.93930405713418,275.61146730698397,477.28482803910816
597,42.75564036482952,-227.96794492941717,-148.25459090442504,-469.68231191477724,-2.9160215316431866,-23.56942269440344,275.4015051711765,469.99677563384046
598,43.272360643133624,-227.3428878883372,-148.6040381755147,-462.55861117362997,0.09814377151438508,-23.576659591559462,275.1732338356822,462.9471787194156
599,43.80420704104423,-226.6816451346712,-148.98807767422693,-455.6998279308657,3.3195529129028496,-23.95168860998467,274.9361672550608,456.22023871118375
600,44.343033569945305,-225.9958362056473,-149.40933367795353,-449.1781141907321,6.726412859443781,-24.68076108276019,274.69984144610333,449.88835564846937
601,44.88038493875959,-225.2975955985004,-149.86915712355568,-443.05207165884013,10.295740332726915,-25.74580745903564,274.4735048542357,444.0100685483661
602,45.40764637229679,-224.59919004286797,-150.36763568352035,-437.36519565305065,14.003905025298089,-27.124584017265605,274.26583054734914,438.6284958440749
603,45.91619692660664,-223.9126464773766,-150.90364527789976,-432.14486301623543,17.827159746276116,-28.790873445237327,274.08466041833395,433.7703168210635
604,46.397563422341534,-223.24940357558316,-151.47494001315707,-427.4018835169754,21.742134946966434,-30.714746813277802,273.93679000946287,429.44531394984705
605,46.843572595797156,-222.61999825766506,-152.078276094707,-423.130613897234,25.726275379993833,-32.862892132826836,273.82780064494744,425.6464756223373
606,47.24649953597403,-222.03379674411144,-152.7095638504421,-419.30961430698994,29.7581986244258,-35.199011744173234,273.7619432612692,422.35063932476766
607,47.599210756225794,-221.4987773592533,-153.36404081285525,-415.90280844414536,33.81795884739535,-37.6842876242586,273.7420757362101,419.51963687757586
608,47.89530034801798,-221.0213696321927,-154.03645802034438,-412.8610914717849,37.88720422452253,-40.277910658504,273.76965287174903,417.1018862632663
609,48.12921771586324,-220.60635155849567,-154.7212715111643,-410.12431419569504,41.94922250074031,-42.93766721708867,273.8447658573778,415.0343592420775
610,48.296385458265135,-220.25680443149224,-155.41283154643057,-407.62355894115507,45.98887570479246,-45.62057417573259,273.9662263354249,413.24484128172253
611,48.39330591831219,-219.97412252180308,-156.10556330587798,-405.2836132325562,49.992431408366116,-48.28355183458,274.13168910570903,411.65439139074005
612,48.41765462527736,-219.7580730699403,-156.79413427270134,-403.0255428185344,53.94730351482477,-50.884122855252414,274.3378067927325,410.1799052073291
613,48.36835833033538,-219.60690055282308,-157.47360487443515,-400.76926636150824,57.84171986421838,-53.38112414102911,274.5804092337019,408.73668562179085
614,48.24565484495194,-219.51746800208986,-158.1395599918541,-398.4360400960119,61.66433670835748,-55.73541742847351,274.8546998742691,407.24093112376704
615,48.051131625224876,-219.48542732741268,-158.78821970001349,-395.95077122021524,65.40382145551449,-57.91058330681145,275.15546115366783,405.61206224862843
616,47.78774006430922,-219.50541021011358,-159.41652814570242,-393.2440925866867,69.04842541243707,-59.873582573280586,275.4772608407436,403.77481988602756
617,47.45978277204765,-219.57123124710728,-160.02221981612118,-390.25414707297944,72.5855680510345,-61.595368383311666,275.8146516148634,401.66108456343164
618,47.072871755850386,-219.6760956256253,-160.60386256638526,-386.9280464649626,76.00145395802515,-63.05143266509726,276.16235683217064,399.21138183070985
619,46.63385627999744,-219.81280456220696,-161.1608766429776,-383.2229854652364,79.28074320338918,-64.22227086101182,276.51543625122605,396.37605429482136
620,46.15072010744281,-219.97395281235694,-161.69352871371606,-379.1070054338865,82.40629525591972,-65.09375032369384,276.869426380782,393.1160945959511
621,45.63244878973611,-220.15211354903332,-162.2028998653296,-374.55941395103696,85.35900549716507,-65.65736964651103,277.22045104667944,389.40364493362944
622,45.088868771019996,-220.34000679389322,-162.69082688539405,-369.570875047475,88.11775156399362,-65.91039883593638,277.5652988844788,385.2221774010069
623,44.5304613157028,-220.5306484693351,-163.1598169637082,-364.1431912478628,90.65946402802126,-65.85589352772467,277.90146586740696,380.56637560613467
624,43.96815547241936,-220.71747808182047,-163.6129371791929,-358.2888029881881,92.95933222045751,-65.50258032021333,278.2271626638448,375.44174238106694
625,43.41310520904176,-220.894463989759,-164.05368170077284,-352.0300342228622,94.99115125370429,-64.86461449686892,278.5412884523095,369.8639614291774
626,42.87645635541774,-221.05618606177433,-164.48582133505886,-345.3981158514956,96.7278104190846,-63.96121557581184,278.843374599583,363.85804314645253
627,42.369109129133925,-221.197896279003,-164.9132415580712,-338.43202154155364,98.14191625052105,-62.81618993603161,279.13350312518224,357.4572870662596
628,41.90148201562087,-221.31555850594364,-165.33977614297004,-331.1771538373841,99.20653597720553,-61.45735304012611,279.41220599406034,350.7020956627068
629,41.48328281742229,-221.40586918993287,-165.76904381287457,-323.68392194638847,99.89603936805844,-59.91586641715043,279.68035190733787,343.63867650823886
630,41.12329278043301,-221.4662610270281,-166.20429507532415,-316.0062557606246,100.18700966171227,-58.22550656120998,279.93902734242175,336.3176716290801
631,40.829169717285126,-221.49489163417317,-166.64827568174337,-308.200102841459,100.05918789516086,-56.42188426067321,280.18941818373895,328.7927538294471
632,40.607275853266856,-221.49061913085706,-167.10311217699066,-300.32195564439064,99.49640997064003,-54.54163363888517,280.43269757659834,321.1192293211741
633,40.46253564251103,-221.45296644470253,-167.57022392612416,-292.4274547200119,98.48749271426131,-52.62159041168686,280.66992486412767,313.3526839417676
634,40.39832802017744,-221.38207625359794,-168.05026488177148,-284.5701096916098,97.02702443653715,-50.697978628846755,280.9019597705649,305.5477065055291
635,40.4164165310096,-221.27865879736513,-168.54309711076377,-276.8001733988055,95.11601740325243,-48.80562455949946,281.1293953667796,297.7567175310696
636,40.51691966916483,-221.14393524365974,-169.04779672179657,-269.1636960346432,92.76238417852275,-46.977215481757916,281.352512740311,290.02892512623316
637,40.69832276352627,-220.9795796879926,-169.56269151087534,-261.701776221861,89.98120674207925,-45.242619982591506,281.5712596763161,282.4094229253967
638,40.95753186416453,-220.78766297589544,-170.08542855495344,-254.45001587560174,86.79477617705429,-43.62828495887674,281.78525496502283,274.93843853642505
639,41.2899691192595,-220.57060116968867,-170.6130691069302,-247.43817635698903,83.23239107324326,-42.156722801169785,281.99381899016447,267.65073563924074
640,41.68970786613481,-220.33111062228832,-171.14220733890616,-240.69002547225531,79.32991403393,-40.84610021812315,282.1960298954062,260.575168996845
641,42.14964410494357,-220.07217045365368,-171.66910870785378,-234.223358671217,75.12909714605125,-39.70993782135154,282.3908030014017,253.7343891954298
642,42.66169937246611,-219.7969920373243,-172.18986302448639,-228.05017354360402,70.67669820096143,-38.75692695444619,282.5769895346417,247.14469274954115
643,43.21704852134356,-219.50899414135802,-172.7005467301637,-222.17697448610602,66.02341906152287,-37.99086736365546,282.7534893794097,240.81601304863597
644,43.8063647194907,-219.21178179275836,-173.19738851308506,-216.6051841154549,61.22270524334656,-37.410726231806194,282.9193716805628,234.75204817783563
645,44.42007317109878,-218.90912678532084,-173.67693237188888,-211.33163922778485,56.32945115623757,-37.010815864545776,283.0739968364248,228.95052247053528
646,45.048604577227835,-218.6049478733388,-174.13619259826945,-206.34915113106706,51.39865844413235,-36.78108396625633,283.217133626342,223.40357912558144
647,45.682639235890186,-218.30328886735086,-174.57279571126583,-201.64711211584532,46.4840955780474,-36.70750710503917,283.34906564058895,218.09830065773835
648,46.313333133874096,-218.00829306177454,-174.98510485549318,-197.2121308378975,41.6370055063526,-36.77257490337433,283.47068167776644,213.01735174799478
649,46.93251855070617,-217.7241728447029,-175.37232240202036,-193.0286788976617,36.904904982099765,-36.9558500065887,283.58354539491023,208.1397348903107
650,47.5328734188772,-217.4551739840576,-175.73456648745434,-189.07972884223324,32.33051443299898,-37.23458719066215,283.6899402406562,203.44164322983377
651,48.1080556097308,-217.2055347240391,-176.07291721428632,-185.34736072210262,27.950851256659057,-37.584394135850815,283.7928864758621,198.8973878657604
652,48.65280017289008,-216.97944020716534,-176.3894285257345,-181.81331123567875,23.796512613229076,-37.979916325166,283.89612784372184,194.4803698140962
653,49.16297923210382,-216.7809727721342,-176.68710256458817,-178.45943759254533,19.891166539313797,-38.3955290154443,284.00408623285864,190.16406108018612
654,49.63562567831354,-216.61405847834155,-176.96982462960833,-175.26806855930676,16.25126281840667,-38.80602000272545,284.12178356095893,185.92295596202231
655,50.0689229782806,-216.4824099758665,-177.2422585413479,-172.22221840812136,12.88596767566457,-39.18724775987508,284.2547311735235,181.73345351879382
656,50.4621643099874,-216.38946570904167,-177.50970415748708,-169.30564595197495,9.797319077616002,-39.51676041040287,284.40878829714075,177.57463543507967
657,50.81568478029293,-216.33832544321874,-177.77792072781045,-166.50275031895677,6.980592261989376,-39.774361944363,284.58999238978777,173.42891015566101
658,51.13077066172861,-216.33168225123168,-178.05292159716632,-163.79830678549143,4.42485824040957,-39.94261306984091,284.80436550212727,169.2825034198761
659,51.40954955074608,-216.37175144582045,-178.34074743712503,-161.1770585215006,2.1137116979432777,-40.007255103371484,285.0577020641061,165.12578591852537
660,51.65486531847123,-216.46019754868283,-178.647226722659,-158.62319196917048,0.02613938653465517,-39.95754640927667,285.35534492425444,160.95343928449333
661,51.8701417749792,-216.59806117728658,-178.9777334332098,-156.119733450533,-1.8625037989502262,-39.786502280498404,285.7019578714918,156.7644707833083
662,52.05923898098238,-216.7856885124147,-179.33695270108618,-153.64791157636816,-3.579446150262159,-39.491030978459314,286.1013039370584,152.56209409320746
663,52.22630599903138,-217.0226666195228,-179.7286651669896,-151.1865336579117,-5.153413702077053,-39.07196099133342,286.5560392450044,148.3534980881688
664,52.375633646719535,-217.30776831441935,-180.1555600962894,-148.7114245211623,-6.6135432907362235,-38.53395743521444,287.0675320272314,144.1495275419049
665,52.51151067148752,-217.63891053200234,-180.61908598414618,-146.19497313047893,-7.988327848563909,-37.88532886698418,287.63571578541814,139.96429942074644
666,52.638086801156724,-218.01313025732557,-181.11934569157899,-143.60582679341871,-9.304625363739515,-37.13772946117428,288.2589846300038,135.81477643550886
667,52.75924627240162,-218.4265819089421,-181.65504134647136,-140.90876525497973,-10.586760040404892,-36.3057652897931,288.93413761269477,131.72031647284084
668,52.878495528117554,-218.87455951179416,-182.22347234762006,-138.06477862884842,-11.855740749388204,-35.406517103642464,289.6563772955896,127.7022132108221
669,52.998868608994,-219.35154602473307,-182.8205877084401,-135.03136464413262,-13.128617749255012,-34.45899538044856,290.41936573051197,123.78324029558463
670,53.122853226000885,-219.851290868471,-183.4410916079589,-131.7630524683858,-14.417993681076013,-33.4835463063624,291.2153384527272,119.98720915092781
671,53.25233962055566,-220.36691517200288,-184.07859850431433,-128.21215228606223,-15.73169888584989,-32.50122955014374,292.0352742138079,116.33854856120297
672,53.38859328126921,-220.89104267584642,-184.725831789714,-124.32972157075366,-17.07263426745357,-31.533189920074765,292.86911531568177,112.86191216636021
673,53.532251619763095,-221.4159527736365,-185.37485795087375,-120.06673045751566,-18.43877757974714,-30.60004509753215,293.7060308749674,109.5818176537406
674,53.683343937079385,-221.93375103003115,-186.01734656341614,-115.37539989644522,-19.82334171332579,-29.721310578391115,294.5347133202573,106.52231868078287
675,53.84133338919849,-222.43655181805124,-186.64484517472377,-110.2106775500718,-21.215066968063663,-28.91488079577295,295.3436969884778,103.70670750301471
676,54.00517902238794,-222.91666747715684,-187.24905736990604,-104.53180789242695,-22.598624055348193,-28.196582315047042,296.121686911297,101.15724305266097
677,54.17341515854883,-223.36679847481201,-187.82211228127497,-98.30394489483575,-23.955101127320567,-27.579811230769877,296.85788578106474,98.89489600896277
678,54.34424451485973,-223.7802192541421,-188.35681454411736,-91.49974836920556,-25.26254670827638,-27.075262728389955,297.54230754618504,96.9390995370014
679,54.51564069748101,-224.1509546033821,-188.84686508194048,-84.1008990756983,-26.496541089832597,-26.69075645866556,298.1660669429624,95.30749239703555
680,54.68545537434946,-224.4739414651731,-189.28704490029173,-76.09946400235924,-27.630771558312205,-26.43115712774691,298.72163541146324,94.01564083967959
681,54.85152553654369,-224.7451711823999,-189.67335607041363,-67.49904284875183,-28.63759165098979,-26.29838567013905,299.2030551888031,93.07672792443088
682,55.011776617929215,-224.96180729663863,-190.00311614607833,-58.31563054649273,-29.4885511417578,-26.29151261151998,299.6061048322006,92.50120408180173
683,55.164317665814686,-225.12227422205072,-190.27500429528737,-48.57813896767587,-30.154890939167863,-26.406921852583416,299.92841094350626,92.29640067206451
684,55.30752516670314,-225.22631253676525,-190.48905939228067,-38.328533560735295,-30.60800454403866,-26.638530345925876,300.1695024942318,92.46611809534566
685,55.44011253669913,-225.2749974037205,-190.6466321448016,-27.621556803171806,-30.81987411902418,-26.978047232852177,300.3308059516427,93.01021035285484
686,55.56118269963336,-225.27071778693735,-190.75029491808974,-16.524029051707792,-30.76349383862449,-27.415255031563646,300.4155813411765,93.92419734657777
687,55.670261632680074,-225.21711561287893,-190.8037141582803,-5.113737351062253,-30.413295772566677,-27.938295365592236,300.4288013503308,95.19894312565985
688,55.76731133026734,-225.11898576941948,-190.81149125421808,6.52205737759883,-29.74559417810812,-28.53394245301155,300.3769775712536,96.8204413019
689,55.852721330688844,-224.98213968957785,-190.77897846585645,18.288446021341187,-28.739062809001858,-29.187849148586167,300.2679399848528,98.76974673737367
690,55.927278648036435,-224.813236946901,-190.7120772416948,30.08496551206551,-27.3752566689813,-29.88475269170466,300.11057760464325,101.02308469683634
691,55.99211657387216,-224.61959055479096,-190.6170266964292,41.80788537616996,-25.63918460562271,-30.608630324880796,299.9145495345846,103.55215537455955
692,56.048643480572444,-224.40895254132755,-190.50019004872178,53.35260267584322,-23.51993259290714,-31.342798464649114,299.6899764869673,106.32463483408098
693,56.09845363617966,-224.18928702718117,-190.36784642652037,64.61605824976502,-21.011330085311204,-32.069953033630746,299.44712320688984,109.30485575686889
694,56.1432230813329,-223.96853850830865,-190.2259947716231,75.4990885168511,-18.112644091280192,-32.77215283345204,299.196082367092,112.45463593971051
695,56.18459462580669,-223.75440330522844,-190.0801757415454,85.9086328347376,-14.829278120592317,-33.43075234012355,298.94647034730906,115.7342114387614
696,56.22405686301259,-223.5541122166514,-189.93531658527243,95.7597262285827,-11.17344628944643,-34.02629481642832,298.70714493671244,119.10322574739037
697,56.26282272208485,-223.37423228401474,-189.79560301909902,104.97722069414917,-7.1647870183911655,-34.53838087422618,298.4859544065897,122.52172647120351
698,56.301713408668164,-223.22049502946805,-189.6643811988509,113.49719423238707,-2.830876439692581,-34.945531311900055,298.28952645840087,125.95112580388235
699,56.34105354763779,-223.0976573485153,-189.54409197559977,121.26802378683979,1.7924006119043487,-35.225065910508384,298.1231040781569,129.35508920725545
700,56.3805829301166,-223.00939948108973,-189.43623865248824,128.25111458520539,6.660663885887841,-35.35302153799163,297.990433316716,132.70032619903031
701,56.41938958822276,-222.9582625619687,-189.34138829931447,134.4212925064817,11.72107413944539,-35.30413306849706,297.89370571215335,135.95726634175753
702,56.45586810953548,-222.94562659519164,-189.2592053085683,139.76687711989896,16.912625805491974,-35.0518991722206,297.8335558116833,139.10061131430066
703,56.48770620939826,-222.97172836988307,-189.1885145204447,144.2894608763278,22.166720738492575,-34.56875207166635,297.8091122376536,142.10976000293522
704,56.51190154271102,-223.03571757966438,-189.12739022446374,148.0034250852198,27.408037574696575,-33.82634605351826,297.81809897248155,144.96910809351013
705,56.524809484731676,-223.13574809188168,-189.07326676016746,150.93522653941116,32.55569963842607,-32.79597401650129,297.85698195918593,147.66822711496445
706,56.522221171717916,-223.2691001222822,-189.02306612846292,153.1224906741713,37.524732156529964,-31.449114759090698,297.9211547698108,150.2019306928197
707,56.49946961765641,-223.43232821359484,-188.9733378005014,154.6129484726725,42.22778736493365,-29.75810619520361,298.0051560476194,152.57023818388117
708,56.45156040142347,-223.62142933465657,-188.920405708813,155.46325516945467,46.57710415116474,-27.696931406895057,298.1029106311004,154.7782479172863
709,56.37332236729553,-223.8320248747591,-188.86051726010413,155.73772907607253,50.48665720131143,-25.24209575774636,298.2079855860753,156.83593376186167
710,56.259572997956774,-224.0595496772122,-188.7899892120638,155.50704828521685,53.87443930373425,-22.37356480665682,298.31385176879985,158.75787933643613
711,56.1052925415739,-224.29944069347252,-188.70534555480523,154.84694126428394,56.664809968910276,-19.07572521458903,298.4141412180933,160.56296356457236
712,55.90580060530927,-224.54731769115787,-188.60344325165443,153.8369041056467,58.7908347294859,-15.338324883096783,298.50289096406016,162.27400928349257
713,55.65692884154534,-224.79914893891674,-188.48158276171804,152.55897224060095,60.19653337980111,-11.157344696100738,298.574764885007,163.91740332482095
714,55.35518357224621,-225.05139582816852,-188.33760141965442,151.09656780603044,60.838952757762904,-6.535752856865029,298.62524680837566,165.52269232310312
715,54.99789264958927,-225.30113171976038,-188.16994869715236,149.53343600993722,60.68998082859847,-1.4840942862852033,298.6507997477778,167.1221542353554
716,54.58333146432139,-225.54613171339514,-187.97774302057115,147.95267544665825,59.737823770692636,3.9791279043482977,298.64898776613853,168.7503419613175
717,54.11082377025898,-225.78493139071924,-187.76081028625245,146.4358590922641,57.98807616031544,9.827314342235162,298.61855841993116,170.44359307601715
718,53.580813912103054,-226.01685380229296,-187.51970461914922,145.06223538084487,55.464325777188655,16.025900195064665,298.5594850918124,172.23949879535337
719,52.99490812425101,-226.2420050917875,-187.25571220553684,143.90799298686505,52.20824864805774,22.532768495935027,298.4729697515066,174.1763260080056
720,52.3558837375416,-226.4612402763032,-186.97083904670086,143.04556927962176,48.27916640046768,29.298946706906083,298.3614077639841,176.29238852728741
721,51.66766627487384,-226.6761018405654,-186.66778319252325,142.54298133408773,43.75305640258216,36.26957383573874,298.2283172538574,178.62536753877322
722,50.93527546831435,-226.88873485124535,-186.3498915469281,142.46316020058822,38.72102486445026,43.38511214855986,298.0782362223493,181.21158627962166
723,50.164742133737604,-227.10178316532074,-186.02110086440354,142.8632739065333,33.287273138456726,50.58276498779955,297.91659112912555,184.0852497822854
724,49.362998460740975,-227.31827198932348,-185.68586226694137,143.79403209305644,27.566606810372118,57.79805107816303,297.7495410887419,187.27766637270295
725,48.53774453063832,-227.54148254299318,-185.34904875466978,145.298974676169,21.681554854858152,64.96647668399936,297.58380233080703,190.81647287956747
726,47.69729393163161,-227.77482481833255,-185.015845940251,147.41375759788153,15.759181425451278,72.02524070171539,297.4264582175211,194.72488966610493
727,46.85040149590101,-228.0217143161957,-184.6916274620293,150.1654594993376,9.927685285237525,78.91490469214449,297.2847607949098,199.02103422909371
728,46.00607654106882,-228.28545815798196,-184.38181781409037,153.57194281458544,4.312891203803232,85.58096024272595,297.16593031375726,203.7173229623778
729,45.17338543738715,-228.5691551439654,-184.09174637304812,157.6413102963461,-0.9652562133044349,91.97523000331948,297.07695921188923,208.81998976697102
730,44.36124777109626,-228.8756132497051,-183.8264971735797,162.37150257580683,-5.796082788414804,98.05704619509152,297.0244267390382,214.32874778568754
731,43.57823092729072,-229.20728681434184,-183.59075950763815,167.75008350793968,-10.081345780376115,103.79416097978638,297.0143298308875,220.23661696269565
732,42.832348619897274,-229.56623430108797,-183.38868460805918,173.7542574013016,-13.738055732825936,109.16335603682111,297.05193496987596,226.52993550549303
733,42.13086955192359,-229.95409597872916,-183.22375347003327,180.35115559550414,-16.700856392924557,114.1507329810383,297.14165452503744,233.18856761570356
734,41.48014266749704,-230.3720892780603,-183.09866032213318,187.49841932984464,-18.923871186004902,118.751680769332,297.2869495027565,240.1863130346858
735,40.88544517981888,-230.82101815827352,-183.01521541698156,195.14509189577612,-20.38194038712712,122.9705300594423,297.49025894785007,247.4915161790426
736,40.350858768226836,-231.30129180372003,-182.97426964895004,203.23281651321608,-21.071193192049392,126.81991692020993,297.7529545846837,255.0678642889488
737,39.879178158003604,-231.81294749174788,-182.97566212065718,211.69731839169216,-21.008923037816565,130.3198889099851,298.0753178668753,262.8753555959335
738,39.471854868627446,-232.35567259133978,-183.01819043204327,220.47013146013282,-20.232762059565857,133.4967951041728,298.4565356453883,270.87141060071696
739,39.1289774428959,-232.9288213717762,-183.0996023697204,229.48051385456222,-18.799180297793463,136.38200806650568,298.8947103304293,279.01209265448114
740,38.84928818322931,-233.53142353526601,-183.2166068718969,238.65748309924746,-16.781365400092948,139.0105299696174,299.38688070224623,287.2533986143057
741,38.6302354405762,-234.16218297118033,-183.36490164638462,247.93189353414414,-14.266566829875066,141.41953706685254,299.92905031079664,295.55257682570226
742,38.46805976221586,-234.8194669651539,-183.53921471688446,257.23847588746213,-11.35301267180736,143.64691659088223,300.51622158613225,303.86942841607635
743,38.357911531998745,-235.50128780916904,-183.73335748255784,266.51776195982234,-8.146525172865903,145.72984810393646,301.14243521086553,312.1675489597395
744,38.29399693317459,-236.20528027150777,-183.9402874066993,275.717825254231,-4.756972213422184,147.7034776159536,301.80081570407907,320.4154707917306
745,38.26974802363644,-236.9286794786623,-184.1521789919955,284.7957796469516,-1.2946958490733442,149.59972775187452,302.483625220477,328.58767119716504
746,38.27801155937615,-237.6683042543318,-184.36050227384123,293.7189913959905,2.1329436322240904,151.4462812301347,303.1823281663414,336.6654178873863
747,38.311250238765666,-238.42055082379713,-184.55610882423792,302.46597367388034,5.424778232568728,153.26576812379815,303.88766948248366,344.63743004497314
748,38.36174949956525,-239.1814011347984,-184.72932617737743,311.0269464109305,8.488680915846379,155.07517984580588,304.5897694387669,352.5003402221178
749,38.421822917631026,-239.9464490321259,-184.8700623710785,319.40405682976376,11.24395365925845,156.88552451410303,305.27823747731264,360.2589490540235
750,38.48400958666199,-240.71094630106415,-184.96792263238493,327.6112671498582,13.623177489617861,158.70172938454849,305.94230695123576,367.926270806693
751,38.541257576456275,-241.46986925714168,-185.01234000367776,335.6739252330883,15.573471778901723,160.52278656958435,306.5709915312673,375.5233730451577
752,38.58708862089621,-242.21800515917215,-184.99272096770557,343.62804132133925,17.05713729843728,162.34212856107507,307.15326266687595,383.07901809236733
753,38.615740431260555,-242.9500563417635,-184.89860603964905,351.5192996192056,18.051686077424918,164.14821053258498,307.67824593153773,390.6291174527711
754,38.62228423490849,-243.66075875570846,-184.71984408429498,359.4018375673604,18.54928937875217,165.92526753216447,308.1354325844365,398.2160130517506
755,38.602716067096615,-244.34501074285495,-184.44677803194253,367.3368283682983,18.555701413774656,167.6542071584555,308.51490149588824,405.887600965234
756,38.55402089273713,-244.99800742799837,-184.07043881872042,375.3909035073486,18.088739257220702,169.31359288493812,308.8075458215812,413.6963141198176
757,38.474208949802644,-245.6153760032337,-183.5827436654536,383.63445142254153,17.17641756387402,170.8806704723986,309.00529836725315,421.6979801058307
758,38.36232408772061,-246.19330727527398,-182.97669400379812,392.1398262163625,15.854849207013599,172.33239014177835,309.1013492563722,429.95056895927144
759,38.21842451740625,-246.72867905912972,-182.2465673280119,400.97949700236114,14.166029222847934,173.64638019023204,309.0903491786921,438.51284416483026
760,38.04353723744301,-247.2191673026575,-181.38809617238448,410.2241651652499,12.155619086805476,174.80183298987782,308.9685912293655,447.44292912911925
761,37.83958825124984,-247.6633412349242,-180.3986266813429,419.94087461198757,9.870841325248934,175.78027107498977,308.73416436656237,456.79680191658787
762,37.609311355878326,-248.0607393940817,-179.27724914003252,430.1911398923361,7.358581235164191,176.56616854473148,308.3870720031194,466.6267338231655
763,37.35613863034412,-248.41192408203037,-178.0248933800936,441.0291191838304,4.663774072108509,177.1474106680473,307.92931017450644,476.97969254135774
764,37.08407572522284,-248.7185124888442,-176.6443829880344,452.4998631945251,1.8281339449344216,177.51558197466488,307.36490087861716,487.8957377694728
765,36.79756480905107,-248.9831833482125,-175.1404435146366,464.63767620355713,-1.1107434411490158,177.66608008584578,306.6998773937671,499.4064452342679
766,36.50133793555582,-249.2096585609241,-173.51966131357716,477.4646307502283,-4.1198962696233465,177.5980590929625,305.94221966398067,511.5334031828884
767,36.200263920466284,-249.40265977811794,-171.7903912775005,490.98928189587775,-7.171144989014162,177.31421247307193,305.10173927255056,524.2868323816436
768,35.899192371778746,-249.56784040362933,-169.9626137098277,505.20562953717354,-10.240907853840536,176.82041129068716,304.1899150973774,537.6643854828075
769,35.6027988651479,-249.71169382946618,-168.04774291204538,520.0923771105498,-13.309733755929331,176.1252186749805,303.21968240162397,551.6501834195847
770,35.315435201471324,-249.84143905081206,-166.05839264581468,535.6125317037629,-16.361614244118392,175.23930622581872,302.2051798306105,566.2141447873316
771,35.04098839781812,-249.96488520283214,-164.00810614430745,551.7133840143636,-19.38314426069259,174.17480204242838,301.1614604764576,581.3116589164081
772,34.7827517988563,-250.09027700462886,-161.91106042069455,568.3268970500736,-22.362604701395867,172.94460330711505,300.10417464037175,596.883644783906
773,34.543311567020304,-250.22612354515024,-159.78175595782076,585.3705204918468,-25.28903963768177,171.5616884253824,299.04923298747724,612.857026477788
