time,ax,ay,az,gx,gy,gz,accmagnitude,gccmagnitude
0,4.160662449942706,-254.2747026044651,-54.64120206811905,-6.795054576777014,55.59571844311424,-5.289706459286103,260.09728503691525,54.02247616719405
1,4.310695256175963,-254.31695764146866,-55.08212090794709,-10.609600487802794,56.55224838072997,-5.486879049746214,260.23917728247994,56.506358469108434
2,4.455012946675825,-254.35697075862484,-55.52303212208701,-14.509222336177553,57.478233747381424,-5.675744754964268,260.3789875695178,59.04576206151764
3,4.5921012340402,-254.3922713881469,-55.96229684456508,-18.49143689378344,58.36318983541494,-5.8542514236555645,260.5139593730218,61.64097426520516
4,4.720532815648545,-254.42026944726612,-56.39847762544815,-22.55311367266182,59.196348753335805,-6.020699199317293,260.6412669034539,64.29160224689196
5,4.838998978997835,-254.43830511011805,-56.8303494268922,-26.690256597503602,59.966795555087806,-6.17382651179655,260.75806563186717,66.9963688616142
6,4.94633920645012,-254.44370088185318,-57.256902708709944,-30.89780862017266,60.663631073306306,-6.312889042589278,260.8615431506818,69.75294551309953
7,5.04156827106753,-254.4338152757459,-57.67733906629515,-35.16949055016056,61.276160606249455,-6.437729594542819,260.94896980147587,72.55783240365994
8,5.123900416889084,-254.40609762069045,-58.09105986029771,-39.49768453911368,61.79410576941746,-6.548837310412425,261.0177487253942,75.40629436734324
9,5.192770289196151,-254.35814365898,-58.49764794740621,-43.87337137907601,62.20783491725966,-6.64739512340908,261.0654650554097,78.29235788299417
10,5.247850322730897,-254.28775164330392,-58.89684237252203,-48.28612892816079,62.50860577948594,-6.735314670945866,261.08993396673253,81.2088719868681
11,5.289064282053809,-254.19297859993978,-59.288505900718185,-52.72419641080812,62.68881248675691,-6.815258152112972,261.0892472648239,84.14763270356421
12,5.3165965786137885,-254.07219629146954,-59.67258545209657,-57.17460598325765,62.742227999657196,-6.890646763430237,261.06181809796067,87.09956725887133
13,5.330896881887867,-253.92414621516866,-60.049065766835724,-61.62337892051456,62.66423206966998,-6.965655429731451,261.0064232436601,90.05497073634615
14,5.33267943608258,-253.74799276059866,-60.417917066825524,-66.0557793630642,62.452014286143275,-7.045193568713527,260.9222423063758,93.00378415387696
15,5.322916446018479,-253.54337346332895,-60.779038195738295,-70.45661416293133,62.104741605701484,-7.134871576738573,260.80889314288225,95.93589946707142
16,5.3028249536839285,-253.3104451510866,-61.13219761100118,-74.81056341342462,61.62368010712149,-7.240952617532879,260.66646289883244,98.84147407957624
17,5.27384683075637,-253.04992469998626,-61.476975434807684,-79.10252313188757,61.012261593595625,-7.370289193227545,260.4955341568126,101.71123535551403
18,5.237621885903493,-252.76312311371197,-61.81271041158172,-83.31793968196443,60.27608710477324,-7.530243907671693,260.29720584295177,104.53675471298625
19,5.1959545786927155,-252.4519716725074,-62.138456073563916,-87.44311527621578,59.42286148549599,-7.728593776337657,260.07310868217724,107.31067152557843
20,5.150775306962362,-252.1190388922552,-62.452950638924115,-91.46546563572853,58.462255980480066,-7.973417400802616,259.82541504079757,110.02684964738896
21,5.104097549100286,-251.7675369395612,-62.75460498169468,-95.37371474303606,57.40569938114701,-8.27296435865568,259.5568428587762,112.68045407642153
22,5.057972247988948,-251.40131599246524,-63.04151227913483,-99.15801738797228,56.26610234131331,-8.635506310399794,259.2706530440777,115.26794184067603
23,5.014440787648571,-251.024844896289,-63.311481644622646,-102.8100071647943,55.057523682246945,-9.069169645150412,258.9706392530975,117.78696885433578
24,4.975487852941284,-250.6431764674001,-63.56209623398481,-106.32277458052818,53.79479129929402,-9.581750054776508,258.6611085523968,120.23622202851494
25,4.942995443874579,-250.26189609678443,-63.79079410921118,-109.69078570268107,52.493093227942396,-10.180510294553173,258.3468512300248,122.61519203747059
26,4.918699321194691,-249.88705295122796,-63.99496789112388,-112.90975538834829,51.167556320712784,-10.871963520471892,258.03309812394576,124.92390594300353
27,4.904149127786489,-249.52507390287582,-64.1720773592012,-115.97649034243275,49.832830865133595,-11.661645879988034,257.7254642007245,127.16264015396109
28,4.900673312108865,-249.18266108655922,-64.31976798325118,-118.88871639209688,48.50269952974437,-12.553883354856538,257.4298775802563,129.33163331920528
29,4.9093497745856975,-248.8666746131723,-64.43598803725969,-121.64490206726491,47.18972842736491,-13.55155910750541,257.1524937257241,131.430816345219
30,4.930982925814175,-248.58400258791934,-64.51909742733613,-124.24408751104258,45.90497681101232,-14.65588866680164,256.89959523081114,133.4595733865226
31,4.96608766695225,-248.34142124247717,-64.56796251293989,-126.68572451534804,44.6577797699812,-15.86621110669931,256.6774785555492,135.41654386529666
32,5.0148806883446895,-248.14544850744088,-64.58203275805255,-128.96953057505436,43.455615082041746,-17.179804835452448,256.4923299510598,137.2994717427901
33,5.077279351327789,-248.0021945539728,-64.5613966780635,-131.09535759763207,42.30406109065995,-18.591736674419185,256.350093417828,139.10510471972893
34,5.152908194791885,-247.91721279715588,-64.50681593144363,-133.06307444785224,41.206847305256275,-20.094752583370532,256.2563338505294,140.82914303284574
35,5.241112796344835,-247.8953547957117,-64.41973739357502,-134.87246188722085,40.16599370611093,-21.67921775634308,256.21609870533445,142.46623520540973
36,5.340980370165979,-247.94063252296021,-64.30228367686188,-136.52311862124614,39.18202894452236,-23.333112912780155,256.2337817083014,144.01001656652898
37,5.451366172861247,-248.0560915804354,-64.1572229246654,-138.0143778948578,38.25427237628258,-25.04209239797293,256.31299229322616,145.45318551008182
38,5.570924604145468,-248.24369896400816,-63.98791888987033,-139.34523505421976,37.381160824391486,-26.789608090862615,256.4564345271932,146.78761213601862
39,5.69814388669285,-248.50424889477375,-63.79826239317224,-140.51428737234838,36.560598687070254,-28.557101053050253,256.66579919862113,148.0044738870016
40,5.831383364096635,-248.83729002286387,-63.5925853660162,-141.51968796865197,35.79030975263918,-30.32426041075956,256.94167256568363,149.0944129046528
41,5.968912672419329,-249.24107706401048,-63.375559000906335,-142.35911577381927,35.06817074453418,-32.069346320279976,257.2834650975525,150.04771002695105
42,6.10895220551046,-249.71254958288304,-63.15207819453737,-143.02976331939905,34.39250974746878,-33.76957125175373,257.6893633679131,150.85447065850735
43,6.24971433804643,-250.2473400727219,-62.92713539753583,-143.52834389632736,33.76235661422525,-35.40153140728434,258.1563079400177,151.50481822795854
44,6.389444776153022,-250.8398126781267,-62.70568790184985,-143.8511195582093,33.17763657428881,-36.94167794001232,258.6799995243366,151.98909164250833
45,6.526463174851419,-251.48313294683985,-62.492523271684654,-143.99395165464037,32.639302047664536,-38.36681580064186,259.25493491143004,152.29804403223147
46,6.659201844996165,-252.169367950591,-62.29212800428255,-143.95237598826012,32.14940078140008,-39.65461657114001,259.8744732439955,152.4230410107971
47,6.786241107920541,-252.8896150524115,-62.10856460660259,-143.72170505541686,31.711080749128023,-40.78413061159462,260.53093216772265,152.3562574411106
48,6.906339789749049,-253.6341566118077,-61.94536205796001,-143.29715988361949,31.328533890006735,-41.736283282912154,261.2157123786727,152.0908720914694
49,7.018459521470527,-254.39263708819357,-61.80542405860362,-142.67403356060998,31.006882020184374,-42.49433995964294,261.91944813554386,151.62125956311195
50,7.1217818518806,-255.1542583627316,-61.690958600151596,-141.84788765588178,30.75200951639072,-43.044325059083626,262.6321804774092,150.94317858527575
51,7.215717560953958,-255.90798865878625,-61.60343139153445,-140.81478146062324,30.570348938223646,-43.37538139823617,263.34354922508464,150.05395538586453
52,7.299907879131611,-256.64278018380503,-61.5435446571671,-139.57153242620345,30.468627663600966,-43.48005784008962,264.04299935678137,148.9526604762289
53,7.374217558667927,-257.3477904957842,-61.51124180900486,-138.1160044288517,30.453585607854926,-43.354515393241016,264.71999699656146,147.6402768425875
54,7.438719968681757,-258.0126025717625,-61.505737456889634,-136.44741853330137,30.5316757509241,-42.998644636213115,265.3642499909395,146.11985710542615
55,7.493674672940809,-258.62743860786895,-61.52557114788053,-134.56667874700213,30.708760135459745,-42.41609042070005,265.96592785729587,144.39666653910515
56,7.539498325817531,-259.18336272032343,-61.56868211378669,-132.47670284835849,30.989814086783788,-41.61418306920003,266.51587577720625,142.47830783284053
57,7.576730117339667,-259.6724679305014,-61.63250123654157,-130.18274580207978,31.378650737543794,-40.60377851158293,267.0058172806802,140.3748221180369
58,7.6059933045823565,-260.0880430313128,-61.71405561253786,-127.69270071597575,31.877676711819923,-39.39901282400984,267.4285402944986,138.0987592098389
59,7.627954563800128,-260.4247150960523,-61.81008070632127,-125.01736007285871,32.4876882603765,-38.0169793173025,267.7780613041394,135.66520849832332
60,7.6432830229248205,-260.67856358229676,-61.91713515933549,-122.17061854927256,33.20771547427172,-36.47733858536737,268.04976258661213,133.09178090429614
61,7.65261085965573,-260.84720236102885,-62.031713716181834,-119.16959859461551,34.03492061589332,-34.801873699231514,268.2404979307894,130.398532238343
62,7.656497251361746,-260.92982667016753,-62.15035429534548,-116.03468146439475,34.9645551464851,-33.01400398332983,268.34866303919864,127.60781951416443
63,7.655397340768194,-260.9272229636128,-62.269735912530194,-112.78942973682376,35.98997863412896,-31.13827155957365,268.3742279037118,124.74408441254555
64,7.649637835570522,-260.84174084997306,-62.3867649540898,-109.46039235006191,37.10274126982182,-29.19981513383136,268.31872981774035,121.83356203128758
65,7.639400787015238,-260.67722765747794,-62.498648139708166,-106.07678941839278,38.292730054615255,-27.223845342532208,268.1852271853088,118.9039178374561
66,7.624716771949771,-260.4389274136101,-62.60295131756636,-102.6700808475876,39.548376746585866,-25.235135373412252,267.97821568238845,115.98382071075395
67,7.6054680764463285,-260.13334703432315,-62.697643938090664,-99.27342936977034,40.85692339760183,-23.2575395421206,267.70350945112096,113.10246448122346
68,7.58140173853187,-259.7680933016569,-62.78112963416815,-95.92107446868101,42.204738909309334,-21.31355108087421,267.36809088630844,110.2890539138799
69,7.552151700354569,-259.3516849038757,-62.8522638041403,-92.64763835873477,43.57767764502002,-19.423908640931128,266.9799333439061,107.57227335393516
70,7.517268937801314,-258.89334449926184,-62.91035944870226,-89.48738849857787,44.961468836801735,-17.607259053180446,266.5478018432271,104.97975708641472
71,7.476258198967122,-258.40277641092837,-62.95518268096655,-86.47348301066107,46.3421234114256,-15.879881884432297,266.08103749694925,102.53757993382476
72,7.428619753993782,-257.889936084591,-62.98693919670023,-83.63722587442801,47.70634308103366,-14.255479363526455,265.5893318766962,100.26978487978032
73,7.373894229233873,-257.36479777485044,-63.006252600392884,-81.00735788838351,49.0419153025779,-12.745033342374686,265.08249774660794,98.19796175300273
74,7.311708144102786,-256.83712698519207,-63.014135090267104,-78.60940718545287,50.33807718403137,-11.356729109742641,264.5702425521945,96.34088744655966
75,7.241817303528983,-256.31626388456874,-63.01195083869385,-76.46511966473382,51.585831753198995,-10.095944152957186,264.06195070722515,94.71423409781929
76,7.1641449591127095,-255.8109232939756,-63.00137246554653,-74.59198535236028,52.778201336084265,-8.965298453591858,263.56648011793044,93.33034756633997
77,7.078811854017252,-255.3290160700144,-62.98433119233008,-73.00287182359155,53.910405216238935,-7.964761674560989,263.091977690014,92.19809493257004
78,6.986155955692198,-254.87749597358027,-62.96296154889002,-71.70577085867404,54.979952275585205,-7.091811692752983,262.6457179346157,91.32277705244024
79,6.8867406991712095,-254.4622354084487,-62.93954185638201,-70.70365990974028,55.98664379613325,-6.3416383622685375,262.2339682224862,90.70610071976422
80,6.781351620379896,-254.0879326749128,-62.91643203147005,-69.99447608232168,56.932486678488125,-5.707386082488743,261.8618836283209,90.34620473324759
81,6.670982082668844,-253.75805255803758,-62.89601044822216,-69.5711973794951,57.8215224931045,-5.180428550288162,261.5334335773764,90.23773489425419
82,6.556809310902951,-253.47480114750726,-62.8806116427421,-69.42202393768316,58.65958245202233,-4.750668889163378,261.25136163682015,90.37196425371272
83,6.44016224991589,-253.23913480621022,-62.87246660200284,-69.53065078552801,59.4539820947262,-4.406858147922002,261.0171788390566,90.7369563413001
84,6.322482969070885,-253.05080225863452,-62.87364730579713,-69.87662309158408,60.213171940779844,-4.136924966674268,260.83118999148616,91.31777030341952
85,6.205283460055383,-252.90841791957766,-62.886017132353864,-70.43576470177378,60.94636146373562,-3.9283090357150545,260.6925515884963,92.09670759830519
86,6.090099697232364,-252.80956377764826,-62.9111886818273,-71.18067073570197,61.66313348061328,-3.768290852049586,260.59935914416536,93.05359993919339
87,5.978444764484195,-252.75091627193157,-62.95049044422631,-72.08125481037976,62.37306455981483,-3.6443102635658087,260.548760879482,94.16613738747157
88,5.87176277200126,-252.72839364395446,-63.00494345649406,-73.10534079361962,63.085364667435115,-3.544266453154262,260.53709369786986,95.41023385289931
89,5.771385246629047,-252.73731839543592,-63.075248631173125,-74.21928767224246,63.80854648408587,-3.4567924226359725,260.5600364421049,96.76042490861235
90,5.678491633814427,-252.77258895910055,-63.16178484466788,-75.38863422900795,64.55013207196512,-3.371497716439702,260.61277477260666,98.19029009786361
91,5.594075397964503,-252.82885453465929,-63.26461722376051,-76.57874816113447,65.31640213292847,-3.2791740343856097,260.69017169650317,99.67288926863264
92,5.518916939014342,-252.90068714880456,-63.383514429808166,-77.75546264258725,66.11219112961004,-3.1719594564600246,260.78693772103765,101.18120046726389
93,5.4535642407152825,-252.98274532265427,-63.51797318016137,-78.88568267246303,66.94073012483449,-3.0434582158720067,260.89779477915806,102.68854601083457
94,5.398321867593353,-253.06992430978153,-63.66724785694174,-79.93794416726605,67.8035382849164,-2.88881429251525,261.01762853811897,104.16899374142416
95,5.353248576584642,-253.15748867723647,-63.83038290490958,-80.88291069505938,68.70036338396265,-2.7047384946032538,261.14162444463005,105.5977220491748
96,5.31816338055123,-253.24118392893516,-64.00624580089845,-81.69379586154918,69.62917106351449,-2.489490089059884,261.26538377076616,106.95133974226498
97,5.292659468622847,-253.31732482173092,-64.19355861371729,-82.34670335729318,70.58618184321253,-2.2428154224879933,261.38501689658426,108.2081548925693
98,5.276125041606277,-253.38285897083918,-64.39092653057737,-82.82088122203311,71.56595389017572,-1.9658473431691514,261.49721206396373,109.34839009145284
99,5.267769879364309,-253.43540527978539,-64.59686221944403,-83.09889159956975,72.5615084253896,-1.6609705319017385,261.5992788624392,110.35434485297901
100,5.2666562982748175,-253.4732676545812,-64.809805484702,-83.16670167744302,73.56449355307213,-1.331658971947009,261.6891667447868,111.21050892353549
101,5.271733062385795,-253.49542536765503,-65.02813824149949,-83.01370508777363,74.5653814280102,-0.9822926191931879,261.76545988459975,111.90363267337355
102,5.281870762179888,-253.5015022984778,-65.25019530916636,-82.63268532961395,75.55369312126456,-0.6179607542874215,261.8273506371229,112.42276226271686
103,5.295897168397417,-253.49171802293708,-65.47427192800787,-82.01973355497013,76.51824527008117,-0.24425945132640547,261.87459468442944,112.75924773556324
104,5.312631162801042,-253.46682426781996,-65.69862928398508,-81.17413242999551,77.44741248321388,0.1329098392152081,261.9074515679733,112.90673162340731
105,5.330914096726619,-253.42803053411942,-65.92149966262858,-80.09821605125566,78.32939940743654,0.5075342678254112,261.9266146773271,112.86112423292364
106,5.3496377768750625,-253.37692270263238,-66.14109303668765,-78.79721351413676,79.15251631006522,0.8736706176579433,261.9331348244684,112.6205698778018
107,5.367768599487432,-253.31537819826187,-66.3556068074097,-77.2790811858979,79.9054520402653,1.2256088512083623,261.92834128663327,112.18540629422618
108,5.3843675786034515,-253.24548089057708,-66.56324006540599,-75.55432642958287,80.57753836222443,1.5580147212076847,261.9137637278307,111.55811768761252
109,5.398606164480107,-253.1694384321048,-66.76221321886314,-73.63582370607926,81.1589999177822,1.8660491109922466,261.89105781824867,110.74328047877665
110,5.409777872820495,-253.0895042135399,-66.95079324837232,-71.53862279417639,81.64118444092892,2.1454628336903556,261.86193671659964,109.747499924688
111,5.417305869443981,-253.007905551906,-67.12732422021959,-69.27974837425064,82.01676830554325,2.3926666266244596,261.8281098766229,108.57933542029242
112,5.420746787784427,-252.92677916945084,-67.29026206299255,-66.87799032789312,82.27993307096101,2.604777033066781,261.79122994018235,107.24921240354415
113,5.419791173955873,-252.8481145450854,-67.43821206853704,-64.35368451907942,82.42650937525246,2.7796397018050487,261.75284788127703,105.76931917139119
114,5.4142609718124435,-252.77370537652362,-67.5699671686294,-61.72848415267105,82.45408521934586,2.91583223688647,261.71437612775424,104.15348724344358
115,5.404104320899511,-252.70510919532722,-67.68454475888159,-59.025121805764726,82.36207632883172,3.012649024861008,261.67705912352415,102.41705398393647
116,5.389387734720869,-252.6436151169083,-67.78121973028664,-56.267161969061966,82.15175689260903,3.0700704987002663,261.6419507041883,100.5767060788746
117,5.370285632093576,-252.59021972934917,-67.85955153063404,-53.47874374729831,81.82624955171957,3.0887191845913278,261.60989772149424,98.65030236957139
118,5.347067291686291,-252.5456111609149,-67.91940354234603,-50.68431359508589,81.39047399624648,3.0698047314430656,261.58152951058327,96.65667464158763
119,5.320081536377797,-252.51016137747033,-67.96095369076832,-47.90834877478111,80.85105396150323,3.015060018123185,261.5572529739594,94.6154053945435
120,5.289739728476012,-252.48392672744023,-67.98469577933473,-45.17507354676283,80.21618297179768,2.926670405377733,261.5372531818516,92.54658247590827
121,5.256497861801944,-252.46665666464565,-67.99143148613986,-42.508171675916564,79.49545002571995,2.807198213888675,261.52149942327276,90.47053173528138
122,5.2208385971510065,-252.45781046308556,-67.98225331012905,-39.930500304281566,78.6996275920857,2.6595044617344494,261.50975662305285,88.40753038856167
123,5.183254019810909,-252.45658162449737,-67.95851912385882,-37.463811254807474,77.84042575524178,2.4866696939326016,261.5016020245341,86.37750538318626
124,5.144229772067225,-252.4619295438942,-67.9218193846042,-35.128486143602075,76.93021804040663,2.2919154169047085,261.4964470056167,84.39972256995092
125,5.1042310604849135,-252.4726177677857,-67.87393839153539,-32.943291189638174,75.98174620169732,2.078527363040379,261.4935637563375,82.49247375932667
126,5.0636908537080645,-252.4872578337104,-67.81681115956296,-30.92515640469685,75.00781283049344,1.8497816862945984,261.4921162546536,80.67276962669959
127,5.023000413511325,-252.5043573123987,-67.7524775038835,-29.08898216659701,74.02097184854574,1.6088752177445749,261.49119462405207,78.95604687771815
128,4.982502215480613,-252.52237042866074,-67.68303488931335,-27.4474743651807,73.03322769597243,1.3588609689675288,261.48985170726263,77.35589813998173
129,4.94248531784889,-252.5397495723435,-67.61059157734582,-26.011007692842917,72.05575425568802,1.1025900679158402,261.4871406227176,75.88383277302442
130,4.903183241043104,-252.55499606020973,-67.53722155932137,-24.787515458858028,71.09864420897024,0.8426612686672263,261.48215210758445,74.54907619430976
131,4.864774366138529,-252.56670857678566,-67.46492260907075,-23.782403668854556,70.17069853798289,0.5813791683010564,261.47405047533226,73.3584143875634
132,4.827384765276438,-252.57362776701493,-67.39557853951703,-22.998487112541753,69.27926429108778,0.3207222858730498,261.4621069922657,72.3160890191639
133,4.791093276344817,-252.574675492355,-67.33092648710067,-22.435945884130025,68.43012660526229,0.06232210797715415,261.4457294443365,71.42374713278338
134,4.755938543791431,-252.56898732644004,-67.2725297744277,-22.092302059175722,67.62745848571501,-0.1925459894110232,261.42448665436757,70.68044782495913
135,4.721927671432498,-252.55593696524448,-67.22175654127898,-21.962417980058675,66.87382912143363,-0.44295934656699815,261.39812671057416,70.08272667649327
136,4.6890460608687645,-252.53515137480323,-67.17976390955035,-22.038519464188496,66.17026871121769,-0.6883319478878124,261.3665876997829,69.62471703552757
137,4.6572679240343495,-252.50651578447838,-67.14748713521261,-22.310248879315065,65.5163850711136,-0.928385947809553,261.32999993199405,69.29832553947695
138,4.626566876256454,-252.47016814038412,-67.12563315077944,-22.76475407815313,64.91052492144055,-1.1631116458175725,261.28867911776706,69.09345760321784
139,4.5969260057514365,-252.4264832953925,-67.11467807251502,-23.386819434951416,64.34997092737072,-1.3927173575064968,261.2431106428427,68.99828711666302
140,4.5683469395945755,-252.37604787299856,-67.11486848728843,-24.159044644208283,63.83116440838277,-1.6175711513465258,261.19392578743305,68.99956339223553
141,4.540857643248698,-252.31962733885365,-67.1262265497551,-25.06207558467746,63.34994312353835,-1.8381368457103968,261.1418713740426,69.08294750043548
142,4.514518869314146,-252.2581273502695,-67.14855906489343,-26.074889474298732,62.90178359456184,-2.054907008872891,261.08777488661406,69.23336947582565
143,4.489429225493544,-252.19255186101725,-67.18147073358952,-27.175133788855447,62.48203797738897,-2.2683359647347916,261.0325074982253,69.4353974166535
144,4.465728787933755,-252.12396064015667,-67.2243815384267,-28.33951508622775,62.08615650202421,-2.4787759277128427,260.9769475667378,69.67360922964602
145,4.443601112869922,-252.05342882310242,-67.27654787282523,-29.544230179462296,61.709887923802576,-2.6864193260811953,260.9219470208396,69.93295768949012
146,4.423273431730197,-251.98201089082,-67.3370866240944,-30.765428367029195,61.34945218490236,-2.8912501151890138,260.86830274229584,70.19911959176598
147,4.405014757966063,-251.9107110145173,-67.40500121783828,-31.97969004447697,61.00168148003445,-3.093006459675696,260.8167345547263,70.45882009965551
148,4.389131606447069,-251.84046092275307,-67.47920871535217,-33.16450435576813,60.66412803073476,-3.291156622401239,260.76787069741545,70.70012394003287
149,4.375961070376037,-251.77210541985366,-67.55856732216154,-34.29872693147833,60.335138893812776,-3.484889276704303,260.7222407401215,70.91268588017404
150,4.3658611539166925,-251.70639469039335,-67.6419038922694,-35.36299851043838,60.013899796017924,-3.673118788382714,260.6802749968648,71.08795388543791
151,4.3591985173431524,-251.6439818586093,-67.72804103727982,-36.34010655521166,59.700451061280454,-3.854505310437461,260.6423088655339,71.21931951981554
152,4.35633408837868,-251.58542402930019,-67.81582329355541,-37.21527484736933,59.39567905412553,-4.027488789762443,260.60859025165723,71.30221152433268
153,4.3576072229564,-251.53118513930897,-67.90414161656511,-37.97637022459346,59.10128623777693,-4.190335203836026,260.5792882899317,71.33413009252781
154,4.363319190568719,-251.48163928623364,-67.9919553728941,-38.614020621849896,58.81974212175227,-4.34119259989467,260.5545018779855,71.3146211068433
155,4.373716732988572,-251.43707365606141,-68.07831099773225,-39.12164384641275,58.55421632486596,-4.478153934172603,260.53426697350426,71.24519142079629
156,4.388976388806246,-251.39769062628355,-68.16235657397857,-39.49539155894043,58.30849399924677,-4.5993234123090145,260.51856206535444,71.12916809965103
157,4.409190273754857,-251.3636090417467,-68.24335179613513,-39.734017378455235,58.08687320409663,-4.702883025177891,260.5073116877797,70.97150632602536
158,4.4343540594872835,-251.33486507326396,-68.32067312867876,-39.8386816040407,57.89404365746268,-4.7871562013761455,260.50038833521785,70.7785523986225
159,4.464357896546379,-251.31141344402707,-68.39381443008322,-39.81270754809893,57.734946707896306,-4.85066590329763,260.49761361759573,70.55776985160593
160,4.4989808714905735,-251.29313005296368,-68.46238378791432,-39.66130577942187,57.61461735671049,-4.892185031057643,260.4987598540122,70.31743815010233
161,4.537889311408601,-251.27981703825088,-68.52609762633253,-39.391282652603444,57.53801066487825,-4.9107775931441155,260.50355339592454,70.06633463663799
162,4.580639014404979,-251.2712110400145,-68.58477319291748,-39.01074843402837,57.509816751556414,-4.905829657247047,260.5116807054752,69.8134113595354
163,4.62668138300826,-251.26699488395096,-68.63832035560814,-38.52883827831127,57.53427058994355,-4.8770695463375,260.52279764777643,69.5674789992422
164,4.675373400913655,-251.26681231840422,-68.68673335186212,-37.95545645500116,57.614964626149494,-4.824577110740673,260.53654181027343,69.33691017118771
165,4.725991320358691,-251.27028499169393,-68.7300827724092,-37.30105082388075,57.75467357427362,-4.748782257012225,260.5525471363326,69.12937377894397
166,4.777747801617718,-251.27703055836236,-68.7685076463189,-36.57642094095973,57.95520129147649,-4.650453304726124,260.5704597614101,68.95161072548302
167,4.829812106123459,-251.28668056547187,-68.80220708476641,-35.79255970506271,58.21725921573534,-4.530676178713486,260.58995360061783,68.80925915698352
168,4.88133280580377,-251.29889663726408,-68.83143063250175,-34.96052541858176,58.54038442206235,-4.3908258782637715,260.61074402338767,68.70673462008662
169,4.931462322353868,-251.3133835853643,-68.85646637498719,-34.091338721912834,58.92290305732612,-4.232532001934577,260.63259802460993,68.64716726950715
170,4.979382453879376,-251.32989844606303,-68.87762605297563,-33.19589717224657,59.36194199629223,-4.057640253726585,260.65533971152183,68.63239483462577
171,5.024329904613359,-251.34825496129065,-68.89522696732385,-32.28489932840857,59.85348832757305,-3.8681717802268416,260.67885055831044,68.66300673389989
172,5.065620734400086,-251.3683235246052,-68.90957121812743,-31.368770095449584,60.39249308797507,-3.666281928756185,260.7030645652162,68.73843183260007
173,5.102672618300382,-251.3900270024549,-68.92092362993934,-30.45757976910951,60.9730128912598,-3.454219656981619,260.72795904591084,68.85706018230128
174,5.135023867067013,-251.41333305008902,-68.92949037900739,-29.56095068606734,61.58838103375355,-3.234288443182109,260.7535421438867,69.01638789362619
175,5.16234828831962,-251.4382435538566,-68.9354007339,-28.68794760315303,62.231398466197355,-3.008809172378675,260.7798382959535,69.21317419612957
176,5.184465143807168,-251.46478171725045,-68.93869437523406,-27.84695079205959,62.89453474593122,-2.78008509236722,260.8068727678898,69.44360071472373
177,5.2013436890934575,-251.4929772399607,-68.93931640985731,-27.04551409217137,63.570129654654444,-2.5503685506093103,260.834656235631,69.70342485270953
178,5.213102077418226,-251.52285018753219,-68.93712144968042,-26.290213416123496,64.2505873920928,-2.3218289115506936,260.8631703420384,69.98812156566872
179,5.220000725584492,-251.55439447655417,-68.93188715570234,-25.58649400041969,64.928556875893,-2.096520922322149,260.8923552303908,70.29301032062118
180,5.222430515117512,-251.58756213668448,-68.92333669014526,-24.938526651256364,65.59709343078856,-1.876352911880631,260.9221000398362,70.61336628886347
181,5.220896429719299,-251.62224944659351,-68.91116870163665,-24.349084103590545,66.24979879384816,-1.6630545807632386,260.95223707584967,70.94451654156134
182,5.215997434159659,-251.65828575496528,-68.89509279113352,-23.819448282703885,66.88093770857796,-1.4581447167799475,260.9825399179065,71.28192304426517
183,5.208403570207824,-251.6954254969355,-68.8748678621112,-23.349357782274407,67.48553035746755,-1.2628998357783252,261.0127252953054,71.62125457881575
184,5.1988313483340605,-251.73334368997297,-68.85034040462601,-22.937002492782263,68.05942056277547,-1.0783253264105008,261.0424582510597,71.95844953303605
185,5.188018536438024,-251.77163502595496,-68.82147968593547,-22.579069403385414,68.59932022332413,-0.9051310445283861,261.0713599309866,72.28977106240467
186,5.176699397390769,-251.80981656167992,-68.78840706161596,-22.27084050080088,69.10283096905118,-0.7437134092012221,261.0990172856894,72.61185566022426
187,5.1655813081801885,-251.847333944974,-68.75141715853698,-22.006340622688963,69.5684444985498,-0.5941458933777882,261.1249940486501,72.92175572853398
188,5.155323499775012,-251.88357105640296,-68.71098946616476,-21.778530263654513,69.99552341720637,-0.4561794063753206,261.1488425022336,73.21697626345745
189,5.146518422792286,-251.9178628560751,-68.66778980696422,-21.579535872689807,70.38426454486033,-0.32925351681014275,261.1701157004148,73.4955052298316
190,5.139676061124838,-251.94951111295583,-68.62266203266444,-21.400908318321697,70.73564664173597,-0.2125188634777122,261.18837994000256,73.75583667642539
191,5.1352114412039995,-251.9778025843338,-68.57661088264045,-21.233899086548295,71.05136438992156,-0.10487050993184746,261.2032273232405,73.9969852553749
192,5.1334355549485124,-252.0020290648702,-68.5307771727503,-21.06974347840917,71.33375032767293,-0.004991444230183442,261.2142881738814,74.2184906393782
193,5.134549824662595,-252.02150849903137,-68.48640647637785,-20.899940516265495,71.58568629122863,0.08859508818794794,261.2212428480066,74.42041038579993
194,5.138644080130907,-252.03560614726698,-68.4448124164853,-20.71652026344032,71.81050576978565,0.17746621729238912,261.2238322694489,74.60330002133473
195,5.145697867596381,-252.04375478999654,-68.40733577332261,-20.51229056649629,72.01188841933717,0.2632352840799031,261.22186653141046,74.76817943384975
196,5.155584820685812,-252.04547320323402,-68.3753008608064,-20.281056594659265,72.19374785200682,0.3474854309819266,261.2152312077254,74.91648501638095
197,5.168079798036001,-252.04038254572038,-68.34997094363604,-20.017807790261333,72.36011382630566,0.43170363226523334,261.2038914893106,75.0500074496449
198,5.182868508210112,-252.02822067924004,-68.33250473373644,-19.718867888823247,72.5150102485298,0.5172178074820322,261.1878946972419,75.17081564113924
199,5.199559349831953,-252.0088546210634,-68.32391610814182,-19.38200454560042,72.66233105336454,0.6051394814707476,261.1673719201964,75.28116826194788
200,5.217697148518046,-251.98229123339112,-68.32503903914915,-19.006495876856622,72.805717037598,0.6963141674903432,261.1425393916422,75.38341553076373
201,5.236778397697933,-251.9486860066039,-68.33649931898786,-18.593151957775103,72.94843788475261,0.7912812705795775,261.11369987409523,75.47989522525307
202,5.256267582012889,-251.90834957323224,-68.35869413081943,-18.144290102744318,73.09328462833203,0.890244856366505,261.08124396627534,75.57282807715102
203,5.27561418928225,-251.86175145497404,-68.39178003600294,-17.66366367214214,73.24247834080572,0.9930561614361556,261.045650993479,75.66421844710614
204,5.294270015600408,-251.80952043664112,-68.43566958425144,-17.15634523875746,73.39760069408243,1.099208300118436,261.00748894113644,75.75576628453321
205,5.311706269926033,-251.75244085765442,-68.49003648855754,-16.628566187945005,73.55955115366783,1.207843250823378,260.967412719537,75.84879579076222
206,5.327429832084851,-251.6914440749857,-68.55432909689024,-16.087516178368777,73.72853403362646,1.3177708269926063,260.92615995308853,75.94420499465319
207,5.340997930703579,-251.62759446892693,-68.62779165563529,-15.541107307354492,73.90407668697591,1.427498941734516,260.88454353617806,76.0424388281074
208,5.352030573791569,-251.56206968833928,-68.70949249738494,-14.997709233642983,74.08507806100778,1.5352741249007693,260.8434404176547,76.14348654455739
209,5.360220267272016,-251.49613529768737,-68.7983578132522,-14.465862825339272,74.26988501162045,1.6391309974472812,260.8037764054045,76.2469027234337
210,5.365338793331106,-251.43111441605438,-68.89320925740522,-13.953981082662285,74.4563922986832,1.736949235310292,260.7665070913776,76.35184978716578
211,5.367240996117863,-251.36835322204828,-68.9928034536997,-13.470047156173823,74.6421610308065,1.8265164344521447,260.7325952269155,76.45715889238885
212,5.365865624771049,-251.30918339605122,-69.09587153690897,-13.021320255024149,74.82454935246037,1.9055952224785455,260.7029850862872,76.56140512046908
213,5.361233380248921,-251.25488276665953,-69.2011570172104,-12.61406103702521,75.0008483310979,1.9719929503614786,260.67857458759687,76.6629920413248
214,5.353442468882068,-251.2066356078185,-69.30745041720799,-12.253288503175849,75.16841546819563,2.0236322925850456,260.6601861596578,76.76024009143413
215,5.342662159589485,-251.16549414028896,-69.41361936914542,-11.942580246685454,75.32479827796072,2.058621017932937,260.64853751464165,76.85147301305096
216,5.329124983241297,-251.1323428111184,-69.51863322776492,-11.68392694252533,75.46784109200748,2.0753190568441955,260.64421360605155,76.93509698070656
217,5.313118242569114,-251.1078668824171,-69.62158162406071,-11.477650111963422,75.5957695862473,2.072400852804272,260.64764110793334,77.00966794434952
218,5.294975423424372,-251.09252678758506,-69.72168659317502,-11.322389433067961,75.70724926853413,2.048910911921758,260.65906673163875,77.07394396456776
219,5.275067942134452,-251.08653961394134,-69.81830797797636,-11.2151622495898,75.80141607350669,2.004310461375415,260.67854061313216,77.12692070053994
220,5.2537974581900775,-251.0898688924929,-69.91094195961811,-11.151493669041995,75.8778791025267,1.9385131799692588,260.7059058665907,77.16784957932711
221,5.23158875097838,-251.10222355922843,-69.9992130073367,-11.12561115275403,75.93669730793972,1.851908101936945,260.7407952091446,77.1962394297496
222,5.208882932510653,-251.1230665165627,-70.08286022730474,-11.130693343071453,75.97833347420851,1.7453680701431007,260.78263532328424,77.21184344364094
223,5.186130609026407,-251.1516327311888,-70.1617197181446,-11.159159583053682,76.00359010593854,1.6202425494430899,260.8306593164441,77.21463416982536
224,5.163784619466399,-251.18695628311926,-70.23570481139426,-11.202984528750989,76.01353269495765,1.4783341923876314,260.8839272104357,77.20476979525247
225,5.142292218488119,-251.22790524887256,-70.30478594771655,-11.254021571172068,76.00940623097404,1.3218592456141403,260.9413538556029,77.18255520087723
226,5.1220869036622725,-251.27322282566513,-70.36897159817498,-11.304319396766193,75.99255071099783,1.1533926431396904,261.00174312552923,77.1484012018984
227,5.103580284084697,-251.32157275237597,-70.42829127611223,-11.346417661302013,75.96432080804702,0.9757993856014907,261.0638268190595,77.10278500516094
228,5.087154377120048,-251.37158685301253,-70.48278135827853,-11.373610064604874,75.9260138677985,0.7921545039901995,261.1263063865594,77.04621428220435
229,5.073154623211064,-251.4219123702451,-70.53247411626323,-11.380165748451116,75.87880918290381,0.605654528507092,261.1878953553343,76.97919647197045
230,5.0618838576330925,-251.47125668192703,-70.57739002338188,-11.361502658664133,75.82372025804898,0.41952388957422754,261.2473601630459,76.90221414829631
231,5.053597494196981,-251.51842712046735,-70.61753304243439,-11.314309153073658,75.76156069512703,0.23691999850418938,261.303557131368,76.81570664282435
232,5.048500192199309,-251.56236408119713,-70.65288827098603,-11.23661257080107,75.69292348484709,0.06084082442127767,261.3554636711329,76.7200576598021
233,5.046744218422986,-251.60216638042357,-70.68342116614433,-11.127795619941153,75.61817292157704,-0.10596140751847442,261.4022025117326,76.61558837137324
234,5.048429578220903,-251.63710861117855,-70.7090777068244,-10.988563252055918,75.53744807702662,-0.2610571561430794,261.44305853839074,76.50255545196978
235,5.053605846159122,-251.66665071581144,-70.72978521967039,-10.820864167040924,75.45067674883121,-0.402404376436244,261.4774883702471,76.38115367546412
236,5.0622755335753435,-251.69044012863014,-70.74545399823953,-10.627772262465507,75.35759894021766,-0.5283989454658166,261.50512304762236,76.25152296744258
237,5.074398765877065,-251.70830686839375,-70.75598012514614,-10.413334270175506,75.25779908339045,-0.6379090056844914,261.52576429560656,76.11376005052988
238,5.089898937477545,-251.72025201089338,-70.76125002129393,-10.182390560518972,75.15074627370508,-0.7302921895743056,261.53937490665385,75.96793493894468
239,5.108668828851436,-251.72643002895728,-70.7611471734171,-9.940376646903529,75.03584166726577,-0.8053954503780376,261.54606381476253,75.81411246738747
240,5.130576462916803,-251.72712561342516,-70.75556117687607,-9.693113242320095,74.91247189901073,-0.8635380286379755,261.546066465979,75.6523787607812
241,5.155469870638783,-251.72272592153996,-70.74439873877253,-9.446592714102572,74.78006695424946,-0.9054788482183367,261.5397212773356,75.4828721048888
242,5.183180018398135,-251.713689724784,-70.72759588829632,-9.206769385939424,74.6381604709517,-0.9323702822678727,261.5274433798103,75.30581715126321
243,5.213521415165332,-251.70051543072702,-70.70513055665481,-8.97936038489078,74.48645004677307,-0.9457007066439187,261.5096973103245,75.12156087302036
244,5.246290288155297,-251.68371017299222,-70.67703481699074,-8.769662772050994,74.32485481822481,-0.9472285454015235,261.48697057278514,74.93060824392373
245,5.281260591674797,-251.6637619546799,-70.64340619520327,-8.582391710778081,74.15356739646816,-0.9389106277845413,261.45974982735964,74.73365529060055
246,5.318178419193239,-251.64111626590795,-70.60441757177074,-8.42154356231173,73.97309721936855,-0.9228276493069512,261.42850095886934,74.53161701633861
247,5.35675560756487,-251.6161579479095,-70.56032537118487,-8.290287112417323,73.78430255603064,-0.9011093924849155,261.3936537039602,74.32564776399366
248,5.39666346714716,-251.5891986092151,-70.51147584023921,-8.190885550260143,73.58840880228368,-0.875862175877659,261.35559110033097,74.11715189340232
249,5.4375276120399105,-251.56046966802865,-70.4583090525241,-8.124651151334653,73.38701130906477,-0.8491008243848067,261.3146437568329,73.90778315546206
250,5.478924745631685,-251.53012098079535,-70.40135994908506,-8.091933669258205,73.18206173922684,-0.8226872656425844,261.2710887429605,73.69943178421049
251,5.520381989249522,-251.4982249077216,-70.34125558208382,-8.092142166032275,72.97583782112531,-0.7982775721517538,261.22515274634327,73.49419906475225
252,5.561379021152395,-251.46478553887513,-70.27870798758569,-8.123798529269369,72.77089733398572,-0.7772788760445285,261.17701908724655,73.29435995201825
253,5.60135301766258,-251.42975268371222,-70.21450267384337,-8.184619449466634,72.57001813709462,-0.7608171720959298,261.1268382076681,73.1023151440537
254,5.639706197450067,-251.393040098373,-70.14948327231015,-8.27162236035007,72.37612689926382,-0.7497166535275106,261.07474127447193,72.92053472438838
255,5.675815655037109,-251.3545472129185,-70.08453318895481,-8.381249915727755,72.19221977500095,-0.7444908598220433,261.02085640442925,72.75149597054866
256,5.709045102696134,-251.31418330191386,-70.02055504203733,-8.509507047749699,72.02127856907417,-0.7453455167166888,260.9653266934354,72.59761814825768
257,5.7387580920353,-251.27189273769213,-69.95844845656686,-8.65210451471895,71.86618596100824,-0.752192545081413,260.90832887805203,72.46119710663223
258,5.764332243602988,-251.22767981084453,-69.89908667926562,-8.804603030164014,71.72964318907002,-0.7646743586020676,260.8500912783472,72.3443423190291
259,5.785173980061445,-251.18163158439597,-69.84329260902318,-8.962552450014101,71.61409328933092,-0.7821972565025366,260.79090968828876,72.24891873580151
260,5.800733244325156,-251.13393727323,-69.79181515908024,-9.121620955284907,71.52165259462814,-0.8039724050349562,260.7311599901012,72.17649546015382
261,5.810517691322832,-251.08490268577873,-69.74530726597261,-9.277709645349468,71.4540527162519,-0.8290625953430092,260.67130642010335,72.12830281659538
262,5.814105881103117,-251.03495839624628,-69.70430713245717,-9.427048518561206,71.41259461574589,-0.8564327282882057,260.6119046150744,72.1051988236099
263,5.8111590883489725,-250.984660599581,-69.66922418128208,-9.566270612222226,71.39811560575636,-0.8850018409494274,260.5535988166015,72.10764541365464
264,5.801431457412814,-250.93468402979053,-69.6403306521166,-9.692462209589698,71.41096926390638,-0.9136944267210688,260.49711288312676,72.13569404947256
265,5.7847782836267045,-250.88580680863313,-69.61775903625407,-9.803188463463488,71.4510174475515,-0.9414888012011167,260.4432350338467,72.18897980624206
266,5.761162113701232,-250.83888755113506,-69.60150493610146,-9.896495347893127,71.51763301369405,-0.9674603741641183,260.3927965275781,72.26672264580311
267,5.7306561991656855,-250.79483548981858,-69.59143465255414,-9.97089027185914,71.6097115894771,-0.9908179431426299,260.346644819857,72.36773456750407
268,5.693444803826381,-250.75457485410814,-69.58729679815859,-10.025304780395313,71.72569086360724,-1.0109315205407663,260.30561219695323,72.49043160430725
269,5.649820085337327,-250.71900523111668,-69.58873725641011,-10.05904351309537,71.86357635887516,-1.0273507146401017,260.2704813691497,72.63285022104994
270,5.60017566676027,-250.6889599732974,-69.5953166639401,-10.071724104073473,72.02097336718151,-1.0398132603407704,260.2419498038218,72.79266845223023
271,5.544997399121524,-250.6651647869679,-69.60652937316041,-10.063213104166614,72.19512544651393,-1.0482438741718882,260.22059459449946,72.9672328755908
272,5.48485205310837,-250.6481985336163,-69.62182279292665,-10.033563298755116,72.38296035128558,-1.0527441470049483,260.20683955118716,73.15359301734951
273,5.420374731298009,-250.63845819719714,-69.64061617401039,-9.98295788178922,72.58114435128996,-1.0535746883341146,260.2009261654792,73.34854487221844
274,5.3522556904046805,-250.63612996921316,-69.66231814081456,-9.911666655244208,72.7861455845068,-1.051131190538765,260.20289016085786,73.5486848707803
275,5.281227075727162,-250.6411683724506,-69.68634238363917,-9.820018597818606,72.99430647900104,-1.0459164283789184,260.2125453324832,73.75047491594299
276,5.208049890382004,-250.6532851679491,-69.7121209065502,-9.708393745110106,73.20192451426666,-1.0385103759210685,260.2294761992039,73.9503181829839
277,5.133501407560751,-250.67194944489583,-69.73911422333967,-9.577235447813532,73.40533982182697,-1.0295405938203008,260.2530406523963,74.14464439810065
278,5.058363165701924,-250.69639978870157,-69.76681805575112,-9.42708192674258,73.60102744186399,-1.0196548450256109,260.28238334028987,74.33000239328227
279,4.983409618105978,-250.72566870581426,-69.79476644116814,-9.258613866831725,73.78569145888139,-1.0094975596224154,260.3164599289404,74.50315690357847
280,4.909397432115813,-250.75861853314507,-69.8225316064513,-9.072712832672371,73.95635769388107,-0.9996912993180826,260.354071585292,74.66118580460126
281,4.83705536818619,-250.79398704514685,-69.84972135554247,-8.870523763379765,74.11046113773223,-0.9908238108067139,260.39390815519823,74.80157330672641
282,4.76707464857886,-250.83044017603711,-69.8759749018938,-8.653513886627113,74.2459239349754,-0.9834406906332533,260.43459779271154,74.92229411345383
283,4.700099797555416,-250.86662886297194,-69.90095800404335,-8.42352021098396,74.36121953508729,-0.9780431932776501,260.4747603827052,75.02188330448507
284,4.636720089149514,-250.90124693823273,-69.92435805008411,-8.182778390849348,74.4554186552643,-0.9750903386181168,260.51306196999496,75.09948677760417
285,4.577461853574423,-250.93308708453927,-69.9458795464714,-7.93392719321585,74.52821298350588,-0.9750042261450474,260.54826744178973,75.15488752475184
286,4.522781873988231,-250.96109201548256,-69.96524031806176,-7.679984888497863,74.5799131721331,-0.9781773422125217,260.5792888118011,75.18850389027915
287,4.473062018292052,-250.98439832057585,-69.9821685375196,-7.42429638734428,74.61141872702507,-0.9849806407247786,260.6052266685486,75.20135732007252
288,4.428605210823953,-251.0023709148269,-69.99640049299128,-7.170452546538658,74.62415892542543,-0.9957712566153878,260.62540277501597,75.19500894442236
289,4.389632839987242,-251.0146266908052,-70.00767891817559,-6.922185481252955,74.6200058264598,-1.0108988344771281,260.63938241828833,75.17146652834984
290,4.35628362411866,-251.02104662489998,-70.01575182007693,-6.683245724665016,74.60116261197791,-1.0307095999145035,260.64698576822093,75.13306567914367
291,4.328613820364308,-251.02177613750186,-70.0203719402785,-6.457268522655647,74.57003267407205,-1.0555474937498206,260.64828808699644,75.08233147558686
292,4.306598565483526,-251.0172139334349,-70.02129714406024,-6.247637373987664,74.52907673860629,-1.085751968831249,260.64360908647876,75.02182857200945
293,4.290134149014568,-251.00798989740062,-70.01829211831352,-6.057353133233437,74.48066655786188,-1.121652395100318,260.6334920912583,74.95400902493681
294,4.279041109528884,-250.99493297545294,-70.01113174868136,-5.888916635747781,74.42694411788803,-1.163559336284964,260.6186740079732,74.88106740574143
295,4.273068164563407,-250.97903038676887,-69.9996063781615,-5.744231955871304,74.36969488017762,-1.2117531697187824,260.6000474567279,74.80481220673389
296,4.271897107129258,-250.96137992617898,-69.98352886173444,-5.624536185972723,74.31024243287902,-1.2664706364641387,260.57861674596063,74.7265612541165
297,4.275148897893846,-250.94313746516963,-69.96274307161374,-5.53036015614991,74.24937021693223,-1.3278900212542,260.55544963739214,74.64706697510695
298,4.2823912178428545,-250.92546204463653,-69.93713336974987,-5.461522878294621,74.1872739048714,-1.3961158273904475,260.53162708457415,74.56647512432838
299,4.2931476945229905,-250.90946115698145,-69.90663450867464,-5.417160705688675,74.1235457992292,-1.4711639973760364,260.5081933076958,74.48431821326596
300,4.306908863755685,-250.8961387945936,-69.87124135909745,-5.395790277982311,74.05719056125419,-1.5529488552856385,260.4861085266207,74.39954268356763
301,4.3231447131466325,-250.88634852297147,-69.83101778578529,-5.395402378234829,73.98666989465774,-1.641272966486989,260.4662063416407,74.31056703684204
302,4.341318463565556,-250.88075339615185,-69.78610399670191,-5.413582036891628,73.90997259853008,-1.735821040941173,260.4491573237174,74.21536678947733
303,4.360901144957707,-250.87979419874142,-69.73672183484388,-5.4476487506508064,73.82470566335,-1.836158868935058,260.43544009083826,74.11158126153222
304,4.381386488698673,-250.88366728204102,-69.68317770916336,-5.494809638171362,73.72820174175703,-1.941738046693234,260.4253209974121,73.99663676638289
305,4.402305627467864,-250.89231300865058,-69.62586309419011,-5.552317717321908,73.61763829047369,-2.051906890548502,260.4188433806234,73.867880654147
306,4.423241046897977,-250.90541543337375,-69.56525274711905,-5.617627201749731,73.49016384353783,-2.1659274734683227,260.41582699216355,73.72272077210133
307,4.443839191124525,-250.92241333979214,-69.50190093751797,-5.688537770548472,73.34302710627514,-2.2829982093630496,260.4158777918146,73.55876511378281
308,4.4638210879291105,-250.94252217429127,-69.43643595693806,-5.763320211755667,73.1737047363364,-2.4022809245099923,260.4184077147518,73.37395662847383
309,4.482990317956667,-250.96476583711498,-69.36955301176427,-5.8408166861208155,72.98002375937806,-2.5229309590962052,260.4226634193208,73.16669831681693
310,4.501237653560625,-250.98801678699232,-69.30200548929332,-5.920510034220556,72.7602746060135,-2.6441285927596505,260.4277625082037,72.93596389775128
311,4.5185418393221255,-251.01104258777494,-69.23459460328799,-6.002557999343917,72.51331086827713,-2.765110002619756,260.43273540947456,72.6813896104108
312,4.534966321086122,-251.03255691392704,-69.16815746739636,-6.0877899545419725,72.23863214279005,-2.885196026556178,260.43657101887356,72.40334320016815
313,4.550652158059943,-251.05127305492616,-69.10355365006458,-6.177665671191979,71.936446742495,-3.0038172002316568,260.43826424267394,72.10296681627031
314,4.565807720367785,-251.0659579926769,-69.04165030673845,-6.27419773395436,71.6077115640886,-3.1205338250652095,260.4368636370747,71.78219134749203
315,4.580695994458482,-251.07548516071856,-68.98330611716541,-6.379841238891059,71.25414698941657,-3.235050139860829,260.43151741613553,71.44372061219113
316,4.595620382395294,-251.07888411083943,-68.92935440645034,-6.497356237066956,70.87822541867148,-3.347221961337185,260.4215162551556,71.09098481630122
317,4.610909813590642,-251.07538552451018,-68.88058589592949,-6.629649816289795,70.48313291635344,-3.457057423001836,260.4063315363181,70.728063807264
318,4.626903830377786,-251.0644602279484,-68.83773152614309,-6.779605607730206,70.07270451028297,-3.564710703355504,260.3856478908131,70.35958188124013
319,4.6439381179526205,-251.04585102744923,-68.80144583709718,-6.949908839322382,69.65133488146999,-3.6704689338118217,260.35938904884677,69.99057720965392
320,4.662330790883484,-251.01959626485132,-68.7722915157677,-7.142874894313595,69.22386737489731,-3.7747328368808537,260.32773611622156,69.62635020818962
321,4.682369682780728,-250.9860440365395,-68.75072577976877,-7.360288743557797,68.7954652359441,-3.8779920345354744,260.29113744944317,69.27229617335284
322,4.704300916992389,-250.94585610245423,-68.7370890995897,-7.603261691754649,68.37146958969264,-3.9807963153810486,260.25030933517223,68.93372811758987
323,4.728319084480258,-250.9000007105616,-68.73159642476548,-7.8721107519513955,67.95724893468625,-4.0837243990774255,260.20622678122635,68.61569595177032
324,4.754559334462433,-250.84973388284627,-68.73433081346704,-8.166264823725946,67.5580449211058,-4.1873518761731745,260.16010396262493,68.32280810406445
325,4.78309160368213,-250.7965691169558,-68.74523933084457,-8.48420086474778,67.17881903501035,-4.292220068258536,260.11336424625233,68.05906144652248
326,4.813917145650528,-250.74223592610494,-68.76413119513542,-8.8234124947907,66.82410458569862,-4.398807581139681,260.0676001942439,67.82768510108858
327,4.846967496171248,-250.68862811630072,-68.7906782412425,-9.180412927193537,66.49786812408009,-4.507506290458707,260.0245244238741,67.6310033419377
328,4.882105975028834,-250.63774311235636,-68.82441780524222,-9.550773678906742,66.20338411977873,-4.6186033501207095,259.9859126012739,67.47032240119435
329,4.9191317250310895,-250.59161397586885,-68.86475819537725,-9.929200054997088,65.9431264082404,-4.73227051621535,259.9535401734911,67.34584552203039
330,4.95778613074098,-250.55223606712315,-68.91098707910928,-10.309643885000606,65.71867959942918,-4.84856163957894,259.9291147738198,67.25662009445922
331,4.99776127914581,-250.5214906561548,-68.96228339805128,-10.685453407821742,65.53067331513847,-4.967418646549318,259.91420663975424,67.20052015467759
332,5.038709960695631,-250.50106816577505,-69.01773370265543,-11.04955952482376,65.37874178084384,-5.088685772552438,259.91017981336654,67.17426691515332
333,5.0802565829878406,-250.49239399405036,-69.07635373836888,-11.394696751246117,65.2615109263497,-5.2121312904610875,259.9181271342154,67.17348929458943
334,5.122008292060443,-250.49655989380926,-69.13711543569435,-11.713655978774366,65.17661471348701,-5.337475512200647,259.9388118971724,67.1928255903942
335,5.1635655776027285,-250.51426371583318,-69.19897838152723,-11.999564602684798,65.12074183509824,-5.464423475182082,259.97261861804583,67.22606641153271
336,5.204531695705511,-250.545760057085,-69.26092396991613,-12.246187742091315,65.08971312332693,-5.5927004907351945,260.01951487793286,67.26633768690148
337,5.244520387609973,-250.59082399279913,-69.32199011085747,-12.448242291286894,65.07858891436656,-5.722088606913833,260.0790257924238,67.30632094371374
338,5.283161578706059,-250.6487295258627,-69.38130455620812,-12.601713499706301,65.08180428100107,-5.852461951488882,260.1502221790618,67.33850616305433
339,5.320104963222325,-250.71824368757183,-69.43811535813636,-12.70416187647777,65.09332857945496,-5.983818842584608,260.23172294736844,67.35547050916628
340,5.3550216109707325,-250.79763652743915,-69.49181750013872,-12.755006738149469,65.10684430726329,-6.116308545546532,260.32171170670676,67.35017429428656
341,5.387603982355941,-250.88470662112172,-69.54197518369875,-12.755771978609257,65.1159389887085,-6.250250713417557,260.4179671201251,67.31626391105624
342,5.417564945310525,-250.97682116033624,-69.58833953775583,-12.710279879905368,65.11430284611409,-6.386145914167198,260.5179060631081,67.2483703643104
343,5.444636456363085,-251.07096913173498,-69.63086161621221,-12.624780111408858,65.09592447894144,-6.524676161264671,260.61863813235647,67.14239161268107
344,5.468568496969107,-251.16382558668437,-69.66970050894243,-12.50800344084689,65.05527666779415,-6.666694924732528,260.7170295461867,66.99574720994708
345,5.4891287347196425,-251.25182463041384,-69.70522636852253,-12.37113291760103,64.98748468837216,-6.813206664164672,260.8097741048576,66.80759463083862
346,5.5061032492836794,-251.3312385786118,-69.73801828052048,-12.227689101096228,64.888470087062,-6.965336532279171,260.8934687319756,66.57899804361928
347,5.519298498052479,-251.39826074453873,-69.76885713395181,-12.093329981026077,64.75506368980794,-7.1242915905025965,260.9646911869384,66.31304202774733
348,5.528544510861325,-251.44908948651977,-69.79871381392223,-11.985570282177278,64.58508269291873,-7.291315637816159,261.02007773719,66.0148847461803
349,5.533699174667301,-251.48001142348016,-69.82873302838549,-11.923428627101229,64.3773680490616,-7.467640525909591,261.05639884026886,65.6917473235568
350,5.534653437273156,-251.48748207557435,-69.86021291984588,-11.927014359586646,64.13178001206151,-7.654437556564421,261.07063117858297,65.35283859964514
351,5.531337279893585,-251.4682025522558,-69.89458044711188,-12.017068552154084,63.849151567481606,-7.852773126978803,261.0600246989451,65.00921691238501
352,5.523726315332327,-251.4191912458891,-69.93336252584713,-12.214475694458134,63.531201421468324,-8.063573055227423,261.0221636351341,64.67359295749682
353,5.511848827980027,-251.33784977616577,-69.97815313959379,-12.539763714492908,63.18041009257433,-8.287599864404715,260.95502082892267,64.3600799099874
354,5.495792991209554,-251.22202264993024,-70.030576986249,-13.012610328232189,62.79986431989043,-8.52544670276994,260.857004970924,64.0838987670385
355,5.47571392572924,-251.0700502198238,-70.09225063246744,-13.651373273510933,62.39307643087951,-8.777550580033713,260.7270006070541,63.861048275061414
356,5.451840255113583,-250.8808145309259,-70.1647425672399,-14.472660755577376,61.9637865668823,-9.044226311078985,260.56440087798404,63.70794991767889
357,5.424479873650316,-250.65377759642914,-70.24953381472218,-15.490956371361671,61.515756784944365,-9.325721092195268,260.3691329917214,63.64107931472456
358,5.394024715383926,-250.38901165422234,-70.34798063363762,-16.71830982170609,61.0525669538319,-9.622288073012488,260.1416764130194,63.676595926442445
359,5.360954362074343,-250.08722106304288,-70.4612802221337,-18.16410085081738,60.57742285096181,-9.93427571420618,259.8830737015839,63.82998298102727
360,5.325838345766256,-249.7497555853631,-70.59043951490212,-19.834879244910628,60.09298673904328,-10.26222829609191,259.59493380066704,64.11570885128977
361,5.289336981230412,-249.37861474711409,-70.73624653623365,-21.734278825135764,59.60123979143207,-10.606991862493352,259.27942736169723,64.5469195669415
362,5.252200491107725,-248.97644279335915,-70.89924367425826,-23.862998828329623,59.103384003756666,-10.969819261261241,258.93927350446324,65.13516979781605
363,5.215266085189996,-248.5465136202924,-71.07970263442724,-26.218842547910427,58.599788837011324,-11.352467776069993,258.57771738836686,65.89019678039445
364,5.179452590407317,-248.09270504866342,-71.27760138903416,-28.796801118754566,58.08998508509792,-11.757283064205005,258.1984981091562,66.81973878360239
365,5.145752256181655,-247.61946190081156,-71.49260386810472,-31.589170102630575,57.572705637795735,-12.187263608042445,257.8058066469373,67.92939729304913
366,5.115219489886901,-247.1317475202342,-71.72404338183507,-34.58568794700804,57.04597011377073,-12.646100539372565,257.40423382922484,69.22254040876803
367,5.088956462021097,-246.63498360245094,-71.97091093131938,-37.773688028222566,56.50720788331137,-13.13818847438955,256.9987085400137,70.70024404158195
368,5.068095673055935,-246.13497843287985,-72.23184972119097,-41.13825923603136,55.953411876470895,-13.668603947458465,256.5944266658957,72.36126721411648
369,5.053779645862422,-245.63784382037352,-72.50515726981195,-44.662413237540214,55.381313895621616,-14.243049164540054,256.1967714741953,74.20205788195418
370,5.047137956784153,-245.14990125137766,-72.7887964180466,-48.32725910227858,54.78757108188621,-14.867760045341697,255.81122631334432,76.21678596869407
371,5.049261931533837,-244.67757816536505,-73.08041630638779,-52.112187547958804,54.16895287880161,-15.549378813739596,255.4432808176443,78.39740064927972
372,5.061177504142049,-244.22729572274517,-73.3773841510427,-55.995067631562954,53.522518371774865,-16.294792705279086,255.098332180208,80.73370931878056
373,5.083816900965691,-243.80534985203462,-73.67682837590911,-59.9524584330535,52.84577522117769,-17.11094167182064,254.78158337597264,83.21347618505467
374,5.117989957031125,-243.41778763482242,-73.97569318203179,-63.95983743653733,52.13681341563763,-18.004599217828638,254.49794033830452,85.82253903989944
375,5.16435604845283,-243.07028124736686,-74.27080390617384,-67.99184618967968,51.39440955047861,-18.98213164648659,254.25191003496528,88.54494347757573
376,5.223397836038175,-242.76800183748125,-74.55894161753935,-72.02255265097487,50.61810003560678,-20.049242052755563,254.04750128208042,91.36309460003491
377,5.29539818240164,-242.5154960039484,-74.83692440653181,-76.02572858864,49.808224265425544,-21.21070645111662,253.88813012402846,94.25792700554099
378,5.38042163536518,-242.31656798409028,-75.10169188653519,-79.97513959571116,48.965941022781074,-22.470110475800546,253.7765317557895,97.20909450162588
379,5.478301721318209,-242.17417107679822,-75.35038884456617,-83.84484483618662,48.09322294270937,-23.829596016726803,253.71468119314682,100.19518142373084
380,5.588634979455646,-242.09031203545314,-75.58044392292035,-87.60950363599414,47.19283452157319,-25.289627762781667,253.70372506861816,103.19393765401263
381,5.710782254310907,-242.0659721024615,-75.78963961592288,-91.244686514084,46.26829884559892,-26.848789769965634,253.74392697519644,106.18253944678065
382,5.843877334716394,-242.10104804888655,-75.97617054892635,-94.72718909191408,45.32385697560931,-28.503621826329493,253.83462867304593,109.13787796505895
383,5.986842634904309,-242.19431603588592,-76.1386878545611,-98.03534824323422,44.364421930562095,-30.248504610029727,253.97422919191098,112.03687692282763
384,6.138411242997625,-242.34342038718557,-76.27632837190667,-101.1493604907552,43.39552679971618,-32.07560148092518,254.16018342847553,114.85683977760739
385,6.297154288661582,-242.54488862147264,-76.38872822971031,-104.05160267438949,42.42326418671164,-33.97486319245391,254.38902137010177,117.5758254221517
386,6.461512254131369,-242.7941734906237,-76.47602103447804,-106.72695407573728,41.45421247980457,-35.934099844434755,254.65638868729766,120.17304926736402
387,6.629828670585111,-243.08572227376,-76.53882139915302,-109.16311748117442,40.49534372433147,-37.939122085916125,254.95710910974165,122.62930412616808
388,6.800384659114937,-243.41307302042802,-76.57819504952833,-111.35093433110634,39.5539082790711,-39.97395104610988,255.2852686168404,124.92739266048196
389,6.971432958798903,-243.76897668607924,-76.59561730024504,-113.28468647064038,38.637292909737845,-42.02109385631335,255.63432092722462,127.05256062318381
390,7.141230343200431,-244.145543135936,-76.59292221969878,-114.96237441880666,37.75285136036467,-44.06187906806151,255.99721301264572,128.99291796216596
391,7.308067575654663,-244.53440787170277,-76.57224520650284,-116.38595985605072,36.907709522095196,-46.07684390905279,256.36652841728966,130.73983329169496
392,7.470296253840548,-244.92691519046582,-76.53596196592981,-117.56155858557491,36.108550701068545,-48.046163249849975,256.7346451529909,132.28828649790603
393,7.626352045197081,-245.31431249586777,-76.48662698167578,-118.49956990513904,35.36138959810919,-49.95010845772258,257.0939040292417,133.63716446382693
394,7.774773945146615,-245.68794981137884,-76.42691444404427,-119.21472930515179,34.67134587558856,-51.769523068494834,257.436782596676,134.78948608043103
395,7.914219361277616,-246.0394782573915,-76.35956418128707,-119.72607363182318,34.04242928178642,-53.48630147427095,257.7560694851114,135.75254476462376
396,8.04347509772265,-246.36104129509025,-76.28733452724597,-120.05681108146925,33.477348263318014,-55.083856620116386,258.04503377856,136.53795948498015
397,8.161464672513327,-246.64545280650307,-76.21296336234724,-120.23409224066418,32.97735308946624,-56.547563004967884,258.2975841260064,137.16162857102063
398,8.26725274355949,-246.8863564768099,-76.13913778440696,-120.28868237250973,32.54212304863477,-57.86516203584258,258.50841244580505,137.64358400922055
399,8.360047625780838,-247.0783614373285,-76.06847190780842,-120.25453881131128,32.16970545338039,-59.02711789250922,258.6731172807246,138.00774712861764
400,8.439202900672411,-247.21714977670746,-76.0034912342653,-120.16830040182396,31.85651203459678,-60.02691341917337,258.78830217849236,138.28158929911052
401,8.504218964706324,-247.2995524121751,-75.94662123230624,-120.06869840697351,31.597375774333432,-60.86127711693214,258.8516450820644,138.49570349218482
402,8.554745089048302,-247.32359091882785,-75.90017753091252,-119.9959003900179,31.38566836876768,-61.53033405798787,258.8619356961712,138.68329446102337
403,8.590582273556228,-247.28848416817857,-75.86635550958044,-119.99080045225749,31.213475487458677,-62.03767547263222,258.81907909443277,138.87959709042002
404,8.611686963382347,-247.19461995737296,-75.84721783104648,-120.0942709665946,31.071823945320553,-62.39034385470117,258.7240653173991,139.12123424636596
405,8.618175525195435,-247.0434931162483,-75.84467929895315,-120.3463925361137,30.950951914435688,-62.59873267067134,258.578906197272,139.44552717890338
406,8.610329155916626,-246.83761273217428,-75.86048907085767,-120.78568018698188,30.84061051545727,-62.67640209683681,258.3865419279749,139.88977308105382
407,8.588598643061628,-246.58038208946357,-75.89621064477848,-121.44832467284624,30.730382825746965,-62.63981455169964,258.15072091799954,140.4905056950709
408,8.55360826645364,-246.2759557498972,-75.95320030812368,-122.36746824032232,30.61000489061786,-62.507996005456356,257.8758573305233,141.28275590808994
409,8.506158212614391,-245.9290789659909,-76.03258509269018,-123.57253438861156,30.469673058931978,-62.302131007407944,257.5668715521091,142.2993301993143
410,8.447225057557995,-245.54491528781213,-76.13524174547602,-125.08863110915327,30.30032307669222,-62.0451009894931,257.2290196124456,143.57012565636413
411,8.377959968937827,-245.1288686958205,-76.26177860353864,-126.93604669516357,30.093868819386227,-61.760976676410586,256.8677181410399,145.12150097186972
412,8.299684223226073,-244.68640677056933,-76.412522336598,-129.12985615725918,29.843392021717296,-61.47447644507943,256.4883716354636,146.97572307364698
413,8.213881548746345,-244.22289126244468,-76.58751126162889,-131.6796541637196,29.543278393518147,-61.21040333376196,256.09620859317687,149.1505084131329
414,8.122186789393737,-243.7434219678302,-76.78649644250754,-134.58942689288116,29.1892995767264,-60.993074134655785,255.6961324752748,151.65867601010504
415,8.026370352280463,-243.2526990685773,-77.00895114429288,-137.85757014133776,28.77864402666095,-60.84575454952048,255.29259256207058,154.50792587578565
416,7.92831775416954,-242.75490805353206,-77.25408845254776,-141.47705476310867,28.309902671902584,-60.790114655550674,254.88947853823868,157.70075149935602
417,7.830003431046888,-242.253630061897,-77.52088609901841,-145.43573365064682,27.78301677842722,-60.845718859927786,254.49004118977487,161.23448912085493
418,7.733458079338998,-241.75177913350365,-77.80811697372192,-149.7167777595458,27.199195642218548,-61.02956407845041,254.09684013806842,165.10150014985138
419,7.640729306279909,-241.2515666443883,-78.11438363117077,-154.29922276920655,26.560810665128617,-61.35567900996937,253.7117183522957,169.2894769410085
420,7.5538362006237385,-240.75449224448278,-78.43815525658383,-159.15860330363088,25.871270433859785,-61.834796057335325,253.3358023433409,173.78185671948495
421,7.474719329899041,-240.261359822775,-78.77780578083369,-164.26764848568214,25.134879218550655,-62.47410567187466,252.9695262889326,178.558324173527
422,7.405188344906936,-239.77231630730267,-79.13165191569038,-169.59701112433046,24.356679461523512,-63.27710071314281,252.61267770512657,183.5953804091313
423,7.346869704055327,-239.2869104506788,-79.49798983565492,-175.11600306073404,23.54227785007193,-64.2435158960121,252.26446165095516,188.86695475399006
424,7.30115707757468,-238.80416821152525,-79.87512919112889,-180.79331095302499,22.69765475538868,-65.3693646809923,251.92357992639094,194.34503625642637
425,7.2691668695467,-238.32268099350534,-80.26142320868432,-186.59766970313675,21.8289581740429,-66.64707321285783,251.58832140914708,200.00030337866704
426,7.2517010784622045,-237.84070290121073,-80.6552938565963,-192.4984744082466,20.942285527899827,-68.06570821555177,251.25665964112233,205.8027329320482
427,7.249219421177148,-237.3562533162723,-81.05525139343109,-198.46631582267815,20.04345928198646,-69.6112931184151,250.9263540114088,211.7221723641079
428,7.261822243931215,-236.86722141623295,-81.45990798194528,-204.47342859240683,19.137804844315212,-71.26720415698583,250.59505129161073,217.72886278696606
429,7.289245201568829,-236.37146963631884,-81.86798536719424,-210.49404573418065,18.22994122140832,-73.01463586686647,250.2603847252515,223.7939033876754
430,7.330866018990541,-235.86693343548487,-82.27831690281785,-216.50465677749193,17.323596090977528,-74.83312338141158,249.92006829034034,229.8896509025187
431,7.385722972345748,-235.35171509015393,-82.6898445165681,-222.48417059578048,16.421457044013923,-76.70110731825335,249.57198417875557,235.9900506083077
432,7.452544196442616,-234.82416964193234,-83.10161155259131,-228.4139872489838,15.52506958041609,-78.59652582880321,249.2142620153464,242.07089782789924
433,7.5297865986097,-234.2829815364402,-83.51275278889501,-234.27798618405643,14.63479004877596,-80.49741760059985,248.84534883624056,248.11003133171053
434,7.615682948675487,-233.7272307932719,-83.92248321755929,-240.06244092124862,13.749798341780734,-82.38251923013144,248.46406921974176,254.08746229525735
435,7.7082954810235,-233.156447645845,-84.33008726110666,-245.75587290255504,12.868171175403365,-84.23184040507806,248.06967507658953,259.98544467647423
436,7.80557405251528,-232.57065455525654,-84.73490993085605,-251.34885943608217,11.987012651615135,-86.02720076886318,247.66188450846263,265.7884949748739
437,7.905416670718167,-231.97039454972384,-85.13635108585423,-256.83381244220584,11.102635014616546,-87.75271323322019,247.2409090654511,271.4833711702569
438,8.005730193151834,-231.35674509674863,-85.53386348642624,-262.2047456731225,10.210779474505058,-89.39519985281592,246.8074688180901,277.05902191414003
439,8.10448920504767,-230.73131708420743,-85.92695474940633,-267.45704788757513,9.306864936248115,-90.944528077828,246.36279481552745,282.5065174032774
440,8.199791357055739,-230.09623880532877,-86.31519265524425,-272.5872778496391,8.386251499214458,-92.39385711479058,245.9086185861822,287.8189725040694
441,8.289907640221529,-229.45412508236927,-86.69821269211788,-277.59299385678804,7.444505617053847,-93.73978618558283,245.44714837374295,292.9914704750126
442,8.37332617405209,-228.8080319370408,-87.07572639168218,-282.4726258672693,6.477654679265797,-94.98239872694928,244.98103194359663,298.02099213619215
443,8.448788161676346,-228.16139762817025,-87.44752893297978,-287.2253925964369,5.482420286976871,-96.12519911116169,244.51330615202775,302.9063509606729
444,8.515314838550502,-227.5179714350993,-87.81350460089867,-291.8512599632579,4.456421394889454,-97.17494132434157,244.04733403218492,307.648130033218
445,8.572224617187528,-226.8817322007792,-88.17362893675275,-296.35093196412475,3.3983404910167336,-98.14135214866313,243.5867308423802,312.24861300459213
446,8.61914024039465,-226.25679925530514,-88.52796681754052,-300.7258612881085,2.3080478166950007,-99.03675464714605,243.13528124920768,316.71169881263603
447,8.655986508178513,-225.64733878784907,-88.87666624638172,-304.9782652814572,1.1866801561110718,-99.87560102982049,242.69685045496843,321.04278948371376
448,8.682979865454174,-225.05746892268215,-89.21994823308586,-309.1111333332443,0.03667201138470052,-100.67392715828349,242.27529249173858,325.2486418408485
449,8.700611630833876,-224.49116668341364,-89.55809361190134,-313.1282141238359,-1.1382617694327528,-101.44874388176095,241.8743590210249,329.337177145189
450,8.70962676753947,-223.9521797812693,-89.8914278764588,-317.03397489504516,-2.333191401679504,-102.21738299259778,241.49761183117567,333.31724703825995
451,8.710999873113641,-223.4439458383575,-90.22030518250628,-320.833529297492,-3.5420833252521784,-102.99681779858177,241.1483419355849,337.1983589966527
452,8.705909692998079,-222.96952135407133,-90.54509271025185,-324.5325348630534,-4.75795276286398,-103.80298007644632,240.8294978906077,340.9903692924123
453,8.695713125731247,-222.5315225024315,-90.86615661545217,-328.1370653136768,-5.973051213768224,-104.65009637598266,240.54362574451386,344.70315573333016
454,8.681919403845923,-222.13207965448268,-91.18385079240069,-331.6534664627709,-7.179080639196217,-105.55006714417057,240.29282283257425,348.3462859212403
455,8.66616484402869,-221.772807220677,-91.49850962435242,-335.08820719913825,-8.367424927839146,-106.5119118224808,240.07870732536938,351.9286992031668
456,8.650188265108431,-221.45478994383376,-91.81044579007919,-338.44773883003506,-9.529388795813109,-107.54130187411965,239.9024049556638,355.4584217621087
457,8.635806923407241,-221.17858618761645,-92.11995394374588,-341.73837676417617,-10.656434539382856,-108.64020160396771,239.76455370285518,358.94233427813214
458,8.624892624997775,-220.944248111885,-92.4273206580307,-344.96621794385595,-11.740407882518399,-109.80663366615246,239.66532644003343,362.3860101156488
459,8.619347526503073,-220.75135793103803,-92.73284049212381,-348.1371053359853,-12.773745357524856,-111.03458235675643,239.60447069821464,365.7936388335644
460,8.621079043549743,-220.5990787360041,-93.03683747683905,-351.2566469841378,-13.74965703522599,-112.31404322928194,239.58136381815743,369.1680448161408
461,8.631973310040316,-220.48621764610223,-93.3396907009483,-354.3302917028633,-14.662279820828948,-113.6312223794658,239.59508086577924,372.5108041086047
462,8.6538668340189,-220.411298382431,-93.64186207801622,-357.3634569445478,-15.506797824417946,-114.96888312364251,239.64447183850353,375.82245462720147
463,8.688516341187752,-220.3726397793663,-93.94392392523314,-360.36169748960356,-16.27952741236288,-116.30683196372779,239.7282440027142,379.10278662514844
464,8.737567121922325,-220.3684363114967,-94.24658392223833,-363.3308973259109,-16.97796542492217,-117.62252991395023,239.845044795921,382.35119257881786
465,8.802520374856885,-220.39683645108715,-94.55070542888073,-366.27746221855756,-17.60079973236907,-118.89180968226391,239.9935406703992,385.56704936575824
466,8.884700134836175,-220.4560146968259,-94.85732176302622,-369.2084876123246,-18.147881825261656,-120.08967408916727,240.17248754499462,388.75010136577515
467,8.985220520315433,-220.54423350140488,-95.16764344750833,-372.13187598212517,-18.620161545641043,-121.19114676357349,240.38078906729407,391.90081132390145
468,9.104954232712906,-220.65989195593573,-95.48305748901949,-375.05637964830436,-19.019584502921294,-122.17214293282849,240.61753950293974,395.02064666910684
469,9.244503374403056,-220.8015587582071,-95.80511767132226,-377.9915492801588,-19.348953397483278,-123.0103263238263,240.88204865790226,398.11227246401205
470,9.404173660641414,-220.96798764061586,-96.13552491516272,-380.9475744789638,-19.611755627758413,-123.6859179782099,241.17384686199787,401.17962800399823
471,9.58395302990099,-221.15811418078377,-96.47609712636313,-383.93501047363196,-19.811961344643404,-124.18242421346326,241.49266886911695,404.22787185597434
472,9.783495588050258,-221.37103389430592,-96.82872861094637,-386.9643935561227,-19.953798474829767,-124.48725400738958,241.83841668096105,407.26318932569
473,10.00211176334916,-221.60596270931737,-97.19533995265942,-390.04575689869665,-20.041513731920926,-124.59220058399724,242.2111027207653,410.292466392967
474,10.238765421797448,-221.86218215469643,-97.57782007943,-393.18806720047456,-20.07913060857947,-124.49376762624935,242.61077623568966,413.3228443279482
475,10.492078450217802,-222.1389725646899,-97.97796299599386,-396.3986103895842,-20.070216279180233,-124.19332697613136,243.0374369836205,416.3611785858885
476,10.760343047420466,-222.43553813317538,-98.39740224319345,-399.68236042834604,-20.017669144776875,-123.69710157676555,243.49094096592054,419.41343318482154
477,11.041541807591846,-222.75092780152985,-98.8375464814202,-403.04136835820174,-19.92353769720475,-123.01597447044612,243.97090323078118,422.48404678632767
478,11.333375632423484,-223.08395591553588,-99.2995196774687,-406.47420876908643,-19.788879886239055,-122.16513162824904,244.47660275364265,425.57530876240554
479,11.633299404332565,-223.43312645925545,-99.78410920881178,-409.97551814244383,-19.613670597746438,-121.16355303710776,245.00689420875258,428.68678282269065
480,11.938565051489153,-223.79656449085473,-100.29172472534826,-413.5356546457126,-19.396763371844933,-120.03337259985202,245.56013107013464,431.81481283894885
481,12.246271171231031,-224.17195814671862,-100.82236980065717,-417.1405026886667,-19.135911096291032,-118.79913272897214,246.13410389297633,434.9521409400689
482,12.553417893614984,-224.556514226076,-101.37562741652623,-420.7714385126877,-18.82784893480116,-117.48696369356637,246.72599687680784,438.08766223830395
483,12.856965267270304,-224.94692990104625,-101.95065939195472,-424.40546573145605,-18.46844093618391,-116.12372054875046,247.3323649832505,441.2063340419532
484,13.153893176114948,-225.33938247156362,-102.54621910607747,-428.01552239516826,-18.052889376547103,-114.73611176609626,247.94913298154088,444.2892504074932
485,13.441260661702954,-225.7295382584402,-103.1606762443885,-431.57095402761036,-17.57600280085785,-113.34985356194437,248.5716167756393,447.3138856417743
486,13.716262527803613,-226.11258075797863,-103.79205179323522,-435.0381403458221,-17.03251502728569,-111.98888246684312,249.19456627013574,450.25450309617554
487,13.976281224954606,-226.48325722793308,-104.43806118287526,-438.3812571455558,-16.417443330800953,-110.67465595146581,249.8122280308818,453.0827184806111
488,14.218932261535198,-226.83594207649102,-105.09616339161015,-441.56314922828636,-15.726470076631124,-109.42556703620245,250.41842524214886,455.76820013639036
489,14.442101797361186,-227.16471484175906,-105.76361390971121,-444.54628536276266,-14.956328757386755,-108.25649395470343,251.00665198474007,458.2794824304509
490,14.64397563578153,-227.46345020390453,-106.43751959949262,-447.293762256033,-14.105173179752839,-107.17850030606621,251.57017863056612,460.5848628869591
491,14.823059453587456,-227.72591736159518,-107.11489361414539,-449.7703215367129,-13.172907796665125,-106.19869487330591,252.10216513426886,462.653349099863
492,14.978190684893388,-227.94588614579826,-107.79270867336376,-451.9433420247667,-12.161458103989583,-105.32025359741897,252.59577912877177,464.455618131793
493,15.108542933262259,-228.1172372962995,-108.46794721291671,-453.78376926964427,-11.074962715375905,-104.5425993423774,253.04431589859925,465.9649492631258
494,15.21362410713696,-228.2340743169439,-109.13764727873253,-455.2669456925978,-9.919873138197103,-103.86172837540536,253.44131746686577,467.1580908850356
495,15.293269683230532,-228.2908343506722,-109.7989434547759,-456.3733079279916,-8.704953094482825,-103.27066622335494,253.780688247795,468.01602433161383
496,15.347632617179446,-228.28239572925867,-110.44910248302895,-457.0889233443727,-7.44117588757624,-102.76003001779647,254.05680507818178,468.5245917527615
497,15.377171373150368,-228.20418024551742,-111.08555356154959,-457.4058452287348,-6.141525059630714,-102.31866982355555,254.26461993947214,468.67496172638056
498,15.382637215556715,-228.0522486055384,-111.70591369059609,-457.32227536169876,-4.820709644242197,-101.93435793445417,254.39975420518587,468.4639148200416
499,15.36506128691739,-227.82338786467835,-112.3080089009006,-456.8425329775551,-3.494810031257745,-101.59449289642355,254.45858373230405,467.89394104491976
500,15.32574130459527,-227.51518999767285,-112.8898926596403,-455.9768394338398,-2.180873416456023,-101.28678430841626,254.43831459427466,466.97315120754877
501,15.266227281688726,-227.1261211352371,-113.44986307817594,-454.74093727046636,-0.8964789260383541,-100.99988551549892,254.33704972146742,465.715013619543
502,15.188305686059989,-226.65558134871142,-113.9864806058862,-453.15556981023536,0.34070802532248284,-100.72394432497866,254.15384706148072,464.13793566060747
503,15.093981775425906,-226.10395512989575,-114.4985875990198,-451.24585246222387,1.5133744236651385,-100.45104678439289,253.88877000533552,462.2647157639628
504,14.985460227296912,-225.4726529129866,-114.98533052465821,-449.04056924931416,2.6049764045737143,-100.17553549837424,253.54293075645683,460.121895264309
505,14.865124430616962,-224.7641441098679,-115.44618475003176,-446.5714278962035,3.600122242383912,-99.89419137386385,253.11852709379198,457.7390411968291
506,14.735514879512515,-223.9819821003211,-115.88098107954252,-443.8723043132922,4.484912937133025,-99.60627549689491,252.61887261390464,455.14799064112975
507,14.59930707947054,-223.1308213430103,-116.28993253335213,-440.9785027349511,5.247234631534362,-99.31343555973304,252.04841999392897,452.38208466495564
508,14.459289305220151,-222.2164261985677,-116.67365925549053,-437.92605140912354,5.876999505139782,-99.0194884256995,251.41277603002658,449.47541549564755
509,14.318340415488057,-221.24567022762278,-117.03320882479959,-434.75104606148665,6.366333687828062,-98.73009662967513,250.7187061828981,446.4621045745227
510,14.179407690450038,-220.22652380547078,-117.37006867983352,-431.48904505517845,6.709712091863157,-98.45236153256222,249.9741252736193,443.3756222012074
511,14.045484308193398,-219.16802706286015,-117.68616704825398,-428.17451200272683,6.904040892542353,-98.19435923164595,249.18807006916325,440.2481522320781
512,13.919585618240115,-218.08024452787814,-117.98385887383314,-424.840294280913,6.9486887159987525,-97.96464698570604,248.3706489593678,437.1099984195945
513,13.804722832920199,-216.9741974456125,-118.26589379241234,-421.5171201031885,6.845467448994161,-97.77176771946816,247.53296380729992,433.98902308533684
514,13.70387228459706,-215.86176960947316,-118.53536412004887,-418.23309309571687,6.598563097219048,-97.62377812621031,246.68699933070886,430.9101044911503
515,13.619938230868717,-214.7555827329221,-118.79563200294409,-415.0131621611623,6.214416647098723,-97.52782217084068,245.8454760930328,427.89459702052426
516,13.555707519223587,-213.6688380895786,-119.05023635078771,-411.87854610599555,5.701554987316048,-97.48976678204008,245.02166451139132,424.95977850832327
517,13.513795231297909,-212.61512245694672,-119.30278191656964,-408.84609720371645,5.070373091573511,-97.51391072729336,244.2291593082118,422.11827203251374
518,13.496581500604853,-211.60817822081214,-119.55681471882596,-405.9275955397282,4.3328709745351865,-97.60277167129436,243.48161636155123,419.3774353016476
519,13.506140784249906,-210.66163964270828,-119.81568961511877,-403.12897635773646,3.5023521664415833,-97.75695080622114,242.79245661292543,416.73871927560134
520,13.544165833300898,-209.78873964242922,-120.08243696988872,-400.44950511856905,2.5930941544678987,-97.9750697115505,242.17454433186336,414.1970083603412
521,13.611889451599417,-209.00199392705073,-120.35963595317241,-397.88092871614293,1.6200048392358737,-98.25377058924802,241.63984951771587,411.7399666237071
522,13.7100079100397,-208.31287172929655,-120.64930210712842,-395.4066451802896,0.5982818978367953,-98.58776886409458,241.19910641215262,409.34742695052313
523,13.83861059600432,-207.73146450497782,-120.95279640402723,-393.0009469753324,-0.4569065929693441,-98.96994630146958,240.86148173175013,406.99087167635656
524,13.997121075439658,-207.26616543043843,-121.27076199974985,-390.62840331140205,-1.530702229573486,-99.39147314677562,240.63426704209343,404.6330626934741
525,14.184255144866436,-206.92337334551493,-121.60309324981749,-388.2434533738529,-2.608781116154503,-99.84194918611419,240.52260959347703,402.2278850247713
526,14.398001474903264,-206.70723488538871,-121.94893945357792,-385.79028386461295,-3.6775111250438446,-100.30955589358047,240.5292949713753,399.7204692888884
527,14.635629835647782,-206.61943787531368,-122.30674349375734,-383.2030598457795,-4.724033831964057,-100.78121471804307,240.65459314741764,397.0476544659175
528,14.893730529057457,-206.65906759725988,-122.67431333234912,-380.40656708728915,-5.736268437060466,-101.24274978055716,240.8961770615448,394.138842418903
529,15.168286695995302,-206.8225353877234,-123.0489224180401,-377.3173069731963,-6.702840126098744,-101.67905652437199,241.24911993343622,390.9172797239887
530,15.454778900470354,-207.10358638442597,-123.42743349734015,-373.8450621537762,-7.6129403058287926,-102.07428088689434,241.70597429716545,387.3017810683409
531,15.748319063753087,-207.4933902665088,-123.80643902341568,-369.8949238248547,-8.456130809495459,-102.41201599700653,242.2569323913401,383.2088829228966
532,16.04380864860615,-207.98071563859241,-124.18241031543758,-365.36974163140377,-9.222108338543432,-102.67552488536369,242.89006412231566,378.5553880464852
533,16.336114200967472,-208.55218540259898,-124.55184701704985,-360.1729270015612,-9.900448838250428,-102.84799794364794,243.5916255509255,373.26123268987175
534,16.620252090297956,-209.19260714930812,-124.91141847242405,-354.21151267523925,-10.48035394570393,-102.91285271735079,244.34642796064733,367.2525814231798
535,16.891573583205663,-209.88536936042954,-125.25808943660428,-347.39934767823775,-10.950422895234041,-102.85408104605932,245.138255148083,360.4650315843867
536,17.145941195947778,-210.61289115129787,-125.58922386737085,-339.66029003953554,-11.298473108350805,-102.65664469026696,245.95031462559007,352.84679244719507
537,17.379887521651746,-211.3571106277299,-125.90266214464532,-330.93125061335945,-11.511430853528783,-102.30691564469019,246.76570698546612,344.3616948356366
538,17.59074834841848,-212.09999494116536,-126.19676882374597,-321.16494122145286,-11.57530955816249,-101.79315171675273,247.56789690677581,334.9918859447823
539,17.776762883928235,-212.82405397445527,-126.47044999944852,-310.3321890589403,-11.475287480751065,-101.10599214926461,248.3411693639664,324.7400717817503
540,17.93713534724986,-213.51283933723576,-126.72314151652846,-298.4236963661444,-11.19588872731353,-100.23895263022607,249.07105557084793,313.63118550730866
541,18.07205407782249,-214.15141097959946,-126.95477136992609,-285.4511487054273,-10.721262673948731,-99.1888944686631,249.74471493008187,301.7133830824364
542,18.18266651356988,-214.726755137131,-127.16570137273895,-271.4476053643868,-10.035547793218397,-97.95643948471721,250.35126148889628,289.0582966435602
543,18.271010722481417,-215.22813932349936,-127.35665433876122,-256.46713967414956,-9.12329792691986,-96.54630067795789,250.8820258643462,275.76050924890774
544,18.33990650274677,-215.64739259839786,-127.52863357121927,-240.58373331031092,-7.969943305751325,-94.96749935654998,251.33074618632705,261.93625007384327
545,18.392811294507872,-215.97910241810487,-127.68284136669588,-223.88946471908483,-6.5622557408363456,-93.23344239186244,251.69368436289497,247.7213446897408
546,18.43364810663884,-216.220723012432,-127.82060259364657,-206.492065627152,-4.888787511880381,-91.3618386431708,251.96966691134972,233.26848877868505
547,18.46661414641607,-216.37259411517874,-127.94329831208933,-188.511949372587,-2.940256263050688,-89.37444105646944,252.16005249581204,218.7439437517876
548,18.495979727534817,-216.4378725290243,-128.05231296038116,-170.0788388972828,-0.7098532436111237,-87.29660986639885,252.26863079189005,204.32377756234004
549,18.525887322630805,-216.4223821234328,-128.14899690317336,-151.32813915187998,1.8065409932619028,-85.1567020036032,252.30145912506242,190.18979195055297
550,18.560160370348783,-216.33439041816476,-128.23464425325062,-132.39720730315497,4.610241384178845,-82.98530152818753,252.26664455388178,176.52528726210804
551,18.602130723541173,-216.1843219678724,-128.31048415347178,-113.42167412699722,7.699743265717759,-80.81431500766438,252.17407991301278,163.5108173861918
552,18.654492541757623,-215.98442030482906,-128.37768247125268,-94.53196154200438,11.070799207553906,-78.67596365405927,252.03514294463452,151.32008049929965
553,18.719189065723633,-215.74837106411314,-128.43735022613598,-75.85012505581314,14.71657315795675,-76.6017103327676,251.86236795881615,140.11607711211983
554,18.797337087562262,-215.49089900698974,-128.49055487000297,-57.487127186940405,18.627852992991446,-74.62116408566179,251.66909930587315,130.04764714270777
555,18.88919207044443,-215.22735108925266,-128.53833060679716,-39.540620575676016,22.79330075922964,-72.76100753430542,251.46913534133165,121.2464747870489
556,18.99415484070103,-214.97327677949457,-128.5816843231521,-22.09328979005628,27.199720516162262,-71.04399339565923,251.27637079868686,113.82462629145753
557,19.110818678771505,-214.744015806137,-128.6215944662474,-5.211771003793384,31.83232621436656,-69.48805523618164,251.1044448442818,107.87266319950072
558,19.23705360483371,-214.55430256249014,-128.6590011910993,11.053859332371916,36.67499572721923,-68.10557437348133,250.9664016341,103.45835318361405
559,19.370122837314636,-214.4178955121449,-128.69478707729726,26.670060527223296,41.71050118157635,-66.90283945788899,250.8743698010892,100.62598234725243
560,19.506824921134214,-214.34723898844058,-128.72974868365787,41.619322657277266,46.92070945831826,-65.87972788487052,250.83926687601308,99.39625670026568
561,19.64365394693865,-214.35316367563232,-128.76456031394352,55.89925046136885,52.28674982940212,-65.02962918457052,250.87053418566282,99.76676615194533
562,19.77696964762267,-214.4446307782232,-128.79973256301938,69.52131638651797,57.78914817954476,-64.33962042083458,250.97590724531452,101.71297169807227
563,19.90316899557286,-214.62852344887042,-128.8355692201167,82.50936782735073,63.407929307251436,-63.79089295429843,251.1612259412286,105.18966534209774
564,20.01885123939032,-214.9094875302367,-128.87212666700822,94.89797260852934,69.12269052269147,-63.359419210445175,251.43028781553718,110.13284240337929
565,20.120969044666552,-215.28982225151753,-128.90917994746533,106.73068005966202,74.9126511107171,-63.01683782713962,251.78474662955452,116.46191688950982
566,20.20695941442021,-215.76942043372495,-128.94619925917175,118.05826327008903,80.75668305043608,-62.73152616316225,252.2240573094645,124.08220235826789
567,20.274849260629868,-216.34575714914203,-128.98233984643693,128.93699265499214,86.63332851527088,-62.46982102142238,252.74546755311962,132.88757330982
568,20.323331844482635,-217.01392563164995,-129.0164473015485,139.4269736913406,92.52080904213403,-62.19734195327016,253.34405585882854,142.76321614190903
569,20.35181178824172,-217.76671935918563,-129.04707925859728,149.59056460794815,98.39702990797156,-61.880366965480945,254.01281543952516,153.58837485365785
570,20.36041794919198,-218.59475938486,-129.07254342008403,159.49087484578337,104.23958137817674,-61.48720799455133,254.74278321443398,165.23899593201912
571,20.34998506598719,-219.48666602446616,-129.09095072189683,169.19033392783413,110.0257364603623,-60.989533144122774,255.5232126495711,177.5901802069759
572,20.322006636553326,-220.42927387855056,-129.10028124517015,178.74931431245886,115.73244316552211,-60.36358432643832,256.34178862074003,190.5183578621667
573,20.278562831939187,-221.40788888262878,-129.0984594624757,188.22479156759624,121.33630867957349,-59.59124248833436,257.18488180989095,203.90311681008365
574,20.222228277208853,-222.4065856163119,-129.0834348100481,197.66903068589605,126.81357378900312,-58.6608978989776,258.0378395129151,217.62863415394102
575,20.15596519846894,-223.40854238468523,-129.05326342621072,207.12829758977435,132.14007860345464,-57.56808992528574,258.8853090754915,231.5846845025979
576,20.08300776405738,-224.39641052406196,-129.00618700682475,216.64160820771662,137.29122489370417,-56.31588920457525,259.7115893183213,245.66722578509564
577,20.006743466982556,-225.35271297052697,-128.94070494372025,226.23954190703486,142.24194560830824,-54.915004883163405,260.50100418045344,259.77859068672404
578,19.930597147873737,-226.26026546223497,-128.8556362233727,235.9431593881986,146.9666974800913,-53.38361021764896,261.2382914837754,273.8273374225007
579,19.85792279078116,-227.10261193164155,-128.7501680453762,245.76307540212807,151.4394972171946,-51.74689091982171,261.90899833667066,287.7278349850576
580,19.791907528836212,-227.8644637312391,-128.62388882544047,255.69874234360353,155.634024819912,-50.036331788149354,262.4998733197861,301.3996734518784
581,19.735491334538917,-228.532130426037,-128.47680416191102,265.7380010191912,159.52381832837344,-48.2887679334047,262.99924430891105,314.7669981410456
582,19.69130468589037,-229.09392823891812,-128.30933540477554,275.85694937860393,163.08258209692278,-46.54523661918311,263.3973697846705,327.7578665801044
583,19.661625234784886,-229.54055117552087,-128.12230158658224,286.0201689094407,166.28462509897025,-44.849673662953926,263.68675100289033,340.303719178902
584,19.64835329837463,-229.8653895956796,-127.91688652204523,296.18133232924293,169.10543687104487,-43.24750387134463,263.862392582284,352.33903864813783
585,19.65300492644081,-230.06478162201984,-127.69459365749675,306.28419620263884,171.52239707629025,-41.784177847296505,263.9219998914786,363.8012508110461
586,19.676720372503773,-230.13818432499224,-127.4571916013361,316.2639597127191,173.51560126477727,-40.50370782171003,263.86610305343686,374.6308925155718
587,19.72028497429915,-230.08825410745075,-127.20665322447904,326.0489480977317,175.06877154367808,-39.447253208380104,263.6980994588584,384.77204356643796
588,19.784158762568456,-229.92082905934993,-126.94509095718719,335.56255860530956,176.17020814169803,-38.651802571954924,263.42420941848684,394.1729920637112
589,19.868510753534352,-229.64481010576466,-126.67469058636202,344.72539044530447,176.81372790282313,-38.148992823943786,263.0533429423528,402.78707923277045
590,19.973254044853874,-229.2719422767123,-126.39764555316235,353.4574697171166,176.99952998822386,-37.964099086343424,262.59687944319586,410.5736530448862
591,20.098078499303515,-228.81650201687276,-126.11609347101725,361.68047628419953,176.73492851542238,-38.11522036132438,262.0683660982563,417.49905090902337
592,20.2424786895225,-228.29490074059566,-125.8320563181637,369.31988179219474,176.03489698310202,-38.61267753465479,261.48314430118313,423.5375306212921
593,20.40577561237895,-227.7252185489073,-125.54738554686608,376.3069155505574,174.92237982620006,-39.458631834847324,260.8579168496987,428.6720747762115
594,20.587131344937962,-227.1266849488568,-125.26371325045632,382.58028658102694,173.4283411642991,-40.64692409393238,260.21027107618954,432.8950054466552
595,20.785556327546622,-226.51912535364698,-124.98241049685176,388.08760454404523,171.59153790602878,-42.16312838748622,259.5581748463184,436.2083612644581
596,20.999909445424258,-225.922393067375,-124.7045538550434,392.78645845141483,169.4580217431986,-43.9848081498611,258.91946315659504,438.62400627690295
597,21.228891694676417,-225.3558065695885,-124.43090098596669,396.6451292669642,167.08039023921793,-46.08195875510367,258.31133313349136,440.16345761873816
598,21.471035012495292,-224.83761140541137,-124.16187604834244,399.64293003094116,164.51681962932986,-48.417617720980104,257.7498648003584,440.8574359740666
599,21.724688692983758,-224.3844848542065,-123.89756564012387,401.7701843082449,161.82992018227822,-50.94862191072488,257.24958404862537,440.7451581051923
600,21.988006463989265,-224.01109968818312,-123.63772594406635,403.0278696844667,159.08545889663515,-53.62649009305315,256.82308265957687,439.87340366846564
601,22.258937584483974,-223.7297607546104,-123.38180151564093,403.4269667798819,156.35099454875638,-56.398408661004545,256.48070789188904,438.29539858702003
602,22.53522521824061,-223.5501250348045,-123.12895572228875,402.9875649863493,153.69446778370457,-59.20829792836544,256.23033125208667,436.0695640920822
603,22.814414965732453,-223.47901253954694,-122.87811231476708,401.7377832346205,151.1827852741756,-61.99793608531191,256.0772029104624,433.25818405820553
604,23.09387590651563,-223.52031210335073,-122.62800707670084,399.71256724614614,148.88043305214228,-64.7081176224027,256.0238950497984,429.92604352691205
605,23.370835830758534,-223.67498290982044,-122.37724802229005,396.9524239677723,146.8481507845463,-67.27982290913755,256.07033433214525,426.13908867846845
606,23.642431477908953,-223.94114937851617,-122.12438227725922,393.5021496884207,145.1416965423662,-69.65537572509199,256.2139206430216,421.96315357623877
607,23.905773566423616,-224.31428385397578,-121.86796761921053,389.40960152807236,143.8107305923411,-71.77956595943593,256.4497263261848,417.4627925653239
608,24.158025294008308,-224.78746851143214,-121.60664657023875,384.72455368399665,142.89784651241013,-73.60071545861453,256.7707673456578,412.70025011623545
609,24.396491936070685,-225.35172530312076,-121.33922077859135,379.49767120064496,142.4377776685264,-75.07166610344511,257.1683353782314,407.73459292453475
610,24.618718246695085,-225.99640081281038,-121.06472315983325,373.77962605008946,142.4568057485536,-76.15067059846182,257.63237791066666,402.62102267348797
611,24.82258961571104,-226.7095915808157,-120.782484973659,367.6203733798718,142.9723946138374,-76.80216815427015,258.15191205097705,397.4103820304515
612,25.0064324218158,-227.47859467025268,-120.4921947847055,361.0685996315097,143.99306647948606,-76.99742929746527,258.7154568962513,392.1488606600789
613,25.16910880920511,-228.29036777060014,-120.19394616584738,354.1713481634541,145.51852820145515,-76.71505647039106,259.3114687996865,386.8779015591891
614,25.31010118031893,-229.13198284387437,-119.88827113548297,346.9738214940327,147.54004378649887,-75.94132971653393,259.9287636694138,381.6343004270392
615,25.429581929120097,-229.99105728647243,-119.57615676292448,339.51935229262983,150.041036399769,-74.67038931098277,260.5569106076996,376.4504823075804
616,25.528464284793483,-230.856147136877,-119.25904316639685,331.84952814118617,152.99789080362888,-72.90424960367766,261.1865820654941,371.35493112754085
617,25.608430655612292,-231.7170883489235,-118.93880218968286,324.00444831623315,156.3809169787898,-70.65264085122918,261.80984751704494,366.3727399592375
618,25.671935539858165,-232.56527454015793,-118.61769713295156,316.0230849006394,160.15542878115764,-67.932678818017,262.4204003111028,361.5262437629341
619,25.722180695093986,-233.3938625179868,-118.29832474748521,307.94371597334754,164.28288813096475,-64.76836565174791,263.013710329633,356.8356926597406
620,25.76306068464349,-234.19789995775795,-117.98354119923259,299.8043959561103,168.72206487444782,-61.189929898497034,263.5870980453043,352.3199227115377
621,25.79907737403794,-234.97437282079898,-117.67637402383154,291.64342776911906,173.43016421080577,-57.233018235464954,264.1397285829862,347.9969826514968
622,25.835222876464943,-235.7221734815422,-117.37992248932645,283.4998033773515,178.36387673600106,-52.93775630301555,264.6725276410823,343.88467878272286
623,25.876832060117156,-236.4419939436159,-117.0972494237201,275.41358345389375,183.4803105749327,-48.3477007994051,265.1880245917669,340.00100616276103
624,25.929407840804785,-237.1361517131923,-116.83126838913208,267.4261928572608,188.7377711852932,-43.50870972906465,265.6901314814457,336.3644421399432
625,25.99842474455357,-237.808358623411,-116.5846307968864,259.5806157859534,194.09636285632033,-38.467762241409,266.18386961144313,332.9940881526799
626,26.089118355855003,-238.4634449777721,-116.3596178790562,251.92148198925702,199.5183969706016,-33.2717635995496,266.67505757219465,329.90965695663925
627,26.2062700183737,-239.10705269079077,-116.15804230225487,244.4950424013064,204.9686052700991,-27.966374141224243,267.1699758789258,327.13131420832957
628,26.35399730576071,-239.7453116644875,-115.98116369913078,237.34903842858816,210.41417047854836,-22.59490319386431,267.6750237332972,324.67939451992424
629,26.535561233410704,-240.38451357947912,-115.82962153615615,230.53247371256109,215.82460018674877,-17.19730921343885,268.196383037328,322.574021757817
630,26.753200917762467,-241.03079674698273,-115.70338757202789,224.09530068536773,221.17148155551348,-11.809345448301748,268.7397037645625,320.8346708470818
631,27.008005342423015,-241.68985471565975,-115.60173887350936,218.08803688505537,226.42816312667816,-6.46188600750399,269.30982327430354,319.4797132975389
632,27.29983000610909,-242.3666798965163,-115.52325123602822,212.5613279458197,231.56941510139123,-1.180460439123838,269.91053020941035,318.5259908057751
633,27.62726362330151,-243.06535150381214,-115.46581209568267,207.56547540266962,236.57112020145863,4.0149839490939065,270.5443812900526,317.98846025748725
634,27.987647020527284,-243.7888746767762,-115.42665157583919,203.14994775096096,241.41004318780708,9.110083367108786,271.2125766710237,317.8799488502915
635,28.37714327227407,-244.53907492826667,-115.40238998488094,199.36289232028747,246.0637181417013,14.09582544446763,271.91489667265523,318.21104962725406
636,28.790855272811264,-245.31654926793283,-115.38909970592748,196.2506632989104,250.5104790904969,18.968098868354815,272.6496997622749,318.99017557141497
637,29.222984589739244,-246.12067264803315,-115.38237899122105,193.85737772681594,254.7296424246246,23.727051577323884,273.4139788346264,320.2237751798591
638,29.66702372417844,-246.94965593723356,-115.37743480887102,192.22450675224093,258.70183040385695,28.37629479876486,274.2034703212704,321.9166953305891
639,30.11597282706136,-247.80064957168182,-115.36917170452105,191.3905044267382,262.409406108604,32.92199853593311,275.01280862358715,324.07266010242245
640,30.562571417450588,-248.6698854551678,-115.35228372697202,191.39047143461048,265.8369739710351,37.371929517836186,275.8357169294554,326.6948192147975
641,30.99953559569152,-249.55284864080102,-115.32134690936591,192.2558470255817,268.97188877898066,41.73448466782976,276.6652247194208,329.78630903768845
642,31.41979152535278,-250.44446983994666,-115.27091058388532,194.0141194998541,271.80471130589314,46.01777166609143,277.4939021918427,333.3507642263207
643,31.81669649060369,-251.3393298033287,-115.19558672742396,196.6885441609188,274.3295510583963,50.22878332013782,278.3141022815391,337.39271967880677
644,32.18423958255282,-252.23186696958854,-115.09013729431419,200.29785787355607,276.5442456634641,54.37270470540997,279.1182016649087,341.91785054819434
645,32.51721505328409,-253.11658035693347,-114.94955994071024,204.85598135345813,278.4503408920511,58.452382176881436,279.8988329697532,346.9330115203574
646,32.81136263692214,-253.98822043211655,-114.76917268064548,210.37170407598552,280.05285337523577,62.46797233725568,280.6491013003848,352.4460539414844
647,33.06347062714227,-254.84196161345,-114.54469780421405,216.84835199897745,281.3598176327321,66.416777881364,281.36277911974577,358.46541876677696
648,33.2714391131257,-255.6735510957857,-114.27234480676688,224.28344460059074,282.3816381700786,70.29326678643373,282.03447442691635,364.9995227894939
649,33.434302458959976,-256.4794297105075,-113.94889130242585,232.668354196544,283.13028449988843,74.08926210665949,282.6597679914709,372.05597340402545
650,33.55221185558784,-257.2568214807981,-113.57176023924812,241.98798615229742,283.61838072363963,77.79428181858867,283.23531621555827,379.64066168194313
651,33.62638049642663,-258.0037894701271,-113.13909131500432,252.22050261370788,283.8582508243468,81.39600179509816,283.7589170889825,387.75679360388796
652,33.6589954731862,-258.7192565758879,-112.64980414266736,263.33711426798465,283.8609854438893,84.88081024002042,284.2295377080908,396.4039242322191
653,33.65310173690199,-259.40299110715546,-112.10365028750397,275.3019643159794,283.63559526139414,88.23441907711918,284.64730288648224,405.57705924111065
654,33.612464374022096,-260.05555818947556,-111.501250933771,288.07212644951187,283.18830997686894,91.4424970176605,285.01344543786945,415.2658827032193
655,33.54141600111343,-260.67823914794633,-110.84411692254477,301.5977344368369,282.522070612279,94.49129024898123,285.3302197682215,425.45415988376755
656,33.444696293830134,-261.2729220368008,-110.13464832776866,315.8222550792585,281.63624739522146,97.36819965686892,285.6007815186894,436.1193499354489
657,33.32729058136909,-261.84196748420607,-109.37611140551472,330.68290885152453,280.52659775034624,100.06228797672992,285.8290371476966,447.23244716299416
658,33.1942741358357,-262.38805501947365,-108.57259139703268,346.11123372614713,279.18546133052683,102.56469599177319,286.0194684473828,458.7580527015981
659,33.05066826776015,-262.9140159484525,-107.72892024935031,362.03377833630526,277.60217392696194,104.86895335958336,286.1769379515968,470.6546630066717
660,32.90131343592313,-263.42265950914316,-106.85057903254409,378.3729020688581,275.7636709018743,106.97117611936103,286.30648194785516,482.875149097833
661,32.75076313604887,-263.91659941684475,-105.94357583538626,395.04765312077626,273.6552434674112,108.87014881507201,286.413098346436,495.36739173549995
662,32.603200506308,-264.3980880182612,-105.01430111864698,411.9746916465136,271.26140669035686,110.56729430796882,286.50153698560865,508.0750324536765
663,32.462377827977676,-264.8688651127683,-104.06936365372623,429.0692239787566,268.56683558584,112.06653887948049,286.57610001015615,520.9382981860631
664,32.331577794937054,-265.33002799948315,-103.11541110533231,446.245915428161,265.55732489441584,113.37408419978448,286.6404596648126,533.8948579659825
665,32.213594626562745,-265.78192843975955,-102.15894003391625,463.4197532703415,262.2207295886328,114.49810101918828,286.6975001741088,546.8806740442116
666,32.110732577395325,-266.22410107503316,-101.20610070491018,480.5068380380123,258.54784724843887,115.44836187426381,286.7491894360211,559.8308168300013
667,32.02481892758228,-266.65522657721823,-100.26250267257167,497.42508966007495,254.53320983911135,116.23583163563453,286.7964851998693,572.6802227406382
668,31.957228091948277,-267.0731315459239,-99.33302757154644,514.0948643957698,250.17575983599508,116.87223533229829,286.83927930238156,585.3643849167589
669,31.90891314773825,-267.47482586620214,-98.4216556926723,530.4394877003509,245.47939240691102,117.3696223957203,286.87638230301764,597.8199769984731
670,31.88044088731603,-267.8565768283243,-97.53131266629836,546.3857159880383,240.45335038047918,117.73994549080892,286.90554940244255,609.9854182990122
671,31.872026487376345,-268.21401789031074,-96.6637420999006,561.8641458607296,235.11246198114551,117.99467071624117,286.92354701096826,621.8013940545217
672,31.883564167434454,-268.54228876067384,-95.81940946954607,576.8095922464568,229.47721367739635,118.14443424230942,286.92625803609184,633.2113469367115
673,31.91465086427446,-268.8362025495014,-94.99744189767954,591.1614570300991,223.5736531215744,118.19875836284355,286.90882292391296,644.1619561535567
674,31.96460093299557,-269.09043488376926,-94.19560761702745,604.8641076991219,217.43312087474587,118.16583754925944,286.8658125138437,654.6036190383921
675,32.03245113004068,-269.2997288814637,-93.41033794788369,617.867282123794,211.09181452915158,118.05240260780259,286.7914276431817,664.4909478543052
676,32.11695652868669,-269.4591086750688,-92.63679341886457,630.1265315278044,204.5901944104025,117.86366855884937,286.67971908124485,673.7832920004951
677,32.21657932310538,-269.56409291222224,-91.86897412255591,641.6037090589723,197.9722454159329,117.60336930133866,286.52481985036326,682.4452926073774
678,32.329473459595306,-269.61089862856,-91.09987258530107,652.2675055901025,191.28461408420418,117.273879343992,286.3211805674485,690.4474718684069
679,32.45346865244893,-269.5966254197146,-90.32166552143842,662.0940268172299,184.57564354404272,116.87641980433305,286.0637974840353,697.7668527180256
680,32.58605763956089,-269.51941020052,-89.52593896213094,671.0673963821641,177.89433185694898,116.41134254763466,285.7484227131119,704.3875957519075
681,32.7243904301305,-269.3785441706525,-88.70393952233627,679.1803596063946,171.28924188190305,115.87848286922367,285.3717468746021,710.3016306868395
682,32.86527868869605,-269.1745458463575,-87.84684320476556,686.4348529564015,164.80739342912702,115.27756762545273,284.931546063476,715.5092506702531
683,33.005212379347924,-268.90918678985986,-86.94603233775446,692.8424967338688,158.4931709797036,114.6086623377259,284.4267873560375,720.0196304785219
684,33.14038960693994,-268.5854694237289,-85.99337104098596,698.4249632872676,152.38728208292522,113.87263779141104,283.8576895350669,723.8512245730882
685,33.266759448366386,-268.2075587286094,-84.98146988052855,703.2141706872544,146.52580205790233,113.07163441347025,283.22573800198177,727.031998449909
686,33.380076615783615,-267.7806717170841,-83.90393095951045,707.2522529438934,140.93933942011327,112.20950162678949,282.53365494749283,729.5994473622802
687,33.47596615766503,-267.31093048704935,-82.75556548706574,710.5912632669937,135.65235342865128,111.29218968128234,281.78532787653916,731.6003611709826
688,33.549996119995704,-266.805186369628,-81.53257680101986,713.2925771568214,130.68265036896693,110.32807318700178,280.98570149322927,733.0903034218554
689,33.59775607528732,-266.27082402357894,-80.23270285367882,715.4259772780091,126.04107883705372,109.32818855521803,280.14063955885126,734.1327868497866
690,33.614939533315855,-265.71555508478224,-78.85531332491402,717.0684213224416,121.73143672333691,108.30637142485806,279.25676443406115,734.7981456286158
691,33.59742834572755,-265.1472110302589,-77.40145786545972,718.3025156845605,117.75059422604495,107.2792844951214,278.3412824891139,735.1621251705709
692,33.54137726952302,-264.5735442526101,-75.87386357355157,719.2147392985253,114.08882842774352,106.26633075072458,277.4018034221638,735.3042307490538
693,33.4432969070991,-264.0020450572938,-74.27688167896237,719.8934807341835,110.73035614502837,105.2894517988129,276.446160860336,735.3058940864336
694,33.30013330298179,-263.439780565949,-72.61638538589854,720.42696523818,107.65404347056526,104.37281588739954,275.4822405459967,735.2485300375249
695,33.10934246544713,-262.8932595759538,-70.89962259976498,720.9011551930556,104.83426330384714,103.54240493179056,274.5178210569358,735.2115620333693
696,32.86895793569499,-262.36832555072453,-69.13502857853395,721.3977069120141,102.24186664325129,102.82551414004683,273.56043053984934,735.2704944799327
697,32.57764933002079,-261.870078278771,-67.33200440056542,721.9920595670499,99.84522957952848,102.25018116426975,272.6172215334977,735.4951035226552
698,32.234769683731905,-261.4028234140192,-65.5006677478722,722.7517202219809,97.61133573072908,101.84456385397684,271.69486477349056,735.9478062511905
699,31.840389520703468,-260.97004809706596,-63.65158311443202,723.7347946649186,95.50685336763253,101.6362866666543,270.7994619901428,736.6822547444361
700,31.39531587938191,-260.5744200827495,-61.79547926036659,724.98879894068,93.49916798021644,101.65177582357092,269.9364770960577,737.7421873099365
701,30.901095043051367,-260.21780716416254,-59.94296246906076,726.549772413351,91.55733480959431,101.91560271100565,269.11068470000674,739.1605561570782
702,30.359998416925254,-259.9013132300827,-58.1042347373828,728.4417003932117,89.65292188587824,102.44985408707855,268.3261345746842,740.958939131692
703,29.774991765549153,-259.6253272107164,-56.288826194022384,730.6762429575494,87.76072185350661,103.27354639739279,267.5861306661866,743.1472330670845
704,29.149688725075716,-259.3895815493911,-54.50535060451695,733.2527566132153,85.85931938941951,104.40209972732347,266.89322349783725,745.7236176253867
705,28.488290051413994,-259.193217542919,-52.7612917766997,736.1585870468508,83.93150920524582,105.84688442199135,266.24921524829523,748.6747711644339
706,27.795510492129925,-259.03485566014444,-51.06282719728362,739.3696046535229,81.96456646945565,107.61485023023312,265.6551771714336,751.9763142914485
707,27.07649551713578,-258.9126695703087,-49.41469352878947,742.8509500695286,79.95037633264992,109.7082443189031,265.1114792324174,755.5934525604781
708,26.33673031817058,-258.8244629959031,-47.820096873429094,746.557954609686,77.88543187728308,112.12442114872944,264.61783180372066,759.4817873424389
709,25.581943357533056,-258.7677486398732,-46.280669126183405,750.4372000462272,75.77071043588458,114.85574437974867,264.1733390059184,763.5882630708247
710,24.818006352112736,-258.7398283632249,-44.796470369253534,754.427683012913,73.61143731476201,117.88957874113876,263.77656284714857,767.8522193846044
711,24.050832142654773,-258.73787355459075,-43.36603607561485,758.4620508961818,71.41674420607872,121.20836795237358,263.4255967768469,772.2065176446004
712,23.28627164154016,-258.75900428579865,-41.98646682093763,762.4678780074278,69.19922776765152,124.789793166419,263.11814667961505,776.5787125885208
713,22.5300110617256,-258.80036545463304,-40.65355723781252,766.3689529562084,66.97441278524514,128.60700513981016,262.8516167647916,780.8922414551773
714,21.787470858254814,-258.8591977420673,-39.36196017859811,770.0865504061223,64.76012468275486,132.6289226658834,262.6231973280073,785.0676048002349
715,21.063708141002092,-258.9329008950723,-38.10538159751021,773.5406627624499,62.57577844309661,136.8205898086986,262.42995101532995,789.0235154816969
716,20.363324617006377,-259.01908667464204,-36.87680145743445,776.6511698020532,60.44159554433297,141.14358495480937,262.2688940707365,792.6779949083145
717,19.690382313334837,-259.1156189435301,-35.66871572732686,779.3389268548514,58.37776713418525,145.55647536470272,262.1370692001743,795.9493986028845
718,19.048329398597364,-259.22063890721995,-34.47339394943757,781.5267550418297,56.403589546050334,150.01531152814664,262.0316071888002,798.7573564746829
719,18.43993840026991,-259.3325743900022,-33.283145810410474,783.1403205606435,54.53660604555099,154.47415607307235,261.94977517697123,801.0236170543659
720,17.86725905467074,-259.45013304574695,-32.09058884962899,784.1088944112987,52.791794849156915,158.88564216229557,261.88901038930805,802.6727894898752
721,17.331587887221676,-259.5722803923628,-30.888908338000906,784.3659894400196,51.18084659080119,163.20155619311495,261.8469389990853,803.6329824007338
722,16.833456258659947,-259.69820438424586,-29.672099882723902,783.8498780098037,49.711573512336656,167.37343920890257,261.8213806040201,803.8363445808384
723,16.372637952440854,-259.8272688469667,-28.43518554326325,782.5040005060362,48.3874872631516,171.3532008324814,261.8103394407885,803.2195186120911
724,15.94817653014984,-259.95895856586907,-27.174394937128866,780.277281567605,47.207572592291186,175.09373889783012,261.81198401975695,801.7240241346177
725,15.558431796516587,-260.0928192552137,-25.887303732809425,777.1243767092592,46.16627142259747,178.54955746686855,261.8246174036527,799.2965922598198
726,15.201143856269221,-260.2283960369785,-24.572923147373878,773.0058763272947,45.25367735441531,181.67737568182247,261.84664089274617,795.889475973962
727,14.873512491996527,-260.3651743212176,-23.231735890762028,767.888496562134,44.45592631075675,184.4367198810988,261.8765143452367,791.46076301973
728,14.57228907178512,-260.5025269989458,-21.865676562733153,761.7452867894946,43.75575647593297,186.7904914061293,261.9127166711087,785.9747173335105
729,14.293877890401214,-260.639671568264,-20.478057581285235,754.5558812639254,43.13320121378297,188.70550233678614,261.9537100924131,779.4021723048387
730,14.034443585729584,-260.7756401759894,-19.073444897762286,746.3068172480497,42.56637303342679,190.15297096847874,261.9979114618474,771.7209935679323
731,13.790021003789837,-260.90926458176006,-17.657490671008393,736.9919335395074,42.03229500953995,191.10896834897483,262.04367324072234,762.9166205343462
732,13.556623817468148,-261.0391768423189,-16.23673240407491,726.6128517670966,41.50773792437088,191.55480683610898,262.08927574159304,752.9826846056197
733,13.330348566070379,-261.163825281075,-14.818369484816444,715.1795289172485,40.97002602299457,191.47736150598126,262.1329311427501,741.9216886979003
734,13.10747153690925,-261.28150428221943,-13.410028457369368,702.7108546293632,40.3977808094103,190.86931532537105,262.1727988070942,729.7457186372651
735,12.884536760774981,-261.39039573362646,-12.01952775811544,689.2352525767618,39.7715799137233,189.72931933351992,262.20701069463394,716.4771437478344
736,12.658434057935185,-261.4886195046385,-10.654651326131177,674.7912335031168,39.07451586790391,188.0620597957931,262.23370512786494,702.1492532275378
737,12.426466463618517,-261.5742901120646,-9.322938797971442,659.4278397747627,38.29264677997859,185.87822557824032,262.25106680658416,686.8067681637822
738,12.186406551027932,-261.64557664852043,-8.03149829288529,643.2049186993834,37.41533671300617,183.19437095859595,262.25737074891157,670.5061672746547
739,11.936541280806418,-261.7007631102192,-6.786846329250064,626.1931646576854,36.43548773669657,180.03267169699043,262.2510277665329,653.3157679295875
740,11.67570512347775,-261.73830648228517,-5.594778203063769,608.4738778055198,35.34966817812967,176.4205752714661,262.2306291864825,635.3155121958825
741,11.403301295360086,-261.7568902820986,-4.460271057004933,590.1383987192419,34.15814286411237,172.39034954758603,262.1949887678116,616.596419575235
742,11.119310933345373,-261.7554716200827,-3.387420691103215,571.2871927881291,32.86481156215486,167.97853765018567,262.1431800175433,597.2596826801297
743,10.824289907355,-261.73332016866135,-2.3794117974836775,552.0285745540349,31.477061834833542,163.22533029438017,262.0745673423005,577.4153985243988
744,10.519352835231192,-261.6900478346224,-1.4385197621837955,532.4770800046513,30.005542476971375,158.17387011665815,261.988829787109,557.1809457998511
745,10.206143849613262,-261.6256285384891,-0.5661406396216859,512.7515136121699,28.46386383642327,152.86950538675546,261.88597664928466,536.6790370190693
746,9.8867938550827,-261.54040830060626,0.2371553777347863,492.9727160880312,26.86823174384434,147.35901262348722,261.76635500169425,516.0354931035882
747,9.563864423735792,-261.4351066088028,0.9715524891778103,473.2611174353154,25.2370225378324,141.68980886593943,261.63064990796266,495.37680591380257
748,9.240279042717258,-261.3108105395855,1.637905572785034,453.7341565556385,23.590307789427133,135.90917458264855,261.4798786011455,474.82757002499505
749,8.919243036251883,-261.1689632418929,2.2376497291481563,434.50366181615755,21.94933879867463,130.0635075112512,261.31538003827234,454.5078772530703
750,8.604154055599285,-261.01134829199924,2.7727078996075654,415.6732951513416,20.336002676729546,124.19762622968,261.1388011531353,434.53077466663547
751,8.298505531962398,-260.8400711962477,3.245400400416834,397.33616457092745,18.772263702409152,118.35414004924162,260.9520809120433,414.99988826030636
752,8.00578590807024,-260.65753892956207,3.658359108437143,379.5727062303594,17.279605539884745,112.57289898661304,260.757432904844,396.0073100112533
753,7.729376802897825,-260.4664378527178,4.014447981099066,362.4489278951055,15.878491737996631,106.89053427201785,260.55732667579593,377.6318361404462
754,7.472453512617019,-260.2697097943437,4.316690720722804,346.015091333224,14.58786352032949,101.34009625788921,260.3544674593332,359.93762972070357
755,7.2378913616798695,-260.07052568149896,4.568205730126729,330.3048927329573,13.424694863114256,95.9507928724543,260.15177359997966,342.9733621589988
756,7.028181336044806,-259.87225589048217,4.7721480531190545,315.3351787660834,12.40362477578985,90.74782809086945,259.9523507378936,326.7718666335846
757,6.845358148425395,-259.67843640123465,4.931657816954458,301.1062127032687,11.53668507705718,85.75233643851952,259.75946176793764,311.3503135862174
758,6.690943431165546,-259.4927298660202,5.049814880633893,287.6024813764479,10.833138432773872,80.98140641491538,259.57649162579764,296.7108951955415
759,6.565906154438695,-259.3188809425351,5.129599894424648,274.7940110779472,10.299435867372777,76.4481830070015,259.4069062156872,282.8419836885438
760,6.470641650590202,-259.1606657340201,5.173862574607892,262.63813993279643,9.939295641518862,72.1620372187586,259.2542053067102,269.7197086210605
761,6.404969831167962,-259.0218357827676,5.185298452407094,251.08167700891485,9.75389700788951,68.12878886352485,259.121869842698,257.3098819826426
762,6.3681523790269585,-258.9060575871433,5.166435531327003,240.06336530505922,9.742173954716286,64.35096783848064,259.01330464020003,245.57018798568998
763,6.35892793481225,-258.81684900577653,5.1196321368989715,229.51655722491267,9.901186783212513,60.82809884368271,258.93177784164516,234.4525471109426
764,6.375563583251926,-258.7575142244863,5.04708676139141,219.37200717890698,10.226544247305336,57.556995141078424,258.8803587948502,223.90556139314842
765,6.415920314712465,-258.7310791874784,4.95085996765379,209.5606861096825,10.712846618364019,54.5320484884164,258.86185624427435,213.87694963628525
766,6.477529695512896,-258.7402294771689,4.832907611967709,200.01652628185897,11.35412051072945,51.74550467196004,258.878758791765,204.31588653099
767,6.557678792877828,-258.7872525375957,4.695123939241166,190.67901075826077,12.144219248805989,49.18771685817531,258.9331794895317,195.17516763300176
768,6.653500392777093,-258.87398587686613,4.5393924459773665,181.4955298036443,13.077167338415265,46.84737209700601,259.02680616505796,186.41313200377363
769,6.76206558291074,-259.0017724760432,4.367641645702858,172.4234354215375,14.147433504205688,44.71168959892945,259.1608586626016,177.9952853400081
770,6.88047577018527,-259.17142414592746,4.181902061788624,163.4317350312372,15.35012307109982,42.76659268255569,259.33605368843837,169.89557818350173
771,7.0059511375996975,-259.3831931100584,3.9843602171659396,154.50237585245853,16.681086573821666,40.99685927218694,259.5525774719814,162.0973060479796
772,7.135912418051972,-259.63675170927365,3.777405340404739,145.63108287583938,18.136946877458865,39.386258230993434,259.8100660638472,154.59361083565133
773,7.268052748328172,-259.931179818314,3.5636649159960756,136.82772526653494,19.71505145068106,37.91768042883332,260.10759278425894,147.387575506463
774,7.400396429489889,-260.2649593418074,3.3460258299271954,128.11619846818172,21.413359549884703,36.57327413693655,260.4436621153607,140.49191629705848
775,7.531341805953285,-260.63597507345247,3.1276385584135884,119.53382190352303,23.23027585586728,35.334594071067635,260.81620926038755,133.9282885518738
776,7.659686212402864,-261.04152132230683,2.911902706785477,111.13026483311643,25.16444264126646,34.18277220200516,261.2226047402064,127.72623321430683
777,7.784631927216277,-261.4783140141796,2.702433339869172,102.96602555834147,27.214502152730347,33.098716412650695,261.65966374444565,121.92180115133584
