time,ax,ay,az,gx,gy,gz,accmagnitude,gccmagnitude
0,10.04368095781939,-239.99034928808496,-146.02759862169927,-43.51449650591393,5.4928001881340345,-6.893959028248609,281.1043703419011,44.31496109584046
1,9.906351738235937,-239.88945345918938,-145.82891610064397,-43.46175272302116,5.83895501555573,-7.3599755816146875,280.9113941262959,44.45018433532345
2,9.77010192790935,-239.79386891822767,-145.63238049967686,-43.40364053798849,6.161824762690079,-7.824708432429649,280.72412834635844,44.57753486016236
3,9.637263898065621,-239.70634940431466,-145.4397355161037,-43.34955049490261,6.453802191128081,-8.285464994284487,280.5459031282554,44.703942897487565
4,9.510006959001855,-239.62941553941457,-145.25258943260488,-43.30757496793977,6.7077909877083,-8.739630458943635,280.3797743347367,44.835213972104796
5,9.390272078416832,-239.56527807201024,-145.07237522991605,-43.28415247091461,6.917405035041912,-9.184696700542437,280.22843526873197,44.97573355371458
6,9.279716661210811,-239.5157697609792,-144.90031804217926,-43.28379775854686,7.077150267396574,-9.61829021436229,280.0941398550574,45.12824913619763
7,9.179671353252479,-239.48228856715457,-144.73741088559882,-43.30893248552442,7.182583047581499,-10.038198630094136,279.97864012461974,45.293742444704975
8,9.091110146507807,-239.46575473855208,-144.58439895751104,-43.35982591965111,7.230439735063601,-10.4423951275073,279.8831404086672,45.47139954332512
9,9.014634462061204,-239.46658402873965,-144.4417723031349,-43.43464927596266,7.218733114673772,-10.829059974462215,279.80827007820983,45.658681194276106
10,8.950471358764792,-239.48467865183545,-144.30976630461572,-43.52964098764893,7.146812627029068,-11.196598355988998,279.7540759267197,45.85149021371894
11,8.898485479633177,-239.51943671987007,-144.18836925079287,-43.639374004319386,7.0153868208565875,-11.543653645820271,279.7200344426899,46.04442707033155
12,8.85820376467268,-239.56977994323995,-144.07733618689326,-43.75711037057778,6.826507991598078,-11.869115332428002,279.7050833444896,46.23111987005379
13,8.828851361450017,-239.6341984347155,-143.976208317257,-43.87522328449366,6.583520417960689,-12.172121009779934,279.7076709652553,46.40461048378244
14,8.809396634230339,-239.7108106533791,-143.88433738728642,-43.985662934720295,6.290974845227537,-12.452052182875589,279.72582145013257,46.55777520762388
15,8.79860282223632,-239.7974358876556,-143.80091456963962,-44.08043990302883,5.95451285125317,-12.708524071339458,279.7572132227622,46.683756201384384
16,8.795083817401324,-239.891676178466,-143.72500329532673,-44.15209889919577,5.580725474591284,-12.941370052445876,279.7992677050156,46.77637913261245
17,8.797361691394388,-239.9910042443426,-143.65557520504072,-44.19415614404822,5.176990993769745,-13.150621785039773,279.8492448510284,46.83053304353175
18,8.803923852785603,-240.09285386214597,-143.5915480670283,-44.20147594582798,4.75129702000101,-13.336486322610002,279.9043418014511,46.84249057238377
19,8.81327793115169,-240.19470926729636,-143.53182420467462,-44.17056598063089,4.312052108484154,-13.499321642475007,279.9617909084706,46.81015037238388
20,8.824002665930685,-240.29419032205405,-143.47532773668308,-44.0997763006334,3.867891941766042,-13.639612038694873,280.01895342222446,46.7331887307402
21,8.834793287985283,-240.38913035147505,-143.42103883086443,-43.98939362608162,3.427484853483691,-13.75794478866343,280.0734052126352,46.61311351128476
22,8.844500125392734,-240.47764374274635,-143.3680232953931,-43.841629299244325,2.999341101840073,-13.854989385204995,280.1230111384828,46.45321992518816
23,8.852159392295087,-240.55818079916094,-143.31545616995336,-43.660505715604586,2.59162990530152,-13.931480393347442,280.16598519381114,46.25845361666825
24,8.85701533015772,-240.62956796086652,-143.26263843510267,-43.45165161777235,2.2120078303890027,-13.988204665469661,280.20093433273377,46.035191673151935
25,8.858533124761347,-240.69103224928918,-143.20900641869912,-43.22202103869515,1.867461673183986,-14.025993289984891,280.2268847552048,45.790956153361925
26,8.856402343582843,-240.7422095571131,-143.15413388986556,-42.97955375540411,1.5641684992603313,-14.045718291612255,280.2432903130229,45.53407743076011
27,8.850530987856791,-240.7831371054455,-143.0977272582424,-42.732796854125695,1.3073750054539341,-14.0482937341969,280.25002352565576,45.27332606758182
28,8.841030610448913,-240.8142309466558,-143.03961482021225,-42.49050755307262,1.1012978705982344,-14.034680472069848,280.2473504534806,45.01753220112116
29,8.828193337967127,-240.83624980746663,-142.97973151158672,-42.261257020618906,0.9490463302943838,-14.005893358739385,280.2358913113502,44.7752107781048
30,8.812462054579816,-240.85024695041898,-142.91810092786872,-42.0530537951458,0.8525678984034566,-13.963009329716707,280.2165692026374,44.554209666708324
31,8.794395392374847,-240.85751216751564,-142.85481641354485,-41.87300368526398,0.8126179687148326,-13.907174547806967,280.1905497598825,44.3613958732134
32,8.774629441764574,-240.8595064273388,-142.7900229016148,-41.72702072877897,0.8287539057229242,-13.8396088006692,280.1591747725375,44.202392840316236
33,8.753838211297278,-240.85779192059297,-142.72390094115855,-41.619600927155844,0.8993540919674535,-13.76160553929045,280.1238929499755,44.08137910964638
34,8.732694853871974,-240.85396029177303,-142.65665398480934,-41.553667134486744,1.0216621821218932,-13.674526265091258,280.086190813269,44.00095554592627
35,8.711835549868914,-240.8495618458589,-142.58849960551373,-41.53048982516918,1.1918565015701827,-13.579788377793262,280.0475264967565,43.96208498050622
36,8.691827688897193,-240.84603848348516,-142.51966498386622,-41.54968466728193,1.4051441356979224,-13.478846106519427,280.00926903059735,43.964104707527355
37,8.673143647603798,-240.84466289570852,-142.4503867850033,-41.60928406345025,1.6558788243180218,-13.37316475941149,279.97264535601124,44.004808913077454
38,8.656141084722027,-240.84648613522032,-142.38091535877362,-41.70587630977628,1.9377013168479547,-13.264189161840577,279.9386968600579,44.0805950023
39,8.641050313280076,-240.85229530008374,-142.31152289887,-41.83480303769411,2.2437002947469704,-13.153307715783967,279.9082467302965,44.186665119129394
40,8.627968973659685,-240.8625828642575,-142.24251469186765,-41.9904033561539,2.5665912417372065,-13.041813968680836,279.88187900266234,44.317272112748476
41,8.616863903343043,-240.87752903016383,-142.17424202153995,-42.16629163623059,2.898909765369101,-12.930867920553757,279.85992976142586,44.465997831449364
42,8.607579758520435,-240.8969981566697,-142.10711495008266,-42.355655038503045,3.2332150180257253,-12.821459480496848,279.84249050482157,44.626050785993314
43,8.59985359593961,-240.92054978699545,-142.0416131995662,-42.55155650458566,3.5622982050349496,-12.714376455552022,279.8294232327862,44.79056975382149
44,8.593334308020575,-240.94746409752906,-141.97829361557842,-42.7472289684952,3.8793907208961884,-12.61017921091488,279.82038632985643,44.95291975407746
45,8.587605563793527,-240.9767806998365,-141.91779305724197,-42.93634710578273,4.178366123967386,-12.509183719929537,279.8148697256569,45.1069671432095
46,8.582210783209375,-241.0073487071878,-141.86082589802393,-43.113264213397386,4.453929904721154,-12.411454176458507,279.81223710263316,45.247321565748486
47,8.576678684345687,-241.03788502829033,-141.8081756069772,-43.273203916301775,4.701790890903919,-12.316805723146121,279.8117722454872,45.3695342819067
48,8.570548059174099,-241.0670372104366,-141.7606801815363,-43.41239928958359,4.918808220412415,-12.224817225013387,279.81272622701914,45.470244969794464
49,8.563390575575527,-241.09344694472972,-141.71921158440531,-43.528175450114375,5.103108079459522,-12.134853471513294,279.8143621367253,45.54727227537372
50,8.554830509247832,-241.1158105567262,-141.68464978234582,-43.618975343056476,5.254164838948975,-12.046095772015867,279.8159944625973,45.599646817137305
51,8.544560393813809,-241.13293334992593,-141.65785245535878,-43.6843319254985,5.372841885968899,-11.957579600946055,279.81702093976907,45.62758866498612
52,8.532351744050954,-241.14377544601047,-141.63962190210103,-43.7247929231657,5.461388426163296,-11.868237705857338,279.81694557943973,45.63243421415399
53,8.51806036501538,-241.1474876504829,-141.6306710090235,-43.741806610324275,5.523389882430372,-11.776946915366873,279.815392533514,45.616519696585165
54,8.501626287345653,-241.14343668584274,-141.63159021658214,-43.7375785377643,5.56367122144227,-11.682576816388455,279.8121111985827,45.58303023617926
55,8.483068890197787,-241.13121973136367,-141.6428171265073,-43.714909830091635,5.588154482569581,-11.584038536446638,279.8069733460439,45.53582436935841
56,8.462478126872274,-241.11066859711616,-141.6646099038231,-43.67702771092002,5.603673784909611,-11.48033203793342,279.799963162751,45.47924439037349
57,8.44000297560817,-241.08184413984293,-141.697025269694,-43.62741841187456,5.617753011084894,-11.370590535592696,279.7911611527782,45.417922808074685
58,8.415838429541314,-241.04502175841984,-141.73990185422716,-43.56967165261279,5.638353129289889,-11.254120809422277,279.7807230393259,45.35659464876815
59,8.390212517699739,-241.00066902376753,-141.79284983990334,-43.50734450705789,5.673597617357771,-11.130438262893529,279.76885507711887,45.299924333599556
60,8.363374810763423,-240.9494167773925,-141.8552478810062,-43.44385074845411,5.731485569464107,-10.999295600767978,279.75578745274834,45.25235442985518
61,8.335587446989523,-240.89202539934837,-141.92624807527275,-43.3823797206248,5.819602718379126,-10.860704055001651,279.74174765351813,45.21798175914651
62,8.30711907184179,-240.82934828550992,-142.0047893268818,-43.32584647541606,5.944840791408842,-10.714946234076063,279.72693574608604,45.2004642206728
63,8.278241589448536,-240.76229474712167,-142.08961888887143,-43.27687249718109,6.113135372069191,-10.562579894074496,279.7115033683083,45.20295940460493
64,8.24922945801238,-240.69179454339005,-142.17932133565682,-43.237793997636864,6.32923180378312,-10.404432160998123,279.69553796061734,45.2280938039846
65,8.220361270514262,-240.61876613718013,-142.27235382327842,-43.21069267858242,6.596487707468984,-10.241583937625252,279.6790534589223,45.27795934401936
66,8.19192331271966,-240.54409051925842,-142.36708629804394,-43.197442196262266,6.916719484144314,-10.075344446997429,279.6619883554799,45.354132218819835
67,8.164214644490272,-240.4685920560845,-142.46184522270894,-43.19976250819059,7.290098831212712,-9.90721618023982,279.64421164163326,45.45770786767281
68,8.137553129945115,-240.3930273341888,-142.55495927195707,-43.21927395955329,7.715103871560578,-9.738850969243531,279.6255366608602,45.589345463027705
69,8.112281817693683,-240.3180824929023,-142.64480526914537,-43.257543343889246,8.188527971036205,-9.571998444924715,279.6057423865109,45.74931547867733
70,8.088775108688695,-240.24437905285092,-142.72985247881698,-43.31611511693296,8.705547646170192,-9.40844864836961,279.58460113743826,45.93754459468559
71,8.067444207665751,-240.17248756771056,-142.80870338300102,-43.39652230026181,9.25984908834549,-9.24997090483489,279.5619111692769,46.15365319354446
72,8.048741416585562,-240.102947371723,-142.88012933537433,-43.50027328943456,9.8438107562899,-9.098251171342291,279.5375318178939,46.396981903564416
73,8.033162860582342,-240.03628952128852,-142.94309989675767,-43.62881277699429,10.448737265806674,-8.954829943091571,279.51141808382533,46.66660505628716
74,8.021249220308283,-239.97305937245986,-142.99680498324827,-43.78345732552863,11.065137509463513,-8.821042562743049,279.4836511573356,46.96133058423937
75,8.01358399902003,-239.91383544699687,-143.04066910232027,-43.965308683407564,11.68303770020893,-8.697963560682918,279.45446163850727,47.27968773871935
76,8.0107887949348,-239.85924204609591,-143.07435704470282,-44.175150487469935,12.292318058638832,-8.58635654067125,279.42424294179995,47.619905862520376
77,8.013514985457011,-239.80995400971764,-143.0977706676056,-44.413336227365,12.88306037443217,-8.486631094542894,279.3935533109404,47.979889040717914
78,8.022431199657085,-239.7666928876515,-143.11103693814496,-44.67967795134442,13.445892815772053,-8.398808216533938,279.36310588262756,48.35719251990353
79,8.038206060289562,-239.73021458307744,-143.1144880698952,-44.97334595390533,13.972318185899962,-8.322495647209474,279.33374725883937,48.749007168933296
80,8.061486042875918,-239.70128921038457,-143.10863518686182,-45.292789513411854,14.455012299691099,-8.256874494378344,279.30642594864247,49.152157910661
81,8.092868949884334,-239.68067439782615,-143.0941374195117,-45.635687664574704,14.88808017462251,-8.200698322971704,279.2821527200279,49.56312102365526
82,8.132874249440638,-239.6690835908606,-143.07176862461498,-45.998937053781994,15.267259186285568,-8.152305627675164,279.2619553525692,49.97806355523149
83,8.181912103956297,-239.6671512183754,-143.04238386333765,-46.37868122480869,15.590060196324373,-8.109646202848701,279.24683053535415,50.3929059209869
84,8.24025316750686,-239.6753969568868,-143.00688734575292,-46.77038244004512,15.855839986352702,-8.070321461893954,279.23769576739375,50.80340635962901
85,8.308001189623816,-239.69419163019973,-142.96620306555528,-47.16893373663335,16.065801171072863,-8.031638266127738,279.2353441311006,51.20526363671812
86,8.385070215423154,-239.7237272308685,-142.92124913595399,-47.56880577312665,16.222919028217834,-7.9906753030208515,279.24040465121794,51.59423257182423
87,8.471167779096687,-239.76399301494274,-142.8729168785119,-47.96422051133018,16.331798165951295,-7.944360529825486,279.25331050237213,51.966245815885046
88,8.5657849742598,-239.81475880667134,-142.82205575285317,-48.34934217667343,16.398465414681425,-7.8895577038488565,279.274276631819,52.3175349547928
89,8.66819370293957,-239.87556593090508,-142.7694650322784,-48.71847539062626,16.430108560331355,-7.823159562137044,279.3032876349218,52.644744489114764
90,8.777450892965337,-239.94572580089016,-142.71589263728757,-49.0662608213217,16.434773319654493,-7.742184799385502,279.3400961176761,52.94503342154898
91,8.892409166225562,-240.02432608133157,-142.66204077243316,-49.3878598757327,16.421033084693157,-7.643875652024973,279.38423128619456,53.21616076818185
92,9.0117333566297,-240.11024434641783,-142.6085771582354,-49.679121401593314,16.397647251195338,-7.525792652436887,279.43501706299844,53.4565528451573
93,9.133922351987069,-240.20216915173742,-142.5561499305427,-49.93672463673249,16.373224292798135,-7.385902983283488,279.4915986622306,53.66535125892244
94,9.25733585990635,-240.2986283724195,-142.50540378635426,-50.15829353055618,16.35590514136309,-7.2226588757852275,279.5529762483647,53.84244099112965
95,9.380225716131655,-240.39802443303896,-142.45699467608233,-50.3424781576353,16.3530809497477,-7.035062731560352,279.6180439640949,53.9884579679313
96,9.500771176039803,-240.49867564749036,-142.41160030387306,-50.48899951543584,16.371157073845765,-6.822716155342956,279.68563223555276,54.10477536014592
97,9.617117362748198,-240.5988624250052,-142.36992399668358,-50.59865481854475,16.415372294586547,-6.585850822035808,279.75455100715595,54.19346788631041
98,9.72741586904388,-240.69687670815443,-142.33269021669955,-50.6732816144959,16.489679109940475,-6.3253399496180975,279.8236315787525,54.257253753363294
99,9.82986646069127,-240.79107268455152,-142.30063108121723,-50.71568064456599,16.59668755838675,-6.042690007977257,279.89176499205627,54.29941458146384
100,9.922758782866664,-240.87991651437986,-142.27446453270406,-50.72949928658526,16.737671668240868,-5.740013120343638,279.95793530683886,54.32369467136059
101,10.004512836880846,-240.9620326145755,-142.25486598685535,-50.71907958580343,16.9126344392732,-5.419981394126681,280.02124653453257,54.33418225012882
102,10.07371683212316,-241.03624407665563,-142.24243610410713,-50.689277193370756,17.12042444056443,-5.0857651264018315,280.0809424381048,54.33517679409416
103,10.129160960740299,-241.10160510698725,-142.23766762522826,-50.64525973987103,17.35889480897905,-4.740957424151139,280.13641882109323,54.33104796178156
104,10.169865772985142,-241.15742388821587,-142.24091402624973,-50.592294930838456,17.625093748167984,-4.3894882149669,280.1872282754017,54.32609277284725
105,10.195104166816602,-241.20327488571456,-142.25236229601768,-50.53553965920579,17.915474613967945,-4.035530866899636,280.2330776770999,54.32439819127808
106,10.204416484618992,-241.2390003013971,-142.27201164214276,-50.47984150936969,18.226113373852943,-3.683404673993389,280.2738190696974,54.32971609867515
107,10.197618661312385,-241.26470103871242,-142.29965946471037,-50.42956315931699,18.552921644756143,-3.3374763168585666,280.3094349265756,54.345356804604336
108,10.174803616061324,-241.28071812877937,-142.33489548560738,-50.38843850544112,18.89184457012955,-3.0020631396232678,280.34001907209074,54.37410588364974
109,10.136336131458386,-241.28760603645767,-142.37710452290466,-50.35946706897584,19.23903438301631,-2.6813407687832784,280.3657547468844,54.41816746677644
110,10.08284150345703,-241.2860995703603,-142.4254781029112,-50.3448506316071,19.590992515405905,-2.379257257208764,280.3868914189266,54.47913535354603
111,10.015188409419638,-241.27707625430526,-142.47903480720174,-50.34597330682283,19.944675453451723,-2.0994555419946557,280.40372191536534,54.55799161498724
112,9.93446667748994,-241.26151603898083,-142.53664880226162,-50.36342360641476,20.297562061730364,-1.8452055378614813,280.4165612505779,54.655130860331276
113,9.84196080965011,-241.240460184776,-142.59708542668093,-50.39705473358697,20.647682607137956,-1.6193466606355635,280.42572819935435,54.770407146535575
114,9.739120159977826,-241.21497100347278,-142.6590422115157,-50.44607748067859,20.993611975618833,-1.4242410458153945,280.4315302857466,54.903199645772084
115,9.627526665848656,-241.18609391060733,-142.72119343910634,-50.509178782343106,21.334431397575752,-1.2617373092741517,280.4342525129261,55.05249261433641
116,9.508861078073718,-241.15482301136637,-142.7822363396109,-50.58465817856464,21.66966426728092,-1.1331445049276547,280.4341499567175,55.2169648925251
117,9.384868765622237,-241.12207131273763,-142.84093720961354,-50.67057416438865,21.999192345487813,-1.039215977799455,280.431444329486,55.39508410432578
118,9.257326278050352,-241.0886465969958,-142.89617594946347,-50.764892569916135,22.323158846249843,-0.980142975912595,280.42632468184445,55.585200886408956
119,9.128009790113904,-241.0552338855999,-142.9469876037994,-50.86562959027124,22.641864742307405,-0.9555580277507247,280.4189523595426,55.78563878286727
120,8.998666301486647,-241.022385155805,-142.99259944752495,-50.970982763296455,22.955664192145445,-0.9645481348553337,280.4094700704205,55.99477584255529
121,8.870988119175799,-240.9905165453496,-143.03246211179865,-51.0794440231326,23.264864393673026,-1.0056777748004078,280.39801450898,56.21111444164738
122,8.746590809605769,-240.9599128115132,-143.06627329272433,-51.189889900621694,23.569634478593713,-1.0770216101491605,280.3847315912418,56.433336415154
123,8.62699451184805,-240.9307384071428,-143.09399272360918,-51.30164495146087,23.869927331397797,-1.1762066854151618,280.3697930615572,56.660341194270075
124,8.513608284050598,-240.90305420512115,-143.11584726437172,-51.41451554925305,24.16541748028969,-1.3004637202132197,280.3534130256308,56.89126530261749
125,8.40771705532078,-240.87683861001287,-143.13232513862266,-51.52879229497959,24.455457458689608,-1.4466868048352266,280.3358627986696,57.12548227080771
126,8.310470785716792,-240.85201155704218,-143.14415858380693,-51.645220501374915,24.739054235753986,-1.6115004132494835,280.31748237773843,57.36258280047821
127,8.222875548735189,-240.82845978869165,-143.15229462785734,-51.76493954928281,25.014866433523704,-1.7913323048445609,280.29868699442164,57.60233586922879
128,8.145786376690873,-240.80606188082257,-143.15785446191126,-51.88939338566459,25.28122210053609,-1.982490663224635,280.279967673765,57.84463242159301
129,8.07990181009951,-240.78471171714898,-143.16208280783144,-52.02021597552299,25.5361558389482,-2.1812436656798675,280.261885403879,58.089414292531586
130,8.025760149669017,-240.7643393192555,-143.166289537417,-52.15909703744625,25.777463120823786,-2.383899535099247,280.24505914068726,58.33659198409574
131,7.9837374054874255,-240.74492800796537,-143.17178643407183,-52.30763480834803,26.002768711727935,-2.586885035606665,280.2301482534469,58.58595580771417
132,7.954046859728109,-240.72652687683453,-143.17982233495064,-52.46718381447283,26.209605313113794,-2.7868204093126527,280.2178301941888,58.83708566986042
133,7.936740027539993,-240.70925768933665,-143.19151993798454,-52.63870652324784,26.39549794807054,-2.9805889217108628,280.20877430507113,59.08926533077789
134,7.931708684980617,-240.69331566025406,-143.2078173773023,-52.82263811532722,26.558049354588455,-3.165399421132347,280.20361288049355,59.34140717590807
135,7.93868761816296,-240.67896407344534,-143.22941739588734,-53.01877329157223,26.69502178005205,-3.33884056570226,280.20291088078045,59.59199330700507
136,7.957257875265369,-240.66652317051646,-143.25674663528278,-53.22618296610707,26.80441108685448,-3.4989256216426,280.2071359518793,59.83903805550497
137,7.986850547485236,-240.65635410271193,-143.28992715270144,-53.44316696179329,26.884509891082935,-3.644126999092638,280.21663050786685,60.08007587491507
138,8.02675140001577,-240.64883894896738,-143.3287616922501,-53.66724660390895,26.93395740804014,-3.7733999661655977,280.2315875219076,60.312177073166964
139,8.076106928382606,-240.6443579188907,-143.3727335184487,-53.89519867830145,26.95177463524907,-3.8861952537168856,280.25203140924083,60.53199217087082
140,8.133932530481324,-240.64326494449332,-143.42102088694227,-54.12312985749912,26.93738442283182,-3.9824604988579493,280.2778050856766,60.73582402821065
141,8.199123412153071,-240.64586295029582,-143.47252555960014,-54.3465885917137,26.890616882498943,-4.062630646185139,280.30856401312565,60.91972544205812
142,8.270468617088365,-240.65238016962277,-143.52591413909946,-54.56070971197552,26.811701467993128,-4.127607540765271,280.34377777847055,61.079618763414636
143,8.346668266227192,-240.66294891049512,-143.5796703085143,-54.76038562804302,26.70124786870707,-4.178729050421077,280.38273941892925,61.21143322637507
144,8.426353794264484,-240.67758814124295,-143.6321553158022,-54.940456986160484,26.56021852242668,-4.217728192577583,280.42458228709546,61.311255051648835
145,8.508110772839244,-240.69619116979703,-143.68167343455744,-55.09591493888618,26.389895996475254,-4.246682921698786,280.4683038480489,61.37548492489814
146,8.590503871015693,-240.71851955220708,-143.72653890320373,-55.22210679528824,26.19184861789166,-4.267957430343186,280.51279556182993,61.40099714066622
147,8.672103576324261,-240.74420417054947,-143.76514107284592,-55.31493682031462,25.967897481991642,-4.284136016035634,280.55687795454804,61.38529457289552
148,8.751514294221149,-240.77275407086748,-143.79600507234193,-55.37105432086453,25.720087354968104,-4.297950792536706,280.59933998120823,61.32665368615515
149,8.82740317558967,-240.80357305101424,-143.81784601990188,-55.38802176822209,25.450663122573687,-4.312204809333304,280.63898164049124,61.224253980250516
150,8.898528571555847,-240.8359832246727,-143.82961542223003,-55.36445640361154,25.162052439723237,-4.329692479783929,280.67465846154016,61.078286472671245
151,8.963766709468981,-240.86925412071056,-143.8305387394145,-55.3001394737894,24.856854166246677,-4.353119546375194,280.7053260847781,60.89003601640886
152,9.02213524351676,-240.90263549669663,-143.8201432255172,-55.19608798090156,24.537831093915848,-4.385025050893411,280.7300829047156,60.66193247486963
153,9.072812681387296,-240.93539194367307,-143.7982753199389,-55.05458469914375,24.207904521277847,-4.427707876308349,280.7482087485991,60.397566167041234
154,9.115153118872412,-240.9668374119261,-143.76510722725519,-54.87916328231441,23.870147599543035,-4.483160375788998,280.75919780586173,60.10166368996255
155,9.148696083776992,-240.9963678852926,-143.7211328284423,-54.67454657750723,23.527774161073722,-4.553011419481944,280.76278437467045,59.78002127837323
156,9.173171545555244,-241.02349053910547,-143.66715352850824,-54.44653774424589,23.184119936443604,-4.638480905173763,280.7589603257387,59.4393942450235
157,9.188500292040512,-241.04784783738,-143.60425493330283,-54.201865410086405,22.842613592630077,-4.740347426107976,280.74798343529744,59.08734269200212
158,9.19478994050903,-241.06923515873993,-143.53377537172673,-53.94798583098351,22.506735826212818,-4.858930373661616,280.7303759155986,58.732035533621186
159,9.192326863913568,-241.0876107150482,-143.457267323604,-53.692846836923636,22.17996579668392,-4.994087267561149,280.7069126407251,58.382016886980374
160,9.181564295448199,-241.10309682355705,-143.37645283772167,-53.44462019625472,21.86571544241991,-5.145226566718101,280.6785988294223,58.04594101919751
161,9.163106862890473,-241.11597208573036,-143.2931740852273,-53.211410867040755,21.567253555171526,-5.3113356489087415,280.6466373978604,57.732284185672725
162,9.137691851795195,-241.12665467356658,-143.209340392103,-53.000953331195454,21.28762269874201,-5.4910230704172065,280.61238685258706,57.449043690304315
163,9.106167640673824,-241.1356775782008,-143.1268734389012,-52.820306711219466,21.029552994727766,-5.68257363752021,280.57731133462374,57.20343618085416
164,9.069469961002568,-241.14365721466166,-143.04765260331519,-52.67556151208889,20.795377436045637,-5.884014269773565,280.5429250409082,57.001608425000796
165,9.028596792415975,-241.15125717827817,-142.97346245072555,-52.571571449208676,20.58695374368334,-6.0931881299885,280.51073361314724,56.84837445360265
166,8.984582695062631,-241.15914919549795,-142.9059441969147,-52.51172372651965,20.40559781285285,-6.307834039922695,280.48217520219066,56.74699281911473
167,8.938473219397878,-241.16797333915096,-142.84655275474685,-52.49776013522225,20.25203344200896,-6.525667838255226,280.45856382342777,56.698996617424456
168,8.891299833926103,-241.1782993873202,-142.79652080959113,-52.52965937826761,20.126362327044106,-6.744462163324137,280.44103736010135,56.70408681434609
169,8.844055685533078,-241.19059095506316,-142.75683120209527,-52.60558820789766,20.0280573445794,-6.962121223683984,280.43051226493736,56.76009646612876
170,8.79767253867157,-241.20517391051675,-142.72819862023098,-52.72192557438899,19.95598103569256,-7.17674744831949,280.4276467673493,56.863029925428975
171,8.752999453126058,-241.22221062905012,-142.71106106957905,-52.873360329478054,19.908429937663353,-7.386697435536669,280.4328141649548,57.00717736287494
172,8.71078403804921,-241.2416816830867,-142.7055807922794,-53.05305934721731,19.88320396696381,-7.590625275555411,280.446087419534,57.18530111259454
173,8.671657277026231,-241.2633764130806,-142.71165351680014,-53.25289942161586,19.877698484980527,-7.787512024576671,280.4672357515261,57.38888666105179
174,8.636122895914369,-241.28689338189682,-142.72892449922745,-53.4637531834815,19.889015129591293,-7.97668079387913,280.4957333306101,57.6084477765571
175,8.604552112167381,-241.31165103411152,-142.75680983445562,-53.67581673297626,19.914086132409185,-8.157797567359916,280.5307795784732,57.833872544617435
176,8.577184398674952,-241.33690810103133,-142.79452172677958,-53.87896483329336,19.94980578451797,-8.330858478491578,280.571330028275,58.05479508802302
177,8.554134575967407,-241.36179250201403,-142.841096587448,-54.063118431241676,19.993162043843782,-8.496164850730361,280.6161360846135,58.26097660620138
178,8.535406078798694,-241.3853366849826,-142.89542497936716,-54.21860901441642,20.041361025460958,-8.654287805850268,280.663791394796,58.44267911981699
179,8.520909664921756,-241.40651658526747,-142.95628261277366,-54.33652491114314,20.09193728430591,-8.806024645967073,280.71278196177485,58.59101597876804
180,8.510486257107292,-241.4242909945937,-143.02236175222566,-54.40902608596071,20.142843422193803,-8.952349487696873,280.76153686247915,58.69826479220883
181,8.503932157653832,-241.43763848782902,-143.0923025228822,-54.429616211997526,20.19251367920088,-9.094360734045578,280.8084768001482,58.758130919950226
182,8.501024633041222,-241.44559002207725,-143.16472381320634,-54.393363616648614,20.2398977764228,-9.23322788296161,280.8520586585738,58.765952833160135
183,8.501545883466227,-241.4472563085707,-143.2382537153543,-54.297065763405186,20.284463214608397,-9.370139896288038,280.89081520502384,58.71884414837782
184,8.505303677418974,-241.44184965909415,-143.3115594846783,-54.1393548859162,20.326166287474205,-9.50625694851818,280.92338963631056,58.615770556498
185,8.512147362808003,-241.428700310907,-143.38337674032942,-53.920744988830705,20.3653940353122,-9.642666937089498,280.9485648021699,58.45756292104084
186,8.521978476675333,-241.40726750131861,-143.4525372323376,-53.64362258995085,20.402881088462408,-9.780347738243163,280.9652869807904,58.24687038143016
187,8.53475570361301,-241.37714590204916,-143.51799414443568,-53.31218527897579,20.439606738015005,-9.920135851669016,280.9726842045221,57.988059315828544
188,8.550494402298433,-241.3380683353353,-143.57884364080113,-52.93233338644747,20.47667858979957,-10.062701770023244,280.97007927998175,57.68706545859333
189,8.569261272994424,-241.2899058252688,-143.6343412449654,-52.511520811725575,20.51520981547628,-10.20853210496984,280.95699770600635,57.351207346958375
190,8.591164979680514,-241.2326659553583,-143.6839117967583,-52.05857144735834,20.556197322233785,-10.357918199230209,280.93317070688016,56.98896968427798
191,8.61634367197927,-241.1664903174488,-143.72715229623407,-51.58346776280591,20.600408101326227,-10.510950702067753,280.8985337300345,56.60976525166488
192,8.644950376024688,-241.09165167341223,-143.7638278077723,-51.097118017269636,20.64828055293327,-10.667519434223655,280.85322106361446,56.22368371603441
193,8.677137213798398,-241.0085513260537,-143.79386137486097,-50.61110827430595,20.699846720094964,-10.827317809039528,280.7975575263114,55.84123508505167
194,8.71303943816314,-240.91771704806396,-143.81731925156302,-50.137444916351704,20.754680135185456,-10.989851055099468,280.7320482431618,55.473094678976274
195,8.752760281624473,-240.81980174355635,-143.83439273829117,-49.68829272503518,20.811872446327985,-11.15444748029298,280.6573673632278,55.12985536275732
196,8.79635752409031,-240.7155828881413,-143.8453777728457,-49.275712805705,20.870040248647893,-11.320272067695097,280.57434638984927,54.821791452892896
197,8.843832512253151,-240.6059627254601,-143.8506533105717,-48.911403716714474,20.92736175405047,-11.48634182984361,280.48396266813,54.558637260465495
198,8.89512218142565,-240.49196907867818,-143.85065947213562,-48.606448208083506,20.98164125562214,-11.6515425262172,280.38732843607926,54.34938178101049
199,8.950094441238193,-240.3747563318369,-143.84587647119534,-48.37106715501169,21.030397889935372,-11.814646494671912,280.2856805948918,54.20207977515459
200,9.008547058680161,-240.2556056593394,-143.83680536520424,-48.21438182591182,21.07097402527152,-11.974331422600837,280.1803709512522,54.12367862948214
201,9.07020992764705,-240.13592312553538,-143.8239515306684,-48.14418579768013,21.10065771387729,-12.129199880240433,280.0728562098232,54.11986017271599
202,9.134750413851,-240.0172340598073,-143.80781143661554,-48.16672879948252,21.11681304014684,-12.277799355754926,279.9646866311165,54.19489721096181
203,9.201781329851103,-239.90117220903826,-143.78886295378706,-48.28651653110597,21.117011905655943,-12.418642399750896,279.8574921730334,54.35152595773306
204,9.270870974259545,-239.78946250594603,-143.76755924240445,-48.506132774694876,21.09916086499739,-12.550226396808851,279.75296511627613,54.590837546074404
205,9.341554488572102,-239.68389675973617,-143.74432620382618,-48.8260923169703,21.061617071868977,-12.671052529503429,279.6528385369218,54.912193921785956
206,9.413345561154824,-239.58630211851553,-143.71956345038734,-49.244734633536595,21.003288163407074,-12.77964368859416,279.5588604299018,55.31317500110957
207,9.48574737371261,-239.49850276841846,-143.69364860885128,-49.75816844627581,20.92371190814009,-12.874561320332658,279.47276373867015,55.78956453535053
208,9.558261768360445,-239.4222759795559,-143.66694447116825,-50.360276007768896,20.823112533017706,-12.954421403323938,279.3962329477199,56.33538147117082
209,9.630395934699905,-239.35930414890453,-143.63980815128636,-51.04278351521893,20.702431678950227,-13.017909895066804,279.3308681865596,56.94296185992658
210,9.7016664373903,-239.31112480141456,-143.61260119493807,-51.79540082158626,20.563332818205033,-13.063798094136148,279.2781479701763,57.60309386856175
211,9.771601053243891,-239.27908060986462,-143.58569961968865,-52.60602997964845,20.408178698302187,-13.090958405124221,279.2393918258245,58.305205498994546
212,9.839739478838565,-239.26427152713433,-143.55950305736994,-53.461038376933566,20.23998202225856,-13.098380913757113,279.2157242075287,59.03760145953339
213,9.905634243174074,-239.26751118675398,-143.5344423494522,-54.34558846068701,20.062330220930086,-13.085190971936148,279.2080412559034,59.787742426477344
214,9.96885299462648,-239.28928969998415,-143.51098496076426,-55.24401251314414,19.879285880934273,-13.050667735537917,279.21698193931985,60.542556907585414
215,10.028982872123105,-239.32974466441732,-143.48963744285,-56.14021792533552,19.695265189087106,-12.994263364887837,279.2429047582688,61.28877337339977
216,10.085637159127558,-239.38864161145625,-143.47094410240803,-57.01810629739036,19.51489766971097,-12.915622380096089,279.28587063358844,62.01325859521239
217,10.13846396103461,-239.46536444414147,-143.45548124187127,-57.86198875426989,19.342871548556435,-12.814600427407528,279.34563211317464,62.70334749016882
218,10.187156231153187,-239.55891578712345,-143.4438468317406,-58.65698022809434,19.183770207681842,-12.691281475173202,279.42162873305,63.347150330880986
219,10.231462134081632,-239.6679266802917,-143.4366460041204,-59.389357107846536,19.041906184844766,-12.545992275745048,279.51298821225265,63.93382487978254
220,10.271194552843092,-239.7906748120445,-143.4344731449067,-60.04686550531859,18.921159770105508,-12.379312866758239,279.618533154603,64.45380373051978
221,10.306238530850688,-239.92511048611144,-143.43789165706596,-60.61897121120368,18.824829346457864,-12.192081991457643,279.73679308042773,64.89897066666742
222,10.336555572542927,-240.06888954821642,-143.44741273568278,-61.097046783343984,18.755500248302944,-11.985396583594136,279.866021781127,65.26278380042733
223,10.362184004582598,-240.21941246136979,-143.46347462193754,-61.47449554285033,18.714938151974707,-11.760604803418033,280.00422003168063,65.54034710387938
224,10.38323498774676,-240.3738687415764,-143.48642363736735,-61.74681600075595,18.70401191891805,-11.519292433834167,280.1491636447706,65.72843517022041
225,10.39988418589227,-240.52928617740832,-143.51649789550166,-61.91161299679512,18.722649431508305,-11.263262726593833,280.2984368395306,65.82547826689633
226,10.412359487010077,-240.6825845537083,-143.55381419172878,-61.96856342111315,18.769828378216186,-10.994510072988804,280.44947096299313,65.83151581854584
227,10.42092554736891,-240.83063374664056,-143.59835840680586,-61.91934485518295,18.84360228229938,-10.715188196581577,280.5995886561346,65.74812646085722
228,10.425866324233775,-240.97031593963527,-143.64997984429917,-61.767534992995394,18.941160451037653,-10.42757388315376,280.7460535121102,65.57834192979128
229,10.427467113975261,-241.0985914081096,-143.7083900634461,-61.518488507015405,19.058919042967194,-10.13402747919547,280.88612509955584,65.32655050623227
230,10.425997739607645,-241.2125669537626,-143.77316671209556,-61.17919634404334,19.192639171795356,-9.836951447808334,281.0171188834788,64.99839375708414
231,10.42169829801614,-241.30956563723163,-143.8437625082195,-60.75813053701134,19.337566941280276,-9.53874819733982,281.13647001400705,64.60065817145114
232,10.414768383809614,-241.3871959037421,-143.91951900609632,-60.265075770422364,19.48858957965409,-9.241778265679123,281.2417991971543,64.14116126915194
233,10.405360236258296,-241.44341759350044,-143.99968434616906,-59.71094739199864,19.6404014386957,-8.94831981301945,281.33097810330486,63.62863011695713
234,10.393576003602718,-241.47660191925098,-144.08343391467892,-59.10759449883755,19.787673544327728,-8.660530280267706,281.40219126855027,63.07256910193152
235,10.37946924354642,-241.48558249735652,-144.1698926929942,-58.46758622334175,19.92522061823009,-8.38041100960071,281.45399136931127,62.48311335458842
236,10.363050696994485,-241.46969492547208,-144.2581580669605,-57.80397947030996,20.04815998999271,-8.109775560696072,281.4853450912751,61.870864433405536
237,10.344298139307805,-241.42880298324437,-144.34732202875196,-57.130067228709976,20.15205750552986,-7.8502223381116965,281.49566738797625,61.24670585393712
238,10.323169742197807,-241.363310084629,-144.4364919935914,-56.45910828431889,20.233056317306325,-7.603111958297962,281.4848425319174,60.621597818386284
239,10.2996200209104,-241.2741551020366,-144.5248098114408,-55.804041616454235,20.28798525416966,-7.369549576024592,281.4532309520778,60.00635298960412
240,10.273617214175205,-241.16279215956638,-144.6114689153766,-55.1771916834464,20.314444278840643,-7.15037220908511,281.4016614372904,59.41139807913537
241,10.245160818503336,-241.03115445251106,-144.69572974277145,-54.589973736403806,20.310865294526362,-6.946140934087144,281.33140877429804,58.846528939043644
242,10.214297911409705,-240.88160261395944,-144.77693343362796,-54.05261075218236,20.27654718463526,-6.757137637972374,281.2441572163388,58.320669267872766
243,10.18113691126844,-240.7168587402204,-144.85451346756,-53.57387509402473,20.211664439817515,-6.58336582701258,281.1419505100247,57.841644540617416
244,10.145857650501918,-240.53992803529516,-144.92800469054112,-53.16086826975144,20.11724911676358,-6.424554906281402,281.0271298370034,57.415983092520726
245,10.108717055124584,-240.35401109669885,-144.99704930568805,-52.81885108194417,19.99514629739638,-6.2801674116566515,280.90226201614377,57.04875540872267
246,10.070050139795262,-240.16241084693198,-145.06139970264468,-52.551134250382496,19.84794375719498,-6.149408894687851,280.770061322356,56.74346081767608
247,10.030266310374392,-239.96843864564156,-145.12091821985626,-52.359036576167135,19.67887724655273,-6.031240472487842,280.6333088544932,56.501968287015096
248,9.98984115163049,-239.7753240440193,-145.17557406878717,-52.241914204800516,19.49171365895753,-5.9243943839882665,280.4947733961347,56.32451515036075
249,9.949304031628575,-239.58613210696387,-145.22543784628937,-52.197260701737925,19.290615377745105,-5.8273931453132395,280.3571373599015,56.209764483932446
250,9.909221960819314,-239.4036914646842,-145.27067425783693,-52.22087361321923,19.079990143324643,-5.738572983204557,280.2229308559684,56.154918558215016
251,9.870180207743365,-239.2305354162629,-145.31153360852025,-52.307079209740216,18.864331705355855,-5.656112129941876,280.0944761736747,56.1558824693246
252,9.832760299296533,-239.06885756951613,-145.34834221432365,-52.449003607441824,18.64805720240183,-5.578064361336375,279.97384404153104,56.20746903178006
253,9.797516289402804,-238.92048270409038,-145.38149139970096,-52.638875810607054,18.435347572241948,-5.5023979402249585,279.8628221053531,56.30363362274135
254,9.764950450729359,-238.78685278423401,-145.41142447342867,-52.86834661490857,18.229997269267955,-5.4270398987334385,279.76289528164864,56.43772608862825
255,9.735489652733998,-238.6690273059671,-145.43862109278936,-53.128806807974556,18.03527911780332,-5.349925290714143,279.6752370223814,56.60274611761219
256,9.709463624957172,-238.56769645393157,-145.46357870249253,-53.41168869676782,17.85382932833621,-5.269050640126878,279.6007100617006,56.79158868608563
257,9.687086195783206,-238.4832048964853,-145.4867912574909,-53.70873663291629,17.687556687640395,-5.182530353827559,279.53987493151294,56.99726732668079
258,9.668440501792627,-238.41558351118323,-145.50872611205236,-54.012234776697106,17.53757882463531,-5.08865443908982,279.49300442522565,57.21310498029438
259,9.653469027188281,-238.36458600682514,-145.5298005201276,-54.31518365837669,17.404187311127483,-4.985945507590618,279.4601022043836,57.43288494033112
260,9.641969124441292,-238.3297274014623,-145.55035940367137,-54.611420962142994,17.28684221823589,-4.87321276285736,279.4409238449208,57.650957694601594
261,9.633594420268132,-238.3103216587144,-145.57065589354926,-54.89568612748014,17.18419568350306,-4.749600478496896,279.4349988275205,57.862303099838144
262,9.627862248984918,-238.30551641527114,-145.5908358238376,-55.16363248105948,17.09414313585559,-4.61462843557822,279.44165233825356,58.062550965807894
263,9.624166965084148,-238.31432351925238,-145.61092708142013,-55.41179423444384,17.01390011244671,-4.468221943754586,279.4600262621321,58.247966361773656
264,9.621798658456159,-238.33564487279565,-145.63083454820637,-55.63751841096899,16.940102044861902,-4.310729415435707,279.48909931436987,58.415408394495756
265,9.619966435265143,-238.3682936990169,-145.65034123928737,-55.838873382468115,16.868923926592608,-4.142925964190968,279.5277067042875,58.56227262023823
266,9.61782506357501,-238.4110117999322,-145.66911605897891,-56.01454616617871,16.79621635484923,-3.966002133743733,279.57455999757565,58.686427599151415
267,9.614503501516042,-238.4624836785771,-145.68672835923076,-56.16373999227863,16.717654043606156,-3.78153758945563,279.628267968127,58.78615540804608
268,9.609133760560445,-238.52134859606076,-145.70266917964136,-56.286081973042336,16.628892508384997,-3.591460346106911,279.68735923610836,58.86010425101578
269,9.600878780746022,-238.5862117139865,-145.71637867697575,-56.38154816380499,16.52572821551719,-3.3979928147976604,279.75030736986156,58.90725880774238
270,9.588958433512255,-238.65565543667412,-145.72727887529803,-56.45041025472949,16.404257101035274,-3.2035866223852993,279.81555891523345,58.926930978321465
271,9.572673253841293,-238.72825194209014,-145.73481052875343,-56.493205023641586,16.26102607125786,-3.0108487608390853,279.8815645454845,58.91877067007707
272,9.55142588284028,-238.80257766666793,-145.73847255887603,-56.5107249139634,16.093171977413373,-2.822462079340186,279.9468131707509,58.88279362201173
273,9.524740369851564,-238.8772301658948,-145.7378621652206,-56.50402592354864,15.898542673010294,-2.6411033694284747,280.00986836511777,58.819421223488
274,9.492279427737863,-238.95084737711366,-145.73271332053108,-56.47444748940789,15.675795171880926,-2.469362322121597,280.069405923465,58.729525960656055
275,9.453859585820467,-239.02212897705138,-145.7229310376525,-56.423638213138965,15.424466659902961,-2.3096645168703627,280.12425089674974,58.61447551814267
276,9.409464096950437,-239.0898592726144,-145.70861866444187,-56.353581029645106,15.14501514213903,-2.1642013647392755,280.173412161935,58.476168609200194
277,9.359253427418652,-239.152930842253,-145.69009558252867,-56.26661171580157,14.838827753947655,-2.034869546145942,280.21611245124893,58.31705622268745
278,9.303573078172315,-239.2103679614624,-145.66790306786473,-56.165425411331384,14.508196173542357,-1.9232219371045016,280.25181180355986,58.14014308968521
279,9.242958328792069,-239.26134871975307,-145.6427968394285,-56.05306701408386,14.156260088701433,-1.8304313380701942,280.2802226949381,57.94896570695635
280,9.178135370055976,-239.30522464395196,-145.61572607008958,-55.93290282615031,13.786921168169123,-1.757267581874088,280.3013156920257,57.747545089023944
281,9.110018294468556,-239.3415365945321,-145.5878000808758,-55.80857253810036,13.404731315098264,-1.7040879121970396,280.31531521136355,57.54031439000229
282,9.039701528248505,-239.37002576022388,-145.56024506844227,-55.68392236731925,13.01476005477543,-1.6708399924854527,280.3226856297701,57.33202344743335
283,8.96844742200693,-239.39063875410443,-145.53435375267844,-55.562921716889456,12.622446710148424,-1.657076543753071,280.3241084338932,57.12762396313859
284,8.897668804517828,-239.40352610105427,-145.51143087640295,-55.449566941979846,12.233443489367316,-1.661980355169634,280.32045136548857,56.932140296067686
285,8.828906332511155,-239.40903387681067,-145.4927373042589,-55.3477766129933,11.853455667462121,-1.6843982107029978,280.31273081963656,56.75053159920388
286,8.763800470981998,-239.40768895544474,-145.4794352841587,-55.26128300764178,11.488084676016058,-1.7228821312964946,280.3020692466742,56.58755124861817
287,8.704057994357806,-239.40017903000003,-145.47253729840418,-55.19352447277574,11.142679199065551,-1.7757362658899987,280.28964983861397,56.44760923548559
288,8.651413094141997,-239.38732891776064,-145.47286071376914,-55.14754289198061,10.822198437252974,-1.8410677691230914,280.27667096448226,56.334642570141625
289,8.607583514032001,-239.37007449533203,-145.48099006228492,-55.12588994311649,10.531090698136076,-1.9168400443370528,280.26430248588537,56.25199797453355
290,8.574222541355887,-239.3494351541963,-145.4972483379634,-55.13054526529467,10.273189566787142,-2.0009267897831835,280.2536454709558,56.20233037766447
291,8.552868120741257,-239.32648528311066,-145.52167830935974,-55.162849177790704,10.051629241317526,-2.09116539520443,280.24569630402317,56.18752010149374
292,8.544890804836246,-239.30232514972238,-145.5540345534621,-55.22345227554898,9.86878020739097,-2.1854084243913032,280.24131592886584,56.208611208065605
293,8.551442658416978,-239.27805160546885,-145.59378662615907,-55.31228404798084,9.726206163215137,-2.2815721344492887,280.24120486357504,56.265773232129874
294,8.57340948823719,-239.25472912192578,-145.64013338659694,-55.428542502272,9.6246428280694,-2.3776811255620007,280.24588449326154,56.35828828921848
295,8.611368818167465,-239.23336171346926,-145.69202798707087,-55.57070645910242,9.563998887607463,-2.471908264534464,280.2556849219594,56.484565152904736
296,8.66555587140624,-239.21486636681757,-145.74821252979228,-55.73657160086999,9.54337887489306,-2.5626090637190413,280.2707394494071,56.64218121911315
297,8.73583948877249,-239.2000487622531,-145.80726091988006,-55.92331043567798,9.561127313169056,-2.6483498042523816,280.2909856230173,56.82795227850574
298,8.821709432470854,-239.18958230284753,-145.86762797987578,-56.12755515213373,9.614892964602749,-2.7279288761902882,280.3161727576634,57.03802875916729
299,8.922275942399446,-239.18399162040475,-145.92770249479224,-56.34550103134255,9.701711507383447,-2.8003910466814577,280.3458757222329,57.26801572446197
300,9.036281775530036,-239.18364165922472,-145.98586169293637,-56.573026815403814,9.818104370584575,-2.865034656133421,280.37951462951116,57.513112570243294
301,9.162126299003022,-239.18873310715952,-146.04052482966938,-56.80582733250336,9.960190797078193,-2.92141206257081,280.4163798480708,57.7682671855221
302,9.297900595151454,-239.1993044124269,-146.09020396511522,-57.039552845417354,10.12380953975636,-2.9693239450062228,280.4556615058167,58.028338422432526
303,9.441432106127467,-239.2152400514543,-146.13355057877578,-57.26994909144642,10.304646024972053,-3.0088082784054584,280.4964824420614,58.28826014294533
304,9.590337143730647,-239.23628427972,-146.16939717991542,-57.49299183602245,10.498360431500485,-3.040124899751641,280.5379334589817,58.54319990321576
305,9.742079466368489,-239.26205938604238,-146.19679333587908,-57.7050099351207,10.700711985682434,-3.063736632200068,280.57910967670966,58.788705479312526
306,9.894032927510922,-239.29208740397095,-146.21503544558894,-57.90279133538164,10.90767487629502,-3.080287960793726,280.61914668422065,59.02083287943481
307,10.043546022833796,-239.3258141568104,-146.22368932745925,-58.08366709398212,11.115541530793475,-3.0905822794333173,280.6572549737413,59.236250187341035
308,10.188006225294824,-239.3626343336948,-146.22260458907604,-58.24556936660616,11.321009532081593,-3.095558734216672,280.69275094515973,59.4323125283129
309,10.324902307917476,-239.40191608045862,-146.2119199107491,-58.38706041299587,11.521249138521153,-3.09626960506519,280.72508268343455,59.607104652093994
310,10.451883187805652,-239.44302353647925,-146.19205870088652,-58.507331026868634,11.71394914611043,-3.0938589541835237,280.75384884899347,59.75944909590352
311,10.566812003210096,-239.48533600301283,-146.16371499209345,-58.60616839012096,11.897339676608446,-3.0895429904786096,280.778809456704,59.88887960274399
312,10.667814182260877,-239.52826290916494,-146.1278299656522,-58.683895098805074,12.070191391055499,-3.084592370363174,280.7998879980366,59.995581351621325
313,10.753318318416445,-239.5712541885637,-146.08556006323755,-58.74128289418238,12.231791606116447,-3.080316526059734,280.8171650390408,60.08030149418649
314,10.822088841918529,-239.61380592306588,-146.03823809803202,-58.77944633153362,12.381898798266338,-3.078050038124214,280.83086387418837,60.14423535708002
315,10.873249746533096,-239.65546124611342,-145.98732904381637,-58.79972309302838,12.520677981614773,-3.079140967695347,280.8413290786257,60.18889531474537
316,10.906298875153288,-239.6958067305383,-145.93438234530302,-58.80354875353995,12.648620401692634,-3.084940866992711,280.84899909195866,60.2159706114907
317,10.921112420032829,-239.7344648460288,-145.8809826877366,-58.7923344310912,12.766451839104297,-3.0967958876811257,280.85437432722097,60.2271871942738
318,10.917939431801294,-239.77108340719363,-145.8287011286393,-58.76735585375157,12.875034476503158,-3.116038089026964,280.8579825703741,60.224176850657884
319,10.897386365513356,-239.80532312234752,-145.77904834703986,-58.72966196339121,12.975267662768507,-3.143975824833133,280.8603435276152,60.208364625343485
320,10.86039201376739,-239.83684442129388,-145.73343158730273,-58.68001027171761,13.067992960555578,-3.1818820273601283,280.8619343537174,60.180882623895585
321,10.808193491566739,-239.86529477349455,-145.69311666447075,-58.61883477205395,13.153908600147911,-3.2309793320384466,280.8631579238308,60.142516896769365
322,10.742284195801991,-239.8902977524852,-145.65919612307226,-58.54625027308451,13.233497928444981,-3.292421300394112,280.86431551457247,60.09369212489147
323,10.664364911642563,-239.9114451502809,-145.63256435218278,-58.46209459115292,13.306975660741356,-3.3672694469374047,280.8655854592471,60.03449633479886
324,10.576289568721576,-239.92829344486447,-145.61390019150278,-58.36600721594891,13.374254716105664,-3.4564662417335033,280.86700921409107,59.96474494687793
325,10.480007595378899,-239.94036581841732,-145.60365723195687,-58.257540021338905,13.43493516201129,-3.5608046397043354,280.8684860270727,59.88408026755232
326,10.377505282922021,-239.94716070769746,-145.60206155568213,-58.13629258771763,13.488315368819995,-3.6808949728435554,280.8697769959571,59.79209934016851
327,10.270748849333973,-239.94816754381972,-145.60911618344974,-58.00206205105389,13.533423995522844,-3.8171303084085766,280.87051878946056,59.68850020781548
328,10.161631805851313,-239.94288983469477,-145.62461117773503,-57.854995376538724,13.56907007976373,-3.969651678310429,280.87024670728596,59.57323442759735
329,10.051928787846965,-239.9308749774428,-145.6481382367153,-57.69573077329712,13.59390750362985,-4.138314876976677,280.8684260280029,59.44665234603898
330,9.943257414537369,-239.91174922991192,-145.6791086522702,-57.52551481855225,13.606509590253374,-4.322660708332646,280.8644897757868,59.3096274126577
331,9.837049206715395,-239.88525535767778,-145.71677366243986,-57.34628297636523,13.605449525745682,-4.521890581198968,280.8578803219631,59.16364688900899
332,9.734530182213849,-239.8512898581521,-145.76024648940827,-57.16069370001985,13.589382538095101,-4.734849213556404,280.8480918339738,59.01085879066756
333,9.636711377094905,-239.8099364728243,-145.80852563842717,-56.97211001866692,13.557126132765042,-4.960015931783342,280.8347105562689,58.85406857134508
334,9.54438909003974,-239.76149291276795,-145.8605192398182,-56.784526918173164,13.507735085410072,-5.195505657423273,280.8174501821211,58.69668340510953
335,9.458154109868467,-239.70648827047992,-145.91507031190793,-56.60244724605444,13.440568296646795,-5.439080205857734,280.79618007476836,58.542606270298876
336,9.37840868976848,-239.64568941675915,-145.97098284211287,-56.43071268044336,13.355345024824732,-5.688170067608536,280.77094479488875,58.39608578694929
337,9.305389707427578,-239.5800956534351,-146.02704857172372,-56.27429917738626,13.25218842594876,-5.9399064921359,280.74197420490475,58.261530595172665
338,9.239196282614882,-239.51092175486133,-146.08207435088653,-56.138088275316235,13.131654729573796,-6.191163478975474,280.7096841416555,58.14329901047586
339,9.179819986966246,-239.43957010306193,-146.13490990878074,-56.026626901533945,12.994746754525806,-6.43860916950629,280.67466812177474,58.04547595645596
340,9.127175617967868,-239.3675929818987,-146.18447586248638,-55.9438890464923,12.842910826826316,-6.678766043115176,280.63768083453016,57.971649902390425
341,9.081130407694488,-239.29664644357132,-146.22979176203626,-55.89305281686721,12.67801654760381,-6.908079151559384,280.5996144549395,57.924702697188735
342,9.04152961785315,-239.22843757399033,-146.27000389488163,-55.876305796072614,12.50231934073728,-7.12299130306301,280.5614691237023,57.906624658443995
343,9.008216777727382,-239.16466738629873,-146.3044123791392,-55.8946902189019,12.318406332769078,-7.320023636075766,280.5243191903484,57.91836595144827
344,8.981047311394157,-239.10697185828766,-146.33249674948058,-55.947997230145674,12.1291268587482,-7.495859476571909,280.48927690478155,57.9597332057095
345,8.959894912272729,-239.05686375656077,-146.35393887959842,-56.0347166088497,11.937509682719678,-7.647428863805986,280.4574551818135,58.02933761955932
346,8.94465070860505,-239.01567787468522,-146.36864182075584,-56.152045083765294,11.746669836240173,-7.771990757167419,280.4299309332249,58.124597771599994
347,8.935215964557896,-238.98452217023865,-146.37674301769056,-56.29595309670354,11.559708825875768,-7.867209743188911,280.4077103001101,58.24179733989245
348,8.931489680283772,-238.96423701879397,-146.37862036691217,-56.461306898600114,11.379612801868657,-7.931224041511619,280.3916969104854,58.37619521275479
349,8.933352896951522,-238.9553644587291,-146.37488971356845,-56.642040339397894,11.20915394074019,-7.96270177218523,280.3826640734643,58.5221831644249
350,8.940651725713249,-238.95812894226307,-146.36639270288825,-56.83136862039277,11.05080055640238,-7.960882835018027,280.38123168665555,58.673484307933485
351,8.953181053523519,-238.9724306815803,-146.35417442049533,-57.02203452001644,10.906641207040511,-7.9256043756703125,280.38784853737116,58.823383822014335
352,8.970670510919637,-238.9978520493272,-146.33945087921015,-57.2065761071797,10.778327331120783,-7.857308619601666,280.40278045761926,58.96498191970947
353,8.992773712359186,-239.03367665155332,-146.32356705792296,-57.37760372798745,10.667037820466176,-7.757032761684744,280.4261044011879,59.091457709225196
354,9.019061184864855,-239.0789197989069,-146.30794688275228,-57.52807320802228,10.573467567142163,-7.62638153029627,280.4577080956636,59.19633162437524
355,9.04901693520411,-239.13236835011597,-146.29403724567703,-57.65154195616834,10.497840591531522,-7.467483927002504,280.4972946400442,59.27371368873038
356,9.08203834727317,-239.19262743801355,-146.28324872455119,-57.74239517779323,10.439947015790363,-7.2829364048937935,280.5443913143792,59.31852522091656
357,9.117439093681838,-239.2581714809024,-146.2768959202446,-57.79603078799682,10.399201898348544,-7.075735337266341,280.598361906967,59.32668276608684
358,9.154454965125248,-239.32739704648418,-146.27614024824885,-57.808993833243285,10.374722731756611,-6.849202006376931,280.6584219690886,59.29523501709547
359,9.192252806195201,-239.39867535986738,-146.2819377732447,-57.77905418149195,10.36542126554406,-6.60690346983269,280.7236564762222,59.22244617451584
360,9.229942863146164,-239.47040237278097,-146.29499441073042,-57.70522474161772,10.370104398788275,-6.352572524316148,280.7930393469228,59.10782242573258
361,9.266594689473889,-239.54104438319635,-146.31573055001553,-57.587721241684456,10.387578316974258,-6.090029633884803,280.8654541863683,58.9520817474521
362,9.301256403774325,-239.6091773824592,-146.34425680206823,-57.427868292654324,10.416749836061813,-5.8231092126413095,280.93971558854366,58.75707073313461
363,9.332976701085059,-239.67351869239684,-146.3803621297131,-57.22795972534211,10.456719012161221,-5.555592106538861,281.01459041568745,58.52563526342186
364,9.360828703049114,-239.73294998157198,-146.42351512539776,-56.99108365167417,10.506857443143929,-5.291145521269783,281.08881865667166,58.26145422201484
365,9.383934555999334,-239.78653133142595,-146.4728786574585,-56.720924097086666,10.5668673328565,-5.033271017750146,281.1611336725303,57.96884685869563
366,9.401489622224602,-239.8335065779633,-146.5273374669595,-56.42155134916623,10.636817316660661,-4.785260607146989,281.23028177526214,57.652564799607816
367,9.412785110773546,-239.87330060623106,-146.5855376243131,-56.097212624583356,10.717152241374487,-4.550160487255048,281.2950411203613,57.31757936031336
368,9.417228105772862,-239.90550961462188,-146.64593618234997,-55.75213364484127,10.808675527308335,-4.3307415922992885,281.35423988862595,56.96887409489978
369,9.414358235966029,-239.9298856491063,-146.70685892780435,-55.39034047631312,10.912504389041732,-4.1294758838788646,281.4067737570811,56.611251652264784
370,9.403860618947544,-239.94631695248586,-146.76656379768224,-55.015509583621196,11.029999986227843,-3.9485172308369423,281.4516227050895,56.24916304774792
371,9.38557505367363,-239.95480583325565,-146.82330733055957,-54.63085244170979,11.162676357448424,-3.7896858570932377,281.48786724441675,55.886566331640154
372,9.359501640964309,-239.9554457824805,-146.87541153097226,-54.23903923384316,11.312093529445622,-3.654455658396614,281.5147041894459,55.526820265322634
373,9.325803079215508,-239.94839943016447,-146.92132867571507,-53.84216411751201,11.479741280138203,-3.5439440947348433,281.5314620425859,55.17261692327485
374,9.284803815701753,-239.93387862609902,-146.95970175499934,-53.4417522641074,11.666920558452242,-3.458904717725483,281.5376158865652,54.8259550835428
375,9.236986067926056,-239.91212749681202,-146.98941837448922,-53.038806439882585,11.874629519951654,-3.3997226099042477,281.53280136516497,54.48815391407973
376,9.182982590975465,-239.8834088906899,-147.00965609063076,-52.633888492368335,12.103460559473856,-3.366413114631853,281.51682702778845,54.15990401783774
377,9.123566102825825,-239.84799432472974,-147.01991736370945,-52.227229018336864,12.353513668424323,-3.358624285774038,281.4896841683068,53.841350664412104
378,9.059635495643107,-239.8061574709821,-147.02005260671947,-51.81885695365014,12.624330041755309,-3.3756435053502805,281.4515533824327,53.53220227186569
379,8.992199212675953,-239.75817129916572,-147.01027018949904,-51.40873995191587,12.914848337336496,-3.416408680671524,281.40280733901926,53.23185605510622
380,8.92235633596521,-239.7043090221981,-146.99113279047995,-50.996926193955325,13.223384615884946,-3.4795243275413017,281.34400956708777,52.93953225539497
381,8.851276000028683,-239.64484882588368,-146.9635402529826,-50.583678594304295,13.547635930223093,-3.5632826840032172,281.27590931924465,52.654408439591265
382,8.78017574023551,-239.5800820316477,-146.92870000874197,-50.16959311252015,13.884706782248987,-3.6656897986300168,281.19943276175604,52.37574587901323
383,8.71029929716416,-239.51032393556983,-146.88808688014768,-49.75569393355093,14.231157108520375,-3.7844963234960125,281.1156707850365,52.1030008674308
384,8.642894249855962,-239.43592614473113,-146.84339444418976,-49.343499607769004,14.583069985598524,-3.917232547663524,281.0258635592605,51.83591495413549
385,8.57918970232767,-239.35728888198403,-146.79648019433267,-48.93505581729287,14.936136835017416,-4.06124707461812,280.9313816871265,51.57457942891532
386,8.520374147561714,-239.27487160334044,-146.74930658892328,-48.53293220956065,15.285757569445467,-4.213748516775895,280.833703620933,51.319470957221796
387,8.467573606010653,-239.1892004672549,-146.7038797372038,-48.14018262762604,15.627152842630345,-4.371849641446247,280.7343890055702,51.071456940400545
388,8.421830211418499,-239.10087167120975,-146.66218711140334,-47.760270011084664,15.955485292633874,-4.532613467859564,280.63504783644163,50.83177089326609
389,8.384081589681111,-239.01055027520934,-146.62613563682348,-47.39695921086162,16.26598636796523,-4.693100787134909,280.53730583449243,50.60195984677459
390,8.355141550521497,-238.91896467853525,-146.59749183231042,-47.05418286295605,16.55408502442185,-4.850418445846874,280.44276709107345,50.38380741621006
391,8.335682669901912,-238.82689726235787,-146.57782591763032,-46.735887129169484,16.815534322553468,-5.001767575071434,280.35297546729925,50.179237580337734
392,8.326221255691125,-238.73517181630547,-146.5684616453736,-46.44586540678392,17.046531774537254,-5.1444908315677145,280.2693762391989,49.99020528801519
393,8.327105029308232,-238.64463831942848,-146.5704331908642,-46.187589029260096,17.24382923274858,-5.276117646172906,280.1932792120271,49.81858076257862
394,8.338503724583402,-238.55615559869872,-146.58445004021468,-45.96404456418227,17.404828262346946,-5.394406407969094,280.1258242752857,49.66603488022271
395,8.360402779350423,-238.4705724341387,-146.61087057302205,-45.77758750808957,17.527657368464148,-5.4973824535196405,280.06795027883527,49.5339332434738
396,8.392600384858802,-238.38870779962284,-146.64968490903433,-45.62982180659267,17.611228170765468,-5.5833707346368735,280.02036814680633,49.42324642137777
397,8.434708294370367,-238.31133106888032,-146.7005074923252,-45.52151349062398,17.655268584891147,-5.651022151040509,279.9835392180445,49.334483102591506
398,8.486156863945952,-238.23914316766297,-146.76257972201742,-45.45254471022845,17.66033216545545,-5.6993327549357815,279.95765984620795,49.26765147736842
399,8.546204708817143,-238.17275981434108,-146.83478270233016,-45.4219116523626,17.627783827820767,-5.727655339202046,279.9426533045118,49.22225204329742
400,8.613953079042826,-238.1126980859025,-146.91566000021245,-45.427766552388064,17.559763064546477,-5.73570326871545,279.93817001778586,49.197302425086626
401,8.68836466271422,-238.0593674373799,-147.0034501867048,-45.46750067882033,17.45912647030808,-5.72354673851945,279.9435969828001,49.191392060379044
402,8.76828617666193,-238.01306592196045,-147.0961287029901,-45.537862176222745,17.329371919709974,-5.691601886967885,279.95807677996106,49.20276208048079
403,8.852473947441394,-237.97398179701466,-147.1914581109435,-45.63510025597372,17.174547135849068,-5.640613355162386,279.98053584247884,49.229403658812636
404,8.939621707647541,-237.94220013083483,-147.28704525052714,-45.75512560391561,16.999145637690344,-5.571631002932818,280.0097208795101,49.26916668052228
405,9.028389883208012,-237.91771354653034,-147.3804035171118,-45.89367614903106,16.80799314537379,-5.485981592884444,280.04424177792816,49.31986992382487
406,9.117435625568397,-237.90043585804008,-147.46901843461006,-46.046477563166555,16.6061274740827,-5.385236336160462,280.08261895734984,49.379404106421916
407,9.20544280737551,-237.89021708651805,-147.5504147649639,-46.20938901371475,16.3986748286929,-5.271175251829933,280.1233329527014,49.44582014969114
408,9.291151254786723,-237.88685824810943,-147.62222344912178,-46.37852663838959,16.1907252940114,-5.145749343188399,280.16487393887184,49.517396760539036
409,9.373384627387827,-237.890124378063,-147.6822467553391,-46.550359680397335,15.987210216631787,-5.011041655243327,280.2057890133183,49.592683681222404
410,9.451076454136109,-237.89975444700687,-147.72852016042842,-46.72177684592172,15.79278408356705,-4.869228322949261,280.24472528801385,49.670519360113786
411,9.523293767491593,-237.91546712011035,-147.75936966405084,-46.890122900602066,15.611713433762182,-4.722540691020271,280.2804671737458,49.75002404406964
412,9.589257553208295,-237.93696173562597,-147.7734633372663,-47.05320762112878,15.447775306304043,-4.573229439040508,280.311966637969,49.83057120954181
413,9.648358997113428,-237.963914398147,-147.76985586216435,-47.209290894806585,15.30416769821355,-4.423531374748205,280.3383656155082,49.911741760162315
414,9.700170426174488,-237.99596960164834,-147.74802467870595,-47.35704900951603,15.183434420329693,-4.275639195878238,280.3590101019538,49.993266505395525
415,9.744449978953961,-238.03272830541735,-147.70789626785145,-47.49552802641663,15.087406597126563,-4.131674130461648,280.37345583388935,50.07496312749794
416,9.781139370090498,-238.07373396111092,-147.64986110370606,-47.6240906077623,15.017162890316458,-3.9936610289440084,280.3814659447023,50.15667418739274
417,9.810354522435421,-238.11845862787578,-147.57477574491736,-47.74236275685873,14.973010336727627,-3.8635052726545567,280.38300149244856,50.238212695557486
418,9.83236920648213,-238.16629178175646,-147.48395038858516,-47.85018650761788,14.954487408031923,-3.742970821121382,280.3782060832056,50.31932126035055
419,9.847592192264058,-238.21653435428814,-147.37912040175652,-47.94758356151253,14.960390426093884,-3.6336588440410806,280.3673858847808,50.39964968454862
420,9.85653896338546,-238.26839976711437,-147.26240135522818,-48.03473321952701,14.988823752378421,-3.5369866392667215,280.3509862772222,50.478754102954504
421,9.859799727833705,-238.3210225900654,-147.13622875032226,-48.11196589254986,15.037273244656783,-3.4541668612491976,280.3295663903001,50.55611853039682
422,9.858005935112821,-238.3734744828431,-147.00328521843178,-48.1797713173555,15.102701422537596,-3.3861873816051533,280.3037728613088,50.6311973424313
423,9.85179752927921,-238.42478652432098,-146.866418948929,-48.238818668363876,15.181661687432051,-3.333792289776743,280.27431420279123,50.703475054035835
424,9.841792845379592,-238.47397674071212,-146.7285574649106,-48.289984240257695,15.27042786777423,-3.2974646006337367,280.2419370884322,50.772538005482836
425,9.828562616969704,-238.52008141404698,-146.59262082039484,-48.33438138998204,15.36513437437775,-3.277411243165409,280.2074056080669,50.838151336223824
426,9.812609095043955,-238.56218853262763,-146.46143795869713,-48.37338703395382,15.461921441673153,-3.2735509650091994,280.1714841409395,50.90033402142326
427,9.794350775198952,-238.59947156672496,-146.33766946899206,-48.40865920363409,15.557079405104712,-3.2855059369038435,280.1349240409434,50.95942480034466
428,9.774112688691446,-238.63122164158236,-146.2237394908848,-48.44214085803933,15.647185821087675,-3.312598021770062,280.0984539375374,51.01613245976965
429,9.752121707596618,-238.65687615458057,-146.12177909156978,-48.47604612726035,15.729229514081421,-3.3538507995061133,280.06277317781417,51.071564959519506
430,9.728506038399049,-238.67604197806637,-146.03358282343063,-48.51282624339433,15.800716293468378,-3.407998465007267,280.0285476799008,51.12723312367432
431,9.703298211057152,-238.6885116380044,-145.96057913088362,-48.55511358075574,15.859752030293603,-3.4735026434181866,279.9964071549051,51.18502602277474
432,9.676441299319714,-238.69427126625152,-145.90381407375375,-48.60564355881618,15.90509993836945,-3.548577990556776,279.96694241139113,51.24715679460105
433,9.647798468510585,-238.6934996460109,-145.86394703867973,-48.6671556955832,15.936210205339014,-3.631227131669959,279.9407015120344,51.31607950943684
434,9.617165996921722,-238.68655820965753,-145.84125696072093,-48.74227675837709,15.953221489823038,-3.7192850113604154,279.9181839341596,51.39437968055114
435,9.584289687908456,-238.673972315362,-145.83565783487734,-48.833390618925854,15.956935130388569,-3.8104721216276514,279.89983239903916,51.484642998957405
436,9.548884235490666,-238.6564045306477,-145.84672259062995,-48.94250096834684,15.948764110004095,-3.90245543416953,279.8860225055746,51.58930870021518
437,9.510654781975049,-238.63462108231943,-145.87371445922764,-49.0710943733787,15.930659860084974,-3.9929152714407583,279.8770506809689,51.710515539701106
438,9.46931971121116,-238.60945313510288,-145.915624721022,-49.220012136854386,15.905020865947742,-4.0796158594546075,279.8731212514058,51.84994954821116
439,9.424633668209493,-238.58175503635488,-145.9712154387785,-49.38933994659158,15.874587702277799,-4.160476928974279,279.87433368921364,52.00870343823705
440,9.376409855030284,-238.5523619659882,-146.03906581849438,-49.57832426566368,15.842329513755795,-4.233643468793429,279.88067136815056,52.18715762506255
441,9.324540780999602,-238.52204950199587,-146.11762116826625,-49.78532378361753,15.811327037894367,-4.297550615231287,279.89199339168044,52.384892265588775
442,9.269016772931044,-238.4914974701145,-146.20524359960245,-50.00780299788691,15.784657078029419,-4.350980748943904,279.90803102939,52.600638505224715
443,9.209941620492144,-238.46126009955194,-146.30026329653467,-50.242373133280395,15.765282924582102,-4.393110187873614,279.9283898341761,52.83227528437595
444,9.14754474887393,-238.4317439824792,-146.4010285865789,-50.48488319857166,15.755954625185815,-4.423543361955287,279.95255775711513,53.07687565841255
445,9.08218931952138,-238.40319475275194,-146.50595273934067,-50.73056119011359,15.759122239190603,-4.442332950532641,279.97991892145126,53.330803785925326
446,9.01437568916253,-238.37569289463244,-146.613555650473,-50.97420250860196,15.776864311677826,-4.449985091933299,280.0097724115342,53.58986075574406
447,8.944739729632497,-238.34915867684157,-146.72249907009964,-51.21039973928338,15.810832828532783,-4.447449371227788,280.04135534468617,53.84947443684843
448,8.87404567285576,-238.3233657954999,-146.83161444144278,-51.43380518038153,15.862214965217941,-4.4360937875015,280.0738693619343,54.104925682142515
449,8.80317342585552,-238.29796284223542,-146.93992269619378,-51.63941503692872,15.931711144091302,-4.417665285499472,280.1065094325431,54.351600670639314
450,8.733100637387524,-238.27250119502884,-147.04664568370828,-51.82286224768673,16.019528376424528,-4.394236784415665,280.13849361099074,54.58525718032482
451,8.66488007805177,-238.24646743104324,-147.15120933939193,-51.980703709399044,16.12538760330309,-4.368142017337254,280.1690921952388,54.80229137468578
452,8.599613078662063,-238.2193180296987,-147.25323910578757,-52.11068735122581,16.248543685833027,-4.341899885108738,280.19765467294826,54.999991372900396
453,8.538419910269052,-238.19051408530163,-147.3525483933012,-52.21198511994586,16.387816738997227,-4.318130358572294,280.22363294695634,55.17676444891043
454,8.482408130308587,-238.15955393456923,-147.4491209979009,-52.285379380115735,16.541633611579407,-4.2994641909003795,280.24659956060435,55.33232607237788
455,8.432640029786764,-238.1260018754938,-147.54308848720848,-52.333392349848296,16.7080784566318,-4.288448816225182,280.26625992555194,55.467841001323904
456,8.390100322973744,-238.08951140020133,-147.6347037634152,-52.36035079053126,16.884951452188098,-4.287452819364793,280.28245786723176,55.58600906397572
457,8.355665113399029,-238.04984154222345,-147.7243123182445,-52.372381110671746,17.069834742268355,-4.29857129559425,280.2951741122926,55.69109097709253
458,8.33007304175844,-238.00686507079075,-147.81232292432722,-52.377333312027275,17.260164507987685,-4.323534330207214,280.3045175718844,55.78887251019371
459,8.313899471893714,-237.96056749655608,-147.89917943753238,-52.38463583271124,17.45330770778853,-4.363620771120699,280.3107094347907,55.88656854604544
460,8.307534584359633,-237.91103638139754,-147.98533498300836,-52.40508722538737,17.646641455337768,-4.419579491834334,280.31406032503014,55.99267201656726
461,8.31116622163227,-237.8584412884525,-148.07122927955808,-52.45059440072602,17.837632321757518,-4.4915604613733855,280.3149412254364,56.11675599768689
462,8.324768201116836,-237.80300563152687,-148.15726951158086,-52.533870356851594,18.02391218014784,-4.579058107632859,280.3137494704393,56.269239963438906
463,8.348094613630371,-237.74497240706435,-148.2438150797891,-52.66810643805568,18.20334662734086,-4.680869584041343,280.31087168122906,56.46113289487936
464,8.380680442127257,-237.68456620627455,-148.33116659403177,-52.866634966469675,18.37409154100025,-4.795070529664471,280.306645880592,56.70376637916729
465,8.421848708574045,-237.62195406393067,-148.41955944908364,-53.14259757660545,18.534633023660263,-4.919010713067014,280.30132514376015,57.008530062007125
466,8.470724207323265,-237.55720773287118,-148.5091622692336,-53.50863296399868,18.683805989130345,-5.049331603132234,280.29504513506544,57.38662010143222
467,8.526253580919384,-237.49027000253136,-148.60008048451954,-53.97659533282575,18.820787103175782,-5.182007461988692,280.2877978834107,57.84880896852626
468,8.58723102086487,-237.42092771563293,-148.69236520425494,-54.55731188708267,18.945058770381255,-5.312411009179666,280.2794141144052,58.40524237330293
469,8.65232837845265,-237.34879402138026,-148.78602719919508,-55.26038449754632,19.05634233983598,-5.435404019081689,280.269556156665,59.06526648886577
470,8.720128129008549,-237.27330193240638,-148.8810552051089,-56.094037358812685,19.15450058340092,-5.545452336079907,280.2577227132288,59.83728612072451
471,8.789157506152426,-237.1937103977298,-148.97743717770635,-57.06500917170981,19.239411639125617,-5.636763713171573,280.24326575170784,60.72865209291136
472,8.85792214568152,-237.1091230647947,-149.07518280712347,-58.178485411909705,19.31081884136715,-5.703445650584395,280.2254187163723,61.74557406712536
473,8.924937676291037,-237.0185188992341,-149.17434552131436,-59.43806401574155,19.368162985939318,-5.739679130274326,280.20333437588033,62.89305359562114
474,8.988757864105857,-236.92079293770684,-149.2750421901866,-60.845746758753506,19.410405418255984,-5.739902916339614,280.17612986045526,64.1748317586947
475,9.047998205077045,-236.81480472160854,-149.37746875176913,-62.40194887049429,19.435851757504853,-5.699002020278853,280.14293584200186,65.59334636425648
476,9.101354279984612,-236.69943155559295,-149.481910195691,-64.10552079203592,19.441987013477274,-5.6124931170821695,280.1029465989186,67.14969519072984
477,9.147614693157019,-236.57362376587344,-149.5887438808542,-65.95377794785891,19.425333280525333,-5.476699237177215,280.05546804184235,68.84360369973687
478,9.18566893859935,-236.4364594782706,-149.69843591504667,-67.94253639167253,19.381341080245235,-5.288906006340886,279.9999614886779,70.67339750661606
479,9.214511024724322,-236.28719682720666,-149.81153105259355,-70.06615369371872,19.304324720127532,-5.047492074620993,279.93608171479195,72.63598120545672
480,9.233240066948301,-236.12532175206928,-149.92863710634012,-72.31757520850871,19.18745066477915,-4.7520271550077,279.8637083137973,74.72682565535654
481,9.2410592182935,-235.9505896036651,-150.05040513452545,-74.68838603121473,19.022785866315612,-4.403332265938881,279.78296960766767,76.9399656876726
482,9.237274221026958,-235.7630587368854,-150.1775066400316,-77.16886899998516,18.801410379010573,-4.003498306386797,279.6942582905115,79.26800988963095
483,9.221292630787094,-235.5631142122491,-150.31060883141126,-79.7480695554945,18.513595566520376,-3.55586090792861,279.5982378364829,81.70216420185908
484,9.192624501289888,-235.3514797866559,-150.45034882888277,-82.41386936156151,18.149045963529563,-3.0649314834502954,279.4958386523921,84.23227178079415
485,9.150885038416579,-235.12921662963555,-150.597307630379,-85.1530721918067,17.697199506250726,-2.5362864140878956,279.3882431247472,86.846872799212
486,9.095799444540718,-234.89770768092234,-150.7519846365833,-87.95150735741971,17.147577516667557,-1.9764182886713026,279.2768590963056,89.53328925852878
487,9.027209942258578,-234.65862724343063,-150.91477355712624,-90.79415746924863,16.490172681745676,-1.3925549139940525,279.1632818830475,92.27774105751881
488,8.945084787152156,-234.41389623395534,-151.08594063620552,-93.66531815513835,15.715860549066917,-0.7924533022255562,279.0492456957213,95.06550008760934
489,8.849528844859108,-234.16562443422706,-151.26560632300237,-96.54879713079472,14.816818004861181,-0.18417689363904133,278.93656619614364,97.88108867517236
490,8.740795011758063,-233.91604201386164,-151.45373162917525,-99.42815854786083,13.786930973930868,0.4241351426439677,278.82707675064506,100.70852709545464
491,8.619295554701774,-233.66742339571087,-151.6501103504887,-102.28701579259483,12.622173254674898,1.0244975140488743,278.7225615697111,103.53163213974764
492,8.485612409143492,-233.42200703299608,-151.8543681189182,-105.10937206478782,11.320938952177968,1.6092984794888683,278.6246892231681,106.33436501047858
493,8.340505479239326,-233.18191475876353,-152.06596900997047,-107.88000354133926,9.884312282587583,2.171501296151219,278.5349499615209,109.10122253201013
494,8.184917896091562,-232.94907410951686,-152.28423021469172,-110.58487530219574,8.316260455821551,2.7048200698063933,278.45459993156317,111.81766133464627
495,8.019977066015631,-232.72514663237615,-152.50834507178132,-113.21157608066974,6.623737846444887,3.2038639306545145,278.38461491784983,114.47054087455084
496,7.846990360716547,-232.51146484749532,-152.73741447618266,-115.74975480644629,4.8166927818052825,3.664245019470339,278.3256557998819,117.04856838959574
497,7.667434599311048,-232.30898023219942,-152.9704862425177,-118.19154016304623,2.9079720636348356,4.082647526831505,278.27804742291744,119.54272747714475
498,7.48293901236898,-232.11822415436856,-153.20660133606916,-120.53192407990532,0.9131227220273003,4.456856930247549,278.2417718606749,121.94667198807484
499,7.295261960909196,-231.9392830302207,-153.4448450518124,-122.76909107313264,-1.1499047740201458,4.785750517784675,278.216476060379,124.25706816348494
500,7.10626211430785,-231.77178820484323,-153.68440042452906,-124.90467729552674,-3.2611429481128855,5.069252075994095,278.2014927823852,126.47386999265348
501,6.9178650462852955,-231.6149202824697,-153.92460060957518,-126.94394569339225,-5.399070277010877,5.30825503597863,278.19587280636654,128.60051523635775
502,6.732026386489503,-231.46742692515983,-154.16497680101193,-128.8958665760247,-7.541134159077892,5.504519271555523,278.19842569037104,130.64403221484665
503,6.550692826726026,-231.32765253603478,-154.40529844775676,-130.77309609149032,-9.664314978303628,5.660547107581277,278.2077659749133,132.61505024878485
504,6.3757623863297885,-231.1935778660401,-154.6456030179747,-132.5918485078321,-11.745711058397816,5.77944402229235,278.2223616816869,134.52770956283794
505,6.20904533289093,-231.06286754378965,-154.8862132687786,-134.37166177898013,-13.76312405686314,5.864769166840679,278.2405823143937,136.39946953671875
506,6.052227068372025,-230.93292377296143,-155.127740858131,-136.13505959179378,-15.695625013203276,5.920380316057973,278.26074425951543,138.2508174355853
507,5.906834236771068,-230.80094479009975,-155.3710761399901,-137.90711682739268,-17.524082652767635,5.950277332193945,278.2811523329352,140.1048830914826
508,5.774205319367018,-230.66398700921803,-155.61736495168066,-139.7149389203633,-19.231637429324962,5.958447786265792,278.3001370371609,141.98696824973098
509,5.6554669452649655,-230.51903008387777,-155.86797387639993,-141.5870687533987,-20.804106928406824,5.9487180978952,278.31608772505297,143.92400222731501
510,5.551516919352069,-230.36304433924084,-156.1244456960465,-143.55283730074493,-22.23031050741215,5.924613389609059,278.3274821796348,145.94393797204847
511,5.463014526154572,-230.19306002694577,-156.38844666747127,-145.6416760846973,-23.50230343369444,5.88922912544903,278.3329130709544,148.0751044296209
512,5.390378109167127,-230.0062375569659,-156.66170717110342,-147.88241057862263,-24.615513428292402,5.845117452497035,278.331111452624,150.34553229360156
513,5.333789409238682,-229.79993734389816,-156.94595742557044,-150.3025540295885,-25.56877555840441,5.794190942919303,278.3209671119099,152.7822708105
514,5.29320377598013,-229.57178732613764,-157.2428603125459,-152.9276208808154,-26.364264867673572,5.737646090062016,278.3015453056001,155.41071343959564
515,5.268365138648837,-229.3197457069289,-157.5539437272485,-155.78047814692653,-27.007329887730528,5.67590840382077,278.2720992036078,158.25394989943536
516,5.258824459551834,-229.04215611945588,-157.88053510521752,-158.88075185471075,-27.506234058822187,5.608600305030919,278.23207721062374,161.33216154616437
517,5.263960239158482,-228.73779231182866,-158.22370078718848,-162.2443041715971,-27.87181587374364,5.534532330077766,278.1811242571907,164.66207622530564
518,5.282999574299519,-228.40588971232765,-158.5841925927794,-165.8827952743112,-28.11708198066768,5.451717518965508,278.1190762115633,168.2564978179783
519,5.315038464233024,-228.0461620648826,-158.96240335439626,-169.80334247974915,-28.256750267892233,5.357408316180556,278.0459469139411,172.1239247159385
520,5.359060567154875,-227.6588027245508,-159.35833236555027,-174.0082876816419,-28.306761863039466,5.248154864768027,277.9619080657561,176.26827036901992
521,5.413954235104052,-227.24447172046192,-159.77156103886463,-178.49508259332706,-28.283781793857123,5.1198832052918055,277.8672631171016,180.68869770496246
522,5.478528128033403,-226.80427070954394,-160.20123879078565,-183.2562994677685,-28.20470763378625,4.967991578382083,277.7624170003672,185.37957739513087
523,5.551525921668789,-226.3397082817187,-160.6460792128877,-188.27977260507348,-28.08620381159373,4.787462746073247,277.6478438730164,190.3305774053753
524,5.631640650722324,-225.85265805695573,-161.10436669546004,-193.54887288916265,-27.944276601926635,4.572990004850467,277.52405507691884,195.52688789997404
525,5.717529191574616,-225.34531194833744,-161.57397368276742,-199.0429137616709,-27.793901435282557,4.319114421133965,277.3915694691189,200.94958135507173
526,5.807827361083151,-224.8201308744855,-162.05238868733474,-204.737682510224,-27.648710390144597,4.020370807496827,277.2508881656001,206.57610279911003
527,5.901166081666656,-224.27979498945234,-162.53675510700387,-210.60608573483566,-27.52074385754493,3.6714400110672485,277.10247550396906,212.38087967865005
528,5.996188965411803,-223.7271551535974,-163.02392069631364,-216.61889275350518,-27.420266682072626,3.2673050846861984,276.94674762372534,218.33603536652836
529,6.091571428830878,-223.16518698207634,-163.51049713433667,-222.74555602736623,-27.355645875499437,2.8034087624058395,276.7840694910706,224.41218532211136
530,6.186041058991344,-222.59694841297394,-163.99292855720887,-228.9550838704801,-27.33328457896592,2.275809339460644,276.6147605183071,230.5792908547481
531,6.278398507034279,-222.02554128010703,-164.46756744065834,-235.2169379687208,-27.357605565855604,1.681331611156358,276.4391082523599,236.80754256917515
532,6.36753784638692,-221.45407687836283,-164.9307560221436,-241.50192656817524,-27.431077298445775,1.0177090567833116,276.2573890681516,243.06824389866514
533,6.452465214906531,-220.88564515370396,-165.37891144835794,-247.78306357953227,-27.55427620394676,0.2837130889888136,276.0698944929548,249.33466461297664
534,6.532314642478835,-220.323287049871,-165.80861276586478,-254.03636432767243,-27.725980058551823,-0.5207349575169289,275.8769616488584,255.58283482514798
535,6.606360126828864,-219.76996954893195,-166.21668760949626,-260.24155031436345,-27.943288769427962,-1.39447326923312,275.6790061319647,261.79225182245364
536,6.67402316009613,-219.2285628250554,-166.60029607452753,-266.3826381485437,-28.201770128186606,-2.335034118577424,275.47655531736103,267.9464749677625
537,6.734875010956345,-218.7018186699588,-166.9570089726515,-272.4483916436867,-28.49562905998673,-3.3386064928240367,275.27027968435345,274.0335878457147
538,6.788633191003271,-218.19234913643413,-167.28487761363854,-278.4326208220823,-28.817899349620763,-4.400028857352091,275.06101953981954,280.0465115855348
539,6.835151795203657,-217.70260440353564,-167.58249251178052,-284.33431699582036,-29.160656774576946,-5.512813244625816,274.8498047118795,285.98315867364454
540,6.874405871617791,-217.23484924786186,-167.8490290125715,-290.15761901395257,-29.51525217089637,-6.6692010025579656,274.6378654522647,291.84642239289775
541,6.906470528527663,-216.79113800863996,-168.08427863480787,-295.91161196427004,-29.8725623658537,-7.8602496757897935,274.4266336780825,297.6440031004113
542,6.931495905058379,-216.37328828717142,-168.28866566476682,-301.60996581459284,-30.223256198278555,-9.07594963467355,274.2177344187469,303.38807861037486
543,6.949679297776729,-215.98285375296646,-168.46324905101199,-307.2704273424655,-30.55807207590118,-10.305368240532333,274.0129677470327,309.09483166010597
544,6.961235691572883,-215.62109645059985,-168.60970993479964,-312.9141839537637,-30.86810282646766,-11.536818546715432,273.81428165647907,314.7838525409689
545,6.966367801449391,-215.28895902174025,-168.7303252912782,-318.56512243798363,-31.145083096443987,-12.75804874096542,273.6237364389469,320.47743928939036
546,6.965236601266398,-214.98703735460919,-168.82792825480578,-324.2490092055039,-31.381674215358025,-13.956447695812356,273.44346124489005,326.1998212104738
547,6.957933232448003,-214.71555442051712,-168.90585585706935,-329.9926209656877,-31.57174116036885,-15.11926113318825,273.2756037936556,331.9763338054057
548,6.944453105543487,-214.47433644047672,-168.9678851060958,-335.8228560027312,-31.71061592615396,-16.233812128216655,273.12227462250735,337.8325742585911
549,6.924672925435398,-214.26279289776082,-169.01815850775074,-341.765856096948,-31.79534120055929,-17.287719138125777,272.9854876647396,343.7935664255659
550,6.898331426165325,-214.07990208972862,-169.06110039632577,-347.84616778350426,-31.82488780056642,-18.269104617494254,272.8670992631563,349.8829628219936
551,6.8650149301104415,-213.92420381379006,-169.10132602535268,-354.08596929117897,-31.800338911851412,-19.16678764723751,272.7687480374714,356.12230871263074
552,6.824149302300838,-213.79380048949417,-169.14354618550666,-360.50438642106184,-31.72503388783949,-19.97045478722605,272.69179833408504,362.5303903042722
553,6.775000059036217,-213.68636769702155,-169.19247069816262,-367.1169168659329,-31.604664266008957,-20.670804408704438,272.63729011985345,369.1226853159822
554,6.716682065893182,-213.59917487336486,-169.25271410526906,-373.93497792860916,-31.447314783515147,-21.2596609496857,272.6058979842455,375.91092972548387
555,6.648179575058833,-213.52911672786527,-169.32870629414768,-380.9655872172402,-31.26344258615828,-21.730056802718018,272.5979014079429,382.9028092216938
556,6.56837663534424,-213.47275567669865,-169.42461001800325,-388.2111798204489,-31.065788702990403,-22.07628086897558,272.6131677607822,390.10177798874935
557,6.476097294396705,-213.4263751000917,-169.54424661771577,-395.66955906822227,-30.86921746239339,-22.293894198698723,272.65114869046533,397.5070013029981
558,6.370154371103905,-213.3860424845976,-169.6910307799247,-403.33397185505817,-30.69048201744449,-22.379714593306986,272.7108896826121,405.11341264322175
559,6.249404797504896,-213.34768070773924,-169.8679147495574,-411.19329434912476,-30.54791743198579,-22.331773532246235,272.791051672205,412.9118712860703
560,6.112808765160266,-213.30714511803052,-170.07734196347414,-419.2323103505647,-30.461066512539926,-22.149250199573146,272.88994282247245,420.8894032501255
561,5.959489442304955,-213.26030380185375,-170.32120970064432,-427.4320629021803,-30.450247340358278,-21.832388600151646,273.005558149149,429.0295072184479
562,5.78878996190351,-213.2031184075861,-170.60084029487166,-435.7702599073387,-30.53607491660862,-21.382404706063394,273.1356246279711,437.31250758550686
563,5.600324573828948,-213.13172288345652,-170.91696082484376,-444.22171604050703,-30.738952208880377,-20.80139120882948,273.27764965354356,445.7159385874388
564,5.394021108111165,-213.04249735163964,-171.26969175771512,-452.7588155653767,-31.078547936745156,-20.09222765776372,273.42897097205696,454.2149459894402
565,5.170152166724206,-212.93213416004113,-171.65854541052656,-461.35198330906695,-31.57327948358575,-19.258503401080876,273.5868063165423,462.7826955163977
566,4.929352897924394,-212.79769313058682,-172.0824351451349,-469.9701536476814,-32.23981933496315,-18.304459777254745,273.7483009949033,471.39077979757343
567,4.672623975254123,-212.6366433890511,-172.5396960459226,-478.58122972454856,-33.092642510540934,-17.23495650512888,273.9105718772235,480.0096178585444
568,4.40131945217915,-212.44689002029983,-173.02811762756696,-487.1525271618175,-34.14363070996775,-16.055465263994122,274.07074679319237,488.60884306747636
569,4.1171202212287445,-212.22678499019744,-173.54498893837032,-495.65119830351404,-35.40174645195336,-14.772091088891395,274.2259991894058,497.15767700634706
570,3.821994628009909,-211.9751229743651,-174.0871561809168,-504.04463464357303,-36.87278746718588,-13.39161957990708,274.37357868780686,505.62528810181027
571,3.518148349058763,-211.69112367057332,-174.6510925168746,-512.3008465339303,-38.559228170116775,-11.921585293895612,274.51083863016135,513.9811350162973
572,3.207966052464332,-211.37440282260067,-175.2329789744006,-520.3888204062948,-40.460151396893934,-10.370354272189013,274.63526172335287,522.1952956519546
573,2.893947668988751,-211.02493467938626,-175.8287944758743,-528.2788544259015,-42.57126997436368,-8.747211592992159,274.74448470989927,530.2387830178797
574,2.578642245335628,-210.6430090336885,-176.43441227384565,-535.9428736465757,-44.88503423901429,-7.062443273424888,274.8363228431471,538.0838490827217
575,2.2645823011228106,-210.22918628386216,-177.04569974564308,-543.3547253992701,-47.39081847233208,-5.327400971538743,274.9087949514959,545.7042771327476
576,1.954221431160475,-209.78425405731434,-177.65861847030249,-550.4904549853289,-50.07517648973374,-3.5545378760852837,274.96014991580165,553.0756622530661
577,1.6498776259880383,-209.30918878244594,-178.26932155904902,-557.3285609660621,-52.92215444652039,-1.7574049642572063,274.9888952790884,560.1756785609847
578,1.353684398808803,-208.8051252125107,-178.87424525373342,-563.8502285850886,-55.913647379623036,0.04940148531704001,274.9938284225768,566.984330896505
579,1.0675513084829649,-208.27333636062946,-179.4701919899402,-570.039539170541,-59.029785106760514,1.850347557095048,274.9740704258682,573.4841878633562
580,0.7931349239322052,-207.71522567807287,-180.05440254970435,-575.8836527097933,-62.24933288727799,3.629127440686424,274.9291025116353,579.6605923901897
581,0.5318207521521109,-207.13233261504735,-180.62461547116044,-581.3729600999678,-65.55009277601849,5.368886143302232,274.85880478457403,585.5018452814119
582,0.28471619119028296,-206.52635190836295,-181.17911231878605,-586.501200774026,-68.9092929179259,7.052494061798273,274.7634966407253,590.9993564760672
583,0.052654201084671205,-205.89916599063162,-181.7167477278624,-591.2655404527874,-72.30395410936862,8.662864673914871,274.6439776956856,596.1477579016982
584,-0.16379290033344063,-205.25288877527433,-182.23696354684802,-595.6666027374544,-75.7112256654945,10.183303571760677,274.5015674833699,600.9449709539545
585,-0.3642903891682912,-204.58991782642687,-182.73978712562564,-599.7084472852248,-79.1086857374755,11.597874764355428,274.33814171721474,605.3922208846815
586,-0.5487100511155025,-203.91299084638536,-183.22581474607628,-603.3984866180868,-82.47460436616358,12.891768759024414,274.15616272638147,609.4939899238624
587,-0.7170926666856874,-203.22524180486653,-183.69618199937315,-606.7473334481098,-85.78817034483357,14.051656529990657,273.95870176020367,613.2579009992212
588,-0.8696060250832705,-202.53025193647835,-184.15252329668886,-609.7685709868688,-89.02968506755751,15.066014187643527,273.749451036273,616.6945246421535
589,-1.0065006772865437,-201.8320909645537,-184.59692268214414,-612.4784401864641,-92.18072776754478,15.925404938077131,273.5327234973583,619.8171032026281
590,-1.128065742824566,-201.1353439683784,-185.03185788302213,-614.8954402558873,-95.22429682178308,16.622707548095384,273.3134381334686,622.6411888464207
591,-1.2345870206885028,-200.4451193110584,-185.46013919274543,-617.0398420012165,-98.14493112941938,17.153283642193614,273.09708849834817,625.1841948600929
592,-1.3263094581354216,-199.76703327343907,-185.88484437877847,-618.933117335199,-100.92881409123243,17.51507938520394,272.8896919450097,627.4648633323908
593,-1.4034057548119556,-199.10716775125272,-186.30925044638605,-620.5972924249975,-103.56386067030601,17.708660175159473,272.6977173843202,629.5026560728776
594,-1.4659525367799062,-198.4719986173427,-186.7367629206813,-622.0542361821333,-106.03978571183075,17.737179704250675,272.52799017192507,631.3170794922414
595,-1.5139151269331765,-197.868294008005,-187.17084336106055,-623.32490003626,-108.34814949617136,17.60628701202974,272.3875739804492,632.9269580408339
596,-1.5471414985236032,-197.30298367493137,-187.61493594214568,-624.428529100991,-110.4823747951217,17.323976879999506,272.28363097486994,634.349674669866
597,-1.565365570877352,-196.78300244917304,-188.07239395011933,-625.3818688011808,-112.43772889351553,16.900390092169015,272.22326301271397,635.6004005775166
598,-1.5682196067097254,-196.31511259314956,-188.54640693987875,-626.1983945547024,-114.2112643894524,16.347570760084515,272.21333778327386,636.6913400533267
599,-1.5552550954414177,-195.90571123693033,-189.03992922882767,-626.887594867171,-115.80171413522626,15.679188173352182,272.26030478646805,637.6310192424901
600,-1.5259711680653392,-195.56063016485118,-189.55561052701512,-627.4543398393384,-117.2093382585055,14.910230605827858,272.370006912411,638.4236497411584
601,-1.47984930829083,-195.28493592245874,-190.09572985400868,-627.8983672600476,-118.43572450375522,14.05667831546253,272.5474941316182,639.0685987225621
602,-1.4163928974190494,-195.08273851464574,-190.66213438030962,-628.2139168904415,-119.48354678804797,13.135162745412991,272.7968463572912,639.5599964526577
603,-1.3351699361649612,-194.95701685507487,-191.25618532146294,-628.3895400915221,-120.35629047658135,12.162618749717883,273.12101279869154,639.8865093663682
604,-1.2358571418960136,-194.90946864834294,-191.87871337737747,-628.4081066802091,-121.0579560443877,11.155936574956783,273.5216750316056,640.0313023321521
605,-1.1182835882445947,-194.94039156554055,-192.52998631359625,-628.2470241334687,-121.59275515322415,10.131620360013269,273.99914049475456,639.9722075704966
606,-0.9824722129281703,-195.04860138658907,-193.2096909978713,-627.8786764084748,-121.96481453998511,9.105460066880475,274.5522720749573,639.6821102734114
607,-0.8286778902500707,-195.23139126540872,-193.91693152123693,-627.2710810524462,-122.17790344498518,8.092223958782132,275.1784578864383,639.1295526225301
608,-0.6574212155573813,-195.48453462727275,-194.6502441257225,-626.3887542104688,-122.2351996223984,7.10537887385518,275.87362354661235,638.2795488904355
609,-0.46951743943212465,-195.80233266755337,-195.40762876020034,-625.1937639245043,-122.139107260324,6.156845451199177,276.63228752715287,637.0945949458388
610,-0.266099988016173,-196.17770602809102,-196.18659627239194,-623.64694320695,-121.89113737928581,5.256795002186821,277.44765859907585,635.5358462133788
611,-0.048637782586643884,-196.60232884222106,-196.9842294968118,-621.7092263373523,-121.49185755766153,4.413493815873532,278.31177288095864,633.5644295411481
612,0.18105473033843295,-197.0668018654593,-197.79725586908359,-619.3430652348349,-120.94091340090624,3.633199444165979,279.21566651191995,631.1428471079403
613,0.42081619387351243,-197.56085988983926,-198.62212880725423,-616.513877972911,-120.23711942955636,2.9201121606587774,280.1495786231938,628.2364248996915
614,0.6681470864760487,-198.07360717390156,-199.45511497780936,-613.1914786115481,-119.37861249476657,2.2763835108153487,281.1031781630232,624.8147545731053
615,0.9202299744812171,-198.59377329812116,-200.29238458635302,-609.3514364378018,-118.36305693698579,1.7021826718971456,282.06580721673174,620.853075709922
616,1.1739622546092339,-199.10998081403244,-201.13010184599588,-604.9763133426223,-117.18788788372258,1.1958200765387732,283.02673274343834,616.3335455339145
617,1.4260017754882168,-199.6110154940405,-201.9645127156595,-600.0567303386662,-115.85057752060727,0.7539262921175184,283.9753982164482,611.2463450724978
618,1.6728250733737189,-200.0860900202107,-202.79202688775044,-594.5922180535374,-114.34890882745204,0.3716824695664458,284.9016665994212,605.5905744048239
619,1.9107973228965114,-200.52509247725078,-203.60929091049624,-588.5918114321067,-112.68124198474916,0.043096831062804875,285.7960463959114,599.3748950383605
620,2.1362525030187474,-200.91881186518793,-204.41324939871564,-582.074356043136,-110.84676020060989,-0.23868031586003993,286.64989315639133,592.6178847455631
621,2.3455817180173097,-201.2591339396203,-205.20119172074692,-575.0685024950288,-108.84568381186848,-0.4810126449587703,287.45557990127463,585.3480795034934
622,2.5353270849448095,-201.539201948985,-205.97078245128176,-567.612376439357,-106.6794439138586,-0.6914166453497117,288.20663144257907,577.6036883801864
623,2.702278083910793,-201.75353809683867,-206.72007510651227,-559.7529240619231,-104.35080928323531,-0.8771967318090073,288.8978193379805,569.4319798565493
624,2.8435667953944077,-201.8981226718544,-207.44750994127432,-551.544946193477,-101.86396286153744,-1.0450914441707857,289.5252158856835,560.8883515151804
625,2.956758102202039,-201.97042881113015,-208.15189767287822,-543.0498474631456,-99.22452646732553,-1.2009461066146567,290.086207051005,552.0351085118479
626,3.0399307876120463,-201.969411986411,-208.83239178765908,-534.3341394473779,-96.43953459709937,-1.349426931051169,290.5794655598605,542.9399889496236
627,3.0917455653769896,-201.89545470966448,-209.48845249725957,-525.4677477310385,-93.51736008652452,-1.4937900829678903,291.00488666740864,533.6744853995
628,3.1114964793584448,-201.75026871252797,-210.11980543860102,-516.5221815439542,-90.46759603839622,-1.6357166738687845,291.3634903586789,524.3120207193693
629,3.099142834292885,-201.53675885179211,-210.72639796451818,-507.56863077895946,-87.30089984510084,-1.7752211525152657,291.65729496229005,514.9260426485921
630,3.055319812332425,-201.25885496154683,-211.3083554762989,-498.6760585973678,-84.02880638514397,-1.9106364411233203,291.8891682569724,505.5881052675628
631,2.98132706873799,-200.92131955039036,-211.86593980230091,-489.90935848065607,-80.6635185229387,-2.038674818221231,292.0626630067379,496.3660062950397
632,2.879095753486184,-200.52954048632068,-212.39951120681732,-481.3276425450273,-77.21768381105812,-2.154559449261324,292.1818444282967,487.3220473801275
633,2.751135483870289,-200.0893185184255,-212.9094952017297,-472.9827232773154,-73.70416673555418,-2.252218027385308,292.2511172877963,478.5114800932139
634,2.6004637403342437,-199.60665952119305,-213.39635480698152,-464.91784364768284,-70.13582593832312,-2.3245274947092,292.275059964882,469.98119329555044
635,2.4305209230898948,-199.08758065546436,-213.86056821479812,-457.16670089981153,-66.52530556751093,-2.3635974005063627,292.258271837208,461.7686880601105
636,2.2450748303067765,-198.53793831656031,-214.30261108658698,-449.75279746227335,-62.884849235184596,-2.3610791232582176,292.2052388924117,453.90137457551725
637,2.04811854604457,-197.96328396060477,-214.72294214932225,-442.6891388637868,-59.2261440603038,-2.308488794365896,292.1202208363381,446.3962119947245
638,1.8437656571897727,-197.3687518350636,-215.1219904922929,-435.97828394825154,-55.560201069650255,-2.197532982204609,292.0071613525794,439.25969767986675
639,1.636146422418013,-196.75898046029738,-215.50014301421353,-429.61273778998856,-51.89727691385944,-2.0204276017021443,291.86962171147,432.48819746582035
640,1.4293080911176357,-196.13806758165833,-215.8577307401886,-423.5756632080632,-48.2468403635264,-1.770201750068268,291.71073667007,426.0685941040389
641,1.2271221059393853,-195.5095563636763,-216.1950130921327,-417.8418734112591,-44.617585145787466,-1.4409790375945637,291.5331905417638,419.9792176612091
642,1.0332004705335756,-194.8764489339931,-216.5121596483027,-412.3790568805926,-41.01748814556483,-1.0282294744771607,291.3392105109383,414.1910101161303
643,0.8508231165298082,-194.24124211536068,-216.8092295785148,-407.14917691192676,-37.45390883578491,-0.528985248951338,291.1305738813814,408.66886752670325
644,0.6828776356538403,-193.6059794048799,-217.08614979918016,-402.1099829493411,-33.93372229552567,0.05798597959752292,290.90862604572874,403.37309761602444
645,0.5318122671235807,-192.97231301352647,-217.34269374781235,-397.21656933367535,-30.463474780139702,0.7320561420497143,290.67430641960146,398.2609288945637
646,0.3996025765122529,-192.34157002365203,-217.57846329343602,-392.42291942173404,-27.04954803764101,1.4906651607631618,290.4281801925081,393.2880095912762
647,0.287731833266927,-191.71481733193983,-217.79287659813508,-387.68337884300126,-23.698316860794623,2.329306298374642,290.1704743647647,388.4098403852259
648,0.19718468622248558,-191.0929209041265,-217.98516472168956,-382.9540101706007,-20.416283968704036,3.2415701765645935,289.9011170857641,383.5830934409159
649,0.12845337595176207,-190.4765959766654,-218.15437935884734,-378.1937913979913,-17.210177250654382,4.219246930966194,289.61977974415817,378.76678045299
650,0.08155545865239505,-189.8664462351987,-218.2994133251537,-373.36563118059246,-14.086996560179609,5.252483576712449,289.3259216158355,373.9232431260535
651,0.05606186456236932,-189.26299152277645,-218.41903449278556,-368.4371838797728,-11.054000455283193,6.329991357123015,289.0188372145665,369.0189497856981
652,0.0511340093649705,-188.66668493160773,-218.51193309144213,-363.3814564270249,-8.118627391664997,7.439295795593996,288.6977067737288,364.02509100618994
653,0.06556852627793083,-188.07792097024603,-218.5767816412434,-358.17720660389114,-5.2883507196871555,8.567020464527776,288.3616503600951,358.9179749216678
654,0.09784798293291362,-187.49703692419425,-218.61230612939934,-352.80913844823175,-2.570472098713152,9.699194190095236,288.0097859095835,353.67922917331515
655,0.14619577702871295,-186.92430974259025,-218.61736638237633,-347.2679053018202,0.028136913047676588,10.821570611608022,287.6412911185171,348.29582135287984
656,0.20863333995369776,-186.35995092699903,-218.59104302173375,-341.5499347775644,2.5013309521680176,11.919948812456353,287.2554687922913,342.75991357427074
657,0.2830378183014904,-185.80410196610495,-218.53272789701106,-335.65709286695113,4.844007351779651,12.980484180735543,286.8518149229772,337.0685696525898
658,0.36719851485618815,-185.2568327521735,-218.44221437981622,-329.5962066214919,7.052424045984034,13.989979671090696,286.4300883112416,331.2233354017335
659,0.4588705310303506,-184.7181450622555,-218.319783421899,-323.378466380273,9.124499403032145,14.9361490549475,285.99037995416256,325.2297138569806
660,0.5558242625335038,-184.18798262437747,-218.16628092209547,-317.01872950704046,11.060075034369676,15.80784533169016,285.53317978465464,319.09655793456415
661,0.6558896635866844,-183.66624860447772,-217.98318175100223,-310.5347482116499,12.861123919171233,16.595248986406748,285.0594377568376,312.83540333396644
662,0.7569944909542695,-183.15283061399327,-217.772635779162,-303.9463443459515,14.531888189131749,17.29001207311831,284.5706157947499,306.4597644671037
663,0.8571960145586951,-182.647632596139,-217.53749148861644,-297.2745540629833,16.07893369406066,17.88535520821051,284.0687268227776,299.9844158644784
664,0.9547059020834743,-182.15061223022983,-217.28129325392604,-290.5407648836512,17.511112059987344,18.376115650378843,283.55635702099187,293.4246808648102
665,1.047908187815719,-181.66182182414633,-217.0082492519752,-283.76586704054,18.839425310737283,18.75874591831746,283.0366676879072,286.79574848377126
666,1.1353704868263752,-181.18145009213654,-216.72316834261957,-276.969439991242,20.076793128767452,19.031263998869584,282.51337378759416,280.1120382278596
667,1.215848925020933,-180.70986178403777,-216.43136612229384,-270.1689937787448,21.23772829614143,19.19315817946444,281.99069741169563,273.38663134262237
668,1.2882875877686213,-180.2476318572358,-216.1385423724804,-263.3792835993997,22.337931471112796,19.245251842524386,281.4732957631906,266.6307856736674
669,1.3518135947729584,-179.79557079054192,-215.85063394848592,-256.6117146314407,23.39382174166585,19.189536042311335,280.9661646093498,259.85355003253505
670,1.4057290694510907,-179.3547378044308,-215.57364865463643,-249.87385284661082,24.422023808293048,19.02898013122815,280.4745194065874,253.06149259614256
671,1.4495011353572347,-178.92643926114425,-215.31348685424854,-243.1690560413073,25.438835744571513,18.767332789055992,280.0036575448406,246.25855623037762
672,1.4827506622121056,-178.51221042481416,-215.07575843889975,-236.49623759949446,26.45970279986662,18.40892714908325,279.5588064075601,239.44605158771537
673,1.5052400533981787,-178.1137800591299,-214.86560325907513,-229.84977354673833,27.498722486679647,17.958504046612763,279.14496313540536,232.62279637963158
674,1.5168601514667504,-177.7330189252283,-214.68752316811634,-223.21956124284844,28.568204175673195,17.42106669617822,278.76673302942925,225.78540635573157
675,1.5176163523444732,-177.37187491191025,-214.5452334208158,-216.5912353684931,29.67830277518434,16.801778402735952,278.42817427819375,218.92874005921433
676,1.5076141133602512,-177.03229903722644,-214.4415402018679,-209.94654326334887,30.836741291124056,16.105912288975418,278.1326569121719,212.04649501361965
677,1.4870440732278551,-176.71616767519188,-214.37824949222912,-203.26387670824857,32.048631808149,15.33885856768177,277.8827433951716,205.13194724008963
678,1.4561669571614901,-176.4252068740833,-214.35611049869456,-196.51895068166905,33.31639923926746,14.50619083326683,277.6800970626968,198.17881874322413
679,1.4152983994364854,-176.16092438591747,-214.37479485645244,-189.68561163468877,34.63980731797401,13.613788580091843,277.5254229032069,191.18224906059874
680,1.364793833001049,-175.9245540740228,-214.43291102416288,-182.73674895259416,36.01608185510194,12.668009160651206,277.4184431847834,184.13983772487126
681,1.3050336633781134,-175.71701604716105,-214.52805163190527,-175.6452743069067,37.44012241521048,11.675899099697272,277.357908307255,177.05271539232007
682,1.2364090512129333,-175.53889452386022,-214.65686985627937,-168.38512562675453,38.904790591176834,10.64543226011172,277.3416411099258,169.92659358623257
683,1.159308745790571,-175.39043404511867,-214.81517942219818,-160.93224674595675,40.401261278949654,9.585760717340616,277.3666108634713,162.77273784304316
684,1.0741074677512341,-175.27155301979903,-214.9980720401957,-153.2654916594446,41.919422834625145,8.507463205337777,277.4290315475437,155.6088077688443
685,0.9811563012287187,-175.18187180008456,-215.2000461179186,-145.36740448159875,43.448312395017794,7.422775725657821,277.52447792046917,148.45951076145857
686,0.880775491831646,-175.1207510352744,-215.41514120613667,-137.22483258774474,44.976573364643315,6.34578961653273,277.6480124548392,141.357023744681
687,0.7732500325996771,-175.0873354200274,-215.6370736641509,-128.82934034899424,46.49292260309483,5.292604151876485,277.7943166016682,134.34114837319873
688,0.6588284333364632,-175.080598252004,-215.85937033894368,-120.17740341524873,47.986614985031146,4.281423191653475,277.9578210403465,127.45917875966764
689,0.5377250226943031,-175.09938319287824,-216.07549836748322,-111.27037770791694,49.44789279508473,3.332587758006924,278.132831199547,120.76547579544976
690,0.4101259813025245,-175.1424408704503,-216.2789901683066,-102.11425204058499,50.86840698136895,2.4685380264695946,278.3136458523766,114.32075740040624
691,0.2761990846511824,-175.20845908679476,-216.46356312244822,-92.7192072155903,52.24159679305785,1.713699073999511,278.4946676294792,108.19112817605907
692,0.13610692698436588,-175.29608620962642,-216.62323346964834,-83.09901609800241,53.56301407374438,1.0942853905725636,278.6705048200189,102.44688363707137
693,-0.009976720282928956,-175.4039478691775,-216.7524237866499,-73.27032739656318,54.83057891737785,0.6380203650096697,278.8360640458143,97.16113258730472
694,-0.1618477626577522,-175.5306575386656,-216.84606321037913,-63.25188012983415,56.044754973796536,0.37376910014022147,278.9866335198564,92.40828611924296
695,-0.31925014635237925,-175.67482202698133,-216.8996793548885,-53.06369611824314,57.20863568199986,0.3310859319425418,279.1179567176835,88.26246362082826
696,-0.4818520485325558,-175.8350432831739,-216.90948068578584,-42.72629488987075,58.32793699161807,0.5396816245667438,279.2262963812264,84.79586582294814
697,-0.6492203491176,-176.00991812833314,-216.872428022298,-32.259969955467476,59.41089712829571,1.0288191216510452,279.30848883990257,82.07716293211104
698,-0.8207940278530674,-176.198037627146,-216.78629382620682,-21.68415844312934,60.46808877200907,1.826650678369815,279.3619886876907,80.1699425359327
699,-0.9958572922111164,-176.39798784545684,-216.64970793075332,-11.01692850126443,61.51215277028651,2.959512723749736,279.38490387320496,79.13125724359918
700,-1.1735134130567308,-176.6083536805192,-216.46218832005442,-0.27460138093809294,62.557464710426984,4.45119736552979,279.3760211918219,79.01030596462553
701,-1.352660521346071,-176.8277272196436,-216.22415551973887,10.528481981955226,63.619746394870695,6.322220719738971,279.3348219888724,79.84727568269015
702,-1.531970982679339,-177.05472166091994,-215.93692919562955,21.38004678571008,64.71563396561999,8.589108252838166,279.2614876498573,81.67236319832837
703,-1.7098762615199787,-177.28799127545184,-215.60270583640775,32.26982599552741,65.862213641216,11.263716359925068,279.1568943248773,84.50498932341313
704,-1.884559275529481,-177.5262572869998,-215.2245170387094,43.18936752056851,67.07653518029046,14.352607875813142,279.02259645466427,88.35321200165941
705,-2.0539561134437307,-177.76833895786504,-214.80616886559585,54.131722587523996,68.37511256560633,17.856497481355007,278.86079903446625,93.21334015653059
706,-2.2157687444051137,-178.0131886258059,-214.35216381954507,65.09103620977447,69.77342120206623,21.769781210421982,278.6743190366592,99.06974685872889
707,-2.3674900907337904,-178.25992892454258,-213.86760802628427,76.0620650788821,71.2854011870813,26.080162637981445,278.4665369026149,105.89487864132775
708,-2.506442584324143,-178.50788996749097,-213.35810727632347,87.03965179739666,72.92297684156621,30.768387159711025,278.24133953447273,113.64945733575419
709,-2.6298309870662973,-178.75664401175317,-212.82965659355307,98.01818696523962,74.69560350611354,35.808095352000905,278.00305683366395,122.28287129036705
710,-2.7348097160454987,-179.00603520346593,-212.28852880924347,108.99109174568551,76.60985337831042,41.165806589515675,277.7563945022018,131.73375356201623
711,-2.8185641418316774,-179.256202490038,-211.7411680116608,119.95035262950779,78.66905256607153,46.80104429682512,277.5063664238763,141.93074474432987
712,-2.8784044264074105,-179.50759459544898,-211.19409358865585,130.8861370126845,80.87298117334333,52.66661368661467,277.2582303346114,152.79343679369236
713,-2.911869606927279,-179.76097693521436,-210.6538197310669,141.78651325005802,83.21764685535078,58.70904099476035,277.0174304636666,164.23349128709557
714,-2.9168388577475657,-180.01743127524102,-210.1267935834812,152.63729273748015,85.69513989332614,64.86917972705088,276.78955013650796,176.15592126145359
715,-2.8916460441324303,-180.2783495291239,-209.6193528064581,163.42200504999724,88.29357470801295,71.08298428305787,276.5802758591136,188.46052071842914
716,-2.835192737341844,-180.54542309508057,-209.13770052300453,174.1220106997525,90.99711922942703,77.28244491056451,276.3953722713202,201.0434205857158
717,-2.747053962682425,-180.82062852932773,-208.687892993666,184.71674967542555,93.78611005737991,83.39667098316332,276.2406649473329,213.79874467313718
718,-2.627570392722654,-181.1062093950461,-208.27583344605517,195.18411722350595,96.63724829231982,89.35310282022056,276.1220259184581,226.62033393814028
719,-2.477920675320093,-181.4046532122465,-207.90726467636813,205.50095108684766,99.52386865567901,95.07882615670957,276.0453555627869,239.40350219279918
720,-2.300168189917131,-181.71866189553037,-207.5877534534636,215.6436070371958,102.41627321219607,100.50195832432003,276.01655445617916,252.04678172559358
721,-2.0972777305898447,-182.0511140773939,-207.32266118712144,225.58859313453874,105.28212054328593,105.55307188745027,276.0414798719698,264.4536142361551
722,-1.8730991612539514,-182.40501828801777,-207.11709733308678,235.3132288238786,108.08686133985725,110.1666203113222,276.1258835241293,276.5339418960227
723,-1.6323165982311676,-182.78345695807812,-206.97585410229033,244.79629303467104,110.794211799023,114.28233048827688,276.27532938908934,288.20565504660664
724,-1.3803629978774425,-183.18952238610115,-206.90332291773976,254.01862541398233,113.36665670141159,117.84652704893219,276.49509261983957,299.39585592088827
725,-1.123301314087616,-183.6262469414306,-206.90339472461247,262.96364624417606,115.76597457652728,120.81335247073439,276.79004254162743,310.041901089052
726,-0.8676747971191334,-184.0965307247626,-206.97934783781517,271.61776349033846,117.95377805070304,123.14584563076417,277.16451450821063,320.0921893618845
727,-0.6203304637054291,-184.60307060347338,-207.13372845760568,279.9706401174432,119.89206333513162,124.8168408640871,277.62217691453696,329.5066674021
728,-0.3882210767700396,-185.14829489758432,-207.36822996152836,288.0153016069622,121.54376359078262,125.80965068455694,278.1659005985199,338.2570328076639
729,-0.17819196515834598,-185.7343079143589,-207.68357724631963,295.748072545004,122.87330117051013,126.11849841480627,278.79763789731237,346.32662398383616
730,0.0032403492461133584,-186.36284787753038,-208.0794218227776,303.1683418938759,123.84713315375961,125.74867202808323,279.51831772148233,353.70999731579155
731,0.1501102340449086,-187.03526031017606,-208.55425253107103,310.2781682002411,124.43428320696968,124.71637750260291,280.32776137026946,360.41220426992726
732,0.25721741065922654,-187.75248630092673,-209.10532598320592,317.08174733630403,124.60685116467029,123.04827946471852,281.22462152145835,366.4477935154772
733,0.32032431557843066,-188.51506151413167,-209.72862012772413,323.58477547234213,124.34049059624009,120.78073022270507,282.2063440397223,371.8395760594549
734,0.33632634219523605,-189.32311847066342,-210.41881361279027,329.7937481952093,123.614844565631,117.95870621890823,283.26914967360904,376.61720473997394
735,0.30338596494106473,-190.17638300041227,-211.1692929890228,335.71524191710034,122.41393100952241,114.63449109640759,284.4080313254647,380.8156313686334
736,0.22102406904787883,-191.07415639718093,-211.97218925276263,341.3552242074389,120.72647151383426,110.8661617683404,285.61676269561457,384.4735115952934
737,0.09016443353382345,-192.01527714483447,-212.8184446468268,346.71843426800274,118.54616023730453,106.71594388739365,286.8879152618383,387.6316262919305
738,-0.08687037222058326,-192.99805927423392,-213.69790995206262,351.80786414507253,115.87187250359587,102.24850569256147,288.21288217802663,390.33137921436344
739,-0.30641141050995196,-194.02020783186825,-214.5994718220596,356.62435769733503,112.70781444254955,97.529256953673,289.5819094419247,392.61341674907396
740,-0.5635419616477348,-195.0787152998915,-215.51120913069337,361.1663304511793,109.06361574812851,92.62271522403877,290.9841364689274,394.5163999961186
741,-0.8522382721976518,-196.16974602404557,-216.42057677239885,365.4296014458758,104.95436737203464,87.59099594754555,292.4076499305132,396.07594482829836
742,-1.1655466699192625,-197.2885186371849,-217.3146147144412,369.4073194609531,100.40060523701844,82.49247592052357,293.83955615400686,397.32373351134936
743,-1.495789570896948,-198.4291987395885,-218.18017915843282,373.08996130907724,95.42824008862672,77.38067037954156,295.26607814292936,398.2867927022362
744,-1.83479155569611,-199.5848152005862,-219.0041913006362,376.46537908589727,90.06843226508174,72.3033521449676,296.6726829342133,398.9869271514007
745,-2.1741161491421575,-200.747212943444,-219.773897442704,379.51887585792196,84.35740819407906,67.30192782548772,298.04424332707475,399.44029595699936
746,-2.5053045363915425,-201.9070530083984,-220.4771324996854,382.23329467059165,78.3362129718163,62.41107381308656,299.3652353424868,399.65711874845044
747,-2.8201088431037222,-203.0538678029779,-221.1025780108307,384.58911326952557,72.05039108941935,57.658626093761505,300.6199701372237,399.64150257744046
748,-3.1107139781592523,-204.17617658691483,-221.64000604540834,386.56454529191427,65.54958596912724,53.06571200075225,301.7928573818698,399.3913854109709
749,-3.3699428226025647,-205.26166351666922,-222.08050141255188,388.1356563979857,58.88704895857942,48.647105298867224,302.8686959987545,398.8985971025504
750,-3.5914398190127907,-206.29741752370265,-222.4166551709405,389.2765100595778,52.11905018939264,44.411775917827875,303.8329864613695,398.1490425075403
751,-3.7698282115404878,-207.27022962912284,-222.64272196185843,389.95936253557034,45.30418757401362,40.36359388360971,304.6722559303471,397.1230142325357
752,-3.9008367073222026,-208.16693922370783,-222.75473286467425,390.15492994215754,38.50259612800729,36.50213785064153,305.37438404423034,395.79564473893566
753,-3.981392466072978,-208.9748168973411,-222.75055603742737,389.8327516544484,31.77506691367995,32.82355556282859,305.92891489384715,394.1375087115085
754,-4.009679175581245,-209.68196811954462,-222.62990083521169,388.9616728196127,25.182091851717693,29.321427477870024,306.327341078764,392.11538594766324
755,-3.9851609577820537,-210.2777398594697,-222.39426707707597,387.51046439804145,18.782856302006532,25.987594617760433,306.563348779559,389.69319221213163
756,-3.9085738777260772,-210.7531113695996,-222.04684730429054,385.4485921721832,12.634205217357652,22.812924757906824,306.6330168434007,386.833080452317
757,-3.7818865157550685,-211.10105089482246,-221.5923935665262,382.74713660334135,6.789611167617615,19.788003201737236,306.534965987426,383.49670691818676
758,-3.6082302520672145,-211.3168217667523,-221.0370605286251,379.37985320488053,1.2981744097830468,16.903742148510887,306.27045553708706,379.6466455548374
759,-3.391799671482683,-211.398223872651,-220.38823460577544,375.324348857609,-3.7963132427520994,14.151905632973945,305.84342527190466,375.24792017778566
760,-3.137724207315011,-211.3457596375556,-219.6543562433165,370.563334729582,-8.45620843610032,11.525547276801948,305.2604801713374,370.2696092463629
761,-2.851913542660487,-211.16271730660495,-218.8447404777991,365.0859031226269,-12.650729381733681,9.019357856536153,304.5308168701946,364.6864647721357
762,-2.540880864030666,-210.85516832107476,-217.96939953728122,358.8887655950751,-16.356515261140473,6.62992002186191,303.6660923378615,358.4804771425405
763,-2.2115494388488757,-210.43187970004485,-217.03886995727186,351.9773847425318,-19.558011197502864,4.355868370659481,302.68023715293947,351.6423130967959
764,-1.8710491493661312,-209.90414620573836,-216.06404533579126,344.3669330760042,-22.247665430323313,2.1979539137441684,301.58921737647745,344.1725557645182
765,-1.5265107508558888,-209.2855503233764,-215.0560147920283,336.08301967162157,-24.425933337122252,0.15901231099074145,300.4107504376951,336.0826836688663
766,-1.1848667688368726,-208.5916605215693,-214.02590691183954,327.162137916124,-26.101091109486948,-1.7561644701083519,299.1639818416991,327.3957391101821
767,-0.8526687164860528,-207.8396798753308,-212.98473953055344,317.6518042615223,-27.28886974974398,-3.5410518961062345,297.8691309666628,318.14665390911097
768,-0.5359297674294827,-207.0480580443234,-211.94327643227456,307.61037650756543,-28.011926768910584,-5.1877066436336206,296.54711538535025,308.3822201476481
769,-0.2399992806733194,-206.23607988745755,-210.91189182899046,297.10655855385164,-28.299177379349285,-6.687158358001813,295.2191633299692,298.16071297250323
770,0.030528880499611562,-205.423443674519,-209.90044204802786,286.21861464573436,-28.185008646471555,-8.029860617415611,293.90642288612156,287.5511893978922
771,0.27187642862223377,-204.62984095634104,-208.91814247580547,275.0333283225807,-27.70839994964621,-9.206178604880101,292.6295750761491,276.63249977591414
772,0.4811133382814272,-203.8745487727467,-207.97344809430845,263.64474897224,-26.91197276391975,-10.206891269080543,291.40845733656386,265.492056711132
