time,ax,ay,az,gx,gy,gz,accmagnitude,gccmagnitude
0,-3.046548986248857,-250.90428092323546,-0.10070626334363988,-8.016632392058018,45.08078939372967,-2.2226241920893544,250.92188859024202,45.51636875650491
1,-3.5071825862568096,-250.8273297316841,-0.19672137985785654,-8.28072333164438,45.015259175114245,-2.3330692135992197,250.85589103848534,45.54208560484837
2,-3.960956945668142,-250.7568780969564,-0.28423612061241593,-8.542641305888907,44.95894555154185,-2.431822539260492,250.7962678430822,45.58317316770215
3,-4.403399808664452,-250.6939083174493,-0.3631721795754357,-8.801333640631288,44.913411884331545,-2.5166799865437364,250.74390608808602,45.64144402075388
4,-4.830262086629858,-250.63932077491015,-0.433575715328407,-9.0563095939768,44.8799316187259,-2.585631301489212,250.69961551578967,45.71852973957107
5,-5.237611258479335,-250.5939183994929,-0.4956157694839488,-9.30765954942535,44.85944449485651,-2.636912383512135,250.66411487691104,45.8158258137174
6,-5.621911515971868,-250.5583906397148,-0.5495810369440414,-9.556053377308595,44.852522036479954,-2.6690533981287365,250.6380174817104,45.934439106279804
7,-5.980088437685274,-250.53329733011364,-0.5958748044640568,-9.80271634807262,44.859343837431226,-2.680921212557242,250.6218163025557,46.07513938720652
8,-6.309577122530278,-250.51905296420446,-0.6350081332368055,-10.049380724037881,44.87968599566038,-2.6717545944081182,250.61586912187414,46.238316310715405
9,-6.608353617458636,-250.515911956049,-0.6675914998305765,-10.29821111791531,44.91292284829107,-2.641190722329485,250.62038431648472,46.42394305818847
10,-6.874950153190363,-250.5239555170182,-0.6943249718420981,-10.551702109719775,44.95804292457035,-2.589281760411941,250.635407926997,46.63154776987422
11,-7.108455242539896,-250.54308082689334,-0.7159866947728043,-10.812547638834333,45.01367968118857,-2.516500460153636,250.66081272395644,46.86019382061273
12,-7.308500141250104,-250.57299332166141,-0.7334192504262562,-11.083483420050143,45.0781570273936,-2.4237339281586863,250.69629013420231,47.10846991547216
13,-7.475233455973373,-250.61320312212703,-0.747513480369519,-11.367106027816913,45.14954887353073,-2.3122649086324034,250.74134609815007,47.37449089236146
14,-7.609285727359868,-250.66302670407285,-0.7591896219673425,-11.66567510847051,45.22575102271547,-2.183740293950661,250.79530200488392,47.65591002647512
15,-7.711725678962567,-250.72159466964837,-0.7693759147495088,-11.980907978869233,45.304562761644036,-2.0401271283223466,250.85730160515942,47.949943465479464
16,-7.784009693887191,-250.78786587427535,-0.7789850734587482,-12.313778193108872,45.383774553117426,-1.8836570382065803,250.92632419102597,48.25340706865607
17,-7.827926093868434,-250.86064735319982,-0.7888892084870689,-12.664331207770198,45.46125736664218,-1.7167607110982963,251.00120351884829,48.562765345927694
18,-7.845535919207581,-250.9386187765483,-0.7998940187855837,-13.031530925830367,45.53504854105349,-1.5419946975172005,251.08065123959528,48.874191502641324
19,-7.839112039719989,-251.0203598089576,-0.8127134211476961,-13.4131506041998,45.60342879627765,-1.3619634042036295,251.16328325087878,49.18363695177194
20,-7.81107850857374,-251.1043788405905,-0.8279460454560504,-13.805720329674816,45.66498516469198,-1.1792396284794484,251.24764747758562,49.486908152252816
21,-7.763952058779985,-251.18914196016988,-0.8460549957094855,-14.204540952505425,45.71865519517078,-0.9962872759292936,251.33225198910645,49.779748305788985
22,-7.700287453224768,-251.27310152896783,-0.8673519304205667,-14.60377100110416,45.76374880495697,-0.8153899397661764,251.41559283990796,50.05792134645464
23,-7.622628013072597,-251.35472411387414,-0.891986048416778,-14.996588791082663,45.79994563997594,-0.6385887730236333,251.4961814030283,50.317295856021694
24,-7.533462211116019,-251.43251776594266,-0.9199382000564434,-15.375426928928919,45.827267698149434,-0.46763258014097964,251.5725711761795,50.55392701815967
25,-7.435186911469714,-251.50505863638364,-0.9510201946352461,-15.732270997974348,45.84602907974694,-0.30394235749440685,251.64338403155838,50.764135322741474
26,-7.33007766673177,-251.57101670366106,-0.9848794249793585,-16.059008743527773,45.856766777268795,-0.14859167674963009,251.70733565310135,50.94458119626813
27,-7.22026626377893,-251.6291800971063,-1.0210090315136606,-16.34781100856037,45.860158141604096,-0.0023033659333012877,251.76325961096026,51.0923348501646
28,-7.107725326345158,-251.6784774179909,-1.0587637128602334,-16.59152162148455,45.856931858421,0.1345380350059235,251.81012943838923,51.204940317913014
29,-6.994259379760098,-251.71799768033986,-1.0973807613847042,-16.784031046082013,45.84777979488201,0.2618594812835775,251.84707830823984,51.280471978524616
30,-6.8815015973531555,-251.7470077466406,-1.13600516219678,-16.920608379234245,45.83327685237873,0.3798604754039947,251.87341617937446,51.31758108585487
31,-6.770915507385101,-251.76496708824328,-1.173717164640764,-16.99816844931481,45.813815000572795,0.4889646559540721,251.88864425810064,51.31552927274747
32,-6.663801036035636,-251.7715394291235,-1.2095608865397731,-17.015455188971263,45.78955609922843,0.5897648943095313,251.89246635944627,51.27420596265088
33,-6.561304207963973,-251.76660067251441,-1.2425730046482442,-16.973128688638283,45.76040616460077,0.6829649960907126,251.88479659329505,51.194127246604815
34,-6.464429643144687,-251.7502425887724,-1.2718110298936764,-16.87375075284952,45.72601168677069,0.769321133667777,251.8657628708177,51.07641503864621
35,-6.3740548146628315,-251.7227718871782,-1.296380866175513,-16.721671618773836,45.68577671282342,0.8495860476142243,251.83570585992712,50.922756976988836
36,-6.290944917195811,-251.68470433325027,-1.3154633177466126,-16.522827914872387,45.638897858153065,0.9244588017860366,251.79517304655042,50.73534921162758
37,-6.215767111834158,-251.63675355939088,-1.3283390848908647,-16.284468165570868,45.58441329057732,0.9945424556176207,251.74490753496178,50.51682554342259
38,-6.149102917975551,-251.5798143546915,-1.3344117340402486,-16.014826623336432,45.52126109558629,1.060311463235808,251.68583135199665,50.27017716151882
39,-6.091457720835092,-251.51494063577442,-1.3332281586801906,-15.722768610334773,45.44834229733973,1.1220899700421494,251.61902343562198,49.99866747897706
40,-6.043266692074369,-251.4433189087694,-1.3244960265186356,-15.417430802324915,45.36458415797772,1.180041505612206,251.54569310018252,49.70574642934165
41,-6.004896701580189,-251.3662385834178,-1.3080975945780922,-15.107878186134982,45.26900010140647,1.2341698954538758,251.46715032445726,49.39496820974427
42,-5.976644005263994,-251.285060742547,-1.2840992079778677,-14.80279617496634,45.16074352331245,1.2843305159013194,251.38477445283522,49.06991592944832
43,-5.958727760418676,-251.20118682722762,-1.2527558888554118,-14.510232037521565,45.03915368526255,1.3302502874561712,251.29998276098664,48.734135988198354
44,-5.951279774034182,-251.1160283150917,-1.2145106145068667,-14.237394842965845,44.90379276899178,1.3715541261496227,251.21419996009098,48.39108431140275
45,-5.95433121794441,-251.0309780723033,-1.1699881002740102,-13.990518006435364,44.75447397852082,1.4077951075024806,251.12882932035825,48.04408586123105
46,-5.967797330725668,-250.94738377665243,-1.119983150176759,-13.774783677840558,44.59128130521158,1.438485464170518,251.04522581396918,47.69630814440776
47,-5.991461497027632,-250.8665236323616,-1.0654439239004632,-13.594303987144034,44.41458216179761,1.4631257542059282,250.96467150642442,47.35074873219801
48,-6.024960593685225,-250.78958448426064,-1.0074506905246396,-13.45215075435876,44.22503448173477,1.4812300257989073,250.88835332302068,47.01023607281337
49,-6.067773910030016,-250.71764238997824,-0.9471906509663026,-13.350422821175185,44.023590004413904,1.4923454284808229,250.81734327960228,46.67744209336309
50,-6.119217911031468,-250.65164570994332,-0.8859292513123741,-13.290338738888998,43.81149525933286,1.496065336452089,250.75258127440623,46.35490424398579
51,-6.17844838579384,-250.59240076200388,-0.8249783578769393,-13.272342173648534,43.590291203197886,1.4920355782656127,250.69486052361606,46.045053761337726
52,-6.244470332064475,-250.54056005155533,-0.7656619248499549,-13.296208036175006,43.361811656462535,1.4799538198329887,250.64481567928468,45.750246164548386
53,-6.3161548123929085,-250.49661311717693,-0.7092802251600764,-13.361138939667734,43.12817986988713,1.4595625846459028,250.6029136857157,45.47278959371956
54,-6.392261348611319,-250.46088016640098,-0.6570740553579905,-13.465843990193198,42.89180198732501,1.4306368602000017,250.56944755309584,45.214966776117684
55,-6.471464189619832,-250.43350880792204,-0.6101904421785167,-13.608594864420557,42.65535598507264,1.3929677210554123,250.54453334915922,44.979047185058185
56,-6.5523808580761305,-250.41447414476949,-0.56965132875625,-13.787257331950117,42.421774829539224,1.3463438291346492,250.52811066263288,44.76728718774893
57,-6.63360169354037,-250.40358221887425,-0.5363265997831986,-13.999299584371407,42.19422300691718,1.2905329434729622,250.5199465193469,44.58191746308454
58,-6.713719568550397,-250.4004764278566,-0.510912668657057,-14.241781712342178,41.97606613298053,1.2252655701576844,250.51964236894835,44.42511851467996
59,-6.791359326295825,-250.40464627566942,-0.49391767772571715,-14.511333122730502,41.77083392145394,1.1502225692326866,250.52664350719033,44.29898647719035
60,-6.865206582042332,-250.41543776107034,-0.4856540924060563,-14.804126283318448,41.58217725077553,1.065028021202692,250.54025024136627,44.2054923838414
61,-6.934035412820666,-250.43206483845967,-0.48623907062321897,-15.115855757230353,41.41382034558195,0.9692481509887168,250.5596302319488,44.14643851029279
62,-6.9967343361335645,-250.45362168239535,-0.4956025181168343,-15.441731105407994,41.269509169913334,0.8623967551703209,250.583831733674,44.12341536290717
63,-7.052329931884683,-250.47909587380053,-0.5135023138157347,-15.776491056763188,41.15295704879478,0.7439473636722397,250.61179783904072,44.137762444436426
64,-7.1000074555235955,-250.50738291314093,-0.5395458883726025,-16.114444521007478,41.067788359349315,0.6133521816952366,250.6423821063401,44.19053522859711
65,-7.13912781607495,-250.53730248077267,-0.5732171392035945,-16.4495416917651,41.01748096172575,0.4700676173480772,250.67436596073378,44.282479946680105
66,-7.169240380501862,-250.56761664222924,-0.6139074827980214,-16.775475836248223,41.00530797081065,0.31358588132961696,250.70647802701217,44.41401697164929
67,-7.1900912006984266,-250.5970499719577,-0.6609496323325262,-17.08581361746459,41.03427952094888,0.14347175740188578,250.73741532179707,44.585232846569525
68,-7.2016263721092475,-250.62431154354726,-0.7136524412484109,-17.374149221278262,41.10708530651415,-0.04059677822957528,250.76586619993486,44.79588036756729
69,-7.2039902766454045,-250.64811887484268,-0.7713348538713226,-17.634275465087704,41.226038897225195,-0.23878580051054787,250.79053508055776,45.04538568187162
70,-7.197518472908178,-250.66722403249003,-0.833356657106005,-17.86036368936396,41.39302517172823,-0.4510625554306655,250.8101690845641,45.33286122320936
71,-7.182725068416282,-250.68044205440864,-0.8991435010793999,-18.047143680813047,41.60945262662271,-0.6771546743801619,250.823586666256,45.657123485615664
72,-7.160284615645715,-250.6866816000195,-0.9682039112799051,-18.190075094358715,41.87621261662485,-0.9165138365674049,250.82970808947132,46.01671497501466
73,-7.131008903427452,-250.68497729248944,-1.040136967668676,-18.285502639322722,42.193647601998066,-1.1682862923919723,250.82758719461947,46.409929974735675
74,-7.095819366366258,-250.6745226972192,-1.114630638700546,-18.330788388405892,42.56153019645135,-1.4312925782685484,250.81644343609133,46.83484388682522
75,-7.055716104544119,-250.6547025460694,-1.191451757560313,-18.324415680922336,42.97905432909,-1.70401846973747,250.79569287401267,47.28934584604699
76,-7.0117446834376205,-250.62512283775942,-1.270429042102053,-18.266060056417924,43.44483930231683,-1.9846187357806049,250.76497683972718,47.77117410248886
77,-6.964962010513587,-250.58563773169678,-1.3514307116742417,-18.156623429957072,43.95694701178565,-2.2709346126866707,250.72418728024516,48.27795337225386
78,-6.91640262577351,-250.53637248616886,-1.4343384792893419,-17.998228370093507,44.512912074337954,-2.5605251697605045,250.67348811506253,48.80723297243351
79,-6.867046606228649,-250.47774189181425,-1.5190199366783117,-17.79417002811609,45.10978407859357,-2.850711983778948,250.6133321299735,49.35652415039703
80,-6.817790004210727,-250.410463606367,-1.6053014134303796,-17.548824228077805,45.74418069054885,-3.1386358686553266,250.5444728747623,49.92333474435901
81,-6.76941852074516,-250.33556552665348,-1.69294329360759,-17.267511690647094,46.41234998569007,-3.421323869279752,250.46797074951476,50.50519934084338
82,-6.7225850749031135,-250.25438603658654,-1.781619600070174,-16.95632045836909,47.11024016903856,-3.69576434635774,250.38519216019444,51.09970351501168
83,-6.677791930079856,-250.16856585492087,-1.8709033693306534,-16.621891267532263,47.83357476553962,-3.9589877653637755,250.2978005046232,51.70450151689359
84,-6.635377925447465,-250.08003030786116,-1.9602589080554707,-16.27117361982761,48.57793136301994,-4.208150696534876,250.20773784369987,52.31732773513777
85,-6.595511223429034,-249.99096109988372,-2.0490415341849264,-15.911163236200979,49.33882202210093,-4.440620397781547,250.11719635113172,52.93600319920911
86,-6.558187971547371,-249.9037570418217,-2.136504929871113,-15.548633962842407,50.11177353115657,-4.6540571282902405,250.0285790128463,53.5584390809979
87,-6.5232372959775065,-249.8209837597571,-2.2218157566034455,-15.189878632813159,50.89240580249272,-4.846491139058895,249.94444960454115,54.18263952448995
88,-6.490332839110113,-249.7453131362973,-2.3040746932401985,-14.840473581069743,51.676506870504106,-5.016391273299668,249.8674726908559,54.806706131974664
89,-6.459010533731711,-249.67945402742308,-2.3823425775235694,-14.505080347022067,52.46010313090634,-5.162722346672291,249.80034515986247,55.42884609400999
90,-6.428691668383006,-249.62607654064993,-2.455669905710669,-14.187295638734257,53.23952363294409,-5.284988911364112,249.74572152438802,56.04738535493063
91,-6.398709862103184,-249.58773280641265,-2.523127635857779,-13.889557112257478,54.01145739195704,-5.383263551186306,249.70613584839992,56.66078745763454
92,-6.368340530089716,-249.56677770842097,-2.5838371110338407,-13.613108310519229,54.77300281025335,-5.458198452125105,249.68392368262704,57.26767788919259
93,-6.33683170476502,-249.56529332851258,-2.6369970517725063,-13.358021660080295,55.52170837114386,-5.511019638132878,249.6811476882212,57.86687291440424
94,-6.303435387564983,-249.58502062587414,-2.681906076117322,-13.123274230726972,56.25560380125083,-5.543503955391114,249.69953040709657,58.457411086775835
95,-6.26743872603414,-249.62730096104644,-2.717980084033519,-12.906867508261517,56.973220882492555,-5.557939584190448,249.7403967510477,59.0385849159609
96,-6.228194287256471,-249.6930287945219,-2.7447648106651936,-12.705980104808019,57.673603097134865,-5.557071473275669,249.80462752605595,59.609969657813245
97,-6.185148693132636,-249.78261582394293,-2.761944532970342,-12.517141321581917,58.356303436763085,-5.544033565944957,249.8926242615648,60.1714460540592
98,-6.137868912422571,-249.89596632273896,-2.769348144882884,-12.336413757000042,59.02137009413933,-5.522270024901122,250.00428512112813,60.72321421015651
99,-6.08606548733699,-250.0324634201579,-2.766953668317683,-12.15957453647644,59.66932033862594,-5.495447921974679,250.13899164489197,61.26579662112589
100,-6.029611936464647,-250.19096624299252,-2.754891866666369,-11.982286926332891,60.30110348379746,-5.467364093567905,250.29560624653095,61.8000294273544
101,-5.968559625383802,-250.36981801389047,-2.7334490864126866,-11.800256657629365,60.91805431399581,-5.441849074531581,250.472480554305,62.327042028004364
102,-5.903147524136376,-250.566865292037,-2.7030688851449676,-11.609369756854495,61.52183854098276,-5.422671157983317,250.66747477117713,62.84822596157578
103,-5.8338063754540705,-250.77948856128793,-2.6643515201702033,-11.405810698749947,62.114391787890874,-5.413443608683983,250.87798824289578,63.365194349582964
104,-5.761156864712174,-251.00464432365908,-2.618050088058293,-11.186161106211301,62.697853291055175,-5.4175378407850205,251.10100137174203,63.879733192986485
105,-5.6860015255751435,-251.23891868933188,-2.5650621429928036,-10.94748003965229,63.274495097184676,-5.438004995840148,251.33312884905519,64.39374555217142
106,-5.609310432903716,-251.47859212748307,-2.506416012050855,-10.687367237923429,63.84664719224584,-5.477507906979179,251.57068386455222,64.90918934556476
107,-5.5322011707227645,-251.71971457901228,-2.4432516302632714,-10.404010612802645,64.41661886747727,-5.538264966757136,251.80975250498767,65.42800934371333
108,-5.455913918905244,-251.95818957219797,-2.3767963004040555,-10.096219009354892,64.98661673406306,-5.622006959843363,252.04627700953571,65.95206397602828
109,-5.381782603438182,-252.1898653736555,-2.308336155995518,-9.763440916044381,65.55866009366495,-5.729947508175161,252.27614594601977,66.48304779500415
110,-5.311202930191276,-252.41063065225154,-2.2391842392293895,-9.405769615556181,66.1344948368726,-5.86276741170865,252.4952888144142,67.02241086500055
111,-5.245597993373569,-252.61651173833621,-2.1706461266470747,-9.023935280188484,66.7155077045041,-6.02061281813521,252.699772184232,67.57127699485972
112,-5.186382212754628,-252.80376831991103,-2.1039841193943296,-8.619284688921583,67.30264357819759,-6.20310678493341,252.88589423146877,68.13036357448648
113,-5.134924597105106,-252.968984232152,-2.040381231591235,-8.193749478580779,67.89632929841743,-6.409373402390119,253.05027436019327,68.69990662063158
114,-5.092512590450349,-253.10914989171198,-1.9809064806193348,-7.749804039110172,68.49640811336332,-6.638073255844412,253.18993449540977,69.27959524878663
115,-5.060317846773166,-253.22173322735918,-1.9264831418584414,-7.290414256670807,69.10208909823132,-6.887448686687591,253.3023689393531,69.86852002074315
116,-5.0393650776070915,-253.3047369826998,-1.8778615282684707,-6.818978302032311,69.71191572516854,-7.155377132028822,253.38560070889685,70.46513945166588
117,-5.0305046800400035,-253.3567417449563,-1.8355974763777887,-6.33926060883671,70.32375722844431,-7.439430776567883,253.4382237452468,71.06726842095478
118,-5.034389426854646,-253.3769352225476,-1.8000372030365803,-5.855320122966985,70.93482550348917,-7.736940769932768,253.45943154674126,71.67209132349454
119,-5.051455323461242,-253.36512869420648,-1.7713087062054387,-5.371433843468124,71.54171903304575,-8.045064304089175,253.449033166725,72.2762015509758
120,-5.0819068331946555,-253.32176135493822,-1.7493195337126344,-4.8920166540282635,72.14049385928601,-8.360852897119223,253.40745731579312,72.87566741992286
121,-5.125706872649239,-253.24789285103446,-1.733760625267585,-4.4215385149861195,72.72676007435123,-8.681320272465504,253.33574487226622,73.46612312292852
122,-5.182572085942448,-253.1451838365952,-1.7241160323151066,-3.964440250697965,73.29580079869265,-9.003508257526383,253.23552964206806,74.04288178730087
123,-5.2519738617937675,-253.01586401537344,-1.719678468740264,-3.5250493419034585,73.84270922042204,-9.32454921012899,253.10900683435676,74.60106634414235
124,-5.33314544638172,-252.86268694833151,-1.7195707036434034,-3.107497195075837,74.36253806821875,-9.641723667483589,252.95888852719375,75.13575272642336
125,-5.425095387923819,-252.68887100130428,-1.7227727980753946,-2.715639226317529,74.85045503278654,-9.952512165582458,252.78834548370153,75.64211906525631
126,-5.526627334139767,-252.49802637177223,-1.7281551012376124,-2.3529787552804815,75.3018972690829,-10.254640413069108,252.60093523872249,76.11559416188852
127,-5.636365795315288,-252.2940693127272,-1.7345166150101603,-2.0225952218469274,75.71271822957073,-10.546117184477513,252.4005175516516,76.55199860650745
128,-5.752786995510364,-252.0811261381961,-1.7406278116124465,-1.7270767775139262,76.079320625302,-10.825264446887191,252.19115978388794,76.94767243342183
129,-5.874253592595712,-251.86343065029624,-1.7452764967359415,-1.4684571081980415,76.3987701867971,-11.090739371435541,251.9770358091879,77.29958405763172
130,-5.999051940496247,-251.64521889681797,-1.747314988653416,-1.24815661956732,76.66888600215702,-11.341547998156647,251.7623223268684,77.60541633767816
131,-6.1254305970326355,-251.43062487838264,-1.7457066233241887,-1.0669288671732382,76.88830443563111,-11.577050414341018,251.5510961486114,77.86362684282925
132,-6.251638829327383,-251.22358039067691,-1.7395693655589974,-0.9248141255467724,77.05651486579222,-11.796957390800962,251.34723558655554,78.07348065199506
133,-6.375963911929596,-251.02772181797582,-1.728214254596182,-0.8211029667654965,77.17386665477675,-12.001318530069096,251.15432869407488,78.23505519552677
134,-6.496766140628048,-250.84630635992582,-1.7111765443306726,-0.754313448371849,77.24154784285507,-12.190502149012216,250.97559077451592,78.34921774035853
135,-6.612510804217354,-250.68213979360164,-1.6882375209569245,-0.7221859048769323,77.261537052618,-12.365167354190195,250.81379319740054,78.41757711149457
136,-6.7217968040162575,-250.537517465046,-1.6594351147056572,-0.7216993466369478,77.2365309708886,-12.52622903753833,250.6712051641626,78.44241212513602
137,-6.823381925397468,-250.41417980745769,-1.6250619596038909,-0.749113008336403,77.16985052143346,-12.674816775352832,250.5495496864431,78.42657994832909
138,-6.916204739256319,-250.3132832489576,-1.5856507465666052,-0.8000355709091802,77.06532941455784,-12.812228847476149,250.4499746320058,78.3734081702226
139,-6.9994028329174025,-250.23538688628955,-1.5419481638848045,-0.8695230074168744,76.92718914898992,-12.939882823161861,250.37303923514935,78.28657476699043
140,-7.072326831789769,-250.1804548577803,-1.4948796855951094,-0.952203991582261,76.759904765286,-13.05926435212443,250.31871604539188,78.1699803788907
141,-7.134549648704336,-250.14787399310237,-1.4455076363837203,-1.0424295604955918,76.56806576062691,-13.171875871543344,250.28640793889616,78.02761742497786
142,-7.185870500744698,-250.1364859699727,-1.3949846528102823,-1.1344415011734177,76.35623664531768,-13.27918685524762,250.27497946564245,77.86344061122875
143,-7.226313297794675,-250.14463282657997,-1.3445043458160044,-1.2225520172770348,76.12882168619639,-13.382587030403606,250.28280141462668,77.68124336893217
144,-7.2561190176268,-250.1702143357827,-1.2952508294924006,-1.3013258815724669,75.88993838326657,-13.483343722921202,250.30780712686897,77.48454463948535
145,-7.275731777034322,-250.21075551863433,-1.2483487417005676,-1.3657556772339154,75.64330405764262,-13.5825642033688,250.34755885231144,77.27649011127748
146,-7.285778594321313,-250.2634824513021,-1.2048153642827326,-1.4114209880209296,75.39213954594457,-13.68116364546044,250.39932232480862,77.05977150020404
147,-7.287043295878679,-250.32540444224117,-1.1655164557571907,-1.4346235562847602,75.13909342959695,-13.77983913659987,250.4601476596081,76.83656681470467
148,-7.280435577454991,-250.39340057350665,-1.1311274356226904,-1.432492440524677,74.88618949921026,-13.879050101479113,250.52695460624005,76.60850380356955
149,-7.266956779517449,-250.4643084748998,-1.1021015764350632,-1.4030558993815605,74.63479924537735,-13.979005473299008,250.5966200772709,76.37664792890065
150,-7.247664282103846,-250.53501301743484,-1.0786468428943108,-1.3452798277811335,74.38564008119401,-14.079657915718279,250.66606569871985,76.14151521484803
151,-7.223636434168252,-250.60253241117994,-1.0607129088380776,-1.259075726855947,74.13879880431534,-14.180705303330331,250.73234292362378,75.90310921764232
152,-7.195939696866082,-250.66409906968212,-1.0479895711186964,-1.1452839831774073,73.89377858883344,-14.28159947535169,250.79271311606973,75.66098019025455
153,-7.165599381645924,-250.71723266084715,-1.0399172074562688,-1.0056401874632366,73.64956662855808,-14.38156201406358,250.84472005649,75.41430332039508
154,-7.133575057586104,-250.75980303472616,-1.035709185706552,-0.8427329364901415,73.40471847106365,-14.47960653244546,250.88625257462505,75.16197175368211
155,-7.100741342821546,-250.79008116059018,-1.0343853609327383,-0.6599608711180841,73.1574541266878,-14.574566725532312,250.91559544170843,74.90269905798974
156,-7.0678743761888185,-250.80677676810285,-1.0348150306224297,-0.4614947123808897,72.90576030223755,-14.665129263650087,250.93146719734253,74.63512498576902
157,-7.035643832551061,-250.8090620336396,-1.0357669630361221,-0.2522470526517718,72.64749274988115,-14.74987052300569,250.933044214345,74.35791804171066
158,-7.004609936112504,-250.79658130424843,-1.0359635192307681,-0.03784904140425905,72.38047288954671,-14.827296196243907,250.91997094103883,74.06986861840124
159,-6.975224587836136,-250.7694473730489,-1.0341357388138053,0.17537061583586022,72.10257362976199,-14.895882952235215,250.89235677529732,73.76996734944758
160,-6.947835541258896,-250.7282251202898,-1.0290767009861788,0.38041214789606503,71.81179063481486,-14.954121405944717,250.85076033240847,73.45746473937422
161,-6.92269259128889,-250.67390347060467,-1.0196912628872292,0.5696466114247679,71.50629701627943,-15.000559648794843,250.7961620229021,73.13190987917766
162,-6.899954953120484,-250.60785674768317,-1.0050409341639244,0.7348836487473935,71.18448133800518,-15.033846496431053,250.7299260049097,72.79316794487026
163,-6.879699330511148,-250.53179673363982,-0.984382922043502,0.8674744119743449,70.84497065177753,-15.052773493487198,250.65375281289136,72.44141800614456
164,-6.861928516772167,-250.44771701838536,-0.9572024351315782,0.9584562877525136,70.48664176588122,-15.056314643937899,250.5696242479827,72.07713425004452
165,-6.846580616426974,-250.35783143103407,-0.9232374111198378,0.9987423278268518,70.10862488424344,-15.043662871259302,250.47974232269485,71.70105487303972
166,-6.833539015206988,-250.26450840708725,-0.8824949575578036,0.9793540592934291,69.71030403537345,-15.01426235832708,250.38646410945242,71.31414348180047
167,-6.822643077640624,-250.17020312436915,-0.8352588443626073,0.8916921676744972,69.29131834452436,-14.967836105981766,250.29223431202263,70.91754780492786
168,-6.813699358278916,-250.07738928757917,-0.7820873435664235,0.7278358582944988,68.85156728616087,-14.904408195945258,250.19951741650974,70.51255988196044
169,-6.80649300616815,-249.98849259920817,-0.7238007594311182,0.48085879676625143,68.39122175762566,-14.824320295410905,250.1107314335929,70.10058079486082
170,-6.8007990290328895,-249.90582803042184,-0.661458375805217,0.1451475772355471,67.91074134511489,-14.728241891584323,250.02818532650542,69.68309164471839
171,-6.796393092325148,-249.83154275242399,-0.5963253080733112,-0.2832922526925529,67.4108966940145,-14.61717362899178,249.95402198189186,69.26163105909541
172,-6.793061513943459,-249.76756603273014,-0.5298305846557371,-0.806557491892101,66.89279459486222,-14.492442992413213,249.89016804208407,68.83777822184808
173,-6.790610086209538,-249.7155668302302,-0.46351829335589223,-1.4246098302475783,66.35790236878474,-14.355691487093079,249.83829135696087,68.41313938736812
174,-6.788871350309165,-249.67691944756498,-0.39899371081587576,-2.1350919437353086,65.80806743236872,-14.208852472851664,249.7997664383689,67.98933513745702
175,-6.787710005581455,-249.65267739697495,-0.3378662578016763,-2.9332074154115517,65.24552750898727,-14.05411895954492,249.7756480931278,67.56798522819976
176,-6.7870262710835085,-249.6435554892737,-0.28169117206878713,-3.8116724828358217,64.67290677065814,-13.893900980392896,249.76665326060476,67.15068768305976
177,-6.78675719409908,-249.64991997371519,-0.23191196701032205,-4.760745174830112,64.09319324332515,-13.730772599054681,249.77315089735305,66.73898879922817
178,-6.786876032578832,-249.67178634612333,-0.18980587527716214,-5.768334830891083,63.50969321373742,-13.56740912080101,249.79515953843213,66.33434104672425
179,-6.7873898535431225,-249.70882434709347,-0.15643450342021267,-6.82019232622982,62.92595935297694,-13.406515591136793,249.83235206416495,65.93804663856933
180,-6.788335413546229,-249.76036981531718,-0.13260191958012515,-7.900178589714326,62.345690985723685,-13.250748113998233,249.8840673378861,65.55118597651864
181,-6.789773298233877,-249.8254433343879,-0.11882229422893811,-8.990606214942993,61.7726073527817,-13.102629907252524,249.94932864935163,65.17453219440391
182,-6.7917802383495784,-249.90277573975155,-0.11529876827932009,-10.072646121226505,61.21029757950424,-12.96446438725669,250.0268690269166,64.80845538855966
183,-6.794439533256523,-249.99084037709997,-0.12191437439335669,-11.126788351051012,60.66205398454008,-12.83824797257149,250.11516331077533,64.45282247182926
184,-6.7978296500130435,-250.0878916177408,-0.13823490048421294,-12.133343327856906,60.13069792392311,-12.725585698561,250.21246650028888,64.10690051379994
185,-6.802011284867087,-250.19200874727082,-0.16352292203686192,-13.072967495290845,59.618409195788466,-12.627613076391759,250.316857502871,63.76927259121317
186,-6.807013375885802,-250.3011440629901,-0.19676190593943305,-13.927195496599266,59.12657087822587,-12.544927853782985,250.42628712901484,63.437775361723496
187,-6.8128187341790065,-250.41317380510483,-0.23668912857372604,-14.678960107428383,58.65564123029164,-12.47753540695731,250.5386289623846,63.109466748181596
188,-6.819350196023062,-250.5259503343788,-0.28183598803907356,-15.313081045384681,58.20506297730884,-12.424811370399562,250.6517315174325,62.780630368026685
189,-6.826458506520951,-250.63735377102554,-0.33057409039343916,-15.8167045201376,57.7732180724775,-12.385484733455048,250.763469897787,62.446820867609176
190,-6.833913450415327,-250.7453412230404,-0.3811653498732182,-16.179676932864034,57.357433139486446,-12.357643983173995,250.87179508246095,62.10295143931462
191,-6.841399924857386,-250.84799182936476,-0.43181438292155444,-16.394838446280865,56.95403758040792,-12.338768000066985,250.97477906641345,61.743421871964436
192,-6.84852047835258,-250.94354612249361,-0.4807216568098996,-16.458225150625324,56.558473099148046,-12.325782374109922,251.0706543654129,61.36228282938852
193,-6.8548050781781615,-251.03043862682247,-0.526135974190793,-16.369172130038358,56.16545041022227,-12.315140629997261,251.15784680888373,60.95342988880749
194,-6.859727644723296,-251.10732306905743,-0.5664048137002464,-16.13031372928641,55.769146367174166,-12.302928579231168,251.2350009994969,60.51081931329058
195,-6.862727776548923,-251.17308999018738,-0.6000208935004184,-15.74748153101961,55.36343277532849,-12.284988763786043,251.30099822077764,60.028696607332435
196,-6.86323553800561,-251.22687687181553,-0.6256632404910722,-15.229504762471485,54.942126813318545,-12.257060853698661,251.35496688688724,59.5018285786768
197,-6.860697143746823,-251.26807113655008,-0.6422311194703192,-14.587921871007122,54.49925228649559,-12.214932970075818,251.39628586889089,58.92572982912719
198,-6.854599582603283,-251.29630656959594,-0.6488693953730715,-13.836615687943398,54.02930084188218,-12.15459820870236,251.42458121584338,58.29687522750722
199,-6.84449254088431,-251.31145385695473,-0.6449842217248948,-12.991387770475228,53.5274827305161,-12.072410131036966,251.4397169372487,57.6128908727155
200,-6.830006379324052,-251.31360608741988,-0.6302483990361861,-12.069489954375186,52.989957614557404,-11.965230735936546,251.44178066999189,56.87271720884257
201,-6.810865314661103,-251.30306024610837,-0.6045964211397606,-11.089132650567679,52.41403716476778,-11.830564530842306,251.43106524266662,56.07673919001213
202,-6.786895266290495,-251.28029589281917,-0.5682100687412788,-10.068989846601538,51.79835268140622,-11.666672831857737,251.4080473262249,55.22687964857001
203,-6.758026057926039,-251.2459522502662,-0.5214961610494834,-9.0277201216185,51.142982625974376,-11.47266327701746,251.3733644002265,54.32665328041095
204,-6.724287918405607,-251.20080471520689,-0.465058528850195,-7.9835213527624935,50.44953666344784,-11.24855062015327,251.32779105890518,53.381179884086265
205,-6.685802560838434,-251.14574140149932,-0.3996663900647496,-6.953734332000315,49.721194413165,-10.995286101456704,251.2722152833343,52.39715658189298
206,-6.642769466362654,-251.08173994760728,-0.32622113686352416,-5.954507347468158,48.96269844983636,-10.714754025769379,251.20761493310866,51.3827896405146
207,-6.595448299314827,-251.00984464708307,-0.24572319158166764,-5.0005300238795645,48.18030217796204,-10.409735567051387,251.1350345381509,50.3476872278053
208,-6.544138704118549,-250.93114398870455,-0.1592402151566417,-4.104840563823076,47.381674120962856,-10.083841171234633,251.05556250189207,49.30271508798297
209,-6.489159154558694,-250.84674883861987,-0.06787762466280393,-3.278706306237257,46.575761011115844,-9.741414167670989,250.9703089788448,48.25981775716974
210,-6.430826956699714,-250.75777168244326,0.027247926268049824,-2.5315735696126165,45.772612887007824,-9.387409252093798,250.88038488114057,47.23180859169082
211,-6.369441741595958,-250.66530748687035,0.1250317114288801,-1.871079374078874,44.98317424253916,-9.027250297918327,250.7868826099201,46.23213254909954
212,-6.305274622977011,-250.5704167537525,0.22440053687364112,-1.3031150615191682,44.21904615177074,-8.666672443889658,250.6908591117461,45.27460635279895
213,-6.238564510128521,-250.47411119150954,0.32432871613511915,-0.831930191114294,43.492225181175755,-8.311553641760176,250.593321697142,44.373141364718236
214,-6.169521935036069,-250.37734215337858,0.42385040620111253,-0.46026443553566043,42.81482569955851,-7.967740963028698,250.49521676795825,43.54145514015264
215,-6.0983395799723175,-250.28099167746788,0.522068242493977,-0.18949553193199065,42.19879282555962,-7.640877090528214,250.39742127552725,42.79277821490019
216,-6.025207959450895,-250.18586573300018,0.6181581189654463,-0.019792536687527503,41.65561368593363,-7.336232580992135,250.30073649634863,42.13956316358902
217,-5.950334544922244,-250.09268922672229,0.7113699992616148,0.04973456007004241,41.19603485995547,-7.0585495735827175,250.20588365981718,41.593203302313974
218,-5.873964763580584,-250.00210245931274,0.8010248889822035,0.020895700238011034,40.82979377600782,-6.81190248977336,250.11350109556022,41.163768456548695
219,-5.796403445898299,-249.91465897443223,0.8865084315392245,-0.1037031944212053,40.56537135470651,-6.599580818546751,250.02414281391103,40.85976488468153
220,-5.718035290600383,-249.83082502555416,0.9672618528240327,-0.32076629288769154,40.409772424388635,-6.423998268518253,249.93827870329233,40.687925780782116
221,-5.639342756963233,-249.75098113536953,1.042771128248261,-0.6263951160568083,40.3683395311125,-6.286631425148617,249.85629676127417,40.653037931895895
222,-5.56091955817682,-249.67542639575058,1.1125553178466754,-1.0161575632414244,40.4446048640084,-6.187989685964233,249.77850793153115,40.75780922027872
223,-5.483477760710744,-249.6043861502688,1.1761550317040663,-1.4851405163847462,40.64018412421843,-6.127616814843165,249.70515410185595,41.00278076136417
224,-5.407846655435836,-249.53802335580525,1.2331219581189408,-2.0279888223845526,40.95471518103977,-6.104123088701125,249.6364194821823,41.386286465725014
225,-5.334962317278307,-249.47645322602952,1.2830103405732654,-2.6389341827339003,41.38584319427013,-6.1152457850120925,249.5724449270367,41.90446162489528
226,-5.2658480185493755,-249.4197599822844,1.3253712303606848,-3.3118179206974263,41.92925253619686,-6.1579347358856,249.51334404744935,42.55130074836921
227,-5.201586889756315,-249.36801398116438,1.3597502351642945,-4.040111759524585,42.578744386345306,-6.228458911946824,249.45921944961552,43.31876339425851
228,-5.143288948634052,-249.3212872496943,1.3856893265795514,-4.816940714938547,43.3263573706811,-6.3225295173093805,249.4101772200986,44.1969252183755
229,-5.092054778982134,-249.27966552492555,1.402733103957034,-5.6351120794584855,44.16252713427502,-6.435434831834554,249.366337840143,45.17416997370454
230,-5.048937957933841,-249.24325530288343,1.4104397629095784,-6.487154259779764,45.07627936482481,-6.562181965478888,249.3278421053834,46.23741680485553
231,-5.014908010691579,-249.2121851561434,1.4083968270499807,-7.365368809445647,46.05544967297472,-6.697640772733343,249.2948513646924,47.37237603497214
232,-4.990815317795745,-249.18660153521432,1.3962413461237084,-8.261898229699966,47.08692302433097,-6.836685435147222,249.2675423319622,48.563825866219574
233,-4.977359076715842,-249.1666602124876,1.3736837209998494,-9.168810901172177,48.15688517321849,-6.97432966590819,249.24609765483837,49.795902069196
234,-4.975059201945084,-249.15251525956216,1.3405338073280961,-10.07820288644763,49.2510787628484,-7.105852086342738,249.23069414708908,51.05239281020813
235,-4.984233000170283,-249.14430773323488,1.2967277569002442,-10.982314482797982,50.35505737105119,-7.226908996075855,249.22149087228752,52.3170311987557
236,-5.004977547823783,-249.14215588157535,1.2423541929571158,-11.873657589946593,51.454431699092616,-7.333632422616443,249.21861890487918,53.57377884668903
237,-5.037158736533346,-249.14614778196474,1.177678496777096,-12.745148497835775,52.53510321479319,-7.422711933870705,249.22217369783766,54.807094637868246
238,-5.080407715702585,-249.15633634629614,1.1031639336284218,-13.590239831401915,53.5834817522394,-7.491459217448678,249.23221000518407,56.00218394331724
239,-5.134124924359063,-249.17273600520392,1.0194880940722149,-14.403045210909616,54.58668470998959,-7.537854908295417,249.24873867149466,57.145224602878855
240,-5.197491257986315,-249.19532023017067,0.9275529596560532,-15.17845065059019,55.53271648232201,-7.5605776334414365,249.2717244313991,58.22356706659025
241,-5.269485388645203,-249.22401924959894,0.8284870742666764,-15.91220769998297,56.410627579696914,-7.559015754774528,249.301084046333,59.22590712826892
242,-5.348905985505509,-249.25871768789702,0.7236388233301779,-16.601004682226687,57.21065354533671,-7.533262767392116,249.3366844721327,60.14243066666266
243,-5.434397600885086,-249.29925223666962,0.6145605194013829,-17.24251391034997,57.924334209540646,-7.484097645654557,249.37834113100348,60.96493063702296
244,-5.524479210989066,-249.34540968264182,0.5029836967606138,-17.835414212251187,58.54461397046506,-7.41295155217028,249.4258165817517,61.686897079618284
245,-5.617574642114898,-249.39692556413254,0.39078663048115164,-18.379389225302702,59.065923633628906,-7.321862263153031,249.47881983647133,62.30358104561928
246,-5.712044228098806,-249.45348347219874,0.27995551611578945,-18.87510263412984,59.484243953890086,-7.213417508183939,249.53700632366198,62.812033131705746
247,-5.806217086916738,-249.51471474315215,0.17254088494668154,-19.3241518949464,59.79715050721094,-7.090688254086733,249.59997823599974,63.211116892015035
248,-5.898423498506103,-249.5801981731786,0.07061073022086053,-19.7290021407924,60.00383896134446,-6.957152826235707,249.66728489202123,63.501496883261495
249,-5.987026972662752,-249.649459481611,-0.02379835152921415,-20.09290195928485,60.105129310211744,-6.816612689965673,249.73842283976626,63.68560060899226
250,-6.0704555882029005,-249.72197049626783,-0.1087308185333223,-20.419782628276636,60.10344731861469,-6.673100745637623,249.81283567383008,63.7675533047672
251,-6.1472320875953415,-249.79714830237117,-0.18236150212210606,-20.714142308355854,60.002781403271065,-6.53078314916962,249.88991379807132,63.75308449134652
252,-6.2160021611072045,-249.87435477098657,-0.24304342713603486,-20.98091679237387,59.808613468836384,-6.393855959420562,249.96899453404572,63.649405583495486
253,-6.2755603716344925,-249.95289692548258,-0.28935288834381895,-21.225338797293546,59.52782275378078,-6.266438315189881,250.04936301288993,63.465058538744046
254,-6.324873145858175,-250.03202857580243,-0.3201304073441997,-21.452788413348646,59.168562447073214,-6.152464317626433,250.1302542539396,63.20973647580319
255,-6.363098148953602,-250.11095364506633,-0.33451609228958523,-21.668638072063573,58.740109702225205,-6.055576274773055,250.21085682075142,62.894078326421116
256,-6.389599299800376,-250.18883161276878,-0.3319779543197442,-21.878096134441265,58.2526907232987,-5.9790223634946065,250.2903184411143,62.52944087646964
257,-6.403956842693091,-250.26478534121568,-0.3123320493900234,-22.08605385805659,57.71728378066738,-5.92556199273572,250.36775382842328,62.12765292168734
258,-6.405972276673273,-250.33791113803701,-0.27575397830908216,-22.29694102000056,57.14540419399126,-5.8973821824236605,250.44225455159068,61.70075755738825
259,-6.3956683542985555,-250.40729039961653,-0.2227820647625238,-22.514595769197946,56.54887638043747,-5.896028139293567,250.51290032154367,61.2607497056538
260,-6.373284578547383,-250.47200187877067,-0.15431303942652974,-22.742154245759277,55.93959897071798,-5.92235093789837,250.57877077969744,60.819316787622334
261,-6.339268608490808,-250.53113366849337,-0.07159111765565879,-22.981965028545567,55.3293096735859,-5.976474762676076,250.63895692514524,60.38759086635193
262,-6.294263850722036,-250.58379429745975,0.023808886737195622,-23.235532492317663,54.72935685362219,-6.0577854861558755,250.69257161378368,59.9759204344507
263,-6.239093417540296,-250.62912272586834,0.130004151924763,-23.503491701332425,54.15048455130051,-6.164941474667571,250.7387589463835,59.59366919129413
264,-6.174740679100157,-250.66629742848332,0.24483233327919407,-23.785615666065386,53.60263695862751,-6.2959065368126845,250.7767027553265,59.249047733024334
265,-6.102326808864045,-250.69454515309624,0.3658865314736525,-24.080853817678985,53.09478729375723,-6.448003992560823,250.80563479936058,58.948982247404885
266,-6.023085875147626,-250.71315031269182,0.49055748638471613,-24.38739857237897,52.63479468145552,-6.617990017547307,250.8248436443115,58.69902220667351
267,-5.93833805234478,-250.7214661698164,0.6160835550348222,-24.702775020242278,52.22929112675835,-6.802143710263276,250.83368540444746,58.50328682028958
268,-5.849461484676035,-250.71892885052472,0.7396085413066666,-25.023947249108584,51.883599143696294,-6.996370730614488,250.83159739650264,58.36444787772931
269,-5.757863394980122,-250.70507478909988,0.858246715728271,-25.34743375800867,51.60167930216872,-7.196316901713339,250.81811532758147,58.28374486634351
270,-5.66495120842161,-250.679561645513,0.9691535308469804,-25.66942395334244,51.38610602238989,-7.397487899185222,250.79289408799536,58.261027090431604
271,-5.572104593221039,-250.64219225491993,1.0695998382685026,-25.985887992800503,51.238069368055825,-7.595371075875632,250.7557317398465,58.29481701876607
272,-5.480649269343241,-250.5929407914554,1.1570469952858529,-26.29267336993982,51.15740031355836,-7.785555550030248,250.7065959050615,58.38238927351248
273,-5.391833218720781,-250.5319799362843,1.2292200492252536,-26.58558360385395,51.14261697840873,-7.963846891718354,250.64565134470377,58.51986054107647
274,-5.306805650579702,-250.4597073292035,1.2841760780636882,-26.860437011049843,51.190989617878,-8.126373064722795,250.57328698761603,58.70228713290735
275,-5.2265988358011715,-250.37676900113553,1.320364703295693,-27.113106462886,51.298622632710774,-8.269678717584782,250.49014006204354,58.923768709208325
276,-5.152112815756594,-250.28407701559513,1.3366778008508926,-27.33954388830139,51.46055235378758,-8.390805459014638,250.39711449545356,59.1775584707546
277,-5.084103062781561,-250.1828183848394,1.3324855575733419,-27.53579566852869,51.67085973358026,-8.487356365552717,250.2953905715079,59.4561815985241
278,-5.02317134054021,-250.07445258549305,1.307656378460588,-27.698016641572778,51.922797248511195,-8.557543594210513,250.1864230875316,59.75156462291969
279,-4.969760057482832,-249.96069573293443,1.2625590242015514,-27.822490981409345,52.20892921439065,-8.600218555078863,250.07192600310267,60.055178572020594
280,-4.924150143744748,-249.8434906504177,1.1980468981597667,-27.90566769845231,52.5212842811249,-8.614884606964933,249.9538427819341,60.358198121824735
281,-4.886462000047316,-249.72496345099262,1.1154261992924936,-27.944217017609663,52.85151812468353,-8.601692652608012,249.83430305567305,60.651677630172294
282,-4.8566586758742245,-249.60736847533022,1.016410969506497,-27.935111630840872,53.191083453612336,-8.561420326846411,249.71556749423368,60.926743126338934
283,-4.83455037643903,-249.4930242895074,0.9030685286420527,-27.875734076057142,53.53140361993974,-8.495435738184472,249.59996363599976,61.174797387303556
284,-4.81979968557265,-249.38424394929257,0.7777586296896132,-27.764008552713292,53.86404553261857,-8.40564701514285,249.48981592722043,61.38773343829036
285,-4.811927378943797,-249.28326292170306,0.643069246788949,-27.598552581063483,54.18088727966073,-8.29443924413319,249.38737339459192,61.55815032437072
286,-4.810319213857265,-249.19216797318253,0.5017514014065284,-27.378841260351397,54.47427588701766,-8.164600704712859,249.29473828418554,61.679563898266565
287,-4.814234487356813,-249.1128301282266,0.3566548755036128,-27.10537472216913,54.73717097769654,-8.019240548311286,249.21379878375103,61.74660474122938
288,-4.822817375706041,-249.04684460012353,0.21066609718751653,-26.779837937316774,54.96327073311125,-7.861700246970902,249.14616873022166,61.755195265683724
289,-4.8351120529469505,-248.99548038643158,0.06664896485461219,-26.405241468646434,55.147117466286495,-7.695461327579916,249.09313697966616,61.70269859045851
290,-4.850082318581748,-248.9596419168717,-0.07261101492850833,-25.986032137210813,55.28418121650261,-7.524052118750853,249.0556287970736,61.58803291047434
291,-4.866635974831989,-248.93984462722904,-0.20445898162048323,-25.528163874930957,55.37092095044823,-7.350956395253817,249.03418110323972,61.411746701678595
292,-4.883653536610112,-248.93620546930026,-0.32641879817960057,-25.03912114883086,55.404824059052316,-7.179526802892626,249.02893256334934,61.17605202236194
293,-4.900020178111183,-248.94844817060812,-0.4362361008117796,-24.52789000531018,55.384425704957756,-7.012905729299751,249.0396283310641,60.884815130585736
294,-4.914659382748376,-248.97592189078756,-0.5319155660888407,-24.004874674184308,55.309310081976626,-6.853955874421072,249.06563812240526,60.543505380106225
295,-4.926566717559656,-249.0176312360941,-0.6117520396622703,-23.481760478553067,55.1800958016349,-6.705202241269943,249.1059856252681,60.15910474567769
296,-4.934842344480846,-249.07227547912166,-0.674355539534487,-22.971326273046035,54.998407527957966,-6.568786702086951,249.15938713961262,59.73998134298736
297,-4.938721042831746,-249.1382949946827,-0.7186703557319777,-22.4872116564702,54.766835739517035,-6.446435775120531,249.224297500718,59.29573098488496
298,-4.9375985593644405,-249.21392307521612,-0.7439885754590727,-22.043645792566085,54.48888617478051,-6.339441806876379,249.29896147846617,58.8369912295348
299,-4.931053110635866,-249.29724139535818,-0.7499583801368299,-21.655145887383917,54.168920188932276,-6.248657371036345,249.3814689387848,58.37523263152916
300,-4.91886093722453,-249.3862375271991,-0.7365873547759324,-21.336194189490797,53.812087000231614,-6.174502340275857,249.46981217361392,57.922532077570885
301,-4.9010049991109685,-249.47886298303794,-0.7042408703411647,-21.10090270578061,53.42424867664306,-6.116982786684359,249.56194387265816,57.491333188573634
302,-4.87767621408721,-249.57309011860804,-0.6536354635536117,-20.962674651583693,53.01189869510411,-6.075720660421785,249.6558340620883,57.094198793196554
303,-4.849267022390379,-249.6669659286833,-0.5858270840105572,-20.93387112612392,52.58207493100633,-6.049993063960292,249.74952403282646,56.743560418981374
304,-4.816357421663657,-249.7586606038783,-0.5021940273665069,-21.02549084141298,52.142267910417615,-6.038779820193148,249.8411751163999,56.45146959050623
305,-4.7796939441722675,-249.84650892498075,-0.40441428111431643,-21.24687011657193,51.70032502159361,-6.040817885391806,249.92911037126566,56.22935546733723
306,-4.740162418524243,-249.92904316780925,-0.2944369580519584,-21.605409888389392,51.264351178299634,-6.0546609587979985,250.01184783726637,56.08779306650847
307,-4.69875578458531,-250.00501703909765,-0.17444761476136536,-22.106336217009964,50.84260627513985,-6.0787423793922715,250.0881248635423,56.03628611091292
308,-4.656538612908137,-250.07342103194932,-0.04682764841221023,-22.752500636770016,50.44339973255521,-6.111439111446208,250.15691388510228,56.08306846066383
309,-4.614610258362097,-250.1334902409068,0.08589140104808689,-23.544226579879226,50.07498242499187,-6.151134375456098,250.21743067830536,56.234928003074074
310,-4.5740687837009,-250.1847059899326,0.2210772405026834,-24.4792077927155,49.74543624258472,-6.19627633591527,250.26913644416243,56.49705665395751
311,-4.535977854043243,-250.2267926260517,0.3560483546553995,-25.552464012219776,49.46256149773726,-6.245430237711853,250.31173507321012,56.87292973476754
312,-4.501338480681808,-250.2597106287499,0.4881264204375374,-26.756358112105076,49.23376245954871,-6.297321516400033,250.34516674583506,57.36421750769998
313,-4.471066665891149,-250.28364692185687,0.6146887154037846,-28.08067747328543,49.06593154172289,-6.350867725378436,250.36959875833904,57.970731129307616
314,-4.445976978060232,-250.2990030391855,0.7332197932720839,-29.51278049922708,48.96533308946152,-6.405197621552126,250.3854142271551,58.69040472811572
315,-4.426771354823318,-250.30638156009076,0.8413616741323351,-31.037807026445066,48.9374882742658,-6.459656386099821,250.39319908333871,59.51931469718116
316,-4.414032175091306,-250.30657093495716,0.9369616738603296,-32.638948982341,48.9870632217144,-6.513796678840929,250.39372746440097,60.45173656706807
317,-4.408218701366881,-250.30052849028093,1.0181167613019677,-34.29777518153989,49.117763037439005,-6.56735599884362,250.38794526847383,61.48023893124846
318,-4.409666162014515,-250.28936113730697,1.0832129681431564,-35.994601792641234,49.33223475614677,-6.620221619050792,250.37695135771094,62.595812811124105
319,-4.418586894911742,-250.27430319983728,1.1309580301913815,-37.70889788483126,49.63198237141373,-6.672385127184821,250.36197577839383,63.78803360122258
320,-4.435073086134267,-250.2566908903072,1.1604053663901945,-39.419713695750644,50.017297010722686,-6.723889266954244,250.34435447224197,65.045251404607
321,-4.459100797246042,-250.23793330523978,1.1709678660941036,-41.10611797282289,50.487205032490465,-6.7747702798021425,250.32550030047778,66.35480427951171
322,-4.490535225314938,-250.21948028058634,1.1624207456889173,-42.747630051333594,51.0394364012142,-6.824999288026949,250.30687069436743,67.70324783245306
323,-4.529137338355335,-250.20278788082058,1.134893819131714,-44.324632322853226,51.67041522502302,-6.8744264382614055,250.289932716367,69.0765938674935
324,-4.5745720475937866,-250.1892825820477,1.0888546113737918,-45.818749449330255,52.37527388664033,-6.922731532906004,250.2761266387259,70.46055055275518
325,-4.626418012578823,-250.18032533157066,1.0250844311322398,-47.213182118042035,53.14789178858626,-6.969384706135292,250.26682928932144,71.84075686849324
326,-4.68417915248494,-250.17717665953538,0.9446496022644791,-48.49298533453095,53.980959344679235,-7.013620324325289,250.2633184097693,73.2030049854003
327,-4.747297891037995,-250.18096392448277,0.8488696720419588,-49.645284154622864,54.86606745039781,-7.054426648205755,250.26673916686002,74.53344563634364
328,-4.815169970077979,-250.19265163537887,0.7392838888112231,-50.65942314157575,55.79382222118147,-7.090552846481208,250.278073803127,75.81877331382964
329,-4.887160354925259,-250.21301567400525,0.6176168276669523,-51.52704935157744,56.75398422809496,-7.120533767977037,250.2981152755845,77.04638995363398
330,-4.96261947135403,-250.24262222375702,0.48574379118292405,-52.242131923137585,57.735630697324325,-7.142731631819517,250.32744569641497,78.20454732517891
331,-5.040898883682445,-250.28181230608095,0.34565638735181103,-52.80092402909679,58.72733817508048,-7.155392647509775,250.36642047047505,79.28246939433609
332,-5.121365578336574,-250.3306929030299,0.19942839813321675,-53.201874775806445,59.71738210348432,-7.156715627987908,250.41515909347123,80.27045633674312
333,-5.203414215947829,-250.38913547532533,0.04918185255695519,-53.44549948906138,60.69394872788239,-7.144928965742751,250.47354340555302,81.15997166687394
334,-5.286476972396268,-250.45678213992528,-0.1029466745999351,-53.534216809903725,61.64535383630881,-7.118371923870484,250.54122355789522,81.94371323926494
335,-5.370030787868243,-250.5330589974689,-0.2548391921411217,-53.47216041578317,62.56026209474285,-7.07557601311909,250.61763118690743,82.61566792678683
336,-5.453601893809027,-250.61719543014158,-0.4044283017533464,-53.26497233977871,63.4279003131821,-7.015342232176117,250.70199862563965,83.17114892096882
337,-5.536767413559555,-250.70824783731763,-0.5497276144762351,-52.91958410763595,64.23825796394604,-6.936810137831149,250.79338262455013,83.60681412679514
338,-5.6191537434638725,-250.80512620550252,-0.6888602806625048,-52.443991486550175,64.9822686549588,-6.839515101440416,250.89069097364197,83.92066417724395
339,-5.700431417205111,-250.90662200998054,-0.8200854212100641,-51.84702865457467,65.65196690632929,-6.72343067933562,250.9927105096903,84.11201913910695
340,-5.7803062973948425,-251.01143619762124,-0.9418222045065341,-51.138148007899325,66.24061537340928,-6.5889937220778325,251.09813523862505,84.18147389446052
341,-5.8585072560476545,-251.11820640978928,-1.0526712073088553,-50.327212441197275,66.74279858074036,-6.437110618632819,251.20559371209336,84.13083332034446
342,-5.934770963000301,-251.22553308371357,-1.151432567755665,-49.424307513729474,67.15448032703726,-6.2691438896902,251.31367528106583,83.9630296343909
343,-6.008824860630624,-251.33200446817264,-1.2371203422573371,-48.43958114317495,67.47302326182694,-6.086879197239023,251.42095525387967,83.68202550612486
344,-6.080369692705734,-251.43622077124002,-1.3089725599360662,-47.38311799776724,67.69717075108683,-5.892473711281281,251.5260191754418,83.29270758829946
345,-6.149063000403653,-251.53681756451257,-1.3664568297682511,-46.264854330726166,67.82699296093463,-5.688387660898513,251.6274863584231,82.80077580837235
346,-6.214504876779213,-251.63248830548704,-1.409271839181276,-45.0945365978738,67.86380089907941,-5.477301800216411,251.72403254150026,82.21263392683433
347,-6.276227119911062,-251.72200565514729,-1.437345376964147,-43.881723997751244,67.81003375212711,-5.262024414478777,251.81441136990608,81.53528645539646
348,-6.333686786846383,-251.8042413049881,-1.4508295023993028,-42.635831358167756,67.66912609255682,-5.0453922685726456,251.8974744314854,80.77624605502484
349,-6.386264921845192,-251.87818417316416,-1.4500933087236383,-41.3662049228577,67.4453623004408,-4.830170398656028,251.972189722428,79.94345407693524
350,-6.433270824782405,-251.9429568775082,-1.4357135464820325,-40.08221997357779,67.14372577011913,-4.618955748924593,252.0376584557193,79.04521508176803
351,-6.473951761016525,-251.99783027544106,-1.4084632542234747,-38.79338626412991,66.76975009502834,-4.414089343919787,252.09312999841,78.0901441230564
352,-6.507507725298492,-252.04223567272444,-1.3692985604869714,-37.50944532242919,66.32937845810443,-4.217581039203364,252.1380145325294,77.08712352623697
353,-6.533110803923137,-252.0757741771891,-1.3193439847714363,-36.24044312318386,65.82883603020622,-4.031050031399021,252.17189291158024,76.04526414187764
354,-6.549928667118354,-252.09822265903094,-1.2598767296440554,-34.996762689344756,65.27451851531485,-3.855683337091058,252.19452317304234,74.9738649544715
355,-6.557151652273392,-252.10953583846577,-1.192310417088651,-33.78910394705093,64.67289830907974,-3.692213428422536,252.20584322530726,73.88236476947762
356,-6.55402278396905,-252.10984414510168,-1.1181784163488397,-32.628402528414604,64.03044825077703,-3.5409151899622198,252.2059693463422,72.78028060013445
357,-6.539869924830793,-252.0994472471759,-1.03911647435791,-31.52568483751267,63.353581788280344,-3.4016214065057837,252.19519037867195,71.6771292451234
358,-6.514139018181756,-252.07880355311337,-0.9568440220994653,-30.491862995472108,62.64860758646775,-3.2737551671386753,252.1739579014554,70.58233108187666
359,-6.476427086168656,-252.04851643348974,-0.8731434425768733,-29.5374795183174,61.921696137302696,-3.1563768992968066,252.14287309714516,69.5050978146285
360,-6.42651339384179,-252.0093182464914,-0.7898367420896989,-28.67241694375403,61.17885570613873,-3.048243233597831,252.10267135808434,68.45430830365945
361,-6.364387067125461,-251.96205337088065,-0.7087593885662927,-27.905591407012423,60.4259149586469,-2.947874556228077,252.0542057960488,67.43837831012327
362,-6.290269451776381,-251.90766130517403,-0.6317315184540115,-27.244650953935427,59.66850985207528,-2.8536279264873157,251.99843067296763,66.46513088436421
363,-6.204629587472182,-251.8471605117748,-0.5605272072985579,-26.695699096348996,58.91207277658125,-2.7637720056298,251.9363853941797,65.54167422574476
364,-6.108191371225775,-251.7816332339206,-0.496842936635435,-26.26306195084351,58.16182236042571,-2.676560756000386,251.86917926009286,64.67429323092473
365,-6.0019313548869695,-251.71221120057828,-0.44226666288808913,-25.94911360061671,57.42275266063042,-2.590302926728107,251.79797686816832,63.86835972108252
366,-5.887066672884162,-251.64006204639318,-0.3982489245726691,-25.75416950972517,56.69962057791218,-2.5034247180829325,251.7239839823154,63.12826463091962
367,-5.765033271003872,-251.56637633180569,-0.366077149736102,-25.676452392716918,55.99693030960746,-2.4145234666916666,251.64843376199727,62.45737346022447
368,-5.637455326454012,-251.49235511305764,-0.3468537905096546,-25.712129450240727,55.318913611225376,-2.3224106803327644,251.57257332739658,61.858004289322494
369,-5.506107443725469,-251.419197984389,-0.3414783421774589,-25.855414910328818,54.6695047016167,-2.2261432529786718,251.49765062832898,61.3314259034415
370,-5.372871794703896,-251.34809137274164,-0.35063293770984993,-26.098727922094728,54.05230891564554,-2.1250422141864047,251.42490145694916,60.87787230707233
371,-5.2396927388015815,-251.28019666819483,-0.37477107916931646,-26.432893443510842,53.47056475357965,-2.01869894344527,251.35553625387337,60.49656936304869
372,-5.108531532129309,-251.21663762136438,-0.41410907428701954,-26.84737301032353,52.92709981107079,-1.906969421097461,251.29072620332542,60.18576958933066
373,-4.981323504987586,-251.15848638624902,-0.4686198640873534,-27.330513049669147,52.42428209566497,-1.7899577414326855,251.2315880509098,59.942792218303914
374,-4.85993959906964,-251.10674760624667,-0.5380292312712878,-27.869800347191497,51.963969246337236,-1.6679906880425965,251.17916708314186,59.764067193405076
375,-4.746153486245235,-251.06233997810153,-0.6218148945089723,-28.452116894537173,51.54745897586993,-1.5415855800687521,251.13441772947618,59.645183484058485
376,-4.641614743387029,-251.02607480532066,-0.719209551823331,-29.063989150364346,51.17544453617716,-1.4114137807073435,251.09818130972226,59.580943627639115
377,-4.5478278457507155,-250.99863133342623,-0.8292091868241537,-29.691829360699987,50.84797912819121,-1.2782621960741425,251.07116071935795,59.56542754243202
378,-4.466136181990305,-250.9805293082238,-0.9505876301042202,-30.32216871039421,50.56445296018855,-1.142994817461433,251.05389248852455,59.5920692666187
379,-4.397710016633176,-250.97210010195826,-1.0819176164981306,-30.941883451721587,50.32358615728768,-1.0065159557032262,251.04671755471696,59.653750276998586
380,-4.343537387672635,-250.9734585501091,-1.2215978704530661,-31.538415549936808,50.12343999589385,-0.8697363857414289,251.0497528913751,59.74291235996977
381,-4.3044172061169865,-250.9844780831086,-1.3678854218068177,-32.09998870296062,49.96144799888307,-0.733543247544706,251.06286658003313,59.851691618375426
382,-4.280954138272863,-251.00477181752646,-1.5189323176459022,-32.61581895150333,49.834467286082536,-0.5987742767960061,251.08565899438295,59.97207317040037
383,-4.273555154094118,-251.03368203673404,-1.6728258324857344,-33.07631682001593,49.73884929671162,-0.4661967642157624,251.1174525274201,60.09606365097404
384,-4.282427929930554,-251.07027994844688,-1.82763096637148,-33.47327548409147,49.67052773858374,-0.33649152787828707,251.1572917466621,60.21587612402201
385,-4.307581501663882,-251.1133768258945,-1.981433537145348,-33.80003735514457,49.625120544327935,-0.21024205019604458,251.20395507843733,60.32411985730667
386,-4.34882955977677,-251.1615467983298,-2.1323818940964454,-34.05163012257287,49.5980418456648,-0.08792870628538911,251.2559782791122,60.41398591894405
387,-4.4057965965992665,-251.2131608433669,-2.278725553274829,-34.224862942678584,49.58461957038003,0.030072298774599018,251.31168923871655,60.4794189203672
388,-4.477926850374552,-251.26643100871502,-2.4188497912478946,-34.318374231437225,49.580214220271536,0.14348596656717494,251.36925313998196,60.51526554418587
389,-4.564495678978038,-251.31946345769398,-2.5513059574694164,-34.332624442339,49.58033462279593,0.2521324014782908,251.42672656190584,60.51739174226046
390,-4.664622714542106,-251.37031848219362,-2.6748375675738503,-34.26983020826499,49.58074685008393,0.3559185397138195,251.48211865914845,60.48276254731195
391,-4.7772860328568445,-251.41707518078505,-2.788402062138274,-34.133840026275465,49.57757299356889,0.4548286881859751,251.53345709024615,60.40948109161969
392,-4.901336650853746,-251.4578981638925,-2.8911876837792554,-33.92995580256165,49.56737704809072,0.5489147979795322,251.57885601685473,60.29678635513462
393,-5.035512834792614,-251.4911034665611,-2.9826245797506945,-33.664708509766726,49.5472357883107,0.6382872906779549,251.61658329996436,60.14501201509898
394,-5.178453846987164,-251.51522078347185,-3.0623892560062558,-33.34559948164663,49.514793210886964,0.7231070720305525,251.64512394099918,59.95551124722992
395,-5.328712834133364,-251.52904915812607,-3.130401964834326,-32.98082115881948,49.468297860471026,0.8035790860077642,251.6632368249803,59.73055424244473
396,-5.4847685936798385,-251.53170336072264,-3.186817376110126,-32.57897217757642,49.40662311596375,0.8799474129839103,251.67000192199902,59.47320641383038
397,-5.645036094027476,-251.522648388807,-3.23200973650933,-32.148781445798114,49.329271215555615,0.9524915754281447,251.66485530733848,59.187195689569435
398,-5.807876048909312,-251.50171993205194,-3.2665543421833183,-31.698854338660855,49.23636236979955,1.0215234377613203,251.64760978927512,58.87677692861877
399,-5.971604426770657,-251.46912952476293,-3.2912071777216547,-31.237451606916085,49.128610696040184,1.08738388293181,251.61845985833585,58.546600465922374
400,-6.134503028877499,-251.42545455191825,-3.3068839178097664,-30.77230834068384,49.00728889866003,1.1504383374443106,251.5779711650365,58.20159026886216
401,-6.294831955216965,-251.37161479384147,-3.3146385420313624,-30.310496687314195,48.87418367499359,1.2110702460994753,251.5270562899498,57.84683537813548
402,-6.450844250260069,-251.3088380917303,-3.315641133666061,-29.858332276048348,48.73154384035687,1.2696717777128317,251.46693948092533,57.487496434254524
403,-6.6008026990266355,-251.23861780856555,-3.311154251901923,-29.421320781810223,48.58202320317318,1.32663132030521,251.39911312134186,57.12872735813671
404,-6.742998613226974,-251.16266443707462,-3.3025074353464063,-29.004138170429854,48.42862025960189,1.3823176290943788,251.32528835956336,56.77561082233258
405,-6.875772320124082,-251.0828533901599,-3.291069642249037,-28.61063631467655,48.274616719100706,1.4370607754065952,251.24734199890105,56.43310512926866
406,-6.9975349492022225,-251.0011708190677,-3.278219585328445,-28.24386508830167,48.12351664193319,1.4911302792247323,251.16726154104634,56.105999570203984
407,-7.10679113112267,-250.91965910493562,-3.265314016837829,-27.906102678413347,47.97898759131388,1.5447109798761551,251.0870900628849,55.79887529174079
408,-7.2021624077236845,-250.84036328568735,-3.253654249516502,-27.598887423994373,47.84480478693705,1.5978773294396527,251.00887221633013,55.51606911415034
409,-7.2824113676176205,-250.76527915222638,-3.244451634531446,-27.323046660738395,47.72479890359717,1.6505669234077551,250.93460211127143,55.261638555407124
410,-7.346466562888025,-250.6963033882333,-3.2387932044047516,-27.07872055195328,47.62280791970349,1.7025542338709607,250.86617347792028,55.039327393787254
411,-7.393448010995598,-250.63518621324923,-3.2376090624414964,-26.86538144088994,47.54263323168573,1.753425670444602,250.8053325773833,54.85253225316597
412,-7.422692622508702,-250.58348739761263,-3.2416433760731787,-26.68185155557821,47.488000037011766,1.8025572429385834,250.75363471864182,54.7042716787579
413,-7.433778444627594,-250.54253682917815,-3.2514310692822233,-26.526323630093692,47.4625217086498,1.8490962184814992,250.71240553215034,54.597159786114005
414,-7.426546389180861,-250.5134007642827,-3.2672824075084006,-26.396389970229325,47.46966753053106,1.8919482253511126,250.68270808914417,54.53338670608378
415,-7.4011181679302,-250.49685460546513,-3.289277418006177,-26.289085584114176,47.512732764038354,1.9297712242506078,250.66531665806258,54.51470770431949
416,-7.35790928962681,-250.49336279513912,-3.317271363996229,-26.20095019516688,47.594809626412534,1.960977644473566,250.6606976283254,54.542442089675
417,-7.2976359211804676,-250.503066338047,-3.350911354812916,-26.128112329462848,47.718757441480264,1.9837457978248718,250.66899803984228,54.61748195138284
418,-7.221314177496467,-250.52577847912323,-3.3896628701972147,-26.066396420230937,47.887170044404016,1.9960414417349222,250.6900421479914,54.7403095523558
419,-7.130250315982516,-250.5609889949442,-3.4328438353351665,-26.011451292170474,48.10233862044168,1.9956500151908596,250.72333636949546,54.91102111402425
420,-7.026020774951393,-250.6078773440391,-3.4796631949166104,-25.958895797279194,48.36620865672298,1.9802195782782868,250.76808275268712,55.12935400361398
421,-6.910442085642289,-250.66533464449589,-3.5292608562911427,-25.904475059159605,48.68033053185927,1.9473138942227832,250.82320088606727,55.39471404110925
422,-6.785531972672493,-250.73199417092405,-3.5807463429814645,-25.84421897128393,49.04580423368183,1.8944745074149696,250.88735794903045,55.706199662323634
423,-6.653463829090693,-250.80626972492755,-3.6332342361489265,-25.774593459058586,49.463219582024706,1.819290167477082,250.95900632339095,56.06261990247824
424,-6.516516982147792,-250.88640076474385,-3.68587515351753,-25.69263468873146,49.93259408917567,1.7194715322083383,251.03642773709495,56.46250362627266
425,-6.377024980886707,-250.97050266799081,-3.7378814539212533,-25.596056953588047,50.453311240806116,1.592928723969606,251.1177823963204,56.904098196165336
426,-6.237323815379048,-251.05662012418384,-3.788547098601694,-25.48332634147933,51.0240625395532,1.437849020755637,251.20116117057157,57.38535684776376
427,-6.09970163000895,-251.14278147574723,-3.8372613003339278,-25.353694349532777,51.642797104081325,1.2527717991602454,251.2846387008642,57.90391536223235
428,-5.966351167068956,-251.2270517748328,-3.88351584251852,-25.207188195576677,52.30668290078612,1.0366578753330349,251.3663252348872,58.45706006744437
429,-5.839325902485095,-251.3075823674704,-3.9269061776900664,-25.04455748935558,53.012083712113785,0.78895058208045,251.44441502464636,59.04169058460653
430,-5.720500576027788,-251.3826550586849,-3.967126546805378,-24.867179931494665,53.75455563583051,0.5096261698211879,251.5172293533714,59.654281864378156
431,-5.611536567256268,-251.45071945228315,-4.003959573039003,-24.67693154111152,54.52886624717339,0.1992313666614687,251.58325279510822,60.29085076685283
432,-5.513852427161052,-251.51042282854442,-4.037261313020085,-24.476029316599337,55.3290385960564,-0.14109379388558632,251.64116209165616,60.94693264669943
433,-5.4285998814356695,-251.56063268936813,-4.066943457178331,-24.266855996421754,56.148421050913136,-0.5096094215476521,251.68984781907125,61.61757308966494
434,-5.3566456375740445,-251.6004526123774,-4.092954815781323,-24.051777613051225,56.97978274046451,-0.9039865799262703,251.72842954055125,62.297339163649724
435,-5.29855923464974,-251.6292321949154,-4.1152641682009,-23.832964860554487,57.81543307601599,-1.3213359418480226,251.75626527578117,62.980353417400025
436,-5.254607021996917,-251.64657171246847,-4.133846122250075,-23.61222899791257,58.6473626445224,-1.7582540240372355,251.77295594155862,63.66035252196989
437,-5.224752246893808,-251.6523218615832,-4.148671075238151,-23.39088210968715,59.467401723481125,-2.2108859173070408,251.77834514317192,64.33077101585104
438,-5.208661197757504,-251.646578783789,-4.159699835791871,-23.169630049822178,60.26739183873216,-2.6750026789058716,251.7725145042907,64.9848491645064
439,-5.205715371406947,-251.62967456383103,-4.166882934798612,-22.94850438716431,61.03936518603412,-3.1460909969484985,251.75577470389882,65.61576254786006
440,-5.215029730448596,-251.602163550686,-4.17016402930487,-22.726837340534892,61.775726349176374,-3.6194523908209892,251.72865252956393,66.21676970467419
441,-5.235477283113674,-251.56480503812452,-4.169486196659492,-22.50328124487879,62.469430536112476,-4.090308986398444,251.69187443610068,66.78137303087367
442,-5.265720277108899,-251.51854288472668,-4.164799710277569,-22.275871672608094,63.114152507035165,-4.553912709790205,251.64634714623728,67.30348718477725
443,-5.304247987329343,-251.4644824788379,-4.156070308295074,-22.042131046049395,63.704440515481565,-5.005654578515175,251.59313567292907,67.77760855737087
444,-5.349420365070986,-251.40386520277582,-4.143287714764264,-21.79920751696175,64.23584997841243,-5.441170720523949,251.53343891015692,68.19897900395752
445,-5.399515999819306,-251.33804046621944,-4.126474695022842,-21.54404212606444,64.70505226721802,-5.8564419174014235,251.4685628597079,68.5637370629618
446,-5.452782248382072,-251.26843554685632,-4.105696944302809,-21.273555807229595,65.10991495451457,-6.247883862859558,251.3998917186386,68.86905030137014
447,-5.507485132115903,-251.1965237277014,-4.081073745208261,-20.984846693527913,65.44955098881533,-6.612425836420429,251.3288572851799,69.1132231525354
448,-5.561956659356038,-251.12379134993444,-4.052788831232427,-20.675387495739134,65.72433547674146,-6.947575954657434,251.25690725357418,69.29577554118136
449,-5.614637518516047,-251.05170442280524,-4.021100404277976,-20.34321256443161,65.93588988263537,-7.251471506491688,251.1854729791594,69.41748860799188
450,-5.664113553489618,-250.98167552175093,-3.9863488242368588,-19.98708470829617,66.08703438778781,-7.52291314600016,251.11593737821326,69.4804148747759
451,-5.7091450719789885,-250.91503191178708,-3.9489601783769124,-19.606632980859217,66.18170985563512,-7.761381982136503,251.04960383444939,69.48785123268668
452,-5.748688783006353,-250.8529859953623,-3.90944389316854,-19.202454440227523,66.22487140071286,-7.967038920275849,250.9876671587669,69.44427426164124
453,-5.781912761064816,-250.7966091297663,-3.868382969750449,-18.776175182929236,66.22235607102853,-8.140705998875308,250.93118761883534,69.35523865762035
454,-5.80820501409112,-250.74680958075373,-3.8264163856111684,-18.33046848520304,66.18072769822845,-8.283829939239244,250.88106880791796,69.22724093085858
455,-5.827176008485952,-250.70431502371582,-3.7842144835461733,-17.869030333826103,66.10710256543585,-8.398428696619442,250.8380397971158,69.06755194690331
456,-5.838655179022185,-250.6696597449757,-3.7424492928396744,-17.396514722662694,66.00896017268649,-8.487022458175645,250.80264177611934,68.8840232054361
457,-5.842681283073897,-250.6431765874542,-3.7017623221472356,-16.918432672174852,65.8939440099089,-8.55255122914521,250.77521928397815,68.68487290277801
458,-5.839486521820552,-250.62499363044205,-3.66273240844415,-16.44101994081456,65.76965784481865,-8.598281798545253,250.75591607101117,68.4784587543363
459,-5.829474650080226,-250.61503547797665,-3.6258459328289536,-15.971078843612746,65.64346357157326,-8.62770740063249,250.7446755103016,68.27304524192614
460,-5.813193805982414,-250.61302885736967,-3.591471361695345,-15.515799532709671,65.52228709292439,-8.644443744829662,250.74124530151408,68.0765733693746
461,-5.791305411509244,-250.61851207376566,-3.5598397773113013,-15.08256567457806,65.41243893607796,-8.652125259911257,250.74518605622313,67.89644111667538
462,-5.7645510790105865,-250.63084775020803,-3.5310328481312014,-14.678748934919675,65.31945625904909,-8.654305376166228,250.7558832409211,67.73930257286509
463,-5.733719838910064,-250.64923820693676,-3.504979490688514,-14.311496359332068,65.24797256141981,-8.654364427209423,250.77256187874514,67.61089324243588
464,-5.699617946783805,-250.67274286479233,-3.4814621995204433,-13.987514845750319,65.20162073997496,-8.655428275263919,250.79430343665607,67.5158882817161
465,-5.663042876931382,-250.70029722969701,-3.4601335961612563,-13.712857504245873,65.18297406579086,-8.660300084434226,250.8200644835346,67.45779939278006
466,-5.624762101785079,-250.73073322708564,-3.4405431188117674,-13.49271767698005,65.1935281592254,-8.671406861466156,250.84869689730277,67.4389147229682
467,-5.585496454336113,-250.7628008016073,-3.4221729222023933,-13.33123749979392,65.23372511283733,-8.690761525758726,250.8789695261491,67.46028434665097
468,-5.5459076154343885,-250.79519081774706,-3.404481068349195,-13.231338801914443,65.30301863437049,-8.71994042004462,250.9095913139891,67.52175174185342
469,-5.506589411624423,-250.82655947069026,-3.386949196598719,-13.194584532737931,65.39997661621616,-8.760075393656347,250.93923606318236,67.62202921021297
470,-5.468062828959634,-250.8555545897288,-3.3691313431234473,-13.221078517493964,65.5224151532622,-8.811858950099804,250.9665691732837,67.75881265391726
471,-5.430774763341437,-250.88084426013972,-3.3507005443332556,-13.309410028565955,65.66755603487306,-8.87556049686463,250.990276734334,67.92892882372186
472,-5.395100469327121,-250.9011480786243,-3.3314901698316364,-13.456647412786015,65.83219835526089,-8.951051458587298,251.00909724017475,68.12850634012872
473,-5.361349386921874,-250.9152711704771,-3.3115274030240105,-13.65838203908009,66.01289420375981,-9.037836860840534,251.02185599748915,68.35316059020414
474,-5.329773587051582,-250.92214085367712,-3.2910568698270644,-13.908820530464242,66.20611838840598,-9.13509093464173,251.0275020615424,68.59818204187066
475,-5.3005777589497765,-250.9208454226309,-3.270553096529242,-14.200920107593245,66.4084227646189,-9.241694376956076,251.02514712363077,68.85871760535294
476,-5.273929741242625,-250.91067383969022,-3.250721140656683,-14.526559328060202,66.61656696222889,-9.356271190475196,251.014105109963,69.12993544151416
477,-5.24997100467049,-250.89115428437776,-3.2324852617428452,-14.87673484698928,66.82761908284314,-9.47722350970392,250.99393043949908,69.40716506898801
478,-5.2288268667300155,-250.8620888331914,-3.216965901424676,-15.241774163264235,67.0390221251269,-9.60276344159294,250.96445223169425,69.6860066370084
479,-5.210616316257242,-250.82358126837087,-3.205445599286833,-15.611554607260471,67.24862424605416,-9.73094166297479,250.92580148945248,69.96240558800379
480,-5.195461208497,-250.77605513946628,-3.1993247952609205,-15.975719943083298,67.45467326582165,-9.859673273874412,250.87842840823754,70.23269142406143
481,-5.183494417944846,-250.72025958317573,-3.2000688134730826,-16.323887737518096,67.65577796718252,-9.986762098539334,250.8231073416329,70.49358178605021
482,-5.1748664018193615,-250.65726095547896,-3.2091478367412067,-16.645842861484038,67.85084070114243,-10.109925133878512,250.76092750248378,70.74215547097658
483,-5.169749593609444,-250.5884190769877,-3.2279723977556714,-16.9317148063532,68.03896756283622,-10.226819109566787,250.69326823066942,70.97580023773402
484,-5.168340183238351,-250.51534788951074,-3.2578275756413557,-17.172138517354394,68.21936385391803,-10.335071133421966,250.62175866363282,71.19214309187363
485,-5.170857143842313,-250.43986151910434,-3.2998093230630223,-17.358399825085634,68.39122354963241,-10.432315121007804,250.54822284973997,71.38897195858597
486,-5.1775386615002335,-250.36390798199022,-3.354766000163629,-17.482567119674005,68.5536218949014,-10.516235120350013,250.47461258730632,71.5641580667228
487,-5.188636195774009,-250.28949385365874,-3.4232474627978076,-17.537610675227448,68.70541998882986,-10.584615793590899,250.4029313521569,71.71558791990554
488,-5.204406255996156,-250.21860394663696,-3.5054633473663976,-17.51751016193279,68.84518927802861,-10.63539935926392,250.33515339501045,71.84111248308498
489,-5.225099859303322,-250.1531203022032,-3.6012517514560636,-17.4173496645228,68.97116233704682,-10.666747394733877,250.27314234302798,71.93851931740568
490,-5.25094970915345,-250.09474468865312,-3.7100592176873564,-17.23339830279142,69.08121434484696,-10.677105137100538,250.21857352015263,72.00553110944027
491,-5.282155344299477,-250.04492850875636,-3.830932544260658,-16.963173624762163,69.17287751071811,-10.665265320073503,250.1728639012885,72.0398316674983
492,-5.3188667148644075,-250.00481364028667,-3.962522399862643,-16.60548449992956,69.24338853375876,-10.63042814318235,250.1371132231455,72.03911821164888
493,-5.361166773245055,-249.9751872433762,-4.1030981491887575,-16.16045034080209,69.28976703624899,-10.572253708651887,250.11205926830718,72.00117672745951
494,-5.409053788840981,-249.95645298496882,-4.250572880522126,-15.62949410830964,69.3089208004708,-10.490903224923734,250.0980497407531,71.923975300101
495,-5.462424350778388,-249.94862050369466,-4.402537465747478,-15.015307648323734,69.29777166647527,-10.387065504735366,250.09503251631907,71.80576878588285
496,-5.521058418657988,-249.95131415268074,-4.556302582277497,-14.321789361099812,69.2533943099145,-10.261965788369972,250.10256526986427,71.6452070672933
497,-5.584608036169326,-249.96380079729104,-4.708947992678735,-13.553955877214367,69.17315899716918,-10.117354676862192,250.119844238215,71.44143859888264
498,-5.652591116187924,-249.98503460551757,-4.857378970556603,-12.717831121014063,69.0548689376106,-9.955475940269231,250.14575006641965,71.19420104895995
499,-5.7243910999741265,-250.01371489134613,-4.998390284530248,-11.820317672296976,68.89688310636564,-9.77901314701455,250.1789068327346,70.90389160221083
500,-5.79926266807729,-250.04835198956624,-5.128738163740999,-10.869056441667965,68.69821641223028,-9.5910163612859,250.2177492734899,70.57161086748766
501,-5.8763432613835525,-250.08733615381863,-5.245220014231439,-9.872281133627778,68.45861075207868,-9.394811418839156,250.2605932266343,70.19917619941482
502,-5.954669866024195,-250.12900521141827,-5.344760565476428,-8.838673704868025,68.17857268924186,-9.193895375007484,250.3057050220576,69.78910244482618
503,-6.033200207915381,-250.17170771228007,-5.424501918134608,-7.777226128427699,67.85937606727484,-8.99182258638892,250.351366511468,69.34455055429864
504,-6.110837258121457,-250.21385933298774,-5.481893896356407,-6.697112420426309,67.5030306018511,-8.792086555603463,250.39593341752249,68.86924699339576
505,-6.186455903641089,-250.25399124781606,-5.514780409634759,-5.607573236248039,67.1122200544125,-8.598003094074587,250.43788560569791,68.36737915876704
506,-6.258930793583924,-250.29079002441287,-5.521477346348084,-4.517813559731478,66.69021564630407,-8.412600448553372,250.47586871531146,67.84347373305931
507,-6.327164574902833,-250.32312928947016,-5.500837880301038,-3.436912317434759,66.24077172985446,-8.238521746424432,250.50872727635834,67.3022659237733
508,-6.390115808594268,-250.35009377143632,-5.452301951553399,-2.3737414252858766,65.76801137459134,-8.077944474278627,250.53552982206187,66.74856782734015
509,-6.446825763180956,-250.3709962004644,-5.3759279720045665,-1.33689101915977,65.2763095123721,-7.932520780963213,250.5555864216222,66.18714381875284
510,-6.4964431612936755,-250.38538705371045,-5.272406158042787,-0.3345974710739522,64.77018067481194,-7.803341259319664,250.5684586157869,65.62259995712849
511,-6.538245992834778,-250.39305669787933,-5.143053877063364,0.6253288354513038,64.25417721613447,-7.690923579592852,250.57396134120592,65.05929298487486
512,-6.571659716798185,-250.39402946458446,-4.989793871957658,1.5355782280896388,63.73280235912016,-7.595225999575036,250.57215643148615,64.50126269392779
513,-6.596271409934037,-250.38854962339047,-4.815116394957591,2.389420199326373,63.21044061195164,-7.515684441801892,250.56333771327448,63.9521894116754
514,-6.611839586617298,-250.37705986362326,-4.622026380569773,3.1807856838219446,62.69130629240536,-7.451270574231075,250.5480083550693,63.415376328656535
515,-6.61829953253244,-250.3601735437628,-4.4139769101536475,3.9043520874644155,62.17940924485375,-7.400567225292476,250.52685176534106,62.8937545315742
516,-6.61576410943429,-250.33864253650268,-4.194790365010936,4.555628845437701,61.67853547062251,-7.361856602456845,250.50069789715158,62.389907053623794
517,-6.60452006132815,-250.31332293773139,-3.9685688679749265,5.131040196306685,61.192239416861106,-7.333216271473926,250.4704872492022,61.90610712865246
518,-6.5850197974872415,-250.28514108113944,-3.7395959763890576,5.628000933299684,60.72384417628941,-7.312617737143031,250.4372350224407,61.444365242937366
519,-6.557868509977135,-250.25506202487531,-3.5122321322627363,6.044980272693362,60.276445865302,-7.2980226804969925,250.40199761931748,61.00647954873483
520,-6.523806578408009,-250.22406191022236,-3.290806941945437,6.381548770323922,59.85291887561852,-7.28747231763686,250.36584292108822,60.59408464197786
521,-6.483687686141233,-250.1931045980377,-3.0795117326125423,6.638403463694716,59.4559193470456,-7.279165864497918,250.32982480722845,60.20869443207104
522,-6.438453709767974,-250.16312220490028,-2.8822958965218852,6.817367102461412,59.087884904147145,-7.27152473713852,250.2949616165103,59.851735679367025
523,-6.3891078939911035,-250.1349988311261,-2.702770272536912,6.9213583824168055,58.75102934598258,-7.263239946778518,250.26221792506678,59.52456966403236
524,-6.336687927732418,-250.10955681053687,-2.544120285981837,6.954331422236364,58.44733155782188,-7.253301165607656,250.2324890454699,59.22850035456283
525,-6.282240323098077,-250.08754500368414,-2.4090309218451322,6.92118426095788,58.178518416969794,-7.241007073231002,250.20658782394685,58.96476834027712
526,-6.226797030489691,-250.06962885018166,-2.299625068586815,6.827637881935225,57.94604189247588,-7.225957749967911,250.1852334834368,58.73453066193358
527,-6.171354581664429,-250.05638202202914,-2.2174165178105314,6.680089098884344,57.751050936316275,-7.208030978308531,250.16904236264466,58.53882753127462
528,-6.11685541276177,-250.04827956114545,-2.16327888258199,6.485442368423819,57.594359183972124,-7.187345258382006,250.15852042325565,58.37853777247442
529,-6.064170655766484,-250.0456923645316,-2.137431580559978,6.250926970568209,57.476409935708105,-7.164213023272487,250.15405736852483,58.25432559661086
530,-6.014083792771884,-250.04888284514192,-2.1394435267750613,5.983906850706521,57.397240362695634,-7.139087863639692,250.15592218515638,58.166581984206985
531,-5.967275035316837,-250.05800158661958,-2.168254365788539,5.691690702030383,57.35644734424054,-7.11250954082683,250.1642599227136,58.11536447410018
532,-5.9243067924358455,-250.07308485456204,-2.222212259043164,5.381349633229631,57.35315771765339,-7.085050277166208,250.17908957910285,58.10033949497979
533,-5.885610892675516,-250.09405294007303,-2.2991266408427924,5.059549096697586,57.38600590945587,-7.0572653801413106,250.20030307464407,58.12073146377899
534,-5.851478318893391,-250.1207094776491,-2.3963340038799887,4.732400761311502,57.453121845270395,-7.029650765105498,250.22766545739225,58.17528267000727
535,-5.822052193175755,-250.15274205112354,-2.5107746494446106,4.405338835767323,57.5521316827761,-7.002609395813953,250.26081664575554,58.26222745948659
536,-5.797324698132653,-250.1897245320862,-2.639078348164681,4.083024097878713,57.680173300383125,-6.976428014862249,250.29927513723516,58.3792834528145
537,-5.7771385974688485,-250.2311216945165,-2.777656858994959,3.769277637372057,57.83392767277546,-6.951264775610844,250.34244420397036,58.52366155608213
538,-5.76119402878407,-250.2762967667245,-2.922801170501611,3.467045147438544,58.00966635614791,-6.92714759717653,250.3896212055758,58.69209543779089
539,-5.749061183219347,-250.32452266800777,-3.0707811617471004,3.178391589265357,58.20331435257381,-6.903982366581963,250.4400107274547,58.88089003217198
540,-5.740199172666485,-250.37499751156582,-3.2179451015655576,2.9045252466403912,58.41052668584027,-6.8815695672430355,250.49274207579785,59.08598755211188
541,-5.733980765564286,-250.4268643633315,-3.3608160270997915,2.645849558055591,58.62677620260213,-6.859627501170477,250.54689105654208,59.30304855237215
542,-5.729721992544142,-250.479234393414,-3.4961817908225745,2.402040620715134,58.84744952831914,-6.837819963779797,250.60150510581397,59.52754488636669
543,-5.726715171924972,-250.53121184350368,-3.6211757052000446,2.1721478628915785,59.06794779466022,-6.815786036497603,250.65563012829202,59.754860985960434
544,-5.724263691395433,-250.58191890336676,-3.7333451914568867,1.954714962502309,59.28378864555075,-6.7931696140788365,250.70833707585325,59.980399697894995
545,-5.721716750637276,-250.63051859926574,-3.8307063430514146,1.7479174582179402,59.4907060384753,-6.769646390854521,250.75874631071653,60.1996888479044
546,-5.718502182610698,-250.67623402147626,-3.9117826730091894,1.5497125288009432,59.68474446816713,-6.74494629002826,250.80604801879343,60.408484755828404
547,-5.7141555106902,-250.71836259241903,-3.9756266442854336,1.3579951678858548,59.86234447940408,-6.7188697430188595,250.84951731148576,60.602869121618895
548,-5.70834362345671,-250.75628456200099,-4.02182309602258,1.1707536668609761,60.02041672068267,-6.691296811914269,250.88852314497768,60.779336058163935
549,-5.700881839591205,-250.78946548243238,-4.050474441678098,0.9862161989082879,60.15640229633705,-6.66218883733338,250.92253076710463,60.93486652837612
550,-5.691743595043981,-250.81745306064016,-4.062168423067391,0.8029796387438077,60.26831773820775,-6.631582980829547,250.95109807068974,61.066987978605894
551,-5.681062403459054,-250.83986946518482,-4.0579301709636155,0.620111823522801,60.35478348786082,-6.599580633477118,250.97386694102215,61.17381750327039
552,-5.669126100077591,-250.85640072183583,-4.039161322096397,0.4372195018193913,60.41503536229971,-6.566331142725097,250.99055128043656,61.254087460128034
553,-5.6563637237474,-250.8667851251894,-4.0075697966395,0.2544763579297882,60.44891908262438,-6.532012636149614,251.00092372515286,61.30715312814153
554,-5.643325718856145,-250.87080260424005,-3.9650942260985533,0.07260864459111072,60.45686852172675,-6.4968118615484745,251.00480310495465,61.33298271827449
555,-5.630658405351777,-250.86826675534635,-3.9138268108251633,-0.10716024650655118,60.43986879786104,-6.460904927236683,251.00204447523473,61.33213070793243
556,-5.619073866519756,-250.8590208443932,-3.8559377876736924,-0.28320103480054076,60.39940570660929,-6.424440667868332,250.9925331280595,61.30569601118896
557,-5.609316597050841,-250.84293852465302,-3.7936040183654924,-0.4535969274914169,60.33740330855276,-6.387528118296142,250.97618341883805,61.255266917763215
558,-5.602128488267968,-250.81992934088672,-3.728943650073496,-0.6162779429279668,60.25615180991874,-6.350229232086757,250.9529425569067,61.182855034664
559,-5.598213963281029,-250.78994831224404,-3.663958348982935,-0.7691588492587755,60.15822817426405,-6.312557486985053,250.92279871988424,61.090820649424685
560,-5.598207220627804,-250.7530080929388,-3.6004841866597905,-0.9102687636111874,60.04641216559152,-6.274482387391745,250.88579204617227,60.981792056599986
561,-5.602643561680976,-250.7091916105839,-3.540151859360017,-1.037862368821898,59.923600736019914,-6.235939226137435,250.84202644724738,60.8585815367437
562,-5.611936622588469,-250.6586629597235,-3.484356645890817,-1.1505059204112247,59.79272380900467,-6.196842985707746,250.7916800465654,60.72410089060538
563,-5.626362880921363,-250.60167480432577,-3.4342384517304256,-1.2471352201428392,59.65666453565731,-6.157105045786188,250.73501251712764,60.581279658262766
564,-5.6460540252410185,-250.53857137605846,-3.39067234818744,-1.3270868072736979,59.51818699268968,-6.11665136818254,250.6723684086886,60.43298927557794
565,-5.6709968816179295,-250.46978692813937,-3.3542699352866943,-1.3901070497038401,59.379874039740244,-6.07544091078753,250.60417630725928,60.281976325172295
566,-5.701039894998951,-250.3958400138648,-3.325391436958995,-1.4363460685274778,59.244077661436954,-6.033483071901672,250.53094415242515,60.130807671734935
567,-5.735904820837573,-250.31732426879267,-3.3041676823051302,-1.4663442345533362,59.112883578678364,-5.99085297358837,250.4532513219978,59.98182964431496
568,-5.77520224895917,-250.23489659423652,-3.2905302305899347,-1.4810183638855388,58.98809120611616,-5.947703416731664,250.3717382905279,59.837142588046426
569,-5.818449684563786,-250.14926382820022,-3.2842471210607713,-1.4816529842759378,58.871209148416824,-5.904272450682032,250.28709483877338,59.69859110727143
570,-5.86509095735363,-250.06116918833536,-3.284961192565078,-1.4698995305966407,58.76346539957169,-5.8608857279165445,250.2000479729897,59.567769223559104
571,-5.914515656888644,-249.97137995808097,-3.2922275546907507,-1.447783440688527,58.66583032988499,-5.817953138640508,250.1113508840848,59.44603856191977
572,-5.966077237142784,-249.8806779043422,-3.305546660792859,-1.4177162400386327,58.579049554766144,-5.7759595918369495,250.02177428976796,59.334556670163046
573,-6.019108581324598,-249.7898534873595,-3.3243899167100133,-1.3825072542794339,58.50368303858915,-5.735450177957695,249.93210110188565,59.23431180076146
574,-6.072934181327087,-249.69970392809296,-3.3482160842243807,-1.3453680140617557,58.44014642772235,-5.697010281816343,249.84312443168554,59.14616006121905
575,-6.126878498797922,-249.61103399968573,-3.376478440762493,-1.3099020185098311,58.38875068747115,-5.661241501787343,249.7556478288709,59.07086084420417
576,-6.18027041969625,-249.5246576362094,-3.4086239658782294,-1.2800733629443997,58.34973662231935,-5.628734471289026,249.67048593857604,59.009106908159424
577,-6.232444055539129,-249.44139837185966,-3.4440864545559617,-1.26014967287297,58.323301719962444,-5.600039861326623,249.5884637088434,58.96154636236885
578,-6.282736585072374,-249.36208702779544,-3.482275652722641,-1.2546175447359884,58.30961785061802,-5.575638956033534,249.51041269351256,58.928794999677706
579,-6.3304843270966185,-249.28755566432605,-3.5225645333613205,-1.2680718999426284,58.30883947660682,-5.555915237145189,249.43716359701372,58.9114386929297
580,-6.37501860633281,-249.2186274577264,-3.5642767455803637,-1.30508387294638,58.32110297251492,-5.541128406090291,249.36953484407493,58.910026670311744
581,-6.41566304629829,-249.15610277913916,-3.6066760756157006,-1.3700546296507468,58.346518314138194,-5.531392231612974,249.30831756129746,58.925057251996066
582,-6.451733682175227,-249.10074233895483,-3.6489594702612735,-1.4670644640927981,58.38515479981956,-5.526657527605831,249.25425792069964,58.95695806941954
583,-6.482542864545684,-249.0532487589595,-3.690254806525014,-1.5997274020669479,58.4370227085908,-5.526701404568003,249.2080382674047,59.00606298666607
584,-6.507407422943388,-249.01424810586187,-3.7296242283054757,-1.7710612986266705,58.50205291644954,-5.531123669033156,249.17025859893334,59.0725879688453
585,-6.525661001449462,-248.98427251976645,-3.766073615846943,-1.9833821845957615,58.58007648019796,-5.5393508680682455,249.14141954082658,59.156608026861605
586,-6.536669955603328,-248.96374428989034,-3.7985685463801215,-2.238229627766873,58.67080604964018,-5.550648019615115,249.12190716243873,59.25803713035383
587,-6.539851852519663,-248.95296116197164,-3.826056736080322,-2.5363273746737405,58.77382068892764,-5.564137591173493,249.1119793899293,59.37661263552151
588,-6.534695458306136,-248.9520827031095,-3.8474963205176045,-2.8775807631317862,58.88855530833036,-5.578824858170765,249.11175379367577,59.5118853482844
589,-6.520781004560808,-248.96111806290222,-3.861888540223867,-3.2611095806852615,59.01429548713731,-5.5936284247541215,249.12119701638267,59.66321587796515
590,-6.497799433896405,-248.97991606409556,-3.8683126574197844,-3.685312434479172,59.15017804764009,-5.6074144122672935,249.14011667850085,59.82977745376581
591,-6.465569339045311,-249.0081589747355,-3.865960442859877,-4.147956514870721,59.295197323487315,-5.6190326209137025,249.16815699948518,60.010564871280245
592,-6.424050575552328,-249.04536154305617,-3.8541674508205546,-4.646285028661052,59.448216678189816,-5.627352921235594,249.20479959880652,60.20440874622966
593,-6.3733540019923485,-249.09087696975496,-3.8324384936401943,-5.177133607568466,59.6079845495419,-5.631300306152405,249.2493710411417,60.40999387968058
594,-6.313747223958997,-249.14391133443232,-3.8004651642885103,-5.7370466542759395,59.773154185668254,-5.629887406768828,249.30105854493647,60.62588036587855
595,-6.245656352273162,-249.20354734480503,-3.758134073389557,-6.322384854836347,59.94230628166826,-5.6222437334582525,249.35893464729114,60.85052609940638
596,-6.169663675141763,-249.26877710461343,-3.705525788665795,-6.929415980025463,60.11397387380955,-5.607641321018936,249.4219904852331,61.08230953088335
597,-6.086501078773941,-249.33854221672695,-3.6429059300295146,-7.554382626387375,60.28666908222293,-5.585516743346685,249.4891760257629,61.31955187560235
598,-5.997039262674088,-249.41177836850912,-3.570710795997428,-8.193542624273384,60.45891158015243,-5.555489596023485,249.55944445001904,61.56053846844803
599,-5.902273231685844,-249.4874608406825,-3.4895299376265987,-8.843180278965853,60.62925890350318,-5.517377566521532,249.63179720933317,61.8035394667899
600,-5.803304981638181,-249.56464723673847,-3.4000874940697714,-9.49958918600344,60.796338782959104,-5.471208176914989,249.7053261234979,62.04683049015159
601,-5.701324565471026,-249.64251412063257,-3.303223325005354,-10.159029849957227,60.95888355248391,-5.417227216449822,249.7792492680483,62.28871398248926
602,-5.597590768086031,-249.72038498490568,-3.1998743499201323,-10.817667515427534,61.115766415716024,-5.355903792779853,249.85293811367487,62.52754209597794
603,-5.4934124195895615,-249.79774779829282,-3.0910560873623054,-11.471497281398912,61.266038993712215,-5.287931865315531,249.92593418780248,62.7617417399653
604,-5.390131038236289,-249.87426117267006,-2.977844042079232,-12.116264592075519,61.40896915548341,-5.214228136420745,249.9979542993429,62.98984211528205
605,-5.289105176315179,-249.94974896413498,-2.861354246517771,-12.747389586647277,61.544077660230194,-5.135926260160975,250.06888412891516,63.21050457808614
606,-5.191696531839952,-250.02418393504624,-2.7427220898164335,-13.35990360635154,61.67117165598811,-5.054367411569445,250.1387607971876,63.42255409668509
607,-5.099257437707996,-250.0976619148254,-2.6230788114722814,-13.94840542809453,61.79037265659361,-4.971087275200145,250.20774584515468,63.62501095555972
608,-5.01311881239345,-250.17036855589828,-2.5035257308717784,-14.507043579248725,61.90213636612817,-4.887799444493359,250.27609073457805,63.81712084010303
609,-4.9345773678453195,-250.24254114341562,-2.3851071538195905,-15.029529543462829,62.007261737274625,-4.806375093980268,250.3440973534329,63.99838112659018
610,-4.864881019886516,-250.3144279763357,-2.268783589168024,-15.50918494677034,62.10688694317308,-4.728818635493398,250.41207607966956,64.16856113520922
611,-4.80521192179913,-250.3862477082074,-2.1554072140274947,-15.939023964443086,62.20247043034524,-4.657238959730391,250.48030383189663,64.32771421072952
612,-4.756667084466496,-250.45815085130133,-2.0457014094873585,-16.31187021596058,62.29575585422579,-4.593815869278043,250.54898435003952,64.47617973410927
613,-4.720236976953895,-250.5301854858088,-1.9402457470446863,-16.62050539962561,62.388720513554006,-4.54076148372148,250.61821278051622,64.61457359156468
614,-4.696782814967399,-250.6022690856108,-1.8394672090153406,-16.857845027604423,62.48350792525735,-4.500276741715605,250.6879465004134,64.74376629373752
615,-4.68701354493591,-250.67416823539423,-1.7436378452345747,-17.017135019589418,62.58234635415773,-4.474503558594613,250.757983969902,64.8648488080782
616,-4.6914638246668,-250.74548779118626,-1.6528786521456111,-17.092161685122655,62.68745630163158,-4.465473594517358,250.82795317514677,64.97908712468427
617,-4.710474365275846,-250.81567059963072,-1.567169282445398,-17.077466812684435,62.800951058342385,-4.475054871267378,250.8973107860887,65.0878675276185
618,-4.744175615132377,-250.88400817140655,-1.486363150542258,-16.96855925736487,62.92473538316152,-4.504897671842294,250.96535243214694,65.19263546682585
619,-4.79247509906599,-250.94966184104223,-1.410207367117369,-16.76211464871538,63.060408099452076,-4.556381332498977,251.0312336321006,65.29483177275216
620,-4.855048227522048,-251.0116931924533,-1.338366599878017,-16.456155601756592,63.209174722063146,-4.630563721046274,251.09400015646244,65.39583055904555
621,-4.9313323202608235,-251.0691020006433,-1.270449538927632,-16.05020596538926,63.37177593746652,-4.728135369190393,251.15262606768144,65.49688328600958
622,-5.020523872938933,-251.12086958438746,-1.2060363895239583,-15.545413994952355,63.5484367648607,-4.849380337477965,251.2060573276,65.59907296448459
623,-5.121579559283615,-251.16600524955825,-1.1447058531002758,-14.94464074166004,63.738839627937416,-4.994145857220372,251.25325865187452,65.70328140741157
624,-5.233221926126981,-251.20359346329326,-1.086060272873515,-14.252511349446781,63.94212262406018,-5.161822535654338,251.2932612603513,65.81017099954735
625,-5.353950986281732,-251.23283950923053,-1.0297478188731177,-13.475428332270281,64.1569023115778,-5.35133640217418,251.32520928809544,65.92018095090947
626,-5.4820627902057515,-251.25311151055135,-0.9754807748355523,-12.62154724253429,64.38131862144978,-5.561153366350718,251.34840275706696,66.03353667971984
627,-5.615675541046994,-251.26397681269685,-0.923049310667828,-11.70071633114734,64.61309819764158,-5.789295864632825,251.36233510721192,66.15026996985092
628,-5.752763005163809,-251.2652308898351,-0.8723305618700737,-10.724382675411722,64.84963164048607,-6.033370707288453,251.36672344939427,66.27024689415896
629,-5.891194105507558,-251.25691728750832,-0.8232932065342182,-9.705467648034267,65.08805976866542,-6.290606458460791,251.36153004116375,66.39320016877988
630,-6.028776977657502,-251.23933762550087,-0.7759979466063398,-8.65821444875542,65.32536409572847,-6.557898103313645,251.34697398757862,66.51876257942033
631,-6.1633055379593085,-251.21305128234567,-0.7305944623785545,-7.598009807325001,65.55845717901475,-6.831856321884277,251.3235327567971,66.64649838510196
632,-6.292606632286058,-251.17886500332216,-0.6873156362056347,-6.541181136900511,65.78426926574303,-7.108858498093564,251.2919337116844,66.77593014721599
633,-6.414585942967124,-251.1378132648734,-0.6464701310822559,-5.504769705355416,65.99982862032417,-7.385098720502135,251.25313644180645,66.90655920497919
634,-6.527270999831117,-251.09113072135497,-0.6084346553037437,-4.506280120750369,66.20233390574333,-7.656634461917702,251.20830716704506,67.03787890594613
635,-6.628849923210689,-251.0402183742148,-0.5736473407188112,-3.563406793685388,66.38921784391496,-7.919428264172816,251.15878679569158,67.16938055532361
636,-6.717704924099746,-250.98660521401962,-0.5426035699689926,-2.6937390256872464,66.55820200374954,-8.16938349230658,251.10605433143112,67.30055276659535
637,-6.792440019725669,-250.9319070579925,-0.5158552772159717,-1.9144477387716288,66.70734294889603,-8.402373975440726,251.05168730001702,67.43087542492577
638,-6.851902856773832,-250.87778419936876,-0.49401413662079413,-1.2419582745697615,66.83507013339944,-8.614268077492508,250.99732076909658,67.55980977920053
639,-6.895200992626027,-250.82589930882162,-0.4777581611465556,-0.6916149058120058,66.94021590541536,-8.800948420752945,250.94460637525953,67.68678626976444
640,-6.92171337775943,-250.77787684084248,-0.46784036141211693,-0.2773436116102458,67.02203787777594,-8.958329084387906,250.89517260442733,67.81119167655785
641,-6.931097913480019,-250.73526508504278,-0.46509764579235974,-0.011320242992381229,67.08023389088427,-9.082372559723254,250.85058746998274,67.93235717390654
642,-6.923295754609514,-250.69950192244897,-0.4704581607634678,0.09634853591628056,67.11494990816452,-9.169109021182319,250.81232465114604,68.04954898316461
643,-6.8985325971008535,-250.67188516668665,-0.4849455517145031,0.03792413053906927,67.12678144074683,-9.214660557780222,250.78173396302728,68.16196351923502
644,-6.85731668923238,-250.65354805274163,-0.5096789429433288,-0.19169255934511645,67.11676944596549,-9.215272914694982,250.76001669895857,68.26872918376391
645,-6.800432878201827,-250.64544006659077,-0.5458677046908599,-0.5947242906126639,67.08639201432143,-9.167357037524472,250.74820600447086,68.36891719688327
646,-6.728931786030802,-250.64831295553472,-0.5948003182478889,-1.1703221205407448,67.03755346481145,-9.067542326557417,250.7471520826599,68.46156399220631
647,-6.644113220702581,-250.66271142588917,-0.6578269537039116,-1.914418152814588,66.97257263204405,-8.912743011678117,250.75751169901213,68.5457076449038
648,-6.547503104364418,-250.68896776988547,-0.736335796722654,-2.8196325270096723,66.89417210983889,-8.70023841574188,250.7797411981424,68.62044050889351
649,-6.440823574000293,-250.72719960030736,-0.8317236434912545,-3.8752401802848166,66.8054699960633,-8.427767022649116,250.81409219962254,68.68497967409903
650,-6.325956564645652,-250.77731007024371,-0.9453616952930962,-5.067202166101699,66.70997527056653,-8.09363318855979,250.86060936612918,68.7387560191984
651,-6.20490200226807,-250.8389902869969,-1.0785577264734383,-6.378265350677759,66.61158739703625,-7.696824111652686,250.91912999901484,68.7815215975349
652,-6.079732412566882,-250.91172393324769,-1.2325158395720643,-7.788132962564563,66.51460013567562,-7.237133468942976,250.9892855439208,68.81347393107085
653,-5.952546070215834,-250.99479439090788,-1.408294905726063,-9.27370661078326,66.42370886991165,-6.71528709424951,251.07050538316517,68.83539449548917
654,-5.825420730841893,-251.0872949884769,-1.6067666795126017,-10.809397947446453,66.34401995250967,-6.133065276582567,251.16202361937638,68.84879723115691
655,-5.700369581199183,-251.18814326414488,-1.8285746636363323,-12.36750514099877,66.28105973313387,-5.493415693934296,251.26288982376866,68.85608137904902
656,-5.57930045292912,-251.29610015450436,-2.074095069556686,-13.918645877727261,66.24078017529304,-4.800550664962585,251.37198473534215,68.86068145603048
657,-5.463978768523991,-251.40979472278858,-2.3434014272280863,-15.432235032963748,66.22955738130177,-4.060022330748403,251.48804159548268,68.86720584365243
658,-5.355994323336519,-251.5277545570862,-2.6362343304781883,-16.876991933240127,66.25417891646364,-3.278769569438685,251.60967331411032,68.88155431548581
659,-5.256731964351224,-251.64844139646178,-2.9519775364362024,-18.221459832779523,66.32181555609765,-2.465130863395383,251.7354050908166,68.91100396993045
660,-5.167346493204053,-251.77029082571877,-3.2896414327938737,-19.434519339434345,66.43997302586848,-1.6288179730415482,251.86371140500975,68.9642526759947
661,-5.088742570394892,-251.89175401703093,-3.647854903020436,-20.485878300843865,66.61641955465973,-0.7808461443128478,251.99305544164918,69.05140953029601
662,-5.021560775403007,-252.01133876248952,-4.024866748140386,-21.34652309185654,66.859085661062,0.06658230357657013,252.12192829984662,69.1839231413114
663,-4.96617102418023,-252.12764678653807,-4.418557833571816,-21.989120126894733,67.1759335316331,0.9002428097917373,252.24888508112284,69.37444083432878
664,-4.922674241441716,-252.23940461854994,-4.826464890529629,-22.38836138418172,67.57479456991031,1.7061020817905779,252.3725752361471,69.63659498922436
665,-4.89091275153342,-252.34548592867918,-5.245816419267851,-22.52125319867563,68.06317515267484,2.4695789072603604,252.49176515284606,69.98471642411059
666,-4.870489472627072,-252.4449239777204,-5.67358047967241,-22.36735283946941,68.64803227420404,3.175849266232129,252.6053516929992,70.43347866152247
667,-4.86079568495295,-252.53691364194657,-6.106523422070442,-21.908961741043434,69.33552252108589,3.8101911897324774,252.71236616896516,70.99748069293896
668,-4.8610468623773855,-252.62080334252383,-6.541277955427885,-21.131287169907743,70.13072961732367,4.358363355802571,252.811969094218,71.69077920724833
669,-4.870325832970471,-252.69607810583608,-6.974418465764387,-20.022585251404468,71.037377525414,4.807010051372533,252.90343691218817,72.52638399987909
670,-4.8876323523210585,-252.76233579057214,-7.402541193303285,-18.57429756997499,72.05753769480793,5.144083841096637,252.98614269344765,73.51573236979037
671,-4.911937879131263,-252.8192589834456,-7.822346775714487,-16.78119116401868,73.19134041457257,5.359276054592727,253.05953323683354,74.66815974776222
672,-4.942243802837307,-252.86658497749806,-8.230722802935311,-14.641508040318785,74.43670123702282,5.444444026923563,253.12310490634093,75.99038460202718
673,-4.977640718228018,-252.90407576431357,-8.624824327586582,-12.157125806725528,75.78907401394844,5.394022920009407,253.17638004007947,77.48602587358704
674,-5.017365876875308,-252.93148948166763,-9.00215056799535,-9.333726174758308,77.24124224512705,5.205408974018916,253.21888526440355,79.15517089950778
675,-5.060855815664271,-252.94855440594822,-9.360616234210921,-6.180963450875491,78.78316024701883,4.8793002975233195,253.2501326784081,80.9940110989241
676,-5.1077912723190595,-252.95494625880693,-9.69861601861086,-2.7126212488773045,80.4018551168117,4.419980930824869,253.26960453666635,82.9945616550971
677,-5.15813173714439,-252.95026929302125,-10.01508088144769,1.0532570270655155,82.08139956136685,3.8355340113527725,253.2767417371856,85.14448000392117
678,-5.2121373781426,-252.93404141824286,-10.309524870947527,5.094279569300805,83.80296441031687,3.1379705033280563,253.27093620507753,87.42699615588744
679,-5.270376636735681,-252.9056835123656,-10.582081342490822,9.383674700411644,85.54495812262162,2.343261175028195,253.2515271397286,89.82096579269466
680,-5.333718439693565,-252.86451293674634,-10.833527524730794,13.890330071297145,87.2832588764693,1.4712613382134676,253.21780095867695,92.30105469278364
681,-5.403308618365091,-252.80974105375554,-11.065296380089132,18.578913178855103,88.99154289198106,0.545520285057095,253.16899454504147,94.83806027781061
682,-5.480530776262647,-252.74047420807352,-11.279474747255717,23.410080218091473,90.64171045109724,-0.4070296848046898,253.10430107367725,97.39937285478221
683,-5.566952537028332,-252.65571723343842,-11.478787095279644,28.34077617628768,92.20440864548078,-1.3565063285928676,253.02287732305751,99.94957542574998
684,-5.664258796514686,-252.55437825243385,-11.666564885000891,33.32462482000354,93.64964720494498,-2.2706305018869424,252.92385113654433,102.45117676622431
685,-5.774174188201191,-252.4352735169266,-11.846702148416188,38.31240313923433,94.94750084187976,-3.1153930435114656,252.80632771775737,104.8654678978594
686,-5.898377372429316,-252.29713127140278,-12.023598139730682,43.25259116697723,96.06888841524012,-3.8558252926251257,252.66939369158078,107.1534872271932
687,-6.038409992599468,-252.1385939281754,-12.202087894669534,48.09198508014621,96.98641589817261,-4.4568590261774945,252.51211816201285,109.27707466523769
688,-6.1955832661804005,-251.9582180960655,-12.387361564454265,52.77635924625769,97.67526664254873,-4.88425774351112,252.33355024467352,111.19999017617363
689,-6.370885208064944,-251.75447223002183,-12.584873636700756,57.25116150169872,98.11411884441809,-5.105597523361154,252.1327127835828,112.88906767459453
690,-6.56489138516801,-251.52573190635812,-12.800243630202884,61.46222544877015,98.28606662942448,-5.091272223280786,251.90859221820787,114.31537132370069
691,-6.777681859494339,-251.27027289478377,-13.039150460666471,65.35648383860261,98.1795180843363,-4.815494784935711,251.66012476184108,115.455318394605
692,-7.008766643270734,-250.98626223915971,-13.307223195043523,68.88266797525553,97.78904114358075,-4.257264081827168,251.38617912489644,116.29173115508058
693,-7.257021728202386,-250.67174764613728,-13.609931042665393,71.99197937026273,97.11612675837486,-3.401265274019104,251.08553613580375,116.81477994812894
694,-7.5206377503735995,-250.3246458271189,-13.952475020890535,74.63872152039293,96.16983847353248,-2.2386711650729016,250.75686599123523,117.02278087978232
695,-7.797083542614021,-249.94273095727533,-14.3396830095909,76.78088161652276,94.96731859393627,-0.7678127393424012,250.39870441855456,116.92281447493237
696,-8.083086840025045,-249.52362481178648,-14.775909335517303,78.38065412201038,93.53412358009635,1.0053110203096887,250.00942945890768,116.53113623160557
697,-8.37463398095787,-249.06479025485416,-15.264939819600286,79.40490040080923,91.9043650279595,3.06671080202888,249.58724071639216,115.8733559951997
698,-8.666989694343211,-248.56352962429486,-15.809903177231309,79.82554091476216,90.12063729272927,5.394294632567793,249.1301427982268,114.98437019279062
699,-8.954737258520973,-248.0169892854579,-16.41318954903914,79.61987895946297,88.23371824711765,7.957982741707741,248.63593440768977,113.90803893118152
700,-9.231838626963809,-247.42217137378034,-17.076376824740347,78.77085740350591,86.30203563848852,10.720060520548646,248.10220430837245,112.69660849270663
701,-9.49171357162092,-246.7759535764498,-17.800165519680274,77.2672522102634,84.39089787394568,13.635773279891646,247.5263352380974,111.40988849426729
702,-9.727336444933066,-246.07511759219892,-18.584323307824516,75.10380825440626,82.57149462819757,16.65415857611392,246.90551668485182,110.1142013976225
703,-9.931348748507146,-245.3163865285405,-19.427640718216967,72.28132362016976,80.91967921297821,19.719103421327766,246.236767107029,108.88112958212413
704,-10.09618534480857,-244.49647109700732,-20.3278997389274,68.80668782456841,79.51455094478148,22.77060516494707,245.51696582397312,107.786091291795
705,-10.214211970664028,-243.61212428642528,-21.28185708398737,64.69287716402773,78.43686159398655,25.746206821515738,244.7428946593301,106.90678112358431
706,-10.277871759812594,-242.66020415096207,-22.285243860216035,59.95890684972728,77.76727522287933,28.582570666459166,243.91128942228934,106.32151325943899
707,-10.27983865337959,-241.6377441107557,-23.332783543114026,54.62973521566713,77.5845152199943,31.217148332069357,243.01890113353423,106.10750653066147
708,-10.213175736629646,-240.54202957474425,-24.41823044831961,48.736110677268755,77.96343612014584,33.589901512169945,242.06256637090488,106.33915003956086
709,-10.071496650831072,-239.37067888663285,-25.534430948834782,42.31434804829248,78.97306097565956,35.64502476180625,241.03928532317823,107.08628702535803
710,-9.84912829179652,-238.12172574274587,-26.673409309612403,35.40601806604114,80.6746277427489,37.332620776274695,239.94630525681487,108.41255352552731
711,-9.541272966743946,-236.7936994775846,-27.826479179761126,28.057533131069718,83.11969040946266,38.61027892978895,238.78120625870022,110.3738075283174
712,-9.144167983245998,-235.3856991132981,-28.984380670085706,20.319613629489293,86.34832235148077,39.44450971561819,237.54198548257258,113.01668383949789
713,-8.655240332393145,-233.89745691903374,-30.13744176973944,12.246622762942458,90.38747050254325,39.811991050460186,236.22713581275966,116.37730965659063
714,-8.073253806554938,-232.3293874027984,-31.27576166656435,3.8957633372574483,95.24950911478726,39.700587152544664,234.83571484893864,120.48021550205222
715,-7.398445578859911,-230.68261809741395,-32.38941217894809,-4.67386291585986,100.93104083631921,39.11010673814349,233.3674003300672,125.33747518009012
716,-6.632648857137628,-228.95899919060724,-33.4686519089437,-13.402324629385783,107.41199025274487,38.05277435006263,231.8225285313419,130.94810619586355
717,-5.779397605315896,-227.16109002309878,-34.504146084647125,-22.23004083995286,114.65503075275282,36.5533963805396,230.2021128391757,137.2977580876598
718,-4.844008543485176,-225.2921217381246,-35.48718368465098,-31.099044581708334,122.60537954008254,34.64921136405611,228.5078406718976,144.35870998327857
719,-3.8336348785392445,-223.3559368227792,-36.40988251169737,-39.95429363754192,131.19098784657228,32.38942199621782,226.74204810959432,152.09019017624473
720,-2.7572857084117635,-221.35690781004297,-37.265372467823525,-48.744983499176655,140.32314395164875,29.834413789152364,224.9076729225968,160.43901963143236
721,-1.6258050110264317,-219.29983891152176,-38.047947433850354,-57.42581029776291,149.89749558906001,27.054672139940504,223.0081880718031,169.34056840555633
722,-0.4518047869398909,-217.18985573210279,-38.753176898821664,-65.95812609977767,159.79548592985728,24.129415823149422,221.04751912437544,178.71999970757142
723,0.7504516618889356,-215.03228935391675,-39.377969804050984,-74.31092619839616,169.88618390070994,21.14497057633476,219.02995027395946,188.49376175918763
724,1.9652184153171433,-212.83256184452242,-39.920585052898986,-82.46160852030579,180.0284756467681,18.192911653556152,216.96002468195712,198.57127404542942
725,3.175487703775947,-210.5960805765339,-40.380586021409236,-90.39644955152492,190.07357026944965,15.368009127113778,214.84244565335163,208.85674342682069
726,4.363261117756577,-208.32814862605414,-40.7587401945123,-98.11074953853753,199.86776054388793,12.766014446167738,212.68198571679363,219.25103826905703
727,5.509867896705371,-206.03389793518963,-41.05686916664548,-105.60861199699525,209.25536906419947,10.481331372741113,210.4834108584894,229.6535461195339
728,6.59632492858189,-203.71825087341412,-41.27765777574704,-112.90233814780488,218.0818028362296,8.604618894502886,208.25142675249,239.96394276907117
729,7.603730689071112,-201.38591434811207,-41.42443354378969,-120.0114348428592,226.19663517139534,7.220377962839962,205.9906527485394,250.08380752958226
730,8.513682833365051,-199.04140879207526,-41.500928958754734,-126.96125372612126,233.45663314183102,6.404577739023662,203.70562773965102,259.9180307316547
731,9.30870693362973,-196.6891323139597,-41.511039754346676,-133.78129865120763,239.7286519537168,6.222380203079185,201.400850025452,269.37597410821405
732,9.97268217957892,-194.3334581169942,-41.45859231994489,-140.50325659809943,244.89232411543503,6.726024223060348,199.08085102332515,278.3723618932832
733,10.491248835593124,-191.97886102796528,-41.347132634876125,-147.15882338757297,248.84248053465433,7.952931195230532,196.750300213612,286.82789883768
734,10.852182045864023,-189.63006676683915,-41.17974769448852,-153.77740837965246,251.49125177761763,9.9240937849384,194.41413619961085,294.66962953402594
735,11.045717430309415,-187.29221570402103,-40.95892840731084,-160.38381125772557,252.76980976206897,12.642806780929671,192.07771654672922,301.83107015958205
736,11.064815874571764,-184.97103165316082,-40.68648043265399,-166.99596839703955,252.62972226527228,16.093794404896204,189.7469775175806,308.2521578479496
737,10.905357776338496,-182.67298599849835,-40.36348640403939,-173.6228659383896,251.04390401897135,20.24278147550599,187.42859420148767,313.87907344253495
738,10.566260460955158,-180.40544814729842,-39.99031968200709,-180.26271158149427,248.00715826034792,25.036546511840637,185.13013185906678,318.6639997332819
739,10.04951621887546,-178.17681461651944,-39.5667066547543,-186.90144761909502,243.5363111435708,30.403483112297824,182.86018030468927,322.5648791814434
740,9.360152086641756,-175.99661063101203,-39.09183200463345,-193.51167446127403,237.66994836793978,36.25468183276867,180.62846447985376,325.54523265860485
741,8.50611573258869,-173.87555976612964,-38.56447935361792,-200.0520376652108,230.46776888654816,42.485528577380606,178.44592584437095,327.5740941549353
742,7.498094403722891,-171.82561895617275,-37.98319822961435,-206.46711318612577,222.0095748943972,48.97779769731565,176.32477084590658,328.6261062017862
743,6.349275761340745,-169.85997812005573,-37.34648732418195,-212.68780606250695,212.39392079493717,55.60219935511167,174.27848452470732,328.6818074557852
744,5.075060523162552,-167.99302551546504,-36.65298354555476,-218.63225787423445,201.736446787096,62.22132236912099,172.32180907101838,327.7281281040669
745,3.6927371073809763,-166.24028134362925,-35.901646415466836,-224.20723895262665,190.16792524501562,68.6928969730964,170.47068852133359,325.75909116737444
746,2.221128107993972,-164.61830280527946,-35.091927944793184,-229.30998341362263,177.83205027528487,74.87328777465342,168.74218151113115,322.7766993023651
747,0.6802178972440229,-163.14456380907532,-34.223919347342196,-233.83040947411874,164.88300293155527,80.62111630538358,167.154344209345,318.79196848532786
748,-0.9092296002454443,-161.83731218265282,-33.29846787428958,-237.65365481301097,151.48282688090384,85.80090519780906,165.72608560333614,313.8260532740298
749,-2.5260539738528296,-160.71540682421173,-32.31725949221843,-240.6628473251222,137.79865221069136,90.2866323342776,164.47699741349007,307.9113944143552
750,-4.149073613962761,-159.7981368553032,-31.282865667193988,-242.74202567151255,123.99980881239352,93.96508341240924,163.42716105420095,301.0928094202001
751,-5.757445548688625,-159.10502448563093,-30.19875479180475,-243.77912156439263,110.25487550944578,96.73889536419982,162.5969341121654,293.4284411742453
752,-7.331003502106815,-158.6556129476601,-29.069270708171775,-243.6689165402419,96.72871670974075,98.52919098376681,162.00671874416267,284.9904789638765
753,-8.850569273098683,-158.46924043264025,-27.89958242006354,-242.3158896412275,83.57956442311844,99.27771688903012,161.67671417552293,275.8655706165411
754,-10.29823385935959,-158.564800387514,-26.69561049176905,-239.6368783348601,70.9562091945108,98.94841236612561,161.62665505694093,266.1548530572692
755,-11.657605885826419,-158.96048784738477,-25.463936720068034,-235.56348250007406,58.99536784012909,97.52835534216375,161.87553683242564,255.97354095315225
756,-12.9140257930982,-159.67353087160646,-24.211704278657013,-230.04414983856535,47.81929784027985,95.02805305231276,162.44132864891844,245.45002834272114
757,-14.05474492513729,-160.719905874501,-22.94651544816766,-223.0458902771008,37.533727115202005,91.48106797362404,163.34067392530858,234.7244755553395
758,-15.069069254726367,-162.1140358252121,-21.676333039561193,-214.55557671793244,28.22616331214105,86.94299318817593,164.5885786183332,223.94687277151831
759,-15.948468107506319,-163.86847091527048,-20.40938971178657,-204.58080006129123,19.96463853917864,81.4898144114652,166.19808747953545,213.27459194765382
760,-16.68664882450617,-165.99355236308205,-19.15410700173833,-193.1502581333567,12.796933759311974,75.21571747867559,168.17994925329265,202.8694603540866
761,-17.27959866388639,-168.49706163605526,-17.919023654565716,-180.31367129441546,6.75031212140267,68.23041925657671,170.54227297829442,192.89441139386534
762,-17.725595293610134,-171.38385951234991,-16.712731173286294,-166.14123200699643,1.8317730087159387,60.65611599692175,173.29017935193377,183.50979106172932
763,-18.025187023822163,-174.65552186084943,-15.54381340303915,-150.72261096604075,-1.9711804633412358,52.62415537455069,176.42545329015343,174.86942022232887
764,-18.18114360269039,-178.30998154084415,-14.42078620342587,-134.16555760142666,-4.689287122570855,44.27154619352281,179.94620610257127,167.11653222108208
765,-18.198378076865556,-182.3411882543837,-13.35203264472669,-116.59414674136791,-6.369831603365742,35.73742249690774,183.84655793538874,160.37972037858475
766,-18.08383996530797,-186.73880039142688,-12.345728663309165,-98.14673489154825,-7.074567825704534,27.159576444148755,188.1163531798576,154.76903900162202
767,-17.84637981730519,-191.4879246956254,-11.409753912914024,-78.97369811277838,-6.877337306699165,18.671167057785965,192.7409232207339,150.37240347260467
768,-17.49658511356057,-196.56892067455425,-10.551583000966714,-59.235028437151996,-5.861468339639934,10.397700210536145,197.70091196603616,147.25242918277567
769,-17.046587465945922,-201.95728681257307,-9.778153750223792,-39.097867100624185,-4.1170497100993995,2.4543595670932756,202.97217982853363,145.44383564161654
