time,ax,ay,az,gx,gy,gz,accmagnitude,gccmagnitude
0,-11.047884837985539,-248.01813146602743,-33.173699679618494,51.446310742052844,15.816940785755742,-13.957438714049948,250.47222062153548,55.63842646524894
1,-10.9988838719418,-247.90234407591268,-33.21062473121445,51.15781136709711,15.707634455799115,-13.563691413776718,250.36307129120422,55.253091781367054
2,-10.947156977645296,-247.7857179885514,-33.23213093613092,50.859216148378366,15.607318050297474,-13.175898140044625,250.25083635102763,54.861646607215484
3,-10.893342000111657,-247.67004312527123,-33.23970686575679,50.5527260694823,15.51782957887227,-12.797975832494888,250.13749066995447,54.4674194570394
4,-10.838082460992569,-247.55708857079418,-33.23495769896049,50.24069941237717,15.44080972770648,-12.4336753140699,250.02500572337073,54.07379660183192
5,-10.782009641542214,-247.44856607988686,-33.21956022382392,49.92564795179658,15.377650388673299,-12.086506127118492,249.9153071812162,53.68419073373474
6,-10.725728130748255,-247.34609618261268,-33.195219843566385,49.61023706515244,15.329447241865047,-11.759668161366072,249.81023542546572,53.30201624047049
7,-10.669805563398189,-247.25117757789428,-33.1636305532778,49.29728996041707,15.296957894206594,-11.455992331851906,249.7115098230057,52.93067214877195
8,-10.614766630612861,-247.165160246425,-33.12643856937944,48.98979608037566,15.280566980624561,-11.17789228030757,249.62069726461246,52.57353355372475
9,-10.561090753391644,-247.0892224573154,-33.085210055408226,48.69092350778421,15.280259477525005,-10.927328599040626,249.53918517234828,52.233951967303334
10,-10.509212297683687,-247.02435177291767,-33.04140319473279,48.40403485174262,15.29560329681152,-10.705786475322572,249.46815906663414,51.91526450058804
11,-10.459521993586007,-246.97133031293072,-32.99634476447853,48.132705672397755,15.325742038649466,-10.514267010716871,249.40858492094833,51.62081119276484
12,-10.412368292324528,-246.93072470397323,-32.951211355629994,47.88074406745453,15.369398562014847,-10.353291875812902,249.36119669950125,51.35395919337229
13,-10.368057685966827,-246.90288108391496,-32.9070153575769,47.65220966575118,15.424889749887823,-10.222920496041525,249.32648942742136,51.118131960763066
14,-10.326853410877769,-246.88792522815783,-32.864595738139975,47.451429978132985,15.490152471471982,-10.122778651735846,249.30471785036613,50.91684118256235
15,-10.288972311708324,-246.88576744878398,-32.82461353084693,47.2830118233676,15.562780277510697,-10.052097148301577,249.29590032758458,50.75371872165137
16,-10.25457988808555,-246.89611152815814,-32.78755182387069,47.15184535624604,15.640069878227333,-10.009758975041182,249.2998272100747,50.63254552666671
17,-10.223783744856016,-246.9184666933221,-32.75372003674967,47.06309811889406,15.719076051238009,-9.99435311982463,249.31607270751368,50.557274187380706
18,-10.196625930908096,-246.95216159105956,-32.723262471269244,47.0221965997898,15.796673337801975,-10.004233025846444,249.34400923767967,50.53204176584184
19,-10.173075003578028,-246.996359398755,-32.6961713910133,47.03479306314888,15.869622660220237,-10.037577606699172,249.38282347570808,50.56116972934158
20,-10.153018963140378,-247.05007355726838,-32.67230493057055,47.10671587828366,15.934640813211102,-10.09245272072948,249.43153368718728,50.64914821133154
21,-10.136260260445352,-247.11218406095207,-32.6514098457111,47.243902169617385,15.988470692730534,-10.16687098796448,249.48900833680182,50.80060237312661
22,-10.122513797793133,-247.1814546455451,-32.6331485947965,47.45231225066644,16.027950164335778,-10.258847837194251,249.55398628417592,51.020239280606134
23,-10.111408364488378,-247.2565513861675,-32.61712962785982,47.73782595424978,16.05007763569321,-10.366451767754548,249.62509894771003,51.31277441701735
24,-10.102491579062795,-247.33606306315303,-32.60293916682589,48.10612165262432,16.052072651859298,-10.487847040651449,249.70089457214192,51.68283774812076
25,-10.095238317946745,-247.418523274385,-32.59017232403168,48.56253954625262,16.031430122822137,-10.62132736071179,249.77986429997767,52.134860184738585
26,-10.089062620627118,-247.50243386665483,-32.57846125657795,49.11193171025288,15.9859670698961,-10.765339529053692,249.86046932525306,52.67294234448124
27,-10.083332880178327,-247.58628900127363,-32.567498252079574,49.75850236190406,15.913861038538364,-10.918496496517676,249.94116817085057,53.3007086326527
28,-10.07738973850785,-247.66859917684582,-32.5570521731427,50.505642759471755,15.813679608396034,-11.079579718233706,250.02044319123,54.02115076450522
29,-10.070565777939365,-247.7479147830507,-32.546977455690204,51.35576598049054,15.684400762968725,-11.247531180837893,250.09682573806293,54.83646586437454
30,-10.06220604053949,-247.8228490439242,-32.53721565654142,52.31014747901424,15.525424246851461,-11.42143591205569,250.16891981074895,55.747895116300754
31,-10.051688559261017,-247.89210030819402,-32.52779016911267,53.368777708702815,15.336574389124596,-11.600496144187336,250.23542419972566,56.75556950765811
32,-10.038444299005686,-247.95447354795851,-32.51879511069504,54.53023316382026,15.118095139497084,-11.783998566285957,250.29515309350504,57.85836942125801
33,-10.021976134330005,-248.0089007601582,-32.51037958477398,55.7915719169732,14.870638205633247,-11.971276289834202,250.3470549889901,59.05380466780525
34,-10.001876746069634,-248.05445977953013,-32.50272858864939,57.14825914373978,14.595245225866908,-12.16166732903402,250.39022957721633,60.33792105059603
35,-9.977845528840716,-248.0903907914988,-32.496041825973606,58.594127262426426,14.293324945923871,-12.354471598665635,250.42394206243188,61.70523878853272
36,-9.94970463813669,-248.11610961808364,-32.49051166474408,60.1213742262929,13.966626452389692,-12.548908644907714,250.44763415498053,63.148727145726724
37,-9.917414138376511,-248.1312167335901,-32.486301459423935,61.72060221489873,13.617209655831692,-12.744078496073241,250.46093085173297,64.65981844220796
38,-9.881085915224991,-248.13550103677463,-32.483525380878774,63.380897501360536,13.24741439219092,-12.938928089398598,250.46364216583382,66.22846325029079
39,-9.840995638277791,-248.12893771299696,-32.4822307605212,65.08995069183545,12.859829673294014,-13.132225637071967,250.45575924193858,67.84322705696694
40,-9.79759163177288,-248.11168002616455,-32.482383806535005,66.83421499932321,12.457264659037197,-13.322545005177215,250.4374447634826,69.49142711605742
41,-9.751499160917685,-248.08404543688212,-32.48385942809986,68.59909891571718,12.04272270181599,-13.508261715019534,250.4090180846519,71.15930678657773
42,-9.703518565455166,-248.04649689960826,-32.486435792919345,70.36918870568752,11.619379228251693,-13.687561608226218,250.3709359563315,72.83224347710764
43,-9.654615934876936,-247.99962050471285,-32.489794106745414,72.1284955852783,11.19056330142532,-13.858462616387081,250.3237700175549,74.49498544094888
44,-9.60590551496257,-247.9441007947832,-32.49352390073798,73.8607222320883,10.759741638227707,-14.018849477862172,250.26818237755631,76.13191210574925
45,-9.55862364186324,-247.88069504480313,-32.49713381349921,75.5495433244686,10.330502934007736,-14.16652065643161,250.20490055777478,77.72731234841127
46,-9.514094643338995,-247.81020756985794,-32.500067504727554,77.1788949591823,9.906539847477113,-14.299246145588082,250.1346928178399,79.2656750244587
47,-9.473689713960049,-247.73346490662547,-32.5017240570802,78.73326780733431,9.491626094086936,-14.41483429316212,250.05834465849603,80.73198592155494
48,-9.438780126562964,-247.65129271833501,-32.50148205606057,80.1979985324095,9.089586799785117,-14.51120524878509,249.97663728876904,82.11202493280967
49,-9.410686306048428,-247.5644954956495,-32.49872637129356,81.55955326345013,8.704261406349561,-14.586468140954503,249.8903290506262,83.39265656544073
50,-9.390624496693675,-247.47384034257,-32.492876389240244,82.8057959262921,8.339459684728817,-14.638998692718294,249.80014098421722,84.56210600641181
51,-9.379653180017668,-247.38004609911255,-32.48341412954128,83.9262332762939,7.998912492958042,-14.667513738754565,249.7067476582888,85.61021210304109
52,-9.378621882922603,-247.28377871023082,-32.46991047002706,84.91222792932241,7.68621961258134,-14.671139038194786,249.61077404488546,86.52864813693799
53,-9.388125192201063,-247.18565326250098,-32.452047715900875,85.75717091165865,7.404797252828243,-14.649466927156793,249.51279874235536,87.31110153159416
54,-9.408464514332167,-247.08624263982708,-32.42963703082001,86.45660645899794,7.1578276732904795,-14.602600747247799,249.41336341005803,87.95340486733323
55,-9.43961956207123,-246.9860923245606,-32.40262981761562,87.00830402036486,6.948212956601875,-14.531183559513039,249.31298790894633,88.45361281979773
56,-9.481230950875673,-246.8857404536377,-32.37112288971152,87.41227550984969,6.7785343861539396,-14.43640931803107,249.21219030321058,88.81202273750826
57,-9.532594787617581,-246.7857418166198,-32.3353579637713,87.67073944812348,6.651018235631283,-14.320015435574485,249.11151052790294,89.0311401960679
58,-9.592669799469538,-246.68669405436958,-32.29571640618564,87.78803723843824,6.567508116369798,-14.184256595104372,249.01153613850232,89.11559452826292
59,-9.660097359230882,-246.58926389409132,-32.25271022351073,87.77050987373973,6.5294434443029665,-14.031860747034637,248.91292813330358,89.07201249066449
60,-9.733234537192745,-246.49421087400313,-32.20697004568192,87.62634538138244,6.537843202537449,-13.86596935195841,248.8164444161945,88.9088603891114
61,-9.81019981870245,-246.40240571888833,-32.159230419753676,87.36540791281422,6.593294071261036,-13.690064892594688,248.72295810432732,88.63626575826626
62,-9.888930300009969,-246.3148404288382,-32.11031236269039,86.99905840326484,6.69594215730405,-13.507889360268564,248.63346771302898,88.26582887932635
63,-9.967248166115589,-246.23262743423766,-32.061103062851345,86.5399742743272,6.84548787449836,-13.32335777635348,248.5490964966437,87.81043212099186
64,-10.042933308401928,-246.15698600260015,-32.01253280014754,86.00197217044318,7.041183864966486,-13.140470802996115,248.47107903591578,87.2840517177416
65,-10.113798273288248,-246.0892153529279,-31.965549260134765,85.39983388798615,7.281836110637859,-12.963230096992659,248.40073440495516,86.70157281036052
66,-10.177761523465737,-246.03065529626593,-31.921089336104924,84.74913221123782,7.565808534238803,-12.795559309399856,248.33942657804823,86.0786050985481
67,-10.232915327471272,-245.98263633939354,-31.88004848702647,84.0660509319384,7.891031443143731,-12.64123265436648,248.2885138516436,85.4312939270635
68,-10.277585338472713,-245.9464219536706,-31.843247984692624,83.36719227498254,8.255014138551497,-12.50381189413803,248.24928987846988,84.77612043984264
69,-10.310379763021468,-245.92314624064525,-31.81140084292468,82.66936534290653,8.654861891464412,-12.386591543589336,248.22291952827786,84.12968466854296
70,-10.330226733987875,-245.9137506314749,-31.785077616632165,81.98935076300518,9.087297272984616,-12.292551258579708,248.21037326868003,83.50846683361807
71,-10.336399126018355,-245.91892346833276,-31.764673559726774,81.3436390172161,9.548685545330734,-12.224313908108225,248.2123640292577,82.9285642994225
72,-10.328526689101555,-245.93904621209015,-31.75037898984096,80.74814255153112,10.035063538217667,-12.184107796221172,248.22929048099445,82.40540415284927
73,-10.30659597462863,-245.97414961895396,-31.742155028501905,80.21788450839028,10.542171233663797,-12.17373179713922,248.26119033676497,81.95343407456103
74,-10.270938980095679,-246.0238826405455,-31.739716805229882,79.76666976772103,11.065485212039093,-12.194522637396174,248.3077067143736,81.58579699397052
75,-10.222211758647267,-246.08749611742405,-31.742525623365523,79.40674685578051,11.600253188952165,-12.247324108442097,248.36806987205313,81.31399789294228
76,-10.161364521471196,-246.1638425998318,-31.749790814712213,79.14847197876098,12.14152909886484,-12.33245860881732,248.4410958126848,81.147573848535
77,-10.089605031872805,-246.25139284332002,-31.760481392700452,78.99998864908572,12.684208531744655,-12.449702066449031,248.5252024021158,81.09378067273606
78,-10.008357263476693,-246.3482686943751,-31.77334718003682,78.96693779201787,13.2230647225326,-12.598263870156815,248.61844276558787,81.15731099424045
79,-9.919217233467009,-246.45229127512835,-31.786948722944278,79.05221362948,13.75278562244054,-12.776773818404532,248.71855487006044,81.3400590878579
80,-9.823907594229944,-246.5610426788857,-31.799694952611194,79.2557799272456,14.268012767169608,-12.983278204794285,248.8230254446985,81.6409470646922
81,-9.724232161219403,-246.67193875719656,-31.809887247988126,79.57455936316613,14.763382676024408,-13.215246984517977,248.92916570923694,82.05582518898984
82,-9.622031308869433,-246.7823099271884,-31.81576837133608,80.00240595169144,15.233571402913844,-13.469593518873399,249.03419570417682,82.57745621688052
83,-9.519139081378611,-246.8894863641929,-31.81557473140108,80.53016689745816,15.67334266593769,-13.7427077635648,249.135333458801,83.19559002859621
84,-9.417342747726254,-246.99088372512892,-31.807590536445314,81.14583628593776,16.07759970328944,-14.030503090641572,249.22988502900128,83.89713079792638
85,-9.318345289250093,-247.0840857440442,-31.790202515310035,81.83479896598156,16.441440613174713,-14.328476307227708,249.31533163756265,84.66639482433682
86,-9.223731044561845,-247.16692046885427,-31.761953860713863,82.5801590551757,16.76021648648953,-14.631779873444176,249.3894105589589,85.485453167852
87,-9.134934603854363,-247.23752738043217,-31.72159580936397,83.36314385751376,17.02959126228325,-14.935304826120186,249.45018682084142,86.33454954793167
88,-9.053213139524349,-247.29441311710798,-31.668134899083114,84.16357077289582,17.245602037998896,-15.23377249484123,249.4961132249726,87.1925807625807
89,-8.979622654993742,-247.33649407973914,-31.600873608255817,84.96036214039727,17.404718589294582,-15.521832766547806,249.52607670260733,88.03762429910742
90,-8.914998940136158,-247.36312486275392,-31.51944197400042,85.73209099667618,17.50390106913797,-15.794166447692852,249.5394296785578,88.84749594325748
91,-8.85994409039979,-247.3741122199869,-31.423818055707827,86.4575395249095,17.540655166498166,-16.045589233023943,249.53600591116057,89.60031911016591
92,-8.814819173414534,-247.36971501503874,-31.314335760363694,87.11625158561851,17.51308426790206,-16.271154903119868,249.5161210840885,90.27508735055592
93,-8.77974316903236,-247.35063115015097,-31.191679390594103,87.68906118960285,17.4199382514965,-16.466255554476614,249.48055905922567,90.85220201769053
94,-8.754597938326581,-247.3179727060325,-31.056865126566784,88.15858004102294,17.260658413622433,-16.62671684995818,249.43054503403886,91.31396834348192
95,-8.739038799471588,-247.27323052231404,-30.911210427115222,88.50962919481312,17.035417771795984,-16.748886455401983,249.36770693855755,91.64503503568822
96,-8.732510201372193,-247.218229377764,-30.75629298877881,88.72960222329466,16.745155769227456,-16.829713987635294,249.29402641796432,91.83276479329855
97,-8.734265891512756,-247.15507491861976,-30.593901406328328,88.80874983149499,16.391606321163856,-16.86682089550292,249.21178079567946,91.86752562066742
98,-8.743392879396511,-247.0860935461816,-30.4259800539598,88.74037837978628,15.977318134632876,-16.858558704787523,249.12347751505692,91.74289527553071
99,-8.758838440296465,-247.01376656408857,-30.254570950792147,88.52095716399775,15.505666163255269,-16.804054014931314,249.0317826707464,91.45577349464612
100,-8.779439414890732,-246.94065999196465,-30.081755412995857,88.15013165519662,14.980852853264228,-16.703238614443126,248.93944534698792,91.00639888886684
101,-8.803953145951478,-246.86935161517533,-29.90959804961652,87.63064243653679,14.407897542815792,-16.55686315051506,248.84921961077006,90.39826982278154
102,-8.831089514075295,-246.80235705504856,-29.740095133456645,86.9681525033694,13.792612124117523,-16.36649297231398,248.76378615754567,89.63797142272047
103,-8.859543617494047,-246.7420568244751,-29.5751286809887,86.17098898564335,13.141561017674086,-16.134485054341162,248.68567570226594,88.73491418112005
104,-8.88802862108545,-246.6906263967069,-29.416426893655803,85.2498090759961,12.462003753973828,-15.86394527651475,248.61719618645856,87.70099333041954
105,-8.915308166523635,-246.64997126270652,-29.265531130837115,84.21720366624815,11.761819035423065,-15.558665799256401,248.56036575646743,86.55018192475153
106,-8.940227560211818,-246.62166886983107,-29.12376937484834,83.08725543081202,11.049409986158384,-15.223042894124625,248.5168533532987,85.29807393130821
107,-8.96174282750301,-246.60691929016772,-28.992236147142307,81.87507036191658,10.333591259977009,-14.861976469796543,248.48792870294767,83.96139612433379
108,-8.978946676035571,-246.6065064204311,-28.871778904666606,80.59630273362505,9.623459640645917,-14.480753666057387,248.47442345306257,82.55750885861409
109,-8.991090471761963,-246.62077136296682,-28.7629909404899,79.26669307306453,8.928250640300027,-14.08492010526452,248.47670504888166,81.10391575319332
110,-8.997601536076425,-246.649599312742,-28.666210681398958,77.90163706386396,8.257184302545925,-13.680143448120377,248.49466460865486,79.61780099039744
111,-8.99809538136966,-246.69242077476295,-28.581527116464787,76.51580059267238,7.619303876308784,-13.272074600423792,248.52771955351247,78.11561046776482
112,-8.992382794754826,-246.74822730348234,-28.508790971150177,75.12279259855713,7.023311228955411,-12.866212148048056,248.57483111681836,76.6126896250304
113,-8.980471905944713,-246.81560128663625,-28.44763103344222,73.73490328716869,6.477402880774081,-12.467775342098257,248.63453618319082,75.12298669721426
114,-8.962565582995182,-246.8927587236283,-28.397474665188845,72.36291101575881,5.989110461493784,-12.081590281696073,248.7049923107269,73.65882582997601
115,-8.939054657206192,-246.97760355772638,-28.35757122874555,71.0159571765165,5.565149268512241,-11.711992961287821,248.78403437820256,72.23075039552532
116,-8.91050743507782,-247.0677918763106,-28.327017222042986,69.70148509306547,5.211278456773966,-11.362751703343262,248.869241063643,70.8474333780585
117,-8.877655671904938,-247.16080410166992,-28.30478232379027,68.42523657663561,4.9321762152524835,-11.037010330344888,248.95800920679665,69.51564915617276
118,-8.84137687397213,-247.254023116026,-28.289736044546455,67.19129847527626,4.731333120744106,-10.737252346544857,249.0476339748865,68.24029952517603
119,-8.802672743139725,-247.34481608398258,-28.280675059256698,66.00219120029328,4.610966755886647,-10.465285467644236,249.13539261184542,67.02448629882964
120,-8.762643839604118,-247.43061750441416,-28.276351470772482,64.85899158028533,4.5719606192728115,-10.222245115595532,249.21862934908336,65.86962306973098
121,-8.722460942184696,-247.50901073352605,-28.275502131918646,63.76148315479192,4.613830229608956,-10.008615012860973,249.29483876620955,64.77557936991647
122,-8.683333958198212,-247.57780496998643,-28.276878709602357,62.70832785513768,4.734718992200474,-9.824262729643076,249.3617446028043,63.7408512265252
123,-8.64647953649408,-247.635104619424,-28.279277587083524,61.69725367476632,4.931425757093589,-9.668487901519791,249.417370893962,62.76275268668615
124,-8.613088748879107,-247.67936816847268,-28.28156830512434,60.725253285357894,5.199465014993217,-9.540080812301241,249.46010247854124,61.837623167188944
125,-8.584296241631987,-247.70945423007493,-28.28271929410036,59.78878864745079,5.533159371162032,-9.437389113983738,249.48873246649907,60.961045505175
126,-8.561152029911261,-247.72465314296352,-28.28182011257839,58.883996631857876,5.925762413555711,-9.35839060098349,249.50249501426435,60.12806947765499
127,-8.544596606860857,-247.72470319224504,-28.27809998561452,58.006890630708405,6.369608536269607,-9.300770101406572,249.50108248529207,59.33343543017087
128,-8.535439409075218,-247.7097910812526,-28.270942819007743,57.15355315206273,6.856284896142959,-9.261998630819118,249.48464665406274,58.5717925589095
129,-8.534340206117154,-247.68053685467171,-28.25989893365027,56.320314518590024,7.376819611071169,-9.23941299076566,249.45378416943907,57.83790639284781
130,-8.54179291800622,-247.63796416962094,-28.244693560350417,55.503913131691824,7.921879634392616,-9.230294061695293,249.40950716139875,57.126850248589996
131,-8.558111717411071,-247.5834575815545,-28.225231774407334,54.701633398495254,8.48197153434353,-9.231942162401957,249.35320061363507,56.434175984265686
132,-8.58341979267805,-247.51870920058627,-28.201599211592068,53.91141831773356,9.047638727205463,-9.241747972886287,249.28656878981982,55.756060242220954
133,-8.617641539403218,-247.44565755242755,-28.174057818160975,53.13195473559659,9.609649513873224,-9.257257609187421,249.21157347990606,55.08942340327203
134,-8.660499071966239,-247.36642165874323,-28.143036178122582,52.36273025160414,10.159171375171784,-9.276230528929739,249.130367048083,54.43201950918124
135,-8.711513831403812,-247.28323316955868,-28.10911455178034,51.60406158943976,10.687928153114669,-9.296689081035744,249.04522314501546,53.78249633476898
136,-8.770013785433006,-247.19836888773932,-28.073005398923144,50.85709492452517,11.188337786951308,-9.316958712690628,248.9584675204831,53.140425556612875
137,-8.835146303854607,-247.11408546990515,-28.0355305814617,50.12377915396053,11.653629081023116,-9.335698122225226,248.87241085452777,52.506303532910565
138,-8.905896308085275,-247.0325577293036,-27.997596534674727,49.40681338936124,12.077936540030006,-9.351918987877928,248.78928516237403,51.88152355943048
139,-8.981108890203028,-246.95582182916385,-27.960168545532223,48.70957011692524,12.45637266066363,-9.364995243967304,248.71118515956206,51.26832066187954
140,-9.059515414662751,-246.88572460071117,-27.92424501258379,48.035995656018855,12.785077300663655,-9.374662120658531,248.6400158809105,50.669690174007386
141,-9.139762149364705,-246.8238801686526,-27.89083226313159,47.39048991416076,13.061243961350321,-9.381005252807922,248.57744776047736,50.08928169648321
142,-9.220440611055675,-246.77163500727107,-27.860920245066417,46.777768080603074,13.283123113611222,-9.384440145235097,248.52488029330922,49.5312706590097
143,-9.300118945494772,-246.73004242314062,-27.83545929566017,46.20270783719046,13.450003126814286,-9.385682305912063,248.48341526243618,49.000210671519234
144,-9.377373726545734,-246.69984715604292,-27.81533827314049,45.67018677875988,13.562169914089717,-9.385708545348969,248.4538402210514,48.500871058856134
145,-9.450821540860824,-246.68148026517045,-27.801364559207823,45.18491578571776,13.620847006656318,-9.385710267476993,248.436622421281,48.0380651747924
146,-9.519149692178509,-246.67506384916305,-27.794246619446014,44.75127483951605,13.62811832698231,-9.387039948419496,248.4319127854934,47.616476019869424
147,-9.581145373661274,-246.68042465282636,-27.794579739050455,44.37315809296159,13.586836415874124,-9.391152363916119,248.4395590186488,47.24048620987581
148,-9.635722686667627,-246.6971153334874,-27.802835229999193,44.05383486506189,13.500519292040684,-9.399542472424184,248.4591266501114,46.914019423573066
149,-9.681946875360282,-246.7244419929,-27.81935308655055,43.7958326111701,13.373239468793082,-9.413682162523,248.48992659282484,46.64040007475198
150,-9.71905514759261,-246.76149640427252,-27.84433796995059,43.600846836650064,13.209508866797979,-9.43495828843816,248.5310476214561,46.42223708910569
151,-9.746473546879972,-246.80719122700884,-27.877858480613465,43.46968144523521,13.01416338424289,-9.464614506952389,248.58139204569545,46.26133635577298
152,-9.763829474758706,-246.86029657510673,-27.91984973251684,43.40222128320333,12.792250681638233,-9.5036993601638,248.63971293726976,46.158644778767275
153,-9.770959513964591,-246.91947667028796,-27.970119162263096,43.3974368716096,12.548924320099566,-9.553022807581922,248.70465162287275,46.11422707433284
154,-9.76791220784238,-246.98332585090648,-28.028355291358725,43.453419755581905,12.289346817093135,-9.613123017358362,248.77477466664305,46.12727479690078
155,-9.754945584542718,-247.05040367201943,-28.094138916096792,43.567445733274944,12.018603522995408,-9.684244726991754,248.8486100045954,46.19614573954877
156,-9.732519522270376,-247.11926900011747,-28.166956063146333,43.736062525094916,11.74162853689832,-9.766329928148648,248.924682057929,46.31843093605837
157,-9.701283374513594,-247.18851286091584,-28.246212048393964,43.95519813585579,11.46314322016282,-9.859021057231253,249.00154552275546,46.49104594495605
158,-9.66205944335432,-247.25678952254523,-28.33124597631494,44.22028608471731,11.187607260985123,-9.961676326147273,249.0778172695609,46.71034278190784
159,-9.615822893577194,-247.32284507221843,-28.421344939299498,44.52640365540842,10.919181707258423,-10.073396355344151,249.15220555791214,46.97223863258403
160,-9.563678643942279,-247.38554265225605,-28.515757162550045,44.86841924223461,10.661702939848777,-10.193060884258399,249.22353567901652,47.272357225715275
161,-9.506835734456084,-247.44388360963896,-28.613703539598358,45.241144713908334,10.41866623857666,-10.319373984853314,249.29077124826998,47.606178453077185
162,-9.446579661551098,-247.49702409558932,-28.714387333058486,45.63948853049407,10.193217425670909,-10.450915845531636,249.3530306866397,47.96919152750153
163,-9.38424318905653,-247.54428700964152,-28.817002066973213,46.058605192822434,9.98815105515286,-10.586198827967591,249.40959881260545,48.357046732823484
164,-9.321176167708666,-247.58516943053158,-28.920737707855334,46.494036518084656,9.80591372543998,-10.72372515039905,249.45993371921932,48.765700677336504
165,-9.258714919674969,-247.61934575671853,-29.024785169988505,46.94184022308009,9.648611290209526,-10.862043259352633,249.50366918269344,49.19154991967514
166,-9.198151812576695,-247.64666676647084,-29.128339124065953,47.39870136714575,9.518018984469313,-10.999799827560649,249.54061283211072,49.63154791754099
167,-9.140705810611857,-247.66715474015643,-29.230599172967587,47.8620224257709,9.415593717138446,-11.13578449444823,249.5707402613174,50.08330053769506
168,-9.087494969402556,-247.68099466799896,-29.330769673681257,48.32998824175845,9.342487970334105,-11.268964987372637,249.59418518031623,50.54513596582691
169,-9.039511865167807,-247.68852148441175,-29.4280586650933,48.80160291842814,9.29956487972005,-11.398511049912004,249.61122564518777,51.01614583115068
170,-8.997602756719875,-247.6902033556657,-29.521676420949174,49.276696903051054,9.287414158888055,-11.523806553583322,249.62226648938196,51.49619571669772
171,-8.96245097249381,-247.68662131684758,-29.610834178932194,49.75590402188085,9.306368585394422,-11.64445018487707,249.6278183365375,51.985904908766074
172,-8.934564716435336,-247.67844588416384,-29.694743679322894,50.24060994658538,9.356520796427779,-11.760246037166187,249.6284738984564,52.48659709699684
173,-8.91426925599532,-247.66641150741918,-29.77261823553948,50.73287525251066,9.437740166309005,-11.871186120072505,249.6248824971576,53.00022549801786
174,-8.901703334638315,-247.65128979468665,-29.84367610388837,51.235337542188866,9.549689585834054,-11.977427134576093,249.6177238130686,53.52927720764262
175,-8.896819662709285,-247.63386236228393,-29.90714690803438,51.751097727188636,9.691842045313626,-12.079263887533948,249.60768177821697,54.07666218813469
176,-8.89938940059378,-247.6148940532258,-29.96228173930261,52.28359528235694,9.863497006762652,-12.177101514100258,249.59541940927974,54.64559198467918
177,-8.909010486267247,-247.5951072661266,-30.008367199132064,52.836476132147304,10.063796594981257,-12.27142828967988,249.58155533283448,55.239452065838115
178,-8.92511942855961,-247.5751582835116,-30.044743074434695,53.41345509973304,10.291741641043021,-12.362790272711893,249.56664283030756,55.86166989101954
179,-8.94700597333557,-247.55561665206585,-30.07082268000807,54.01817306334928,10.546207616638492,-12.451768373017648,249.55115231275602,56.51557893790074
180,-8.973830036495094,-247.53694867736192,-30.086114388414668,54.6540476810827,10.825960551630056,-12.538957789220932,249.5354580880474,57.20427754197611
181,-9.004640423760101,-247.51950594503947,-30.09024269602604,55.324116179860034,11.129673147284114,-12.624949257233128,249.5198301193567,57.93048094208547
182,-9.03839494803258,-247.50351960623172,-30.08296736405678,56.0308694610457,11.455941452982113,-12.710311333567002,249.50443132676898,58.69636560825886
183,-9.073981583536122,-247.4891010260159,-30.064199537880903,56.77607867291657,11.803302573867704,-12.79557302379762,249.48932088885243,59.503406759246545
184,-9.110240360255931,-247.47624916440182,-30.034014078801683,57.56061824670125,12.1702537847884,-12.881206358415746,249.4744638133275,60.35221272925722
185,-9.14598583181393,-247.46486459226355,-29.992657555578944,58.38429273802496,12.555273049139664,-12.967608882135883,249.45974661056076,61.24236304146078
186,-9.180030055458953,-247.45476937448302,-29.940551442644452,59.245678023332054,12.956840333159583,-13.055086376254884,249.4449982526376,62.17226006812124
187,-9.211206007972999,-247.44573139228564,-29.878290134449358,60.14198981232916,13.373458456152601,-13.143836437225856,249.4300149510643,63.13900639182775
188,-9.23839124046772,-247.43749124800647,-29.806633573987803,61.068993503989155,13.803671728145709,-13.233933735116542,249.41458687784402,64.138320928933
189,-9.26053147063173,-247.42978976698524,-29.726494708045163,62.02096877941795,14.246080415429649,-13.325317816874216,249.3985248722372,65.16450621575726
190,-9.276663806047077,-247.4223941676779,-29.638922475981836,62.990739902613676,14.699349168920717,-13.417784196540348,249.3816852896485,66.210476931341
191,-9.285939325967673,-247.41512107364593,-29.545081309024877,63.969778706834695,15.162207937249997,-13.510979240302165,249.36399128332073,67.26785597321455
192,-9.287644705170617,-247.40785471014803,-29.446228000261033,64.9483821531732,15.633444549028273,-13.604399093446638,249.3454489606397,68.32713969262794
193,-9.281222396919997,-247.4005589811494,-29.343686450667448,65.91592078451615,16.111889057206028,-13.697392702664802,249.32615715675865,69.37792883994409
194,-9.266288644683382,-247.3932826742687,-29.23882053603997,66.86114901408979,16.596390997476664,-13.789168913376358,249.3063100745965,70.40921695956906
195,-9.242648366634846,-247.38615768103983,-29.133005427603184,67.77256355125907,17.08579173169382,-13.878807644037309,249.28619267727038,71.40972386949433
196,-9.210305876653312,-247.3793907374504,-29.027598138746505,68.6387928290903,17.578894799392877,-13.965275188548905,249.2661693831149,72.3682588049956
197,-9.16947052793844,-247.3732497055318,-28.923908589331646,69.44899838512038,18.074437529923575,-14.047443707882362,249.24666719507948,73.27409605997596
198,-9.120556634779646,-247.36804574393673,-28.823172695540435,70.19326887475606,18.571067048586272,-14.124114919827338,249.2281547602956,74.11734563639475
199,-9.064177354904471,-247.36411282148234,-28.726528731017158,70.86298859445718,19.067323312809073,-14.19404792783888,249.21111894464795,74.8893023904787
200,-9.001132580325043,-247.36178600219233,-28.63499764648326,71.45116469347343,19.561631030164598,-14.255991112290292,249.19604043155064,75.58275914025144
201,-8.932391302122454,-247.3613798776866,-28.549467523865353,71.95270028176266,20.05230133221816,-14.308718031380586,249.18336975882553,76.19227183706808
202,-8.859069306175028,-247.3631684395379,-28.47068207490744,72.36460410130998,20.537543047753477,-14.351067261212798,249.1735051089422,76.71436793559174
203,-8.78240328536212,-247.36736753169643,-28.399233031995838,72.68613107946838,21.015482524421852,-14.381985979988995,249.16677301625225,77.14769231937416
204,-8.70372248491185,-247.37412082128054,-28.335556289107977,72.91885170448033,21.48419033285424,-14.400576874332003,249.16341295327823,77.49308837109642
205,-8.624418917297753,-247.38348999337163,-28.27993165318701,73.066651546963,21.941712870833058,-14.40614765668728,249.16356651983054,77.7536148311719
206,-8.545917079947856,-247.39544956108472,-28.232486015673402,73.13566521930393,22.38610678394885,-14.398262156056353,249.16727163237198,77.93450178519302
207,-8.469644034279435,-247.40988623813104,-28.193199622664423,73.13415147271348,22.81547413447741,-14.376791575382596,249.17446164801595,78.04305130250967
208,-8.397000692802585,-247.4266023317808,-28.1619149824186,73.07231784686341,23.22799634280871,-14.341964093487272,249.18496885128806,78.08848978564853
209,-8.329335175670982,-247.44532228615873,-28.13834795077329,72.96210418769098,23.621965118985013,-14.294410564729482,249.19853140426434,78.08177988748275
210,-8.267918979832428,-247.46570146773868,-28.122100693135604,72.81693437858914,23.995808910994786,-14.235203721446435,249.21480283766783,78.03539988189226
211,-8.213926325432624,-247.48733645048168,-28.11267634314391,72.65144485736676,24.348113782897826,-14.165888107490014,249.23336333080553,77.96309771034039
212,-8.168416545305698,-247.50977625423877,-28.109495121554747,72.48119708826106,24.677638042640638,-14.088498011906657,249.25373220627577,77.87962573030907
213,-8.132319078852058,-247.53253415132588,-28.111911543082385,72.32237934571054,24.983320327871386,-14.005560896371316,249.27538120379856,77.80046065314534
214,-8.10642065150877,-247.5550998158238,-28.119232278576455,72.1915012133764,25.26428120332396,-13.920084143115888,249.29774824929635,77.74151150578143
215,-8.091354406586339,-247.57695173887555,-28.130734251054452,72.1050824185495,25.519818617271902,-13.835523361561197,249.3202515867668,77.71881696059332
216,-8.08759089090752,-247.59756989568623,-28.145682512520892,72.079336282456,25.749397820087896,-13.755731027212962,249.34230419901786,77.74823231585191
217,-8.09543081707038,-247.6164486053647,-28.163347286741793,72.12984735063495,25.95263657399875,-13.684884939044073,249.36332837826154,77.84510595461064
218,-8.114999559009417,-247.6331094527377,-28.183019300275788,72.27124278761383,26.12928667422971,-13.62739686646101,249.3827702061489,78.02394536316248
219,-8.146243547619333,-247.6471141068468,-28.204022345449147,72.51685794381308,26.27921296004367,-13.58780276497756,249.40011365638532,78.29807380335761
220,-8.188929068240403,-247.65807684502863,-28.225722142611822,72.87839809557087,26.402371130895663,-13.570637018933622,249.4148940361689,78.67928046691746
221,-8.242644134874718,-247.6656765337119,-28.24753102186,73.36560052817056,26.498785804973114,-13.580294272387446,249.42671048813006,79.17746920775073
222,-8.306803940242824,-247.6696677428804,-28.268908526985392,73.98590356335919,26.56853037033732,-13.620883474667057,249.4352372666039,79.80031344864567
223,-8.380659988753852,-247.6698905830022,-28.289358513334886,74.74413149697845,26.61171026331989,-13.696079685218844,249.4402334575949,80.55292725789288
224,-8.463312655652697,-247.6662787257395,-28.308423557337605,75.64220640846872,26.628451273259234,-13.80897977420245,249.4415507003845,81.4375645490914
225,-8.553726686325216,-247.65886495127032,-28.325677595159128,76.67889913103117,26.61889417259721,-13.961968238542095,249.4391383515918,82.45335951678497
226,-8.650749033449523,-247.64778354668564,-28.340717808609458,77.84963205182973,26.5831963093836,-14.15659887367839,249.43304551763745,83.59612148390372
227,-8.753128365377979,-247.63326894981122,-28.35315687103764,79.14634572277762,26.521539820682882,-14.393497127548608,249.4234194558832,84.85819622453911
228,-8.859535517928224,-247.61565013052967,-28.36261654305112,80.5574396219367,26.43414504184699,-14.672286819255422,249.41049992403885,86.22840374656855
229,-8.9685841125472,-247.59534038899136,-28.36872314306506,82.0677951009135,26.321286811219416,-14.99154365991341,249.3946091899066,87.69205986272242
230,-9.078850596258771,-247.57282262990267,-28.371104844302213,83.65888590951968,26.183310978820817,-15.348776724066946,249.37613772935939,89.23108604792667
231,-9.188893160708908,-247.54863066320345,-28.369390467783532,85.30897897715289,26.02064862195702,-15.740437787578458,249.35552610604037,90.82420937642966
232,-9.297269382205164,-247.52332745835852,-28.363209573360834,86.99342550188193,25.83382614977402,-16.161957434696298,249.3332439314577,92.44725188489608
233,-9.402552836380554,-247.49748143131745,-28.352193948988127,88.6850398493343,25.623470440178032,-16.607806160746133,249.30976700465305,94.07350646367661
234,-9.503349145514681,-247.47164185759826,-28.335980781008754,90.35456119431221,25.39030920844239,-17.071578359824503,249.2855537723856,95.6741941832751
235,-9.598311828332726,-247.44631451206416,-28.31421780233492,91.97119015386264,25.135167820787373,-17.546097008710213,249.26102225376772,97.21899567278669
236,-9.686158067007554,-247.42193867448123,-28.28657062304375,93.50318983016444,24.858964611897257,-18.023536938271498,249.2365285886154,98.67664669992422
237,-9.765684270722259,-247.39886664678596,-28.25273226270386,94.91853776348844,24.562707294069224,-18.49556472772501,249.2123483434883,100.01558545664267
238,-9.835781201270809,-247.37734680602267,-28.21243465854238,96.18561244424632,24.24749313061468,-18.953493373361948,249.18866155487922,101.20463632950215
239,-9.895448416822642,-247.35751095713576,-28.165461714649208,97.27389546775161,23.914515138098434,-19.38844986642992,249.16554220618318,102.21371231652515
240,-9.943807803907633,-247.33936646817222,-28.111663309077468,98.154668385601,23.56507571098567,-19.791553546084124,249.14295253847288,103.01451598346847
241,-9.980115944699168,-247.32279347101428,-28.05096953873926,98.80168209284841,23.200607834407972,-20.15410251010629,249.12074238045633,103.58121722945346
242,-10.003775019128804,-247.30754727826385,-27.983404382377675,99.1917764813458,22.822702651262315,-20.467764554769246,249.09865353878294,103.89108550252232
243,-10.014341930543372,-247.29326604040205,-27.909097934491662,99.30542930653078,22.433140804682182,-20.72476828021685,249.0763291615258,103.92505477285447
244,-10.011535388443571,-247.27948354772823,-27.82829630888153,99.12721580244101,22.033923904171406,-20.918089315818882,249.0533278648899,103.66820165724423
245,-9.995240717629972,-247.26564700951533,-27.74136815107903,98.6461643818917,21.62730184412625,-21.041626166636693,249.02914232471537,103.11012049251947
246,-9.96551214449201,-247.25113959723555,-27.64880658112111,97.85599847802465,21.215791640696995,-21.09035999621504,249.003221974541,102.2451836186629
247,-9.922572304899608,-247.23530742803078,-27.551225555806322,96.75525982937803,20.802183951266635,-21.06049280909549,248.97499936087706,101.07268029284326
248,-9.866808824844641,-247.21749044304246,-27.449350158430118,95.34731382928922,20.38953444786559,-20.949559031815042,248.9439195501008,99.59683307924979
249,-9.798768054065212,-247.19705635139286,-27.344001015250885,93.64024250928773,19.981138660694448,-20.756506385140625,248.9094717878208,97.82669580618484
250,-9.719146284864964,-247.17343649275284,-27.236073647562897,91.64663494441834,19.580490648088304,-20.481743095515384,248.8712223751097,95.7759418607811
251,-9.628778938602899,-247.1461620714721,-27.12651394207585,89.38328807838586,19.19122760723291,-20.127149795030917,248.82884737664327,93.46255535637235
252,-9.528628226211291,-247.11489877366222,-27.016291028053427,86.87083297440353,18.817063973809027,-19.6960557836333,248.78216335047662,90.908440272313
253,-9.419769783898811,-247.0794775245174,-26.906368754860807,84.13330223952681,18.461719419544654,-19.193180540266276,248.73115402814557,88.13896388458356
254,-9.30337881409973,-247.039919270509,-26.797676848735758,81.19765393479486,18.128845351638915,-18.624542366077932,248.67599099179975,85.18245071796014
255,-9.18071625661711,-246.99645212382296,-26.691082874378523,78.09326589304932,17.82195405464289,-17.997336808050402,248.6170468521247,82.06964206742603
256,-9.053115396996537,-246.94951979167735,-26.587366323828554,74.8514123577778,17.54435357773551,-17.319788112030796,248.5549000296883,78.83313421071558
257,-8.921969103475822,-246.89978077202173,-26.487196312087956,71.50473264462015,17.299090075077086,-16.600977443201828,248.49033080510898,75.50680621131875
258,-8.788717624707003,-246.84809821625322,-26.39111430193966,68.08669951572472,17.088897888592484,-15.850651987378406,248.42430870186752,72.12524613345973
259,-8.654836630219718,-246.79552059475492,-26.29952296447859,64.63109344431693,16.91615652198342,-15.079019326891974,248.35797145401568,68.72318289845511
260,-8.521825011193872,-246.74325343591892,-26.21268178546465,61.17148808843153,16.78285294149059,-14.296531746280191,248.2925958840589,65.33493009988793
261,-8.39119194514345,-246.69262260380452,-26.13070949220074,57.7407521043962,16.690547383538,-13.513665410272077,248.22956114972033,61.99384789834854
262,-8.2644428373966,-246.64502995359015,-26.053592904252213,54.370572787501864,16.640341025565057,-12.740699628363016,248.17030514080685,58.731829506369344
263,-8.143063887873804,-246.60190277544294,-25.981201403788315,51.09100766834581,16.632844399471892,-11.9875016197842,248.11627533352856,55.578819476044984
264,-8.028505132937813,-246.56463911935649,-25.913305831747852,47.93007079065585,16.668146164720223,-11.263322309249514,248.0688760463595,52.56237167780801
265,-7.922161885480668,-246.53455172922466,-25.849600282364957,44.913360689338546,16.745782681634985,-10.576608713310172,248.02941463774994,49.707255236890695
266,-7.825354559603087,-246.51281373498367,-25.78972515390179,42.06373695374737,16.86470962790644,-9.934838359954936,247.99904959177698,47.03511662387484
267,-7.739306952545229,-246.50040931114805,-25.733290048448783,39.40105166735636,17.023277572601096,-9.344380807067497,247.97874352314668,44.56420549617528
268,-7.665123259068892,-246.49809211505575,-25.679895583369426,36.94194097328806,17.21921385203359,-8.81039058660128,247.96922379599857,42.30917072042417
269,-7.603764479852482,-246.50635351453988,-25.629153573675413,34.69968061051696,17.449613213380964,-8.33673479740306,247.97095270673606,40.28093133119513
270,-7.556025357884783,-246.52540165118165,-25.58070520939601,32.684107662887754,17.710939504323406,-7.9259572252894435,247.98410825576556,38.486625174697856
271,-7.522513319371258,-246.55515158803505,-25.534236951355172,30.901609149223216,17.9990402447465,-7.579279455245561,248.00857576064917,36.929635869117206
272,-7.503630961108307,-246.59522632973068,-25.48949410613294,29.35517658836198,18.309175317658998,-7.296638077977002,248.0439501301085,35.6096966686272
273,-7.499563411338258,-246.6449683139363,-25.44629228582833,28.044524323515336,18.6360603821586,-7.07675585493565,248.0895484492161,34.52306793933884
274,-7.510271476078469,-246.7034608727472,-25.404526854954355,26.96626812823101,18.97392503312475,-6.917243642752439,248.14443240583944,33.662783247076355
275,-7.53549097440032,-246.7695589789838,-25.364179927773215,26.114159378500204,19.31658523284418,-6.814728979318459,248.20743983980975,33.0189574778989
276,-7.574738163190538,-246.84192825262178,-25.325323901352643,25.479368859785893,19.657529088804147,-6.765006440559115,248.27722428826286,32.57914894024609
277,-7.62732072559752,-246.91909077083355,-25.28812040567014,25.050813149379437,19.990014607964504,-6.763204179258727,248.35230095008237,32.328766067157645
278,-7.692353508400279,-246.9994758188571,-25.25281405999333,24.81551555186476,20.307177594881402,-6.8039605225195885,248.43109713212107,32.2515082121567
279,-7.768778096898436,-247.08147339274177,-25.219721261353353,24.758992800616483,20.602147378889402,-6.881604217390607,248.51200499717325,32.32982915640046
280,-7.855385401985064,-247.1634880387143,-25.189215043828277,24.86565816078991,20.868167585796726,-6.990331940602884,248.59343429193316,32.54541134230367
281,-7.950840583070588,-247.24399054310007,-25.161707650455842,25.119231168411556,21.098718775789354,-7.124377042711963,248.6738627261091,32.87963854994098
282,-8.053709687716857,-247.32156512762285,-25.137632721159335,25.503144018759667,21.28763953231514,-7.278164110362107,248.75188184176503,33.31405476508941
283,-8.162487311711038,-247.39495017748553,-25.117428760279278,26.000934580410103,21.429242581182805,-7.4464447109987235,248.8262365591603,33.83079737117488
284,-8.27562448581991,-247.46307111474485,-25.101524841964387,26.596616172951702,21.518422783747674,-7.624410596886667,248.89585709881268,34.41299354998871
285,-8.391556031811472,-247.52506471431875,-25.09032869437365,27.275014652762174,21.550754335749552,-7.807781681607245,248.95988258408838,35.04510989489774
286,-8.508726830126895,-247.5802947483274,-25.08421675135543,28.022064076869842,21.522575053001514,-7.992867235611994,249.0176761658836,35.71324667056839
287,-8.625616659849568,-247.6283592157076,-25.083525567216647,28.8250533094528,21.431056057080475,-8.1765999502052,249.06883186633547,36.40536981173715
288,-8.740763350693179,-247.66908961274535,-25.08854402229301,29.67281737500646,21.274255463783835,-8.356543750867505,249.11317353927882,37.11147559041701
289,-8.852783946167257,-247.70254282718315,-25.09950587152036,30.55586907385175,21.05115498093949,-8.530877406136652,249.15074647956064,37.82368490161348
290,-8.96039355033792,-247.72898634049798,-25.116582369333145,31.466468311010637,20.761678799562965,-8.698356960172129,249.181802328693,38.53626634511068
291,-9.062421576643228,-247.74887752597039,-25.139874923763788,32.39862873719376,20.40669482068934,-8.858260755576582,249.20677804760797,39.2455896978343
292,-9.157825192517471,-247.7628379870033,-25.169407933995483,33.34806360937901,19.987998969174058,-9.010321318058416,249.22626990456115,39.950013870642735
293,-9.245699801864705,-247.77162411406883,-25.205122102458766,34.312075100322424,19.5082839239214,-9.154648658299148,249.24100367381962,40.649715815931266
294,-9.325286442093331,-247.7760952727509,-25.246868545784075,35.289393424844384,18.97109388497776,-9.291649578942048,249.25180247798482,41.34646885510836
295,-9.39597608973663,-247.77718112924765,-25.29440391353057,36.279973954345515,18.380766958348907,-9.421947326248599,249.25955379284972,42.04338037686562
296,-9.457311107880129,-247.77584950345977,-25.3473865367674,37.28476188786399,17.74236649302425,-9.546305415680777,249.26517700854717,42.7445998202966
297,-9.50898428087431,-247.77307588745438,-25.40537359613379,38.30543500115539,17.06160245964738,-9.66555874130598,249.26959269529237,43.45500837432539
298,-9.550835874436736,-247.76981550242502,-25.467819548236907,39.34413545660191,16.344743849783367,-9.780554214985413,249.2736944844956,44.17990192312028
299,-9.582848947311973,-247.76697853715197,-25.534076451435208,40.40320158554701,15.598523115605207,-9.892102257693013,249.27832428003046,44.92467842798215
300,-9.605142930749121,-247.76540898099177,-25.603397133493136,41.484909948220874,14.830033849017191,-10.000939588734097,249.2842513077865,45.69454016629291
301,-9.617965443779918,-247.7658671998121,-25.67494214667329,42.59123684332959,14.046623206011146,-10.107703031096523,249.29215524614298,46.494220067241834
302,-9.621682414563919,-247.76901614545096,-25.74779112653083,43.72364678747695,13.255780948885265,-10.212913524332532,249.30261339315805,47.32773978030455
303,-9.616766719760264,-247.7754109337553,-25.820958641534492,44.88291340777957,12.465027279888474,-10.316969177708692,249.31609162203006,48.1982051114362
304,-9.60378563262645,-247.78549148878793,-25.893414056861026,46.06897595319922,11.681801791924563,-10.420145924506679,249.33293878312847,49.10764225208237
305,-9.583387366307901,-247.79957793351238,-25.964104463069734,47.2808326048525,10.91335589133493,-10.522604123223118,249.35338414365071,50.05687615594216
306,-9.556286990024788,-247.81786835179153,-26.031979484109055,48.51647028329936,10.166651026444,-10.624399362811547,249.37753737522397,51.045450847108214
307,-9.523252075586559,-247.84043850320782,-26.096016871863828,49.772829881318174,9.448265002628077,-10.725495848467245,249.40539056914784,52.071590573808244
308,-9.485088573441288,-247.86724307059472,-26.155248086970236,51.045805722378354,8.764308533233406,-10.825781039769364,249.43682179326854,53.13220048560455
309,-9.44262744449582,-247.89811800139273,-26.208783287743298,52.33027819680086,8.120353904330457,-10.925080540329299,249.47159970980613,54.222905532867536
310,-9.396712320935018,-247.9327834414501,-26.255835154641034,53.620178409225836,7.52137718256196,-11.023172457905403,249.5093887017592,55.33812601260681
311,-9.34818799290536,-247.97084676102887,-26.295740816727932,54.90858282172848,6.9717147719729375,-11.119800516479412,249.54975392110606,56.471187170066685
312,-9.297889089486974,-248.01180539054852,-26.32798093715872,56.18783419812599,6.475034398826915,-11.214685139760485,249.59216584986885,57.614458437999836
313,-9.246628187806158,-248.05504964448053,-26.352194870752292,57.449682995974094,6.034319934789501,-11.307531617387337,249.63600440311748,58.75951563205602
314,-9.195182785951191,-248.0998662760487,-26.368190841052648,58.68544138291199,5.651869047853418,-11.398034423069133,249.68056317597933,59.89731741578095
315,-9.144281008559137,-248.14544398335894,-26.37595035692176,59.88614098513755,5.3293025610815565,-11.485876899296835,249.72505495824177,61.01838632338479
316,-9.09458644674828,-248.1908823398672,-26.375626528913322,61.0426857604735,5.067584461254487,-11.570725908247425,249.7686199583941,62.11298501457721
317,-9.046683028498578,-248.2352055816363,-26.367536362109245,62.14599305404928,4.867051508875058,-11.652221595856895,249.81033820132066,63.17128021827377
318,-9.00106112305912,-248.2773823648016,-26.35214731969702,63.18711858009433,4.727451237388886,-11.72996297062264,249.84924728052445,64.18348960506312
319,-8.958106103218645,-248.31635207650405,-26.330058499859128,64.15736422383125,4.647986826538739,-11.80349044965779,249.8843661242734,65.140010050377
320,-8.918090343965634,-248.3510576046377,-26.301976894852967,65.04837066708596,4.627367006675558,-11.872266852391714,249.9147247667408,66.03152891980149
321,-8.881169270265072,-248.3804837186555,-26.268689584977775,65.85219957528534,4.6638589234256305,-11.935658531315298,249.9393993967364,66.8491228041982
322,-8.84738174589152,-248.40369949658995,-26.23103322726962,66.56141219303056,4.75534185888589,-11.992918404553134,249.95755128888285,67.58435031181918
323,-8.816654877395276,-248.41990263895502,-26.18986253734515,67.16915239054374,4.899359879339125,-12.043172616086903,249.9684676606105,68.22934680384881
324,-8.788813125041337,-248.4284630487198,-26.146019508475103,67.66924219134336,5.0931717986008,-12.085412465687876,249.97160203753788,68.7769290568205
325,-8.763591383873122,-248.4289627359295,-26.100304979988262,68.05629643676914,5.3337972656055594,-12.118493162381874,249.9666113672984,69.22071660054088
326,-8.740651430606794,-248.42122902228755,-26.05345401808766,68.3258605541273,5.618058326804785,-12.141140831071388,249.953387011366,69.55527395818443
327,-8.719600898336262,-248.4053583101513,-26.006116414791883,68.47457163335788,5.9426164895991525,-12.15196898411915,249.93207700433254,69.7762744320813
328,-8.700013772351369,-248.3817283373738,-25.958843312075654,68.5003385889986,6.304006035993612,-12.149505315697024,249.90309758382963,69.88068181325227
329,-8.681451273703951,-248.35099764640918,-25.912080430792017,68.40253263251104,6.698664947071463,-12.13222916647183,249.86713273552834,69.86694195282848
330,-8.663481932265185,-248.31409172648065,-25.86616770755421,68.18217525354656,7.12296515283267,-12.098619354011232,249.825121149637,69.73517214096326
331,-8.645699710494668,-248.2721759399291,-25.821344509003527,67.84210808689924,7.573243842946185,-12.047211327620019,249.77823056827162,69.48733336416372
332,-8.6277392003621,-248.22661605194025,-25.777759194620753,67.38712794297032,8.045837274679066,-11.97666186966718,249.7278201693286,69.12736928236413
333,-8.609287093068652,-248.17892794926024,-25.735481737860436,66.82407104222555,8.53711797196012,-11.885818909483037,249.6753923927705,68.6612963409724
334,-8.590089361274567,-248.13071879417353,-25.69451831407782,66.16183284151816,9.04353549842578,-11.773793495297989,249.62253630098596,68.09723155370442
335,-8.569954058274151,-248.08362229310663,-25.654826999847213,65.41131328971767,9.561660131445393,-11.640030611726187,249.57086503766354,67.4453476899246
336,-8.54875032212957,-248.0392310190398,-25.616333836549494,64.58528150280578,10.088227790434786,-11.484375336221621,249.52195024470385,66.71774948430001
337,-8.526404804517966,-247.99902896289106,-25.578948513144812,63.69815851923299,10.620183616942757,-11.307130775860449,249.47725655391304,65.92826888325776
338,-8.502897029843856,-247.96432776465312,-25.542578937589898,62.765721896392655,11.154720917865326,-11.109104313285322,249.43807955521365,65.092182190817
339,-8.478255067060083,-247.93621025302986,-25.507144107747145,61.80474123268899,11.689311996262797,-10.89163898165754,249.4054908311761,64.22585711440213
340,-8.452552544576822,-247.91548475879486,-25.472585035485835,60.832558824297124,12.22172777254424,-10.656627364673486,249.380293511233,63.346342759379226
341,-8.425907669980402,-247.90265303692553,-25.438873956815126,59.86663402068702,12.750043938560088,-10.406506266453462,249.3629912124134,62.4709200258225
342,-8.398484582967464,-247.8978936029433,-25.406022425706844,58.924072863621696,13.272632504816581,-10.144231388149956,249.3537722375142,61.61663304557639
343,-8.370497010516122,-247.9010610355353,-25.374088874464874,58.02116588789414,13.788138802176212,-9.873232238964926,249.35250964191576,60.79982384229901
344,-8.342213792056018,-247.91170055915765,-25.343185778691073,57.17295642526692,14.295445096342233,-9.59734842289556,249.35877649047694,60.03569216456275
345,-8.31396545847634,-247.9290762236862,-25.31348592966794,56.3928595603239,14.793622795367172,-9.320749244704878,249.3718745593232,59.33790056096409
346,-8.28615074579017,-247.9522103183771,-25.2852268648426,55.69234836826791,15.2818756675695,-9.047839228112842,249.3908740080352,58.71824151824699
347,-8.25924173620009,-247.97993123709176,-25.2587124614148,55.08071961333344,15.759476559832352,-8.78315260677898,249.41466112113656,58.1863792421834
348,-8.233786278653309,-248.0109268143653,-25.234311005405253,54.56494612987674,16.225699980692518,-8.531240149264134,249.4419910523679,57.74967388016827
349,-8.21040650215585,-248.04380017353668,-25.212449495109304,54.14961805120126,16.67975280866395,-8.296551852740224,249.4715425772281,57.41309111779951
350,-8.189792621493858,-248.07712530342056,-25.193604306590466,53.836970209015945,17.120705459196348,-8.08331911623442,249.50197208266968,57.17919547904864
351,-8.172691754959935,-248.10949982625712,-25.178288527294583,53.62698863730511,17.547426154962416,-7.895440000150002,249.5319643011798,57.04822156829864
352,-8.159891944115131,-248.1395927548611,-25.167036305610193,53.51758539624298,17.958521476031553,-7.736371117890958,249.5602776469608,57.01821411488372
353,-8.152201862087438,-248.1661855191819,-25.160384624308183,53.504828086087066,18.35228698373087,-7.609029603301127,249.58578250404182,57.08522516254862
354,-8.150426861037163,-248.18820510841414,-25.158853072899525,53.58320857620201,18.7266721326111,-7.515708418385681,249.60749139738508,57.24355511193967
355,-8.155342178226697,-248.2047486730922,-25.16292241814333,53.74593464852047,19.07926358762671,-7.458007927902595,249.62458049772158,57.48602348296825
356,-8.167664368527046,-248.21509930273209,-25.173012976621646,53.985228398856385,19.407290285142995,-7.436786129330293,249.63640230469315,57.804255123720914
357,-8.188022304264507,-248.21873298397108,-25.189463985575816,54.29261630741924,19.707652216084057,-7.452129241475935,249.64248966524843,58.18896815591651
358,-8.216929266977743,-248.21531698290227,-25.212515360877067,54.65919782422722,19.97697326630388,-7.503343623361072,249.64255154416924,58.63025125952517
359,-8.254757679712943,-248.20470012513604,-25.24229331012966,55.075881956420744,20.211676864086584,-7.588969298063095,249.63646120002147,59.11781990711963
360,-8.301717860736927,-248.18689579247845,-25.278801062973677,55.53358438743444,20.408081883305094,-7.706814726072977,249.6242377398936,59.64124362755263
361,-8.357841780213334,-248.16205897291132,-25.321915465228123,56.02338072973977,20.56251526873669,-7.854011881246544,249.60602248312597,60.190138955946274
362,-8.422972214396825,-248.1304592093991,-25.371389529831106,56.53661432772713,20.671437091671,-8.027090073662638,249.58205199324084,60.75432510963926
363,-8.496757120016849,-248.0924515306438,-25.426860465357162,57.06495950308964,20.731573120771632,-8.222066335266856,249.5526298024336,61.3239415174393
364,-8.57864870626655,-248.04844737323248,-25.487862346618815,57.600443382873415,20.74004951076205,-8.434549609554999,249.5180987336834,61.88952823900154
365,-8.667906626036048,-247.99888733128657,-25.55384247112483,58.135431646383665,20.694523934235306,-8.659855546157765,249.4788155379107,62.442072237614035
366,-8.763604883952134,-247.9442174905912,-25.624180482551818,58.662585750745976,20.5933074473905,-8.893128432566709,249.43512949261284,62.97302450488552
367,-8.864642342526114,-247.884871076016,-25.698209398782573,59.174801337263176,20.43547158493051,-9.12946670353917,249.38736659353788,63.47429507977222
368,-8.9697569343784,-247.82125696591547,-25.77523762736841,59.66513931991624,20.22093563020702,-9.364048538618245,249.33582079677822,63.938234816784444
369,-9.07754375383637,-247.75375617325716,-25.854570871857742,60.12676229852661,19.950529737320824,-9.592254254025883,249.28075329976124,64.35761405778483
370,-9.186477133739329,-247.68272666387966,-25.93553268563844,60.5528891307167,19.62603059678817,-9.809782471263478,249.22240010727737,64.72560888056724
371,-9.29493668320156,-247.6085159705508,-26.017482516032963,60.9367795354326,19.25016756532859,-10.012757360159446,249.1609872283117,65.03580512423406
372,-9.401237100279882,-247.53148014415356,-26.09983043455999,61.27175844164296,18.826598501569432,-10.197824578514295,249.09675196997642,65.28222884156848
373,-9.503661421688493,-247.4520068649638,-26.182048230301362,61.551286567447015,18.35985585711413,-10.36223384558793,249.0299681252918,65.45940927944581
374,-9.600497264829478,-247.37054010135898,-26.26367700143067,61.76907967195409,17.855264815862917,-10.503906393372368,248.96097246062806,65.56247715269362
375,-9.690075482070647,-247.28760350892028,-26.34433170880314,61.91927442965712,17.318836427085923,-10.621485852015947,248.8901897423998,65.58729717731435
376,-9.770810382668346,-247.20381982258922,-26.423703276892628,61.99663442693313,16.75713968211357,-10.714371434243947,248.81815360306055,65.53062999031195
377,-9.841240344335494,-247.11992390635743,-26.50155874867381,61.99678592195919,16.177157243265583,-10.782732541228995,248.7455209340475,65.3903151701296
378,-9.900067395246843,-247.0367678793201,-26.577739816680943,61.91647017796089,15.586129941571103,-10.827504087659287,248.6730782137072,65.16546446082307
379,-9.946194231867043,-246.95531764004133,-26.65215985255198,61.75379758305287,14.99139515954851,-10.85036197055192,248.60173904906148,64.85665270221392
380,-9.97875706482712,-246.8766409381411,-26.724799421825352,61.50848840714196,14.400223864753148,-10.853678273161146,248.5325330137204,64.46609343543815
381,-9.997152672701722,-246.8018877632952,-26.795700294340598,61.18208576507009,13.819660539440678,-10.840456109708771,248.46658648360875,63.99778663060188
382,-10.001058233135181,-246.73226419296097,-26.864958149794077,60.77812788639319,13.256369770249982,-10.814244556406702,248.4050965703949,63.45762729072903
383,-9.990442929408724,-246.6690010001661,-26.932714384796153,60.30226880574032,12.716492944342432,-10.77903486085382,248.34929945334943,62.85346553862677
384,-9.965570838396957,-246.61331841332282,-26.999147493851016,59.762338785800964,12.205518361348087,-10.739139952973309,248.30043452935323,62.195110888534025
385,-9.9269950259525,-246.5663885751657,-27.06446440353508,59.16833798992503,11.728168071639821,-10.699060075659228,248.25970596138396,61.49427554166897
386,-9.875543106074993,-246.52929743177123,-27.12889198158713,58.53235910411925,11.288304813919805,-10.663338103705529,248.22824338344154,60.76445367995418
387,-9.812294855911164,-246.50300781323156,-27.192668846304958,57.86843683343698,10.888862415170545,-10.636408878712368,248.2070635522077,60.02073591350104
388,-9.738552844094908,-246.4883252052024,-27.256037648010743,57.19232452698868,10.531802758239579,-10.622447607155378,248.19703449378866,59.279560288046596
389,-9.655807321312388,-246.48586720642277,-27.31923813229743,56.52120062392491,10.218101765986491,-10.625222869148626,248.1988432182686,58.55840353274322
390,-9.56569671891467,-246.4960371547207,-27.382501365668872,55.87331011156747,9.94776574397541,-10.647959914897845,248.21296757502964,57.87541845230714
391,-9.469965034755015,-246.5190021306552,-27.446045397889378,55.26754864735906,9.719877967555808,-10.693219676795595,248.2396525333686,57.249025460403814
392,-9.370417332765676,-246.55467558750917,-27.510072375568242,54.722999270929726,9.532673816681609,-10.762798388492165,248.27889117883203,56.69746811195521
393,-9.26887465195098,-246.60270508361828,-27.57476679660182,54.25843358953908,9.383641263666664,-10.857651969125556,248.33041090531435,56.23834402892678
394,-9.167129725881939,-246.6624658222857,-27.640294262464057,53.89179092101753,9.269642212905698,-10.977848429261956,248.3936654748742,55.88812380453219
395,-9.06690493977746,-246.73306082656256,-27.70679979344769,53.63965015131326,9.187049126487802,-11.122550451760572,248.46783370443578,55.66167134403481
396,-8.969813920886374,-246.81332857744906,-27.77440465310755,53.51671002123556,9.13189061738482,-11.290028985411004,248.55182552422008,55.57177967874398
397,-8.877328111117649,-246.90185883033882,-27.843200833703303,53.5352941853364,9.099999351694954,-11.47770725710797,248.644296062112,55.62873659049429
398,-8.79074951607715,-246.9970170620348,-27.913242842863895,53.70489766195191,9.08715573972687,-11.68223322694048,248.74366819960113,55.83993442314943
399,-8.711190477428028,-247.09697756628807,-27.984536971553737,54.03179114682838,9.089221499344953,-11.899577313751196,248.84816366469855,56.209538193252975
400,-8.639560885061622,-247.1997646707643,-28.05702866564965,54.518698958847956,9.102258152745641,-12.125151268850228,248.95584222135915,56.73822541924057
401,-8.576562893653115,-247.30330099557057,-28.130589004399454,55.164564984565644,9.122626729954268,-12.353943409479808,249.06464799560226,57.423009824978436
402,-8.522692909075454,-247.40546118708937,-28.205001630355596,55.96441880637886,9.147066256202866,-12.580665076438935,249.1724615227729,58.25715914950387
403,-8.478250212626573,-247.50412919798893,-28.279951648557592,56.909351239575415,9.172749897552423,-12.799903147368493,249.2771557467519,59.23021470020462
404,-8.443351083346633,-247.59725698362047,-28.355017842197963,57.98660485749626,9.19731888125822,-13.006273644974014,249.37665396841936,60.32811708587989
405,-8.417946856392277,-247.68292243159442,-28.429668996165265,59.17978093014124,9.218895456216748,-13.194571823784434,249.46898761294827,61.53343889562231
406,-8.401844205000756,-247.75938438708627,-28.503264371246708,60.469159802583555,9.23607714056078,-13.359914540390488,249.55235164255944,62.82572116530161
407,-8.39472605742187,-247.82513275027222,-28.575057768761692,61.832127405864185,9.247915198220586,-13.497871219172628,249.62515549023243,64.18190656478596
408,-8.396171834091382,-247.8789318092174,-28.6442044108447,63.24369659697934,9.25388059272566,-13.604580331928956,249.68606755944566,65.5768585873679
409,-8.405675975329503,-247.9198552519408,-28.709770020978635,64.6771085444904,9.253820604767773,-13.676848963363458,249.73405164049296,66.9839527906383
410,-8.422663923897852,-247.9473116727582,-28.770741805297455,66.10449652124973,9.24790902611707,-13.712233639071265,249.76839400521382,68.37572343738168
411,-8.446504836795006,-247.96105981160645,-28.82604126106882,67.4975923178211,9.236592540748632,-13.70910110852376,249.78872039205433,69.72454682050983
412,-8.47652047218004,-247.9612131790293,-28.87453875202601,68.82845410384749,9.220535676657185,-13.66666826418111,249.79500251109425,71.00334121618454
413,-8.511990059744821,-247.94823407854355,-28.915069648153928,70.07019394236681,9.200566565376109,-13.585020921119154,249.78755405037015,72.1862628224202
414,-8.552151436873137,-247.92291735744945,-28.946451692337366,71.19768325774322,9.177625650394447,-13.4651117798004,249.76701648204113,73.24937716318983
415,-8.596199104013062,-247.88636453715992,-28.96750324344211,72.18821531655978,9.152719410055141,-13.30873846048111,249.73433529548092,74.17128619941921
416,-8.64328005966311,-247.83994928065633,-28.977062145721764,73.022105154913,9.126881039136736,-13.11850292796146,249.69072760665387,74.93369271857571
417,-8.692488478100431,-247.7852753671904,-28.974005111452204,73.68320929465129,9.101139733659117,-12.897753879946302,249.637642325967,75.52188537828914
418,-8.742860594213212,-247.7241283996717,-28.957267593997177,74.15934990366969,9.076499624439252,-12.650513796200629,249.57671414201263,75.92512992808449
419,-8.79337141679258,-247.6584224622214,-28.925864078843684,74.44263066734611,9.053928519059458,-12.38139241568703,249.50971257491508,76.13695454367547
420,-8.842934879542105,-247.59014311032658,-28.87890849950483,74.52963457195325,9.034355597041472,-12.095488484542257,249.43848749435782,76.15531993038734
421,-8.890408690861038,-247.52128850819614,-28.815634233715635,74.42149717891047,9.018676272539054,-11.798281748601173,249.36491289025443,75.98266803562188
422,-8.934604585316489,-247.45381100890532,-28.73541305245742,74.12385286503469,9.007761791071518,-11.495517383521154,249.29083113636855,75.62584695226676
423,-8.974304111786038,-247.38956170120682,-28.63777249730265,73.64665584084976,9.002470906671075,-11.193085331719686,249.2180002069305,75.09591383040011
424,-9.008279676338525,-247.33024031894388,-28.522411281035502,73.0038823453114,9.003661223099698,-10.896897251461834,249.1480461773123,74.40782214628288
425,-9.0353203546498,-247.27735250600952,-28.389212313158325,72.21312501375795,9.012198343579046,-10.612763901256658,249.08242293142544,73.58000424737934
426,-9.054261941492646,-247.23217587197047,-28.23825287856039,71.29509472538506,9.028961613118136,-10.346275782810551,249.02238043275736,72.63386437647473
427,-9.064020663688881,-247.19573568034875,-28.069811415566978,70.27304887429787,9.0548457419488,-10.102689780388769,248.968942315083,71.59320097997087
428,-9.063629793997288,-247.16879049614937,-27.884370234804067,69.1721675995787,9.090757904996478,-9.886824350935857,248.92289301858682,70.48357964799317
429,-9.052278017812421,-247.15182770716646,-27.68261341564713,68.01890080326683,9.1376101209827,-9.702965503803423,248.88477426358017,69.33167927853759
430,-9.029347910656934,-247.14506843818003,-27.46541918541079,66.84030868491139,9.196306974174485,-9.554785404949515,248.85489025290084,68.16463393613326
431,-8.994452404901907,-247.14848092158988,-27.23384644183825,65.66341708356359,9.26772909268092,-9.445275080842725,248.83332056521903,67.00939146588243
432,-8.947466733362159,-247.16180091299648,-26.98911557659177,64.51460636770948,9.352713143039697,-9.376692476283209,248.81993927072233,65.89210744548605
433,-8.888553151306958,-247.18455737748522,-26.732584188980507,63.41904933082702,9.452029343317196,-9.350526983426848,248.8144384798522,64.83758986006514
434,-8.818175952622257,-247.21610155797583,-26.46571864789512,62.40020997432222,9.566357634554972,-9.367481362280811,248.81635446865351,63.86880637485342
435,-8.737104963341626,-247.2556377084328,-26.190062878655844,61.47941155076517,9.696263700433512,-9.427471629409482,248.82509476380162,63.00646260046336
436,-8.646406567814104,-247.3022540914527,-25.907206176555732,60.675478987178344,9.842175927946183,-9.529645009965002,248.83996496261653,62.26865647072767
437,-8.547422090269812,-247.35495309219937,-25.61875209777106,60.0044578382937,10.004364084609492,-9.672415443656835,248.86019436730584,61.670610802852174
438,-8.44173397016836,-247.41267945615033,-25.32629044154628,59.479409193307056,10.18291999912631,-9.853515391946184,248.88495968198723,61.22448325094024
439,-8.331120780163081,-247.47434588000988,-25.031374003717023,59.11027747455831,10.377740071239613,-10.070061850124608,248.9134062244236,60.93925023173442
440,-8.217502797299359,-247.53885558412796,-24.73550115783532,58.90382591517049,10.588509238183137,-10.318633689432698,248.9446664568304,60.82065914780136
441,-8.10288045854834,-247.60512199645297,-24.44010453068559,58.86363285385992,10.814686216055327,-10.59535695703759,248.97787607662661,60.87124157688598
442,-7.989268500076645,-247.67208612453734,-24.146545403278733,58.99014102054711,11.055490377610464,-10.89599465788693,249.01218829846243,61.0903792261173
443,-7.878628838696153,-247.73873244798432,-23.856113258254954,59.28075185014305,11.309891374554727,-11.216037791071228,249.04678719406223,61.474414475258115
444,-7.772805316603462,-247.80410415430575,-23.570030001479882,59.729957613073225,11.5766033725448,-11.550794903842988,249.0809009544681,62.01679826122282
445,-7.673463357526452,-247.86731829521665,-23.28945835598883,60.32950567969023,11.854086337764576,-11.895478064491414,249.11381568975577,62.70826972991974
446,-7.582037373384515,-247.92758108128612,-23.015513429953774,61.068591213630306,12.140556985191457,-12.24528387160015,249.1448899760275,63.53706413795158
447,-7.499688314375245,-247.98420317844034,-22.749275700454735,61.9340765655995,12.434011594691563,-12.595468826570196,249.17356992871316,64.48914744855965
448,-7.42727301875926,-248.03661456762472,-22.491803190702576,62.9107372300147,12.732261879089128,-12.941418978356376,249.19940421869524,65.54847753559777
449,-7.365326120167275,-248.08437828712016,-22.24414079970422,63.98153522949587,13.032983625412951,-13.278714113569334,249.22205819662187,66.69729270088489
450,-7.314054466169431,-248.12720219811544,-22.007325435231138,65.12792114881623,13.333776283937583,-13.603186935977446,249.24132615017965,67.9164283260333
451,-7.273343503714004,-248.1649478083237,-21.782386370662614,66.33016573316144,13.632230414816037,-13.910977762789297,249.2571406670513,69.18566197999556
452,-7.242774903012241,-248.19763518225122,-21.570340719614716,67.56772096598826,13.925999141013033,-14.198585311002784,249.26957810537752,70.48408621204558
453,-7.221654618991721,-248.22544306188445,-21.372184070519864,68.81960885718748,14.212869561280453,-14.462914096918924,249.2788592765584,71.79050659654105
454,-7.209050397989191,-248.24870346686546,-21.188876413232638,70.06483392179206,14.49083039947379,-14.701318761174921,249.2853445885615,73.0838604655917
455,-7.203837353860523,-248.2678902096283,-21.021323677270853,71.28281273377561,14.758132867618704,-14.91164529005305,249.28952306513156,74.34364936407026
456,-7.204749764406909,-248.28360099299525,-20.870355341778378,72.45381125476561,15.013342593980084,-15.092268730079093,249.29199488236975,75.55037580912364
457,-7.210436840275525,-248.29653309543764,-20.736698549219703,73.55937813654049,15.255381310423468,-15.242126672176429,249.29344738256503,76.68597266316021
458,-7.219520004487662,-248.30745306922532,-20.620949139540745,74.582760186024,15.483557673436012,-15.360747536720153,249.29462493114525,77.73421160114485
459,-7.23064922112657,-248.3171613451917,-20.52354030310951,75.50928498264747,15.697587052371821,-15.44827249237996,249.29629346841128,78.68107605933217
460,-7.242556100654671,-248.3264531340151,-20.444710190680563,76.32669551786299,15.897600331790349,-15.505469656475581,249.29920115798652,79.51508394346688
461,-7.254101809970738,-248.3360774755007,-20.384470629393977,77.02542281230997,16.084141751401106,-15.533739041986756,249.30403706862862,80.22754637844281
462,-7.264318132171854,-248.34669661499103,-20.342579790550662,77.59878466715786,16.25815562577901,-15.535106543485812,249.31139021949866,80.812750832391
463,-7.272440291432188,-248.3588480154391,-20.318521940803276,78.04310172983608,16.420961569598397,-15.512205129070928,249.3217114812979,81.26805979580253
464,-7.277930371806894,-248.37291123765536,-20.311497070485977,78.35772554783597,16.574217707865092,-15.468241396466539,249.33528073326727,81.59391953186186
465,-7.280490402028834,-248.38908167649905,-20.320422281570146,78.54497697177524,16.719871358914187,-15.406945812174575,249.35218137338268,81.79377699663108
466,-7.280064610877115,-248.40735280941533,-20.343945678144777,78.60999695812619,16.860096920432344,-15.332505317838526,249.37228387989828,81.87390669404753
467,-7.276831019905693,-248.4275082673327,-20.38047250309581,78.56051534846873,16.99722120193695,-15.249477616796248,249.3952397258345,81.8431528426355
468,-7.271183284470067,-248.44912464496304,-20.42820252017902,78.40654643403101,17.133637188862796,-15.162687390685576,249.4204865245818,81.71259566390827
469,-7.263704354772067,-248.47158543012867,-20.48517704494828,78.1600229896471,17.271708097834956,-15.077105889886932,249.44726472305453,81.49515376963829
470,-7.255134002591433,-248.49410572266993,-20.5493334519658,77.83438295011877,17.413664490273685,-14.997716658998087,249.47464541917032,81.20513745248383
471,-7.246332431187524,-248.51576660424718,-20.61856440248174,77.44412490089343,17.561498084150056,-14.929371443612188,249.50156802970258,80.85777002874444
472,-7.2382419783645044,-248.535557219389,-20.690778576105817,77.004349850925,17.716856690252857,-14.87664141539641,249.52688569023715,80.46869599650266
473,-7.231848451336914,-248.55242199121273,-20.763959555993846,76.5303071149978,17.88094530202042,-14.843669599726402,249.54941560686413,80.05349538218687
474,-7.228143181249405,-248.56531012844627,-20.83621976592353,76.03696139962281,18.054438647104615,-14.834030710684473,249.5679913172377,79.6272230566035
475,-7.228086668473571,-248.57322479151742,-20.905846831398488,75.53859632610569,18.2374103945754,-14.850604499796404,249.58151405692763,79.2039899607245
476,-7.232574677404323,-248.575269816305,-20.971340275482785,75.04846678318974,18.42928373817052,-14.895468278277308,249.5890009946839,78.79660025440985
477,-7.2424076570842155,-248.5706923777964,-21.031437080680835,74.57850904311643,18.628807263703507,-14.969813563276926,249.58962863046406,78.41625475745822
478,-7.258264301675537,-248.55892014890782,-21.085125430603398,74.13911396135795,18.834058819019372,-15.07389087994554,249.58276988537588,78.07232713726626
479,-7.2806799256416035,-248.539591485795,-21.13164682407873,73.73896518337156,19.04247856678231,-15.206985626752196,249.5680234598212,77.77221547507474
480,-7.310030127004047,-248.51257730847047,-21.17048755462242,73.38494131525755,19.250930694775157,-15.367426576934863,249.54523423514755,77.52126835704054
481,-7.34651993446828,-248.4779938131947,-21.201361164263275,73.08207859430966,19.455791635815658,-15.552627104139216,249.51450400235643,77.32278166209753
482,-7.39017830924783,-248.436205760746,-21.224183897293802,72.83358879756001,19.65306131546391,-15.759157736272405,249.47619242918628,77.17805990051359
483,-7.440857599217525,-248.38782057011306,-21.23904539623815,72.64092600512942,19.838493006874952,-15.982847325879723,249.43090866654853,77.08653439870331
484,-7.498237405877611,-248.33367374991116,-21.24617695647713,72.5038954017723,20.007736813890272,-16.218909050407948,249.3794942945841,77.04592984764514
485,-7.561832317947033,-248.27480639919713,-21.24591971410323,72.42079747256344,20.156491521278863,-16.462086599286167,249.32299850818853,77.05247063034271
486,-7.631003040961074,-248.21243567273515,-21.23869515870166,72.38860150131781,20.280659436020446,-16.706815242881156,249.26264660726048,77.10111867670604
487,-7.704970591254472,-248.14791925909563,-21.224980066570296,72.40314287324588,20.37649882510315,-16.94739200924922,249.19980299242476,77.18583502467455
488,-7.78283339915293,-248.08271503591206,-21.205287201972652,72.45933898114322,20.44076859393758,-17.178148901947694,249.13592993249313,77.29985746713747
489,-7.863587304195044,-248.01833707770794,-21.18015222707726,72.55141832739808,20.470859958700576,-17.39362296164562,249.07254331683734,77.4359864441335
490,-7.9461484594234735,-247.9563091139262,-21.15012656584903,72.67315669087809,20.46491012108067,-17.588717036261308,249.01116647533334,77.58687072195585
491,-8.029379062491177,-247.89811651168966,-21.115775516663447,72.81811318742702,20.42189343761362,-17.758845439281423,248.95328308496372,77.74528361356933
492,-8.11211556471486,-247.84515798530504,-21.077680546093163,72.97985804044018,20.341686342413976,-17.90005926212504,248.9002902686915,77.90437988341898
493,-8.193198594819975,-247.79869843132505,-21.036444359448872,73.15218327784845,20.225103354532173,-18.009146910654426,248.85345314418322,78.05792339602314
494,-8.271503411127652,-247.75982442517915,-20.992697067933737,73.32928770979697,20.073902824957106,-18.083706424478446,248.8138621760877,78.2004762888345
495,-8.34596942599806,-247.72940398272914,-20.947101621134372,73.50592859553193,19.8907624889756,-18.122187362400226,248.78239472610818,78.32754210511177
496,-8.415627306189359,-247.70805225633111,-20.900356689637462,73.67753434266527,19.679226184489604,-18.12390151326432,248.7596822551545,78.43565782513475
497,-8.479622357745596,-247.6961049006489,-20.853195349340144,73.84027516332301,19.443624139202424,-18.089003266986044,248.74608471236255,78.52243279300785
498,-8.537233333035317,-247.69360078803905,-20.806378253639092,73.99109149032778,19.188969980502794,-18.018441921114015,248.74167362948177,78.58653576027721
499,-8.587886371084352,-247.70027543389727,-20.760680590268798,74.12768274240024,18.920838118134114,-17.91388934494996,248.74622519168875,78.62763426553748
500,-8.631164372624765,-247.71556589382936,-20.716873019781737,74.24846134962299,18.645225470921037,-17.77764724541127,248.75922405805426,78.64629300897441
501,-8.666812549662959,-247.73862715622485,-20.675697766302694,74.35247853396456,18.3684017270411,-17.612538854733884,248.77987806857246,78.64383954258614
502,-8.694740983915601,-247.7683593401213,-20.637841769016408,74.43932907391624,18.096752461319753,-17.4217902897859,248.80714332968554,78.62220640608635
503,-8.715024702253908,-247.8034444026411,-20.603909065997822,74.50904223269247,17.836619465635977,-17.208907093442747,248.83975857884244,78.58375884733364
504,-8.727901193488345,-247.8423905993646,-20.574394312362934,74.56196538422027,17.594142583941263,-16.97755141147403,248.87628722982387,78.53111661747933
505,-8.73376475249416,-247.88358266756165,-20.549658784498387,74.59864586455039,17.375107212939795,-16.73142479287536,248.915165167407,78.46697723260543
506,-8.733156794946769,-247.92533561528452,-20.529909836080527,74.61971544133635,17.18480144005012,-16.474160790090053,248.95475223487486,78.39394678466994
507,-8.726751438768897,-247.96595001013097,-20.515184780839558,74.62578075335443,17.027886500806986,-16.209230505607774,248.99338537505227,78.31438310003223
508,-8.7153361126799,-248.003766689128,-20.50534040773656,74.61732231738328,16.90828381093673,-15.939863113583208,249.02943144914454,78.23025498802231
509,-8.699787524506116,-248.0372188960558,-20.500049426989566,74.59460432994516,16.829081303874823,-15.66898232627746,249.06133787240142,78.14302062666602
510,-8.681043851472694,-248.06488009009664,-20.49880485258938,74.5575974622754,16.792461285233863,-15.399158904653943,249.0876794401801,78.0535278009736
511,-8.660074446291146,-248.08550604564803,-20.500932649704314,74.50591699634056,16.79965155118767,-15.132578690740198,249.10720005451182,77.96193860708796
512,-8.637848611799635,-248.0980702430898,-20.505612123865756,74.43877876842333,16.85090104264779,-14.871025259350594,249.11884837911364,77.86768114735438
513,-8.615305002313864,-248.1017918239727,-20.511902775174548,74.35497525796369,16.945480725634667,-14.615876091750097,249.12180665925692,77.7694304281892
514,-8.593323023244917,-248.09615553595222,-20.518775905762876,74.25287358243985,17.081709678810043,-14.36811107820149,249.1155120479637,77.66511992049091
515,-8.57269741706356,-248.0809231710226,-20.525149264506588,74.13043602790592,17.257005586247974,-14.12833207657962,249.09966984745407,77.55198394340508
516,-8.554117145383062,-248.05613611413577,-20.52992335027831,73.98526214042032,17.467958041895827,-13.896792125323035,249.07425821034832,77.4266292639344
517,-8.538149565579042,-248.0221088964607,-20.532018375968207,73.81464959884885,17.710422307358293,-13.673432712469756,249.03952414758484,77.2851323321674
518,-8.525230551193305,-247.97941409324656,-20.530411047578355,73.61566945795163,17.979630453954126,-13.457927310814885,248.99597113474042,77.12315677300681
519,-8.515660632625831,-247.92885937240186,-20.524170215507382,73.3852502356495,18.27031621527036,-13.24972931720504,248.9443390464345,76.93608449332494
520,-8.509606681911931,-247.87145784869534,-20.51249026677049,73.12026491699305,18.57684945282405,-13.04812260221027,248.8855774628393,76.71915324865077
521,-8.507108352556722,-247.80839309503347,-20.494720982276185,72.81761527076767,18.893375962777885,-12.852272996536898,248.82081356554664,76.4675937556848
522,-8.508088426076885,-247.74098022594762,-20.470392545584534,72.47430880113306,19.21395843077144,-12.661279165531413,248.75131589636743,76.17676031194031
523,-8.512366270038918,-247.6706244624596,-20.43923451643343,72.08752501262718,19.532714587386288,-12.474221507689712,248.678455255312,75.84225021586049
524,-8.51967363540578,-247.59877859388934,-20.401187913999408,71.65466925626829,19.843948924057393,-12.290207984226342,248.60366404425727,75.46000886550223
525,-8.529671959625794,-247.5269007568119,-20.35641000085705,71.17341400541231,20.142274663731893,-12.108416058433788,248.52839539835318,75.02641900041083
526,-8.54197025077861,-247.4564138616737,-20.305271709361968,70.64172870776027,20.42272302599247,-11.928130099749694,248.45408338106586,74.53837385906172
527,-8.556142637020658,-247.3886678175649,-20.24834781894495,70.05790016409266,20.68083709942805,-11.748773698431904,248.3821053523442,73.99333483494115
528,-8.57174486174456,-247.32490554333503,-20.18640015176625,69.4205456430151,20.91274775651541,-11.569936406107864,248.3137474777344,73.38937447220542
529,-8.588329331357873,-247.26623364249897,-20.12035442269111,68.7286207636166,21.1152290950028,-11.391394459923873,248.25017427890705,72.72520547538278
530,-8.605458623995208,-247.21359848465482,-20.051271908415266,67.98142377028141,21.285731096504094,-11.213125004076488,248.1924030485134,72.00019607071305
531,-8.622717528298338,-247.16776823374195,-19.980317516660634,67.17859739976895,21.42238777050891,-11.035313202054208,248.14128379424417,71.21437181830035
532,-8.639723696678342,-247.12932113758706,-19.908725954579733,66.32012922757362,21.524000055552452,-10.858351550494355,248.09748516573413,70.3684039951656
533,-8.656136910995013,-247.09864018758805,-19.837767565917982,65.40635118862782,21.589994105809602,-10.682830781676143,248.0614866019829,69.46358496286555
534,-8.67166681135086,-247.0759140595568,-19.768715189155003,64.43793886432601,21.620357172847395,-10.509522002640278,248.0335767188555,68.50179143632342
535,-8.686078818951993,-247.0611440291675,-19.702813202208976,63.41591110796277,21.61555490807418,-10.339350098263834,248.01385772154413,67.48543720270148
536,-8.699197988959861,-247.05415630954184,-19.641249793006143,62.341630635392846,21.576435309595528,-10.173358840507603,248.00225537189775,66.41741749192519
537,-8.710910617938422,-247.05461899463577,-19.585133393725656,61.216806288567525,21.504125485134434,-10.012668559084524,247.99853377077542,65.30104774415221
538,-8.721163461902092,-247.0620625603415,-19.53547407288563,60.04349772608455,21.399927757624134,-9.858427655272994,248.00231397184155,64.13999985559491
539,-8.72996037341181,-247.07590274623465,-19.493170407103747,58.82412325937195,21.265221378346443,-9.711759714617033,248.01309529018008,62.938239069072786
540,-8.737356187302199,-247.0954646235912,-19.459001910526762,57.56147140071029,21.101375352867972,-9.573708488325707,248.0302781183646,61.69996451267996
541,-8.743447873576,-247.12000671747356,-19.43362658559372,56.2587164153435,20.909676837192723,-9.445183478458446,248.05318709322574,60.42955602082221
542,-8.74836321702275,-247.14874422654862,-19.41758275115519,54.91943780581713,20.691278383203542,-9.326909146514751,248.08109361149658,59.13152934764213
543,-8.75224740452667,-247.18087071563883,-19.41129405916346,53.547643238765374,20.447166044541994,-9.219380776227885,248.11323701056446,57.81050123181619
544,-8.755247928358326,-247.215578042067,-19.41507647022454,52.147793976166696,20.178149011999878,-9.122829755995792,248.14884410649097,56.47116501812186
545,-8.757498316742202,-247.25207453473888,-19.429145943015413,50.72483141250268,19.88487011687463,-9.037200587788995,248.18714704048625,55.11827673785483
546,-8.759101446858143,-247.28960149208783,-19.453625806893495,49.28420286135826,19.567835353862005,-8.962141382696585,248.2273994560231,53.75665076399932
547,-8.76011348488347,-247.3274479561364,-19.488553208190037,47.83188430070698,19.22745962262881,-8.897008992521958,248.2688909615514,52.39116343675857
548,-8.760529706471466,-247.36496357473177,-19.533884449167488,46.374397416731064,18.864125180141993,-8.840889175867458,248.31095972769182,51.02676243064386
549,-8.760273494115289,-247.40156931131818,-19.589499261584404,44.918818031265396,18.478248813882146,-8.792631251901721,248.35300303252518,49.668479136934636
550,-8.759189658931831,-247.43676586872522,-19.655203974687858,43.472772884891,18.07035349969452,-8.750895638451263,248.3944856638323,48.32144100289586
551,-8.757042949694178,-247.4701398984115,-19.730733212571007,42.04442177170644,17.64114033841677,-8.714211685015632,248.43494625762185,46.99088063422252
552,-8.753522262345664,-247.501368229682,-19.815749428634017,40.64242217284059,17.19155690475708,-8.68104246173102,248.47400177800577,45.68213855506428
553,-8.748250635778218,-247.53022039836196,-19.909839548843237,39.275873823215385,16.722858775082813,-8.649852750867993,248.5113503698097,44.400656850706525
554,-8.740800577897051,-247.55655971709402,-20.012508385178716,37.95424107790727,16.23666182712908,-8.619176439588975,248.5467727880588,43.15196146849831
555,-8.730713683944975,-247.5803430605172,-20.12316922029735,36.68725149470472,15.734983736328987,-8.587679791262396,248.58013257626308,41.94163162188341
556,-8.717523053587565,-247.6016194256189,-20.24113286501493,35.484769687416865,15.220273740831434,-8.55421758210765,248.61137510701292,40.775255413388706
557,-8.700776786602795,-247.62052715077343,-20.365597298117645,34.35664625787602,14.695430118759976,-8.517879726524926,248.64052547638013,39.658371437820676
558,-8.680060803210957,-247.63728948441062,-20.49564043186834,33.31254256793419,14.16380493362463,-8.478026699894626,248.66768508094688,38.59639681813483
559,-8.655019345075074,-247.65220807954577,-20.630218429719836,32.36173332639666,13.62919553923802,-8.434312756523349,248.69302658092005,37.59454294387293
560,-8.6253718150629,-247.6656540368907,-20.768171358971664,31.51289040516297,13.095822212085656,-8.386696621645909,248.71678695338127,36.65772113958748
561,-8.590925138752443,-247.67805636166483,-20.908236970515265,30.773852852015686,12.568291215313899,-8.335440019780147,248.73925851823714,35.79044153708737
562,-8.551581442972898,-247.68988807649743,-21.049072338007598,30.15138961027188,12.05154267914287,-8.28109507671398,248.76077813275222,34.99670948295868
563,-8.507341312503035,-247.701650585189,-21.189282273109875,29.65096286023711,11.550782957124703,-8.224482237032868,248.7817150544968,34.27992477894697
564,-8.458303064329828,-247.71385704379597,-21.32745303869127,29.276500992030076,11.071401600359843,-8.166660770224961,248.80245810828882,33.64278976604292
565,-8.404658430250064,-247.72701540507043,-21.462189836709488,29.030190796583064,10.618873750792801,-8.108894081015269,248.82340269401132,33.08723251513122
566,-8.346684978308328,-247.74161154677637,-21.592156667584607,28.912298357340198,10.198649528469554,-8.052611816733378,248.84493791964277,32.614351009242824
567,-8.284735727703376,-247.75809267106558,-21.716117306637013,28.921027285132645,9.81603281118471,-7.999370224076887,248.8674339317407,32.22438315222414
568,-8.219226722134703,-247.77685115622623,-21.832976224180484,29.05242141765559,9.476052599541319,-7.950811563396781,248.8912295214753,31.916705800283072
569,-8.15062362610163,-247.79820928279847,-21.941818230072773,29.300317024603196,9.183330823253797,-7.908622905457564,248.9166203253527,31.689863928596235
570,-8.07942849883538,-247.82240559262723,-22.041945501259537,29.65634709447198,8.941950898665983,-7.874494435073056,248.9438482638553,31.541628679822903
571,-8.006167779871085,-247.84958387249733,-22.13291057795212,30.1099977018144,8.755331589168442,-7.8500773874290335,248.9730930813227,31.469080630909556
572,-7.931382354924999,-247.8797857635178,-22.21454396234223,30.648714160481724,8.626110776254396,-7.836941792890819,249.004466859535,31.468712507251862
573,-7.855620460500451,-247.9129477706649,-22.28697511434117,31.258053069403257,8.556043609106245,-7.8365342242464795,249.03801216614326,31.53654414525081
574,-7.77943401666456,-247.94890308585585,-22.350645888434503,31.921875680647236,8.545919126623671,-7.850135733935159,249.0737041627829,31.66824198903582
575,-7.703378578278806,-247.9873883358108,-22.40631576238803,32.62257822887552,8.595498830594963,-7.878820165136304,249.11145671887215,31.85923581348855
576,-7.628016492695222,-248.02805523647484,-22.45505849909461,33.341355750339176,8.703479883099805,-7.923413049297819,249.15113246188687,32.10482655013637
577,-7.553922273582224,-248.07048705125388,-22.498250100316938,34.05849721795499,8.867484687789831,-7.984451419373236,249.19255661823635,32.40028084676966
578,-7.481688865588791,-248.11421949044637,-22.537548091023506,34.75371119767615,9.084077674251736,-8.06214510431612,249.23553425224614,32.74091003002248
579,-7.411933465365835,-248.15876523690716,-22.574862356599205,35.40648229418666,9.348809216677187,-8.156340357363478,249.27987008382104,33.122133080533985
580,-7.3453018248417825,-248.2036408213555,-22.612317877230073,35.99645903087866,9.656285863971478,-8.266486889107902,249.3253896326117,33.53952470033899
581,-7.282470330203842,-248.24839423312432,-22.65220971762776,36.50387328458021,10.000265480804618,-8.391609481968018,249.37196012121237,33.98885033482639
582,-7.224145434184261,-248.29263142628943,-22.69695066687235,36.90998992935716,10.373775462316921,-8.5302854110983,249.41950936614072,34.466090062787146
583,-7.171060136622413,-248.33603974315648,-22.749012175996423,37.1975830121908,10.769251816989598,-8.680628957029418,249.46804078486326,34.96745264588053
584,-7.123967240106027,-248.37840632697038,-22.81085976288008,37.35143177177684,11.178696586486558,-8.8402843644916,249.5176427570431,35.48937987873655
585,-7.083629183343089,-248.41962997771847,-22.88488471900477,37.35882644077877,11.593850808437717,-9.006428606764015,249.56849103402664,36.028539954762756
586,-7.050804426059945,-248.45972557208552,-22.973334523273255,37.21007044422435,12.006380014315905,-9.175785204950882,249.62084362389018,36.5818071712812
587,-7.026230620735983,-248.49882087251854,-23.07824463120918,36.89896269743447,12.408069016880477,-9.344650163801978,249.6750283213783,37.14622422537827
588,-7.0106051458065775,-248.5371461205807,-23.201374253855466,36.42324151853265,12.791022404304067,-9.508930871196863,249.73142363136262,37.718942820612675
589,-7.004563918900208,-248.57501728350175,-23.344148569653782,35.7849704456531,13.1478666733117,-9.664198531069301,249.79043430479092,38.29713847010561
590,-7.008659591020868,-248.6128142755211,-23.507609709024003,34.990846136229194,13.471949281780935,-9.805754274412621,249.85246315527357,38.87789630595546
591,-7.023340113667771,-248.65095585167214,-23.692378818005462,34.05240953927158,13.757529125982538,-9.92870849685772,249.91788119369542,39.45806635091453
592,-7.048928348305732,-248.689873007953,-23.898631421151567,32.98614360516277,13.999952194203706,-10.028072269296178,249.98699823572167,40.03408900591315
593,-7.085603095058012,-248.72998253167808,-24.126088026628913,31.81344384500265,14.195805638408865,-10.098858971074966,250.0600359104786,40.601794397098544
594,-7.133381807227876,-248.77166196463182,-24.374021366929373,30.560451910543527,14.343043452507619,-10.136193719044595,250.1371045602393,41.15618258214287
595,-7.19210524537079,-248.81522690040146,-24.64128092573648,29.257746723759897,14.441077458017471,-10.135427783479052,250.21818510590418,41.69119514539035
596,-7.261424272610592,-248.8609113077864,-24.926334706118446,27.939892123326057,14.490828329409489,-10.092254992187307,250.30311665009364,42.19949198011386
597,-7.3407889594221984,-248.90885135247078,-25.227327719094987,26.644844125215236,14.494732787034854,-10.00282708473987,250.39159031234615,42.67224963052387
598,-7.429440332530107,-248.9590728859088,-25.542156361557595,25.4132244828933,14.456704676095082,-9.863865063890072,250.48314944553047,43.09899916447891
599,-7.526405495752747,-249.01148240058927,-25.86855758067701,24.287470234590394,14.38204929906882,-9.672763794599707,250.5771959756484,43.467522079107944
600,-7.630497247330076,-249.0658609300332,-26.20421142284751,23.31087143660039,14.277331948255078,-9.42768740453596,250.67300224187142,43.76382224100952
601,-7.740319441028399,-249.1218602287554,-26.546855172632895,22.526511482772783,14.150202956814466,-9.127653406247084,250.7697275037772,43.972190433384384
602,-7.854279101277703,-249.17900062471924,-26.894406719401342,21.976126522561714,14.009182655777066,-8.772603841153243,250.86643824088998,44.07537588655801
603,-7.970605836651292,-249.2366701113349,-27.245094040552686,21.698902696709332,13.863410423405494,-8.363462084770351,250.96213141703507,44.054876407227546
604,-8.087378592826344,-249.29412445319804,-27.597586879109162,21.730232248954206,13.722362714885563,-7.902174215304869,251.05575995349741,43.891355563668334
605,-8.202559415891168,-249.35048826010822,-27.95112605422985,22.100451891196457,13.595545772862888,-7.3917340263128075,251.1462597225909,43.565191884450265
606,-8.314033784579353,-249.4047570722986,-28.30564560209512,22.833588827138602,13.492169739113848,-6.836190847959143,251.23257740087803,43.05716111353432
607,-8.419657173663682,-249.4558004519409,-28.66188308405214,23.946141304792913,13.420812035347053,-6.240639310802837,251.31369846107646,42.34924809649142
608,-8.517307582932435,-249.50236590671855,-29.021473639835264,25.445921270201517,13.389078971002785,-5.611190069055266,251.38867441035654,41.4255797485317
609,-8.604943567608512,-249.54308324433006,-29.387023509662455,27.3309865403138,13.403275390493155,-4.954920407770359,251.45664813711576,40.27346480165883
610,-8.680666808726913,-249.5764687642912,-29.762158945106382,29.588688974351065,13.468092671148304,-4.27980372919288,251.51687601901494,38.88451985546384
611,-8.742787610826781,-249.60092865583215,-30.15154695793761,32.19486365197716,13.586325449740778,-3.5946172210879013,251.56874543077126,37.25585504238321
612,-8.789891084523772,-249.61476121340237,-30.56088527735898,35.11318239488322,13.758627051858616,-2.9088275254981144,251.6117866086462,35.39128682738827
613,-8.820901300767536,-249.61615804187454,-30.99686000816743,38.29469335664702,13.983312728491493,-2.232454856765888,251.64567849968608,33.30254053717333
614,-8.835140474277402,-249.60320516348233,-31.467070626238907,41.67756696512399,14.256218495247046,-1.575916650393322,251.67024909176743,31.010401505983836
615,-8.832380250809054,-249.5738855815832,-31.979923073725562,45.18706720845253,14.570621667062209,-0.9498523510703193,251.6854715066086,28.545771477638393
616,-8.812882394967449,-249.52608515191235,-32.54449282690074,48.735765964739436,14.917227196614453,-0.3649313042367154,251.69145759318351,25.950586246829616
617,-8.777426591970745,-249.45760347797508,-33.170360879590895,52.22401647444307,15.284221862783548,0.16835408517304523,251.68845080067183,23.27855142229964
618,-8.7273237133726,-249.36617104057086,-33.86742659550692,55.54069964108611,15.65739641708996,0.6399076678330273,251.67681979538872,20.595655390658084
619,-8.664413718275645,-249.24947297048044,-34.6457023054402,58.564253037056794,16.020334029655572,1.0402590883639526,251.65705368759134,17.98042162916242
620,-8.591048194561237,-249.1051788881024,-35.515095236041624,61.163986851320516,16.35466167797298,1.360801479694525,251.62975893417808,15.52386608673565
621,-8.51005813882714,-248.93097726346238,-36.48518268388139,63.201683471833036,16.64035938769751,1.5940356328159693,251.5956571422187,13.329129339681257
622,-8.424707781311525,-248.72461200337628,-37.564986301621516,64.53346830288184,16.856120467701587,1.7338194092355264,251.55558231566073,11.510757908088724
623,-8.33863517162116,-248.4839185886775,-38.762751170913546,65.011929451122,16.97975416729386,1.7756214019066714,251.51047573411418,10.193615008945581
624,-8.255780140408014,-248.20685715024914,-40.08573514442265,64.48845387206454,16.988620633287272,1.7167776617999826,251.4613767432287,9.51140868536375
625,-8.180300419205578,-247.89154036552725,-41.5400136741169,62.81573820085783,16.860086777391846,1.556749634179986,251.4094082472774,9.604835127800886
626,-8.11647717374477,-247.53625474933307,-43.13030499597868,59.850424404672324,16.57199078637183,1.2973803345061852,251.3557564016724,10.619347304490663
627,-8.068611785203625,-247.13947446692572,-44.859820329039394,55.45580402120906,16.103102546063766,0.9431443028625487,251.30164459631945,12.702573664461614
628,-8.040916193120081,-246.69986697647477,-46.730143813712345,49.50453030833227,15.43356711058546,0.5013851171841731,251.24830207539935,16.00142823664423
629,-8.037399444660629,-246.2162895770361,-48.74114704551658,41.8812750796978,14.545318403374296,-0.017467578626502573,251.1969273783303,20.658971116510795
630,-8.061753357087708,-245.687775460228,-50.89094280146255,32.48526605673628,13.422450583559707,-0.5997112213409764,251.14864629695097,26.811095999771343
631,-8.117240499489766,-245.1135074505594,-53.175881558438626,21.23264084357144,12.051535070196339,-1.2282246307844327,251.1044634745677,34.583137826019104
632,-8.20658806098807,-244.4927775517637,-55.59059267088045,8.058554811128413,10.421872177716029,-1.8823753172459392,251.06520639731167,44.0865074394437
633,-8.331891499880932,-243.8249307301789,-58.12806992002783,-7.081017882489905,8.525667654228217,-2.537992057733808,251.0314604263552,55.415470226087
634,-8.494532043740767,-243.10929190879773,-60.779798869315286,-24.207848121645917,6.358126062942535,-3.1674148841448,251.00349358226333,68.64419086964097
635,-8.6951120845428,-242.34507588572095,-63.53592115092439,-43.32043453188532,3.917454876285238,-3.7396338512485667,250.98116999859383,83.82416584136655
636,-8.93341227000974,-241.53128101219286,-66.38542850138587,-64.39345335875845,1.204775346783099,-4.220526483552954,250.96385149716923,100.98215842732043
637,-9.208373629526061,-240.6665691007546,-69.31637722708405,-87.37771566992555,-1.776061416478068,-4.573201738449213,250.95028776935774,120.11873767572548
638,-9.518107420586677,-239.74913603651325,-72.31611204922442,-112.20066061474547,-5.018752443874736,-4.758455804767096,250.9384970890222,141.2075026291482
639,-9.859934553774153,-238.77657956979695,-75.37148709146926,-138.76739819796498,-8.514912355272855,-4.735342121373204,250.92564101977248,164.19504712093314
640,-10.23045541178351,-237.74577240824797,-78.46907117372642,-166.96229579579202,-12.254530325320129,-4.461854614510837,250.907897881318,189.00168949013766
641,-10.625649607528622,-236.65274978161816,-81.59532466454564,-196.65108029612577,-16.22650967809442,-3.8957193364081624,250.88034065162267,215.5229577434439
642,-11.041003800429722,-235.49262105347384,-84.73673614524968,-227.68340404328708,-20.419284055738576,-2.9952856198060407,250.8368255368251,243.63178640033354
643,-11.471664208635042,-234.25951471584887,-87.87990918647084,-259.89579993504094,-24.821501941985716,-1.7205038990885855,250.7698977279665,273.1813489821454
644,-11.91260896793646,-232.94656528760595,-91.01159247943362,-293.1149310429479,-29.422767436297033,-0.03397395692513343,250.67072092228008,304.0084218614934
645,-12.358834039372413,-231.5459492863257,-94.11865014203882,-327.161024331767,-34.2144190681822,2.097955040714077,250.52903700979445,335.93715225528945
646,-12.805545129070023,-230.04897552813242,-97.18797317335688,-361.85136721894827,-39.19032011917902,4.7040525640949085,250.3331619144332,368.7830862400203
647,-13.248347319410959,-228.44623251516342,-100.20633778236842,-397.00374045999587,-44.347624153397895,7.807062766852647,250.07002296192326,402.3573023427907
648,-13.683423916317425,-226.72779268571242,-103.16022140852506,-432.4396617965524,-49.68746973985905,11.422567914314547,249.72524231261377,436.4704930895452
649,-14.107696249976676,-224.88346999177276,-106.0355920828602,-467.98732238690894,-55.215550533602816,15.55787751939919,249.28326984208735,470.93684129935497
650,-14.51895669138118,-222.90312384891556,-108.81769064347496,-503.4841121752193,-60.942502706024676,20.21096036476499,248.72756726332017,505.5775498960529
651,-14.915967968858382,-220.77699928061458,-111.4908276267442,-538.7786503951163,-66.88405236817184,25.369435717034182,248.04084327239207,540.2239030324762
652,-15.298523007598455,-218.49609041635514,-114.03821707824288,-573.7322622487563,-73.06087154527661,31.00964007519824,247.2053372382405,574.7197614034962
653,-15.667460935066938,-216.05251266391807,-116.44186805823918,-608.2198710097753,-79.49810221959292,37.09578739175257,246.20314666523123,608.9234243837305
654,-16.024636518229446,-213.43986791516005,-118.68255150897069,-642.1303046684851,-86.22452330049589,43.57924410618091,245.01659147201454,642.7088243471851
655,-16.372842019313193,-210.65358702186538,-120.73985585104161,-675.3660460147804,-93.2713540870072,50.3979451894828,243.62860617820078,675.9660523237335
656,-16.715682202435016,-207.69123454583294,-122.59233972947325,-707.8424831193659,-100.67070853322424,57.475982940962055,242.02314962512148,708.6012471587387
657,-17.05740497504243,-204.55276250308134,-124.21778519264761,-739.4867421063806,-108.453735885864,64.72340555968843,240.1856211084229,740.5359108217765
658,-17.40269188333458,-201.24070232372716,-125.59354951131547,-770.2362047317682,-116.64850344620133,72.036266609613,238.10327172071203,771.705738921156
659,-17.756414374768013,-197.76028723190245,-126.69700896717437,-800.0368287667583,-125.27769485564777,79.29696865080027,235.7656000746826,802.0590766661151
660,-18.123363374586795,-194.11950051307096,-127.50608341230637,-828.8413991363124,-134.35621130384993,86.37494399149658,233.16472229161553,831.5551258321121
661,-18.507961189862225,-190.32904855186143,-127.99982638276504,-856.6078420891957,-143.88877275341292,93.1277123929506,230.29570715878322,860.1620374934171
662,-18.91396585514155,-186.402260907713,-128.15906214765093,-883.2977332894903,-153.86762143506584,99.4023494510412,227.15686856730807,887.855028248911
663,-19.34417867114126,-182.35492290751293,-127.96704832674222,-908.8751232275806,-164.27043065286378,105.03739026323798,223.75000864271811,914.6146540158642
664,-19.80016595280732,-178.2050492568765,-127.41014065205083,-933.3057890169316,-175.05851886686116,109.86518097629997,220.08060640748158,940.4253645541935
665,-20.282005995077363,-173.97260996304254,-126.47843522325113,-956.5569996983041,-186.17546280142537,113.71467606261858,216.157948445599,965.2744430466038
666,-20.788071939313777,-169.67922224043255,-125.1663634345746,-978.5978523326986,-197.54619458719978,116.41466188043469,211.9951998676321,989.1514080936859
667,-21.314860485130648,-165.34782379820902,-123.47321575678154,-999.4001991323055,-209.07665696423607,117.79736762429457,207.6094157966955,1012.0479211008083
668,-21.856875280627676,-161.00234382981142,-121.40357272963824,-1018.9401435525091,-220.65407720413515,117.70240404500869,203.0214955172757,1033.9582020732785
669,-22.40657256526646,-156.6673880428278,-118.96762482975267,-1037.2000385595293,-232.14790423587812,115.98094968991438,198.25608332130662,1054.8799141100976
670,-22.954375463794616,-152.36795304276984,-116.18136723754385,-1054.170876718486,-243.41143409898498,112.50008533328078,193.34142184110553,1074.8154348031649
671,-23.48876219582214,-148.129183200775,-113.06666056640972,-1069.8549230157191,-254.28412618807945,107.1471608434937,188.3091649657175,1093.7733949028013
672,-23.99643204656389,-143.97617993931317,-109.6511536847092,-1084.268410871801,-264.5945871384908,99.83406578556263,183.19415795791653,1111.7703343762632
673,-24.462550888907227,-139.93386958729545,-105.96806923629624,-1097.444102306154,-274.16417161121564,90.50126634886468,178.03419200210925,1128.8323060862876
674,-24.8710751727948,-136.02693201616083,-102.05585601714311,-1109.4335062291286,-282.8111213106485,79.12146734824032,172.8697391973255,1144.9962494311328
675,-25.205149628306092,-132.27978842394185,-97.95771494345522,-1120.308554553922,-290.35513725988517,65.70275925996556,167.74367210867405,1160.3109607609413
676,-25.447569705497482,-128.71664306467633,-93.7210071060289,-1130.1625530275783,-296.6222572980365,50.29111629537512,162.70096964867471,1174.8375030969419
677,-25.581295419360085,-125.36157063295941,-89.3965536896397,-1139.1102499932288,-301.4498918562168,32.97212214679241,157.78840868005253,1188.6489222461917
678,-25.589999269291532,-122.23863850419312,-85.0378387548211,-1147.286898817363,-304.6918565724345,13.871815302728464,153.0542386839206,1201.82916686332
679,-25.458627665703037,-119.37205095467867,-80.70012730265738,-1154.8462260057179,-306.223230236285,-6.84343409347708,148.54783521583525,1214.4711438243307
680,-25.17395306527274,-116.7863005888422,-76.43951278832286,-1161.9572559059216,-305.94486108724016,-28.96807901188095,144.31932658614383,1226.673876156217
681,-24.7250929684817,-114.5063103286448,-72.3119104290811,-1168.7999846352843,-303.78734414255774,-52.259616003247764,140.4191872442159,1238.5387688913409
682,-24.103972315235236,-112.55754747928106,-68.37201533107478,-1175.5599418156824,-299.71429779798177,-76.44187312028073,136.89779083647954,1250.165029849065
683,-23.305707819978586,-110.96608976887683,-64.67224742662354,-1182.4217303857188,-293.7247803645957,-101.20933273920451,133.8049159452112,1261.6443390222055
684,-22.328896297024592,-109.7586222846004,-61.26170797581021,-1189.5616927791918,-285.85470749071015,-126.23242160262798,131.1891981542142,1273.0549126795654
685,-21.175793631110405,-108.9623444212015,-58.1851744648991,-1197.1399146119627,-276.17716054538505,-151.16366561124346,129.09752343394686,1284.4551653023916
686,-19.85237635492573,-108.60476769884862,-55.482161937555745,-1205.2918406611543,-264.8015145906134,-175.64457373093708,127.57436005827778,1295.8772304308748
687,-18.36828356086311,-108.71338867970714,-53.18607915585508,-1214.1198363269702,-251.8713620982444,-199.313085309373,126.6610294616023,1307.3206547308343
688,-16.73664281119421,-109.31522611039028,-51.32350752295141,-1223.6850742014612,-237.56126303539628,-221.81138957081401,126.39492055586783,1318.7466214217582
689,-14.973789347079553,-110.43621769843404,-49.913629334198035,-1234.0001536544519,-222.07240967979124,-242.7939064623595,126.80865686505003,1330.0730831660842
690,-13.098892707802396,-112.10047942412531,-48.96782958769376,-1245.022866770959,-205.62735087130832,-261.9352056397025,127.92923117538456,1341.1711854133514
691,-11.133508435318074,-114.32943866875912,-48.489492253026526,-1256.651503821756,-188.46397054817362,-278.93763621397505,129.7771279389231,1351.863335899775
692,-9.101074571496088,-117.14086114154568,-48.474007535852486,-1268.7220452829908,-170.82895496869574,-293.5384444064015,132.36545892161158,1361.923223927964
693,-7.026373104598957,-120.54779994401878,-48.90900116532466,-1281.0075171640979,-152.97100838998702,-305.51616927842,135.69914198444715,1371.0780162670485
694,-4.934975693855386,-124.55750266754167,-49.77478985817762,-1293.2196961812233,-135.13408586446798,-314.69612737870455,139.7741560590343,1379.0128596035825
695,-2.852691464130358,-129.17031906653892,-51.045058719041236,-1305.0132469717494,-117.55090373250327,-320.9548241337646,144.57690729921467,1385.3777089618577
696,-0.8050329418718178,-134.37865759490586,-52.68774646909856,-1315.9922618030753,-100.4369647986366,-324.2231616547438,150.08374215045063,1389.796384876894
697,1.1832854619222408,-140.16604374142588,-54.66611333495426,-1325.719060625784,-83.98529916208433,-324.48834832353396,156.2606425713912,1391.8776466159993
698,3.0888036772259277,-146.50633617131933,-56.939954726133614,-1333.7250013406897,-68.36207725125294,-321.794454678456,163.0631364948178,1391.227960489142
699,4.889715982395401,-153.36315753885347,-59.46691238805839,-1339.5229508679843,-53.703202955997526,-316.24160252280683,170.43645237240221,1387.465545629045
700,6.566205983668018,-160.68959483087366,-62.203824735529174,-1342.620979973009,-40.111945631900426,-307.9838189266302,178.3159399855596,1380.2351972787765
701,8.100710331448647,-168.42821862854885,-65.108050841914,-1342.5367714183553,-27.657623419764853,-297.22563177596885,186.6277705720043,1369.2233214126836
702,9.478108146572838,-176.51146122536235,-68.1386993735756,-1338.8121751321196,-16.375309572312883,-284.21752563200175,195.28991806124552,1354.1725665773101
703,10.685837022674535,-184.8623798520673,-71.25769588840406,-1331.0273103471388,-6.266500601032712,-269.25041254370853,204.21341069605324,1334.8954127940008
704,11.71394081308488,-193.39581352595212,-74.43063037891415,-1318.8136090101302,2.6993383680710084,-252.6492992369146,213.30382982859783,1311.286078592751
705,12.555058577872543,-202.01992104542407,-77.62734196050108,-1301.8652233036914,10.582449060484574,-234.7663476285051,222.46302145392625,1283.3301418857197
706,13.20436712931535,-210.63806482396672,-80.82221805067626,-1279.9482873267648,17.469778427286727,-215.97352852826904,231.59097667783914,1251.1113433838273
707,13.659490772702128,-219.15098264078586,-83.99420868915668,-1252.9076294298548,23.47139827213038,-196.65505852568586,240.58782966580708,1214.815153984007
708,13.920390916282008,-227.45916933387653,-87.12657952062037,-1220.6706722821732,28.716435121477502,-177.19978913031142,249.3559153118335,1174.7288357905272
709,13.989245761385256,-235.46537507959104,-90.20644638554644,-1183.2484215963098,33.34858735557857,-157.99368913554363,257.8018238748383,1131.237900151335
710,13.870327262213458,-243.07711760139347,-93.22414825604149,-1140.733617087912,37.521296118241814,-139.4125313211963,265.8383866233162,1084.819051450781
711,13.569879958226146,-250.20910314172588,-96.17252220710746,-1093.2962850847764,41.39263229267805,-121.81486861332793,273.38652592970396,1036.029887194373
712,13.096004681146693,-256.7854554278716,-99.04614413990132,-1041.1770758215498,45.11996836227569,-105.53536728382203,280.37690613049296,985.4957880662679
713,12.45854934178245,-262.7416624707948,-101.84059307102872,-984.6788759621459,48.85452423995039,-90.87855866283799,286.7513281368256,933.8945625543645
714,11.669008240138977,-268.0261662142488,-104.5517866270814,-924.1572479421447,52.735910145448926,-78.11307728837289,292.4638205591675,881.9394992219385
715,10.7404298061638,-272.6015377429276,-107.1754227517437,-860.0102576524189,56.88683302602436,-67.4664714018578,297.48139166685627,830.3615204572778
716,9.687330063127218,-276.44519945788346,-109.70654930993157,-792.6682130268986,61.40817713492461,-59.12069717990758,301.78441885768,779.8911246597639
717,8.525605791550625,-279.5496749028324,-112.13927103051347,-722.5837572767915,66.37470295912256,-53.20843338788771,305.3666654894284,731.240754813692
718,7.272438207319615,-281.92236695938175,-114.46659375644562,-650.2226563171306,71.83162103341309,-49.810368226263805,308.2349295550237,685.0881513801546
719,5.94617587047332,-283.58488568830023,-116.68040017614993,-576.0555080156768,77.79228091463517,-48.953606477603856,310.4083448189576,642.0611528666174
720,4.566185150712694,-284.57196690525547,-118.7715484169444,-500.5504980121288,84.23716848417138,-50.61131963547015,311.9173713170866,602.724316198541
721,3.1526580854437127,-284.93003969340987,-120.73008315692991,-424.16724295812907,91.11433056335952,-54.7037177535711,312.8025261893514,567.5676523860053
722,1.7263707291456356,-284.71551389806774,-122.54554649594881,-347.3516964216831,98.34125336466117,-61.10036550867769,313.1129156885322,536.9977097343706
723,0.3083898771429822,-283.9928670221998,-124.20737231327949,-270.5320370257745,105.80812164806034,-69.62380190245085,312.90463460896825,511.3311759760218
724,-1.0802680191173168,-282.83261502945084,-125.70534410038407,-194.1154056772433,113.38228980265323,-80.05435797314706,312.2391017179526,490.79110080282265
725,-2.4190157121873583,-281.30925450312253,-127.03009332317232,-118.4853112834094,120.91371548456404,-92.13600682866605,311.181400451966,475.5057583685872
726,-3.688096588952027,-279.49926393097536,-128.17361349694804,-43.999493077931035,128.2410512340458,-105.58303431148241,309.798692804514,465.510083183174
727,-4.868990475730884,-277.4792477062394,-129.12976402352712,29.011976421978897,135.19806624375235,-120.08729316828023,308.1587691884318,460.74953546033845
728,-5.944805151920226,-275.3242962506981,-129.8947373640781,100.24853767220391,141.62007878566888,-135.32579842380306,306.3287868424622,461.08619222455485
729,-6.900636465330879,-273.1066195930347,-130.4674638005274,169.44107873542367,147.35011253268547,-150.9684303863918,304.3742345720483,466.3068171636087
730,-7.72388264514749,-270.894491225083,-130.84993053512403,236.35403191721113,152.24453661052894,-166.68552637486476,302.3581440213658,476.1326265009333
731,-8.404501399666698,-268.7515160415143,-131.04739645157625,300.78763469697697,156.17799981250923,-182.15515747326634,300.3405491734565,490.2304306579423
732,-8.935201086325153,-266.73621264546307,-131.06849017388706,362.58028688936355,159.04751705458088,-197.06990135811924,298.378177929063,508.2247880276824
733,-9.311559481931369,-264.9018783166845,-130.92518638564025,421.61087174346835,160.77560737793095,-211.14293917871825,296.5243437488592,529.7107607222498
734,-9.532065688568942,-263.29668650319576,-130.6326628562126,477.8008553851306,161.31241747248828,-224.1133278687482,294.828992686979,554.2668213309676
735,-9.598082866288383,-261.96395352757366,-130.2090473464485,531.115941659325,160.6367954782483,-235.75033250904838,293.3388526941649,581.467435614038
736,-9.51373200772128,-260.9425043646741,-129.67506868443206,581.5670427451117,158.7563109875497,-245.8567471117529,292.0976283745221,610.8948482089751
737,-9.285699788206148,-260.2670670353866,-129.053629295905,629.2103330447686,155.70625244757272,-254.2711837175288,291.1461854463494,642.1496316989294
738,-8.922976371749584,-259.96863068903167,-128.36931727657014,674.146185362664,151.5476737004257,-260.86936340829976,290.5226744627051,674.8596228482429
739,-8.436531663000268,-260.0747125410806,-127.6478750227674,716.51684197652,146.36460499502883,-265.5644918667341,290.2625519850493,708.6869577384267
740,-7.838940732744071,-260.6094919996056,-126.91563916502827,756.5027439194524,140.26058559371955,-268.3068401829487,290.39846835445087,743.3330213957643
741,-7.143970997753428,-261.5937850892948,-126.19896393679952,794.3175227024308,133.3547091113985,-269.08267444801606,290.9600034971179,778.5412377727647
742,-6.366145218359181,-263.0448473477588,-125.52363780698792,830.2017420295188,125.7773937011301,-267.9126836174366,291.973244882717,814.0977337116549
743,-5.520295446564362,-264.9760076541449,-124.91430142974835,864.4155555788141,117.6660940366231,-264.8500450246668,293.4602139243034,849.8300087240957
744,-4.621123611076447,-267.39614823814264,-124.39387367949408,897.230515031228,109.16116039277117,-259.978243644877,295.43815809311457,885.6038264234937
745,-3.6827843319121536,-270.30905710194554,-123.98299165537487,928.9208164090837,100.40202407812008,-253.40872902470394,297.91873550605766,921.3186106468962
746,-2.718504731050958,-273.7126882679299,-123.69946994515225,959.7543099999688,91.52385178998986,-245.27845774288926,300.9071266876244,956.9016783543931
747,-1.7402545624424084,-277.59837266610475,-123.5577840106676,989.983618298527,82.65476874059974,-235.74733444320077,304.4011145918112,992.301671706794
748,-0.7584782803903104,-281.95002795520463,-123.56858230746099,1019.8377072297666,73.91370618309294,-224.99553529174193,308.3901786765581,1027.4815635313284
749,0.2181010715323936,-286.74341890495157,-123.73823194990463,1049.514239352991,65.40888688850069,-213.22067723497733,312.8546517698225,1062.411604854978
750,1.1825983842968284,-291.9455210250879,-124.0684037576359,1079.1730055065595,57.23692456877205,-200.6347860850971,317.76498970347075,1097.0625620186238
751,2.1299987978051913,-297.51403891145895,-124.55570450697137,1108.930685322373,49.482481806915466,-187.46101621428048,323.0812032892828,1131.3995557562534
752,3.0571054732430087,-303.3971273595802,-125.19136696668238,1138.8571291684004,42.21840722215843,-173.93008372927636,328.75250015155655,1165.3767671984308
753,3.9624072392008927,-309.53335777353203,-125.96101153036275,1168.973286880255,35.50625748216881,-160.27639233659565,334.71718016670087,1198.933218211421
754,4.845874883345713,-315.8519649032839,-126.84449668677885,1199.250835479743,29.397103188575013,-146.73385509186667,340.90282276769454,1231.989768667696
755,5.7086984436227715,-322.2733996527178,-127.81587873899245,1229.6134828742427,23.932517890207908,-133.53144347684395,347.22679710513904,1264.4474043663968
756,6.552980690498066,-328.7102029329494,-128.84350332649373,1259.9398513468593,19.145654285360305,-120.88852495218018,353.597116992908,1296.1868197143992
757,7.381404064303308,-335.06820377168384,-129.89025150680794,1290.0677774986984,15.06231948113961,-109.01007874491897,359.91365177918607,1327.0692325106393
758,8.196889418957976,-341.24803252453864,-130.91396080516947,1319.7998080635234,11.701971398949619,-98.08190527720024,366.0696918977827,1356.9383080988487
759,9.002264894294008,-347.14692717989476,-131.86803681051933,1348.9096270324624,9.078571054908222,-88.26596610139757,371.953854017094,1385.6230204436963
760,9.799962190453673,-352.6607974045353,-132.70226409252254,1377.149121056646,7.201240511996673,-79.6960077430267,377.4522956516837,1412.9412411154183
761,10.591755547982768,-357.6864973218995,-133.36381682223876,1404.2557781333064,6.074693432703753,-72.47363411624951,382.4511931946069,1438.703825317498
762,11.378555888002813,-362.12424453902815,-133.79845960303606,1429.9601192947587,5.699423611132603,-66.6649979259742,386.83942110419076,1462.7189576923884
763,12.160269085030862,-365.8801104859421,-133.95191776831308,1453.9928842152628,6.07165579536309,-62.298281170313835,390.51135429633416,1484.7965299870918
764,12.935723726837727,-368.8684968758271,-133.77138418678888,1476.091728834212,7.18308190634989,-59.36212749220468,393.3697019131455,1504.7523476818494
765,13.702670342009739,-371.01450637409266,-133.20711723457413,1496.00724505376,9.020424016817902,-57.80517320831124,395.3282700870976,1522.4120025629968
766,14.457850987124816,-372.256113669997,-132.2140730410698,1513.5081765259554,11.564882633468555,-57.53679743984014,396.31454562498607,1537.6143005693593
767,15.197135239826974,-372.5460472218533,-130.75350517834778,1528.385775560841,14.791543912463364,-58.42917292430523,396.2719930235065,1550.2141945129924
768,15.915716101742314,-371.8533027623507,-128.79445717492155,1540.4573176347026,18.668830831741055,-60.320646898693504,395.16196479883445,1560.0852331785718
769,16.608356869221478,-370.16422676763557,-126.3150687266476,1549.5688546023227,23.15808871364713,-63.020417353629675,392.9651397416644,1567.1215947747348
770,17.269677037443724,-367.4831290306127,-123.30361791867547,1555.597338012793,28.21339168563081,-66.31439817390773,389.6824240008737,1571.2398162118718
771,17.894461491056163,-363.8324044004386,-119.75923245800385,1558.4522716393367,33.78164097425787,-69.97209332674697,385.33527348858064,1572.3803517298152
772,18.47797348450421,-359.25216174527037,-115.69222379170417,1558.077048971416,39.80299908478009,-73.75423207741503,379.9654207054409,1570.5090861287233
