time,ax,ay,az,gx,gy,gz,accmagnitude,gccmagnitude
0,1.1331967239285097,-245.93875447224275,18.107539181550745,50.08420239402864,16.521575943838712,-13.781621780071799,246.60733430572176,54.47120131586398
1,0.9864336249503095,-246.02648514972933,18.347866745687913,49.924468675274696,17.24772177781942,-13.760905334973938,246.71538033590141,54.6236983081284
2,0.8318644584773865,-246.11565538456767,18.577118991601278,49.786123886248944,17.984707421826474,-13.756338549251865,246.82396149907848,54.8039961772523
3,0.6709353854994865,-246.206426409586,18.79416245586118,49.67019950640035,18.72436037204577,-13.769056316781661,246.93313238668065,55.009779341215975
4,0.5051670539161477,-246.29894163070412,18.99802157891722,49.57719158660885,19.458541958854095,-13.799858219350616,247.0429428859356,55.238174343478605
5,0.33613215722245127,-246.39331688800445,19.18788851485583,49.507042119099125,20.179287592198527,-13.849160994009843,247.15342957501937,55.4857814818359
6,0.1654333459014933,-246.48962821757675,19.36312725751734,49.459133455913836,20.87893666145572,-13.916960636685877,247.26460412204386,55.74871715398563
7,-0.005318207508908222,-246.58789779887775,19.52327326221027,49.432294236014876,21.550248890491464,-14.002805878419515,247.37643946348336,56.02266472264171
8,-0.17452330267506033,-246.6880792330439,19.66803026341283,49.424814762155926,22.18650412088632,-14.105784225326868,247.48885504152528,56.3029310935357
9,-0.34061409083416144,-246.79004343716002,19.79726587349897,49.43447044066684,22.78158278987931,-14.224521220441753,247.60170251038306,56.58450669811087
10,-0.5020723907444087,-246.8935663028376,19.911006960078527,49.458553488572015,23.330024924771106,-14.357193090578573,247.7147531394364,56.86212799977619
11,-0.6574471840848971,-246.9983190143173,20.009434931080193,49.49391497502303,23.827066410252556,-14.501552517363946,247.827687821719,57.13034348095273
12,-0.805371546587299,-247.10386176882992,20.0928802102886,49.53702061802143,24.268652602066666,-14.65496695355264,247.94009037935768,57.383585652228355
13,-0.9445791077762346,-247.2096416395351,20.161814711882524,49.584023954822676,24.651430930598035,-14.814468696729655,248.0514448182855,57.61625235954002
14,-1.073919895249767,-247.314995235905,20.216841170634034,49.6308592529583,24.972725760888135,-14.976815775896906,248.16113710174096,57.82280022247031
15,-1.192375221597449,-247.41915642819293,20.258678623648226,49.6733540083685,25.230500239215573,-15.138562496429577,248.26846165737206,57.99785145880981
16,-1.299071197053893,-247.52126883207015,20.28814395171586,49.707357679539435,25.42331092528383,-15.296138123560429,248.3726323106579,58.13631299636757
17,-1.3932905020617328,-247.6204023203855,20.306130033219453,49.72888022521628,25.550261400450573,-15.445931632280844,248.47279696022844,58.233504165156475
18,-1.4744821228745357,-247.71557271224748,20.313581646186712,49.73423179308796,25.610960520188755,-15.584379792292314,248.5680552404839,58.28528695729571
19,-1.5422687382395133,-247.805763910656,20.31147064404311,49.72015402927347,25.60548952706046,-15.708055262883917,248.65747856749047,58.28819131881369
20,-1.596451387231053,-247.889951939957,20.300771986795574,49.683934051123934,25.534380115739456,-15.813751021090882,248.74013214584662,58.2395274786935
21,-1.6370110566017708,-247.96713042299248,20.282441912537234,49.62349393554214,25.398603155766803,-15.898557429905516,248.81509857672137,58.13747794920821
22,-1.6641069157248751,-248.0363369805449,20.257399075186996,49.53745121110239,25.19956557062154,-15.959928567057604,248.88150261223274,57.9811633541436
23,-1.6780710370697358,-248.09667987709437,20.226509121808615,49.42514877019377,24.939111240482898,-15.995735016734729,248.93853641453921,57.77067830989748
24,-1.6793995546339353,-248.14736406169848,20.190573017943354,49.28665526686832,24.619521005235146,-16.004301100812523,248.98548449061258,57.50709577724287
25,-1.6687403619382877,-248.18771561363397,20.1503192857617,49.122739001410615,24.24350694746037,-15.984425435683901,249.02174732493467,57.19244026321961
26,-1.646877625366056,-248.21720349640387,20.106400027831057,48.9348193480823,23.814196991199765,-15.935384702774556,249.0468626047822,56.82963179982229
27,-1.6147135352771733,-248.23545747618653,20.059390225594733,48.72490004566755,23.335107202988876,-15.856921551179424,249.06052285510978,56.42240372734497
28,-1.573247819078842,-248.2422812063816,20.009789559276584,48.49548836291357,22.810100738640646,-15.749218512192188,249.06258842584137,55.97519800446567
29,-1.5235556385485156,-248.23765992987887,19.958026059899588,48.24950352933683,22.24333390157257,-15.612860590614929,249.0530952294185,55.49304212778511
30,-1.4667646070801934,-248.2217628913199,19.904461177229123,47.990177152556704,21.63919110210339,-15.448789724715693,249.03225728990196,54.98141189243809
31,-1.404031733186098,-248.1949410971488,19.849396049785895,47.72094789200348,21.00221152412622,-15.258254559975958,249.0004647280165,54.44608433491596
32,-1.3365210455843382,-248.157721281867,19.79307873665898,47.44535262848001,20.337010958025754,-15.042759011945755,248.95827802600772,53.89298543918607
33,-1.2653824444063362,-248.11079679323097,19.735712018086012,47.16691681580582,19.648202560825787,-14.804012934815207,248.90641925850662,53.32803763552039
34,-1.1917319875107544,-248.05501574264684,19.677461274398187,46.88904750447994,18.940320333646564,-14.543887823528353,248.84576060080644,52.75701270946224
35,-1.1166335100177298,-247.9913664236856,19.61846198954756,46.614933435550654,18.217748951501207,-14.26437981382408,248.77731008481896,52.18539627764393
36,-1.0410813924317892,-247.92095986489423,19.55882658034107,46.34745730309635,17.484663291642256,-13.967581351141718,248.70219444871353,51.61827023442208
37,-0.9659845013024955,-247.84500945798206,19.498650470177875,46.08912548116751,16.744980566513487,-13.655661880246717,248.62163902017085,51.06021928522269
38,-0.8921516609219247,-247.7648077774956,19.43801752002737,45.84202002895631,16.002327302156996,-13.330856850204047,248.536944766207,50.51526669614325
39,-0.8202792475072663,-247.68170091405685,19.37700502187581,45.60777664270841,15.260022456464432,-12.99546331334162,248.44946285762683,49.98684272147052
40,-0.7509415523302161,-247.5970608738028,19.315688458515233,45.38759058726207,14.521076771550858,-12.651839544866885,248.36056732653654,49.477787021946234
41,-0.6845845122642698,-247.51225681415278,19.25414621362352,45.18225072569926,13.78820710197953,-12.302405570271302,248.27162660965993,48.99038402582451
42,-0.621523315139417,-247.4286260331435,19.192464404257738,44.992199750868075,13.063863106940563,-11.949641358139655,248.18397491461297,48.52642785154534
43,-0.5619442259339987,-247.3474456956274,19.130741970444422,44.81761676176638,12.35026255319201,-11.596079718968909,248.09888440830474,48.08731131039592
44,-0.5059107384570904,-247.26990627108822,19.069096102445226,44.658516568889766,11.649430783896573,-11.244291577050562,248.0175392132139,47.67413182168837
45,-0.4533739097732728,-247.19708758212545,19.007668042080258,44.51485870325292,10.963239807013432,-10.89686215298863,247.94101211737672,47.28780594420433
46,-0.4041865447639819,-247.1299382664765,18.946629194017397,44.3866582104382,10.29344291159758,-10.5563575866104,247.8702447987625,46.92918375783792
47,-0.35812074697682106,-247.06925936732637,18.886187249654387,44.27409009573547,9.641701574166945,-10.225282502865586,247.80603225682754,46.59915457724547
48,-0.3148881982512525,-247.01569262050884,18.826591742519263,44.17757981552245,9.00960249178548,-9.906029867209789,247.74901197364952,46.298736424697445
49,-0.27416236930122106,-246.96971373064892,18.768138299469523,44.097873411420274,8.398663715131717,-9.60082516085871,247.6996580356489,46.0291432209449
50,-0.23560171144113154,-246.93163055752072,18.711170892456323,44.03608259995973,7.810329901719037,-9.31166744820156,247.65828007585756,45.79182560242418
51,-0.19887274658256554,-246.90158576955258,18.656081541211222,43.99370217006924,7.245957537666376,-9.040270312425022,247.62502653967948,45.588483443723085
52,-0.16367187805822167,-246.8795632418355,18.60330708367634,43.97259918699974,6.706791543287132,-8.788005884856435,247.59989150601217,45.421050346787844
53,-0.12974473638006478,-246.86539731224124,18.553322850267577,43.97497551089465,6.193935045975844,-8.555855283478829,247.58272414465645,45.29165233910803
54,-0.09690200387965649,-246.85878393192394,18.506633393713415,44.00330675987302,5.708314360615998,-8.344368704977187,247.57323983514235,45.202544583480154
55,-0.06503092960900678,-246.8592927099089,18.463760760986993,44.06026189861406,5.250641390819438,-8.15363816273344,247.57103195995714,45.1560308711308
56,-0.03410208848711657,-246.86637889538454,18.425231024693772,44.14860809262666,4.821375747238363,-7.983285414502682,247.57558344558626,45.15437102367764
57,-0.004171294137741618,-246.8793945702459,18.3915599097699,44.27110547095329,4.420688903331022,-7.832467000094242,247.58627736017894,45.199681206549094
58,0.024623082280997098,-246.8975987679731,18.36323845779942,44.43039616307392,4.048432736252532,-7.699897555148668,247.60240632429492,45.29383174643457
59,0.0520668389548519,-246.92016679181188,18.34071979514161,44.628891512923694,3.704114849984451,-7.583891697949516,247.62318105490598,45.4383464473678
60,0.0778799984231438,-246.9461994949145,18.324408040002098,44.8686607020907,3.3868830858270056,-7.48242378579995,247.64773885478084,45.63430658474657
61,0.10172947073846729,-246.97473353908023,18.314650005888623,45.15132310640312,3.0955214841629437,-7.39320373101341,247.6751531002154,45.88226168781897
62,0.12324366815733352,-247.00475363564254,18.311729776806995,45.47794570013103,2.8284595970865354,-7.313765981228347,247.7044447441037,46.18214804207632
63,0.14202840604884345,-247.0352076139048,18.315865838314828,45.8489460529411,2.5837964639852173,-7.24156788390111,247.73459667993993,46.533214917998954
64,0.15768335931140726,-247.06502495519345,18.327210372424627,46.26400132446492,2.35933979438168,-7.1740930960760725,247.7645716059225,46.93395826883692
65,0.16981833263266569,-247.0931391289963,18.34585029153273,46.721964341454125,2.152659993246501,-7.1089554927653635,247.79333372504155,47.38206223680646
66,0.17806865907855718,-247.11851361530566,18.371809404621562,47.22078919420802,1.9611576486984965,-7.043999116790558,247.81987415083756,47.87435011299206
67,0.1821091113250549,-247.14017096615538,18.40505092543786,47.75747036456675,1.7821420457836994,-6.977389996919276,247.84323934384233,48.40674795437933
68,0.18166582543562065,-247.1572237791935,18.445479547616603,48.32800066728764,1.6129172801448626,-6.907696009689007,247.86256142457236,48.97426532768163
69,0.17652595421547357,-247.16890607028142,18.49294250688398,48.9273538839242,1.4508717521107837,-6.833951281225497,247.87708883644862,49.57099824891557
70,0.1665450136953712,-247.1746032091841,18.547229265305866,49.54949776503495,1.2935663591918969,-6.7557019626022,247.88621552252474,50.190159207347676
71,0.1516520254230228,-247.17387835027557,18.608069584241544,50.187442073489756,1.138816692100069,-6.673030738534648,247.88950655367884,50.82413824502321
72,0.131852567086189,-247.16649328151652,18.675129847101342,50.83332457648472,0.9847650328427727,-6.586558270558202,247.88671813931228,51.4645974779061
73,0.10722983669340672,-247.15242195684243,18.74800766825738,51.478535472415295,0.8299388900582958,-6.4974208703451115,247.8778103008656,52.10259928222967
74,0.07794391003709748,-247.13185564669942,18.826225100048685,52.11387789709162,0.6732940095246899,-6.407224881652763,247.86295117271126,52.728765815797814
75,0.04422949690045143,-247.1051994409497,18.90922101586238,52.72975925572221,0.5142410580710638,-6.317979424881898,247.84251270860943,53.333464918613465
76,0.0063925536817873415,-247.07306053025573,18.9963434234347,53.31640559088597,0.3526563243293314,-6.232010318771554,247.81705827174818,53.90701513632628
77,-0.035193997726230275,-247.03622914777972,19.0868425716572,53.86408938638382,0.18887767460713958,-6.151859121061918,247.78732304594374,54.43990098375682
78,-0.08009541843634237,-246.99565327497118,19.179865791111485,54.36336035147083,0.0236875441227789,-6.0801722492012145,247.75418843013392,54.92298883134891
79,-0.1278213470739375,-246.95240828653667,19.274455054467296,54.80526890904159,-0.14171509725512996,-6.019585941019299,247.71865165138036,55.34773402904294
80,-0.17783330529408317,-246.9076627280586,19.369548229751892,55.181573263748554,-0.3057520050972826,-5.97261326142713,247.68179184943395,55.70637102007209
81,-0.2295537147642435,-246.86264142513437,19.4639848598642,55.48492284115787,-0.46651060282027484,-5.941539330230121,247.64473388416488,55.99208003682396
82,-0.28237639612678267,-246.8185871137623,19.556517028766415,55.70901322138744,-0.621795242534973,-5.928330383362933,247.60861109290767,56.19912617811445
83,-0.33567817705958297,-246.77672178547215,19.64582560928714,55.84871003915072,-0.7691834206124739,-5.934561251776373,247.57452821327738,56.32296885773137
84,-0.3888309481230225,-246.73820897559267,19.730542038180317,55.90014133138721,-0.9060854349854673,-5.961364507167129,247.54352571226528,56.36034145003568
85,-0.44121340345348964,-246.70411823323136,19.809275617946874,55.860759242915556,-1.0298057857402036,-6.009403031884507,247.5165467600528,56.30930221173987
86,-0.4922217439720781,-246.67539293925256,19.880646017228447,55.7293727673613,-1.1376045128977317,-6.078866209288453,247.49440798670875,56.16925815461726
87,-0.5412787062992291,-246.65282250211106,19.94332013650042,55.506153412856385,-1.2267567150086538,-6.169488377305924,247.47777498153624,55.94096359595341
88,-0.587840416943122,-246.6370198037581,19.996052011992322,55.19261561677698,-1.2946087386096259,-6.280586768301041,247.46714329602102,55.62649490755824
89,-0.631400805945703,-246.62840460355469,20.037724112403797,54.791573719167886,-1.3386299487303055,-6.411115013472699,247.46282551925418,55.22920285593566
90,-0.6714936313427502,-246.6271934396566,20.067388242820805,54.30707755716687,-1.3564595036494376,-6.5597274928707066,247.4649448120805,54.753644095642734
91,-0.7076925191460803,-246.63339637181548,20.084304180514923,53.74432928354436,-1.3459480757775755,-6.724849365263505,247.47343508117967,54.205493867927764
92,-0.7396097698567524,-246.64682062856107,20.087973991898206,53.10958468950024,-1.3051949030870147,-6.904747022635953,247.48804767944398,53.59144262292789
93,-0.7668949330992038,-246.6670808482445,20.07816972143869,52.41004286029937,-1.2325808116105839,-7.097594024879239,247.50836412839595,52.919079874978
94,-0.7892341815375187,-246.69361523038657,20.054952016743442,51.653728123795524,-1.1267978215325798,-7.301528311326015,247.53381398067,52.19676884375423
95,-0.8063512766770202,-246.72570662826075,20.01867752305187,50.84936779971987,-0.9868756581863736,-7.5146976083372765,247.56369668144896,51.4335151666365
96,-0.8180105156262055,-246.76250742329768,19.96999358379537,50.006268282421885,-0.812205083028695,-7.7352913019719365,247.5972061567783,50.638832230234094
97,-0.8240216533373532,-246.8030669315773,19.909819735295855,49.13419073937946,-0.6025576004007855,-7.961558425656335,247.633456844256,49.82260467201107
98,-0.8242465126680171,-246.84636013981066,19.839316501110382,48.24322649627318,-0.3581008769363763,-8.191812685126468,247.6715100111514,48.99495062904524
99,-0.8186068164590795,-246.8913167316274,19.759842979706324,47.343671288099664,-0.07940917400164073,-8.424426517877611,247.71039944731191,48.166082620067044
100,-0.8070926537032338,-246.93684954873837,19.67290560905174,46.44589716101357,0.23253174455294157,-8.657816961962006,247.7491558731156,47.34616669308668
101,-0.7897709028670982,-246.98188180039662,19.580101218391302,45.5602209515692,0.5763254467414719,-8.890426519357966,247.78682962602366,46.545179677961286
102,-0.7667928831601648,-247.02537257730532,19.483057952038582,44.696768891058554,0.9501712685624842,-9.120702276095153,247.82251146572509,45.77276499684481
103,-0.7384005118048151,-247.06634060391443,19.383377744778542,43.86533786817045,1.3518759743753235,-9.347076379627936,247.8553517198183,45.03808840789959
104,-0.7049303452479226,-247.1038865417524,19.282583671152825,43.075255057421494,1.778870249824192,-9.567950649837664,247.8845783409417,44.34969612922836
105,-0.6668150533726946,-247.13721428158718,19.1820747572869,42.33523876876897,2.2282298325462047,-9.781687672683043,247.9095145141758,43.71537880915758
106,-0.6245820068818485,-247.16565140631502,19.083089931380027,41.65326431063202,2.6967014003827123,-9.98661025024951,247.92959612706568,43.14204560221327
107,-0.5788486672375025,-247.18866848672667,18.986681941398306,41.03643925310967,3.1807336701645923,-10.181010565142044,247.94438882821964,42.63561304817133
108,-0.5303144298590574,-247.2058963401772,18.89370147033936,40.49089263124367,3.6765144440907678,-10.363169809919164,247.95360381967924,42.200913426628226
109,-0.47974864243248244,-247.21714005706244,18.80479129088412,40.021682299065894,4.180014538995063,-10.531388315675684,247.9571111712194,41.841626728787666
110,-0.42797477775693976,-247.22238857934832,18.720389880423156,39.63272390802149,4.687039637837767,-10.684025473704876,247.9549493923422,41.56023944210519
111,-0.3758511299046346,-247.221818859976,18.64074337366052,39.32674401857899,5.193291090608296,-10.819548096237638,247.94733020373147,41.3580321797622
112,-0.3242488024604481,-247.21579400700944,18.56592430048782,39.10525886752829,5.694436494375,-10.936585331777303,247.9346377959482,41.23509700505425
113,-0.27402805417802406,-247.2048551724829,18.495855452078494,38.9685794421399,6.186190433328886,-11.03398777210296,247.91742221512314,41.19038421343585
114,-0.22601420063380917,-247.1897072101678,18.430337336461445,38.91584277037702,6.664405052161934,-11.11088791885904,247.89638679322545,41.221777347280046
115,-0.18097425669800712,-247.1711983422477,18.369077844897745,38.94506864138505,7.125169202682038,-11.166758774215808,247.87236977273554,41.32619426943411
116,-0.13959540549827432,-247.15029433099554,18.311722921003412,39.053240214606326,7.564913796144331,-11.201467083456006,247.84632054601863,41.49971113870836
117,-0.1024662372053559,-247.128047971861,18.257887218709737,39.23640608046432,7.980519810058861,-11.215317733079198,247.8192712619251,41.73770506096545
118,-0.07006151902552665,-247.1055650441919,18.207183915825343,39.489800290026096,8.369424299248617,-11.209085981636438,247.79230488031138,42.03501004171749
119,-0.0427310366236621,-247.08396807921312,18.159252958176282,39.807975768525786,8.72971893711101,-11.184034562128119,247.76652098184687,42.38607975759712
120,-0.02069281933347814,-247.06435936650473,18.113786984717326,40.18494555508527,9.060235217847648,-11.141913253699833,247.74300069750066,42.785149806185096
121,-0.0040308930855740745,-247.04778452348617,18.070554044438495,40.61432567594922,9.360610564880671,-11.08493927246374,247.72277201406163,43.22639170694567
122,0.007302368937240987,-247.03519777100536,18.029416098502576,41.08947330853585,9.631330243719923,-11.015757750088943,247.70677652177736,43.70405116146676
123,0.013479279837609853,-247.0274298844495,17.990342313697344,41.6036142779797,9.873741160553752,-10.937382618569474,247.69583849733397,44.212563984928565
124,0.014785385344040244,-247.02515967315736,17.953416292069903,42.14995480547001,10.090035266358013,-10.853119343260488,247.69063710868673,44.74664462717245
125,0.01160390529308277,-247.0288897875683,17.91883666184484,42.721773696494346,10.283202213296812,-10.766472030087563,247.69168249501752,45.30134414386313
126,0.004396715234768543,-247.03892765467728,17.886910937402497,43.312492677720606,10.456952880371146,-10.681038326696392,247.69929651097945,45.872076619683725
127,-0.006317304657385706,-247.0553723550045,17.858043178570068,43.91572420623707,10.61561713229634,-10.600396159207898,247.71359898171235,46.45461514503626
128,-0.01998564176881699,-247.07810818664348,17.832716521593827,44.52529764695247,10.764020492633835,-10.527986741007014,247.73450028578856,47.04506033561227
129,-0.03604630172600245,-247.106805430879,17.811471941309172,45.135266171665904,10.907345212041173,-10.466998546799251,247.76170087132596,47.6397859999517
130,-0.05395175558460621,-247.14092844589996,17.79488465136163,45.73989807829076,11.050981521356384,-10.420257079759196,247.79469792404154,48.23536792623102
131,-0.07319164946574945,-247.1797507798006,17.78353943957205,46.33365749148868,11.20037475472141,-10.390125192205065,247.83279896159513,48.82850291718143
132,-0.09331325475474822,-247.2223766312413,17.778005954080285,46.91118057523671,11.36087359328907,-10.378418349239963,247.87514174623988,49.41592614642264
133,-0.11393877576982785,-247.26776772456677,17.778814498249275,47.467254327970515,11.53758400981348,-10.386338525428553,247.92071961624058,49.99433552824195
134,-0.13477883616636324,-247.3147744611992,17.78643243922017,47.996805427402464,11.73523269590417,-10.41442948436037,247.96841110253052,50.56033182001352
135,-0.15564159785592457,-247.36217002664537,17.80124110676425,48.49490602356284,11.95804292046795,-10.462555146605617,248.01701250002372,51.110382249266536
136,-0.17643700003500962,-247.40868599317767,17.82351307410951,48.956801539075336,12.209624985560586,-10.52990170677271,248.06527192403104,51.640813321929315
137,-0.19717570124845818,-247.45304794065456,17.85338987269102,49.37796245820454,12.49288282041778,-10.615003162438244,248.1119233743135,52.147835195413954
138,-0.2179626231036001,-247.494009796517,17.89086050458206,49.75415819728136,12.80993787233083,-10.7157889843135,248.15571952970458,52.62759602607695
139,-0.2389854728535979,-247.53038592939419,17.935741638858183,50.081547150817116,13.162071296192849,-10.829651819109525,248.195462368647,53.076260694712495
140,-0.2604990575068084,-247.5610803765348,17.987660995230932,50.356773721577184,13.549685389054133,-10.953532428983907,248.23003110320343,53.49010503174138
141,-0.2828064707416996,-247.58511286770923,18.04604583424884,50.57706136737519,13.972285135440082,-11.084018560113398,248.2584072274469,53.8656148336427
142,-0.3062383665746834,-247.6016415550644,18.110118467565027,50.74029098345852,14.428480561037096,-11.217454052386314,248.27969672807197,54.19957908670032
143,-0.331131612752853,-247.60998253307054,18.17890026560419,50.845056312652105,14.91601028401078,-11.350054185869157,248.2931496509846,54.48916890109258
144,-0.35780867145986095,-247.6096262180641,18.251224888599605,50.89069194304581,15.43178610775543,-11.478023005401708,248.29817715506599,54.73199712537097
145,-0.3865590288900828,-247.60025047896414,18.325760592341716,50.87727380656233,15.971957644560499,-11.597668242138527,248.29436595073244,54.92615748914485
146,-0.41762380718408454,-247.58173026658318,18.40104071317911,50.805595852964046,16.531994860722683,-11.705509528197314,248.28148982718915,55.07024540026158
147,-0.4511843386379819,-247.55414347725556,18.47550097657001,50.677128929947585,17.106785303731517,-11.798375888418892,248.25951792675664,55.16336447841583
148,-0.4873550477095903,-247.51777281627704,18.54752207791816,50.49396853734685,17.690741883555013,-11.87348896091471,248.228619436473,55.20512331823636
149,-0.5261805528071937,-247.47310341584105,18.61547595119779,50.258777246617115,18.277916640178184,-11.928529013309051,248.18916434917767,55.19562611153925
150,-0.5676364928060539,-247.42081593327828,18.67777416964571,49.97472572403398,18.862116004728048,-11.961681568101005,248.14171991455683,55.135459171878054
151,-0.6116332194402495,-247.3617748647777,18.732916949140762,49.645434117068724,19.437013593385107,-11.971663338288566,248.08704240697614,55.02567370476154
152,-0.6580212443838303,-247.29701191509085,18.77954128504939,49.274913648210216,19.996257437820795,-11.957727228967919,248.02606394233598,54.86776386998175
153,-0.7065972866069965,-247.2277044901229,18.816466926817874,48.867507014139896,20.53356958861435,-11.919647358511368,247.95987431280645,54.66363859157596
154,-0.757109962884695,-247.1551496854422,18.842739121715816,48.42782578194759,21.042837032930624,-11.85768626677448,247.88969813096608,54.41558573291431
155,-0.8092644996518257,-247.08073449969532,18.857667155597557,47.96068337632897,21.518193662740874,-11.772547518885997,247.81686793883622,54.12622802564376
156,-0.8627261475939412,-247.00590340391008,18.860857602120316,47.47102326736269,21.954093510522018,-11.66531762108489,247.74279433037,53.79847127325661
157,-0.9171221726189103,-246.9321247281519,18.852240938232544,46.96384328014963,22.3453756409356,-11.537401457446185,247.66893444518735,53.43544654755291
158,-0.9720424422231518,-246.8608573810941,18.8320898866237,46.444118205312286,22.687321048253995,-11.390455347902353,247.59676021992243,53.04044909027861
159,-1.0270388050958723,-246.79351913904654,18.801027597683323,45.91672380754833,22.975701787733538,-11.226321425926143,247.52772748309783,52.61687724041278
160,-1.0816236618431962,-246.73145728355604,18.760023743203206,45.3863657296456,23.20682245010588,-11.046966470436425,247.46324651706624,52.16817483436687
161,-1.1352683014668494,-246.67592193357126,18.710376920439895,44.85751661049784,23.377554007651096,-10.854427663080081,247.4046543012651,51.69778015229834
162,-1.187401750650527,-246.62804213353454,18.65368249630556,44.33436402516142,23.48536003927908,-10.650766965523918,247.35318842277897,51.209083667206656
163,-1.2374110774713556,-246.58880464177346,18.591786059795854,43.82077073209304,23.528315391831647,-10.438034929661391,247.30996260526229,50.70539571237378
164,-1.2846442226652137,-246.5590353489768,18.52672382770766,43.320247349349714,23.505117445880636,-10.218243857776072,247.27594388640924,50.189923881786484
165,-1.3284163487991805,-246.53938328452978,18.460652480465477,42.835936205393075,23.41509031531608,-9.993349437999766,247.25193159119473,49.66575873034666
166,-1.3680203585423119,-246.5303072803828,18.395771810040074,42.37060396058391,23.258182523868424,-9.765239366229869,247.2385384288324,49.13586536468339
167,-1.402741754770663,-246.53206563127588,18.334244086377613,41.92663985152208,23.034958958738308,-9.535727063368844,247.23617434743034,48.603077964221356
168,-1.4318775427963333,-246.54470943208023,18.27811414798118,41.50605617179826,22.746588135151704,-9.306548431077369,247.24503412527815,48.07009420282976
169,-1.4547584731761654,-246.56808044703936,18.22923401147166,41.11048790766529,22.394825898091366,-9.079359662139096,247.26508983123097,47.53946693125408
170,-1.4707736071533153,-246.60181422069343,18.189195428213534,40.74118927388123,21.981996547367878,-8.855734384214756,247.29608911046827,47.0135912595427
171,-1.4793959738399067,-246.6453487473136,18.159273314282267,40.39902614288357,21.51097199785242,-8.637158787820141,247.33755981945694,46.49468624362819
172,-1.4802079779092645,-246.69793854441787,18.140382274976453,40.08446482804258,20.985149043637964,-8.42502382507235,247.38882101003838,45.98477157516824
173,-1.4729251758413082,-246.75867357255086,18.1330475856203,39.79755910067703,20.408424177448534,-8.220614074696497,247.4489997961776,45.4856408042128
174,-1.4574170540193272,-246.8265022086638,18.137391183825788,39.5379384617357,19.785164857972568,-8.025093442301944,247.51705334314818,44.99883354117575
175,-1.4337235556960086,-246.90025740755453,18.153132644692832,39.304801423256734,19.120175783931707,-7.839488423146841,247.59179510444582,44.525609727880344
176,-1.4020663660246913,-246.97868513910424,18.179604727945613,39.096917818681206,18.418658746630744,-7.6646701023975865,247.67192436091204,44.066929416192394
177,-1.362854348543469,-247.06047407273266,18.215782751868996,38.91264393572424,17.6861649893926,-7.501336356762027,247.7560579824482,43.62344152021023
178,-1.316682935652753,-247.14428538909758,18.260326621984888,38.74995358483314,16.92853957873441,-7.34999583625954,247.8427632168053,43.19548468423307
179,-1.2643276185573247,-247.22878169818682,18.31163378616187,38.60648713523118,16.1518579302794,-7.210955249469067,247.9305903722945,42.783102706886915
180,-1.2067318896605856,-247.3126543337935,18.36790079110114,38.4796191127829,15.362355223691951,-7.084311287081205,248.0181045084289,42.38607587299925
181,-1.144990021122337,-247.39464857991103,18.427190620063683,38.366543236037984,14.566349942472186,-6.969948256006696,248.1039154943561,42.00396812518248
182,-1.0803249712931637,-247.47358649627895,18.48750269827522,38.26437194920546,13.770163173558016,-6.867542205261853,248.18670587962822,41.636188419144126
183,-1.0140616410585084,-247.54838699203808,18.546842394990232,38.17024587482351,12.98003558487055,-6.7765720199393895,248.26525599324114,41.2820631021672
184,-0.9475957656015898,-247.61808276471228,18.603287020535983,38.08144744565268,12.202044157757308,-6.696337630301666,248.3384656619465,40.94091499843378
185,-0.8823589252409052,-247.68183363745734,18.655045674879897,37.99551248131325,11.442020798488844,-6.62598511160526,248.4053718771354,40.612144273931776
186,-0.8197804472504294,-247.73893561528797,18.700510795050246,37.910333696334185,10.705474900422168,-6.56453802636166,248.46516156310514,40.29530615460314
187,-0.7612473215391168,-247.78882483808465,18.73829984740932,37.8242509417471,9.997521753330933,-6.510933891891036,248.51717850434153,39.99018108757845
188,-0.7080636035232091,-247.8310759176903,18.767286359584784,37.736124133933586,9.322818361854662,-6.464064185346623,248.56092386028823,39.69683373446342
189,-0.6614109974824859,-247.86539498263926,18.78662036690075,37.64538602241804,8.685507737331868,-6.422815907567401,248.59605060246966,39.4156580126878
190,-0.6223123270982946,-247.89160867791335,18.79573913061753,37.55207298617636,8.089172103384042,-6.386112493786347,248.62235319197504,39.14740608527045
191,-0.5915994699965869,-247.90965085873233,18.794369365361895,37.45683282439059,7.53679477586032,-6.352951812823885,248.6397543329991,38.89319966820515
192,-0.5698871536656787,-247.91954869569759,18.78252211012491,37.36090899059726,7.03072986374158,-6.322439131451753,248.6482906055452,38.65452227512972
193,-0.5575537919312868,-247.92140969301025,18.760481040456156,37.26610095082517,6.572678560915197,-6.293813227630432,248.64809853696133,38.43319112657363
194,-0.5547302608690059,-247.9154109622745,18.728784810400253,37.174700484831035,6.163670814891415,-6.266464294429209,248.6394024952533,38.231307596004655
195,-0.5612971925598276,-247.90179191660087,18.688204048484742,37.08940407066628,5.8040516130306825,-6.2399428401009684,248.62250561123722,38.051185511848225
196,-0.5768910423567934,-247.88085116946036,18.639713703100995,37.01320229833256,5.493471914170327,-6.213959406441116,248.59778456216245,37.89525764003264
197,-0.6009188480571794,-247.8529478326982,18.584461339547133,36.949248716871296,5.2308851792130815,-6.188375555232149,248.56568845370927,37.765962347339276
198,-0.6325812102211793,-247.818506764314,18.523731835992184,36.90071252494669,5.014551344027378,-6.163187169509319,248.52674138344588,37.6656146459022
199,-0.6709025990036772,-247.77802676761772,18.458908947445845,36.87062166800591,4.842050801698103,-6.138501629219968,248.48154772329772,37.59626812636497
200,-0.7147676957171509,-247.73209035520327,18.391434436360235,36.861704661767874,4.710311368070494,-6.114510797814853,248.43079878907213,37.55957614799523
201,-0.7629621273699838,-247.68137348852096,18.322765709541063,36.8762403685585,4.615651131108969,-6.0914619662944895,248.3752793803872,37.556661605898114
202,-0.8142156320954601,-247.6266537200206,18.254333006972676,36.91592481130369,4.553839472460086,-6.069628935215267,248.3158726962225,37.588004440670474
203,-0.867245442929998,-247.56881540948297,18.187497198754038,36.981763001285806,4.52017751054558,-6.049285281749278,248.25356237295435,37.65335489037575
204,-0.9207976080978191,-247.5088510729675,18.12350926709785,37.07399196368619,4.509597955640111,-6.030681588715202,248.18943077643894,37.75167861133905
205,-0.9736841483252344,-247.44785828868817,18.063472599385477,37.19203902882566,4.51678307806138,-6.014028056705931,248.1246530475403,37.88113758748824
206,-1.0248143419087918,-247.3870318054488,18.008309191029397,37.33451731822349,4.536298295498975,-5.999483531561079,248.06048662082895,38.03910851874995
207,-1.0732189314175806,-247.32765057862994,17.958730680689666,37.499258361651364,4.5627378565875825,-5.9871515981285075,247.99825600572254,38.222238302676004
208,-1.1180666073405012,-247.271059508745,17.91521495844757,37.68337999968313,4.590878269169332,-5.977084053684286,247.93933266057502,38.426534372048266
209,-1.1586727277187296,-247.218645824345,17.87798908978226,37.8833861890924,4.615834479278224,-5.969291804840679,247.8851099628573,38.64748606044639
210,-1.1945008485394863,-247.17181040951957,17.84701937983471,38.095294048989906,4.633213288655355,-5.963763010357361,247.83697364946713,38.88021184289768
211,-1.225158203622858,-247.13193483164522,17.82200928474699,38.31478241742811,4.639258060676243,-5.960488063707302,247.7962685540673,39.11962618282971
212,-1.2503867037693532,-247.1003451820213,17.80240553997985,38.53735523447147,4.6309784679919295,-5.9594907432590265,247.7642628046655,39.36061871811135
213,-1.2700512480574349,-247.07827403426148,17.78741256444146,38.75851218436335,4.606259036989099,-5.960864562502962,247.74211081439196,39.59823761709319
214,-1.2841271115059625,-247.06682195813266,17.7760150471585,38.97391832539114,4.5639406941667575,-5.964813019657204,247.73081651644534,39.82786826143384
215,-1.2926879065193215,-247.06692015769542,17.767008516074792,39.17956414701213,4.5038704717371845,-5.971692033162043,247.7311984114299,40.0453982075266
216,-1.2958951832628045,-247.0792958495356,17.75903743749585,39.371907858511356,4.426915920079865,-5.982052344352946,247.74385801777248,40.24735986961635
217,-1.293990220852808,-247.10444188539412,17.75063989796681,39.54799287074853,4.334942454399922,-5.996679146591002,247.7691531635063,40.43104367366706
218,-1.2872880249907286,-247.14259187321977,17.740297248813608,39.70553536532575,4.230753663170427,-6.016625792770081,247.80717725519497,40.59457651699491
219,-1.2761730449253865,-247.19370172795507,17.72648650245562,39.84297934974153,4.117996376960707,-6.043238251096968,247.8577452911747,40.73696302162932
220,-1.2610957363368027,-247.25743828818747,17.707733041163387,39.95951930961426,4.00103389981732,-6.078167088661805,247.92038707136447,40.8580899238524
221,-1.242568906802286,-247.3331754610586,17.68266139813152,40.05509307330662,3.8847921113679806,-6.1233641824803735,247.99434789311357,40.95869658000906
222,-1.221162812265494,-247.41999827570132,17.650042286348274,40.13034945814314,3.7745840692941957,-6.181062024464904,248.0785969671339,41.04031663995535
223,-1.1974981691430036,-247.5167150903691,17.608834397040876,40.18659647947538,3.675919281728218,-6.253734270960027,248.17184367464517,41.105197245400845
224,-1.1722364925619295,-247.62187791589432,17.558219632872223,40.225736328727066,3.5943040774657935,-6.344037012226287,248.27256151208275,41.156202616222515
225,-1.1460673973543198,-247.73381042496666,17.497630450120887,40.25019302044995,3.535039610702275,-6.454731148637121,248.37901917418594,41.19670868222098
226,-1.119692761837244,-247.8506428119135,17.42676802347369,40.26283770091736,3.5030240631281653,-6.588587322756458,248.48931782122,41.230494652245454
227,-1.0938080486463642,-247.9703523358742,17.34561014358976,40.26691529132903,3.502565505572211,-6.748276003827322,248.6014332566114,41.26163625495218
228,-1.069081573119298,-248.09080816401652,17.254408150033587,40.265974649048374,3.537211541632685,-6.936246377580348,248.71326155308003,41.2944040252818
229,-1.0461329552051286,-248.20981902385657,17.15367277210273,40.26380306135221,3.6096011979685776,-7.154598522454127,248.82266659894557,41.33316869940751
230,-1.0255122429155086,-248.32518215535964,17.04414944532965,40.264364918965384,3.721343591600538,-7.404953918124625,248.92752806703072,41.382314792246575
231,-1.0076812051845483,-248.4347321379907,16.926784394235277,40.27174398970604,3.8729268469401688,-7.688329641681894,249.02578844282385,41.446162915289364
232,-0.9929980931042071,-248.53638833880433,16.80268339347268,40.29008874378367,4.063659722478276,-8.005021676837808,249.11549796126857,41.52890128166164
233,-0.9817068426306614,-248.62819986192528,16.673065544712035,40.323560438039294,4.29164753714301,-8.354502641277845,249.19485646359624,41.63452692499186
234,-0.9739313279555747,-248.70838687569798,16.53921460928143,40.37628389981513,4.553803266955369,-8.73533898991645,249.2622511938152,41.76679719861874
235,-0.9696749218355768,-248.77537714185047,16.402430426947298,40.45230101388022,4.84589405356126,-9.145132385813321,249.31628950001365,41.929191976171694
236,-0.9688252982080676,-248.8278366537218,16.263982743563712,40.55552681850053,5.162622751384107,-9.580489390926168,249.35582547261137,42.1248866426381
237,-0.9711641618989199,-248.86469357193266,16.12506941379648,40.68970799494025,5.497743505319977,-10.037022868372112,249.379979809173,42.356735572035575
238,-0.9763814280022166,-248.8851550653789,15.986780572321768,40.85838351660744,5.844209717493959,-10.509387524427321,249.3881525937063,42.62726546536205
239,-0.9840932232346806,-248.8887171455512,15.850070098148631,41.06484734072028,6.1943521761322105,-10.9913509225257,249.3800291485943,42.9386777168321
240,-0.993862831602344,-248.8751680576653,15.715735463494829,41.31211326363982,6.540084626135651,-11.475900137353847,249.3555795886094,43.292858889877834
241,-1.005223358840682,-248.8445861965723,15.584406697791577,41.602882437268796,6.873133686689441,-11.955383005123473,249.31505309981569,43.69139844048269
242,-1.017700594848595,-248.79733377549698,15.456544730798695,41.93951457615899,7.185289737140795,-12.42168166207001,249.25896820826642,44.135613040036944
243,-1.0308344849650668,-248.73404750191258,15.33244898992512,42.324004539933654,7.468675036759709,-12.866414745321597,249.1881003170919,44.626577176294354
244,-1.0441978198837099,-248.65562723710153,15.212273886959851,42.75796666152103,7.7160246065528435,-13.281163251880297,249.10346751144354,45.16516003161478
245,-1.057411103389503,-248.56322307286786,15.096053615288463,43.24262973033959,7.920973995350027,-13.65771361316607,249.00631508988985,45.75206875677155
246,-1.0701529402293413,-248.45822062001275,14.983734331562404,43.77884562386887,8.078345985671485,-13.98831010244508,248.89809863713626,46.38789789261935
247,-1.0821657000905447,-248.34222376143626,14.875212304033472,44.36711383542343,8.184425951878925,-14.265907386689141,248.780464897983,47.073183542948684
248,-1.0932566680585611,-248.21703379113697,14.770376155916379,45.00762229728765,8.237213526066837,-14.48441304936576,248.65522936964513,47.80845882144629
249,-1.1032953164416792,-248.08462377356778,14.669151116388422,45.70030195566767,8.236636941122871,-14.638909453375947,248.52434944392525,48.594304251005624
250,-1.1122076437435868,-247.9471071042463,14.571543192118714,46.44488891589358,8.184716212718572,-14.725844581930282,248.38989208775743,49.431383738223005
251,-1.1199686858158968,-247.80669959506693,14.477681185464316,47.24098437117794,8.085662345311542,-14.743182601925467,248.25399540036506,50.320454285554824
252,-1.1265943047972207,-247.66567491743544,14.387854427848632,48.08809975036982,7.94590200324595,-14.69050676992452,248.1188238937647,51.26233646194988
253,-1.1321332302123701,-247.52631387902122,14.302544134752546,48.9856731475357,7.774020375276277,-14.569069700881167,247.9865179869134,52.25783318940832
254,-1.1366601213742542,-247.3908486829786,14.222446626855962,49.93304341255228,7.580618865107214,-14.381788657136184,247.85913889268474,53.30758661962392
255,-1.140270189992534,-247.26140387874813,14.148487279561147,50.92937037528832,7.378088237124424,-14.133186162408471,247.73861066673572,54.411866610453195
256,-1.1430756876687824,-247.1399360861808,14.081824696822672,51.97349350658559,7.1803014686174516,-13.829278720730796,247.62666158690516,55.5702893602572
257,-1.145204341337938,-247.0281747811976,14.02384497493442,53.06372665620447,7.002233546524925,-13.477418564844095,247.5247672452366,56.781470825032244
258,-1.1467996552300745,-246.92756653926048,13.976145969701692,54.19759284088075,6.859517777543123,-13.086095073039365,247.43409782650733,58.042626157359784
259,-1.1480229512608895,-246.83922521397125,13.940511386369472,55.37150962155696,6.767949964199191,-12.66470375032805,247.35547209992916,59.349132899714135
260,-1.1490570853233804,-246.7638905939374,13.91887450992629,56.58044153620938,6.742953153228639,-12.22329147769688,247.28932069039658,60.694081257813785
261,-1.1501118313576182,-246.70189802800112,13.913271607188394,57.81754054632184,6.7990167169991516,-11.772287124424968,247.23566112544074,62.067838747989825
262,-1.1514308272136287,-246.653161196063,13.92578542212371,59.07379795917643,6.949124458813987,-11.322226650225806,247.19408682988842,63.45765836645617
263,-1.1532997174946658,-246.6171696093675,13.958479591578788,60.33773162534441,7.20418736676776,-10.883481544208207,247.16377163218104,64.84735902529081
264,-1.1560548413049943,-246.59300169563636,14.013325105390557,61.59513061583297,7.572497549269063,-10.465998879919438,247.14349059358972,66.2171045692352
265,-1.1600916428233727,-246.57935368263836,14.092120182974874,62.82887663963956,8.059220613300846,-10.079060453355327,247.13165730004772,67.54330378419745
266,-1.1658719592029367,-246.57458410898428,14.19640528267148,64.0188579467307,8.665944110642677,-9.731067488566588,247.1263773441953,68.79864918733351
267,-1.1739293498988927,-246.57677369087037,14.32737539135008,65.14198814897787,9.390299494818555,-9.42935628193628,247.12551759938665,69.9523078138252
268,-1.1848715295467898,-246.583800328733,14.485792069250337,66.1723398687571,10.225674118185418,-9.18004888297911,247.12679090876784,70.97027327172073
269,-1.1993787333139774,-246.5934289957396,14.67189775288393,67.0814016299207,11.161028018332031,-8.987941455134443,247.1278557202973,71.8158852807036
270,-1.218196612482963,-246.60341583076587,14.885334464000655,67.83846573990625,12.180827585930398,-8.856431376447699,247.12642971175524,72.45052058724444
271,-1.2421221972788723,-246.61162484611665,15.125068403230925,68.4111544976313,13.265104818033778,-8.787482523607359,247.12041545969626,72.83445703048615
272,-1.2719816946768312,-246.61615442074773,15.389321210237163,68.76609114651734,14.389647000158359,-8.781626615835599,247.10803489939318,72.92790991275
273,-1.308599498064797,-246.61546950156045,15.675508399999757,68.86971988900521,15.52631764015927,-8.837997041956971,247.0879680501458,72.69223606432885
274,-1.3527587494724462,-246.60853442851132,15.980185895067724,68.68927557073106,16.64350561411314,-8.954390333853818,247.05949051147553,72.09129572492284
275,-1.4051548364307258,-246.59494065802406,16.299006410785903,68.19389829739568,17.706696021373794,-9.127349474227692,247.02260367392688,71.09295563645861
276,-1.4663439277009824,-246.57502345835735,16.62668819351827,67.35588158287696,18.679153282298092,-9.352262587938537,246.97815146434348,69.67070895059896
277,-1.5366888950857096,-246.54996193167938,16.95699900550206,66.15203513803303,19.522704532792424,-9.623470253016482,246.92791777993833,67.80537926512388
278,-1.6163048811009761,-246.52185743271306,17.282758362627145,64.56513562171162,20.198609316992005,-9.93437466936333,246.87469951985233,65.48686790336731
279,-1.7050065633537717,-246.4937864594557,17.595860919979454,62.58543111978136,20.6684998741355,-10.277544300255416,246.82235116533587,62.71589601784688
280,-1.8022589696706082,-246.46982518806294,17.887323536410847,60.21215832080657,20.895374869116456,-10.644808449651666,246.77579799404145,59.50568678653246
281,-1.9071336115698192,-246.45504379085992,18.147357993411575,57.45502576445556,20.844628190215687,-11.027337588482544,246.74101602556738,55.883528337096266
282,-2.018271777166242,-246.45546934659112,18.365470728223016,54.33561245134515,20.4850934833911,-11.415707026445453,246.7249775256987,51.892155390526405
283,-2.1338570047068357,-246.47801650298157,18.530590331881196,50.88862865952076,19.790084484387055,-11.799943617147923,246.7355613255786,47.59088709825429
284,-2.2515988914525837,-246.53038520811947,18.63122296670735,47.16298498530573,18.7384109383998,-12.169557432120419,246.7814274618187,43.05646009428586
285,-2.3687302987366476,-246.62092500604928,18.655635298539632,43.222616253275476,17.315349837270066,-12.513562552283764,246.8718559298283,38.3834991518545
286,-2.4820196243172723,-246.7584658580536,18.59206401654907,39.14700881909094,15.513551666156056,-12.820493091430393,247.01654992690936,33.68457270345957
287,-2.5877992438580026,-246.9521163988932,18.428950430176126,35.031382773035666,13.333861162392202,-13.078422110291886,247.22540502908672,29.089786590250533
288,-2.6820106431388084,-247.2110319273279,18.15519784220778,30.986484625916724,10.78603168054957,-13.274992086820184,247.5082472446498,24.745876648179603
289,-2.7602662145170265,-247.54415603162582,17.76044833970477,27.13795137708881,7.889311700521119,-13.397466005811273,247.87454458011587,20.814769213475234
290,-2.8179270885133874,-247.95994137788284,17.235374419690437,23.625213698499017,4.672881450867239,-13.43280790659558,248.33309845715513,17.47158857463411
291,-2.850195637688684,-248.4660567882799,16.571979661689948,20.59991458863914,1.1761171778950301,-13.367800960179496,248.8917229847983,14.902102053551987
292,-2.8522204826693565,-249.06908924659464,15.76390159525156,18.223830415281192,-2.5513395736983466,-13.189209957350592,249.5569216609185,13.299606896460006
293,-2.8192111423093187,-249.77425071733904,14.806708948795341,16.666293749728073,-6.44972991832283,-12.883993553454166,250.33357237223512,12.861278439062513
294,-2.746559131613211,-250.58510039970818,13.6981844593632,16.101131596324674,-10.44956377586312,-12.439569772591808,251.22463231966938,13.784015836449315
295,-2.629962478968018,-251.50329298896938,12.438583235663204,16.70314829138179,-14.472262633362332,-11.844136180829741,252.23087443996064,16.25983970453388
296,-2.4655512653479437,-252.5283625587339,11.030855292654968,18.64419930429625,-18.43107341416604,-11.087043871207285,253.35066589492186,20.470915030197855
297,-2.2500125452954283,-253.65755005541695,9.480819557096344,22.088920260577833,-22.232262460622408,-10.159222056064033,254.57979750281612,26.58429240066922
298,-1.9807134320428696,-254.88568065044691,7.797275861434594,27.190194453452726,-25.776591447521096,-9.053647769036267,255.91137113462176,34.746480596596186
299,-1.6558209980194176,-256.2050956797698,5.992041644143962,34.084461454046824,-28.961068096057762,-7.765853083308719,257.3357504537433,45.077983296660435
300,-1.274417082439644,-257.60564252150374,4.079901374647393,42.88698848260866,-31.68095401136543,-6.294460438209485,258.840578853573,57.66795120943206
301,-0.8366053539031271,-259.07472423416203,2.078458931433533,53.687244062671105,-33.832000183722286,-4.641735140626619,260.41086674893,72.56911729777387
302,-0.3436072342251522,-260.5974089176,0.00788604799901761,66.54452902362571,-35.3128681729439,-2.814142800130262,262.02914830962004,89.79319559097452
303,0.2021573262953419,-262.15659651710524,-2.1094365746069306,81.48403169715517,-36.02768234294585,-0.822898215287812,263.6757052311032,109.30693180603447
304,0.7970086351387684,-263.73323820588644,-4.249384677092036,98.4934802412678,-35.88864642785904,1.3155091186485035,265.3288522631526,131.0289947150484
305,1.4359701466134094,-265.30660074992227,-6.386656374035333,117.52056307798132,-34.81864695463186,3.578829279490723,266.96527617451346,154.8278889912153
306,2.1127598162218093,-266.8545657729852,-8.49542633985555,138.47127621280632,-32.75375741187095,5.938624199593804,268.5604170187815,180.52105203228768
307,2.8198138248356863,-268.353951987442,-10.550068960721076,161.2093323876609,-29.645551326803513,8.359918257731662,270.0888783589319,207.875269355641
308,3.548345901279086,-269.7808473749867,-12.525924256784226,185.55673166884705,-25.46313038041394,10.800949597849213,271.5248516134991,236.60850712556797
309,4.288444567933452,-271.1109378777279,-14.400074731939124,211.2955474600264,-20.1947762307392,13.21304643801116,272.8425387842131,266.3932178900705
310,5.029209395392764,-272.3198192362017,-16.152098037682784,238.1709278763869,-13.84914280738184,15.540653843665373,274.01655741036564,296.8611277225858
311,5.75892574451333,-273.38327917753645,-17.76476034970638,265.8952517499427,-6.455920342618529,17.721536782977875,275.02231179476587,327.6094601164157
312,6.465275723776253,-274.27753843001756,-19.22461908435998,294.1533133459308,1.934076470335452,19.68718478453262,275.83631572658686,358.2084944705029
313,7.135581596015571,-274.9794413505844,-20.522510505194347,322.608343770235,11.249417181006159,21.363442397185338,276.43645446621457,388.2102959504074
314,7.757076875645117,-275.46659055542244,-21.6539063160898,350.90861658510283,21.399152997841597,22.671387957360032,276.8021778030214,417.15839243751634
315,8.317199778671116,-275.7174249292805,-22.61913154606961,378.69433966076764,32.27446759871818,23.52848032087277,276.9146214448922,444.59812043385926
316,8.803903230205805,-275.7112464799751,-23.423442328372655,405.60451431884644,43.75082533154256,23.849988020058984,276.7566604112405,470.0873249949695
317,9.205975015663258,-275.42820775586335,-24.076965811022152,431.28345226647934,55.690549162911445,23.550706679671734,276.31290447265474,493.20708731186375
318,9.513360763749436,-274.8492765793307,-24.59450576033372,455.38668013598965,67.94575756908472,22.546958306550174,275.5696506921787,513.5721697454097
319,9.71748135650328,-273.95619763127405,-24.995217812138744,477.58602356549136,80.36159158902151,20.758851194475724,274.5148108909987,530.8409067994421
320,9.81153529564263,-272.73147064929145,-25.302159339263167,497.57373661844485,92.7796662208661,18.11276329397242,273.13783224271947,544.7243215548363
321,9.790775789632235,-271.1583629682228,-25.54172123481197,515.0656165087278,105.04168085713667,14.543996824722278,271.42962755959826,554.9942994656507
322,9.652752082802822,-269.2209705401964,-25.742952249542714,529.8031090560326,116.99311986998521,9.99953916495591,269.3825288459579,561.4906965045587
323,9.397504850035247,-266.904337299992,-25.936790139368437,541.554461422118,128.48696670821298,4.4408551412839,266.9902741535014,564.1272913076242
324,9.027706133185339,-264.1946384890377,-26.155217129893348,550.115013055162,139.38734407145566,-2.153372055370332,264.2480342900091,562.8965094209292
325,8.548735064252247,-261.0794297033058,-26.430359815933965,555.3067340484267,149.5729810698161,-9.784641269960602,261.1524828397502,557.8728534424023
326,7.968681429318057,-257.5479601236494,-26.793555825625653,556.9771257865949,158.94039874359947,-18.43227168577337,257.70191040219174,549.2149702296816
327,7.298270121256488,-253.5915454889576,-27.27441176868988,554.9975967592521,167.4067007253359,-28.051380295375367,253.89638185682725,537.1662813456205
328,6.550701074091334,-249.20399355653026,-27.89987897080023,549.2614211686349,174.91185766776567,-38.57130034407366,249.73793348474848,522.0541006978896
329,5.741401909718901,-244.38207192247236,-28.693374459262028,539.6813823901082,181.42038221394526,-49.894537425194905,245.23080471867132,504.2871671867021
330,4.887694669458565,-239.12600538470215,-29.6739739837136,526.187199364076,186.92230479127232,-61.89634931792334,240.3816973298399,484.35153198339464
331,4.008383432939881,-233.43998772421267,-30.855701706708782,508.72283294776497,191.43337866630225,-74.42502163699427,235.20005317084403,462.80476100474425
332,3.1232753931455237,-227.33269063958565,-32.246938194973325,487.2437719937246,194.99446556626026,-87.30289632781998,229.69833992927963,440.2684439780489
333,2.2526528966982466,-220.81775025735405,-33.849964814143526,461.71440602552485,197.67008108095644,-100.32819471959255,223.89233230175304,417.41904254631
334,1.4167173426464839,-213.91420925103273,-35.66065850486384,432.1056032582433,199.5461114610588,-113.27765985769422,217.8013735976423,394.97716070033744
335,0.6350275113802663,-206.64689072901172,-37.66834615200087,398.3926289136134,200.72674833584105,-125.91002241452206,211.44860060579052,373.69537936509647
336,-0.07404505502797985,-199.04667939603243,-39.85582269866016,360.5535567629401,201.3307225143685,-137.9702702547164,204.86111335129996,354.34485872792123
337,-0.6938225827695047,-191.15068653150502,-42.19953241409822,318.56834144082205,201.48695000839243,-149.1946748057965,198.07007168609942,337.70097017731507
338,-1.2097716290431633,-183.0022783018776,-44.669908696175504,272.4187236404935,201.3297311540743,-159.31649923751652,191.11070278528172,324.5282669950762
339,-1.609884128908445,-174.65095192870027,-47.2318644190979,222.08912886149903,200.99366604784814,-168.07228512734616,184.0222076460354,315.5651329053317
340,-1.884980138656804,-166.15205115507266,-49.845421963325975,167.5686896615072,200.60846507754584,-175.20858665026827,176.847560473802,311.508457033628
341,-2.028927900403254,-157.56632086564576,-52.466469912669304,108.85447141913781,200.29384054295264,-180.48899586177808,169.63320202385972,312.9986739338865
342,-2.038780306641542,-148.95930992757582,-55.04763242408453,45.95591476678331,200.1546633093949,-183.7012814268329,162.42863595608222,320.60548392777895
343,-1.9148290654347575,-140.40064039784014,-57.53923728721669,-21.0995727372109,200.27655792306152,-184.66444775667895,155.28594509040633,334.81454102967075
344,-1.6605790381118528,-131.96316895181752,-59.89036858469858,-92.26003292306106,200.7220931030943,-183.23551221964627,148.25925067458547,356.01537150726324
345,-1.2826458183556324,-123.72207144112744,-62.04998858517641,-167.44162947163005,201.5277047988694,-179.31579437146922,141.40414095008956,384.49076915757684
346,-0.7905800396100569,-115.75388311034209,-63.968111001554355,-246.52090519533604,202.70146779220022,-172.8565126911699,134.77709476122854,420.40790117589734
347,-0.19662226991907178,-108.13552517732742,-65.59700469563032,-329.32701161630405,204.22180954407477,-163.86349128532171,128.434921974493,463.81134527485017
348,0.4846073224733113,-100.94334367483911,-66.89240387526029,-415.634328567112,206.0372362730264,-152.40079165752218,122.4342357941115,514.6182590734963
349,1.2364800100107731,-94.25217932156409,-67.81469801714076,-505.1558918893198,208.0671154464399,-138.5931027029388,116.83096350282084,572.6158533688124
350,2.040785154253817,-88.13447857513906,-68.33007225474304,-597.5380204884815,210.20353020641258,-122.6267447618481,111.6798926781242,637.4613001692616
351,2.87820627251195,-82.65944693278564,-68.41156704437996,-692.3564852097272,212.3141891256744,-104.74916976616908,107.03424068253652,708.684154464466
352,3.728838642157603,-77.89223709581921,-68.0400249590438,-789.1144981979867,214.24633895789876,-85.26686850587642,102.94522742155081,785.6913082892169
353,4.57273848401387,-73.89315792450203,-67.2048927804553,-887.2427307970768,215.83158920208388,-64.54162780679387,99.46162608053945,867.7744322053104
354,5.390491629236494,-70.7168862334181,-65.90484871537825,-986.1014984902647,216.89151642126163,-42.9851154305725,96.62926455716762,954.1197996593447
355,6.16378755439386,-68.41166326330591,-64.1482274012115,-1084.985188198672,217.2438749926693,-21.051809359093443,94.4904520344075,1043.8203390895774
356,6.87598271933647,-67.01846157973863,-61.95321927011221,-1183.1289477118512,216.70920165503068,0.7696687525521688,93.08331075413092,1135.8897188733742
357,7.512635161244256,-66.57011609327847,-59.34782581828387,-1279.717606657239,215.11756695162526,21.966708601952554,92.44100238057835,1229.2782391805586
358,8.061990394000071,-67.0904241161706,-56.36955842109904,-1373.8967487189668,212.31520113454621,42.0141956004195,92.59085074361566,1322.8902782329635
359,8.515397260071806,-68.5932326763407,-53.06487553568182,-1464.7858013444963,208.17070912051028,60.38711018596896,93.55337721234885,1415.6030139204438
360,8.867632068324976,-71.08154545757839,-49.488361278159566,-1551.4929490906254,202.5805919344429,76.57397051796514,95.34128033990604,1506.2861121580463
361,9.117110627040734,-74.54669543364446,-45.701657052137264,-1633.1316095831166,195.4738126373671,90.09079019171655,97.9584064611865,1593.8220398355713
362,9.26597093914134,-78.96764087332595,-41.77216665555502,-1708.8381388812272,186.81518278952092,100.49516931554055,101.39877106530953,1677.1266238654732
363,9.32001439227298,-84.31045006780272,-37.77156381574149,-1777.7903602668875,176.60739841716907,107.40009116237185,105.64570044210691,1755.1694416542343
364,9.288499934952926,-90.52804240757223,-33.774139280607066,-1839.226443061814,164.89161777964438,110.48696174145299,110.67116813989705,1826.9935965259615
365,9.18379336821838,-97.56024955570086,-29.85503220432226,-1892.4636021810188,151.74654199269114,109.51741030575867,116.43540039985058,1891.7344088355078
366,9.020881803673698,-105.3342503163396,-26.08839712789296,-1936.9160498963022,137.28602947894848,104.34336895144358,122.88681841370743,1948.6365438738094
367,8.816770959774859,-113.765416864062,-22.545562755804063,-1972.1116121300265,121.65534332332945,94.91497208597245,129.96237271579932,1997.0691042478838
368,8.58978987519321,-122.7585893365391,-19.2932414939008,-1997.7064242086346,105.02619513734714,81.28586326378303,137.58830648967069,2036.5382389020126
369,8.358833502182925,-132.20977184230102,-16.39184919549721,-2013.4971457938261,87.59080866335316,63.615567652783135,145.6813609186366,2066.6968637437467
370,8.142578151364093,-142.00821731456946,-13.893992869327569,-2019.4301814930698,69.55527933569162,42.16868137428985,154.15040847666012,2087.3511494291365
371,7.958707445088848,-152.0388431874372,-11.843180326939319,-2015.607462097759,51.132549764365876,17.310740661723308,162.898471435762,2098.463509169221
372,7.823186903221759,-162.18489669763417,-10.272799809313154,-2002.2884309962367,32.53535225533512,-10.49924068515776,171.82505560200858,2100.1519119266904
373,7.749623307646595,-172.33076978357383,-9.205409325558875,-1979.8879898102698,13.969484185273954,-40.71944353332683,180.82870617428085,2092.6854518456457
374,7.7487405001746765,-182.3648505487255,-8.652364575014044,-1948.970283947708,-4.37222364905062,-72.73886795783558,189.8096757598653,2076.4762197937034
375,7.827996349824368,-192.18229184836323,-8.613800969959602,-1910.2383480081216,-22.31491514441095,-105.89352179834046,198.6725850875627,2052.0676428543225
376,7.991356574359913,-201.68757805966823,-9.07896994278048,-1864.5197769871343,-39.70541840543511,-139.48466476699525,207.3289551710998,2020.1195771530065
377,8.239230478107556,-210.7967785300772,-10.026913403833877,-1812.7487354579275,-56.41446276406262,-172.79849627692144,215.6994954247537,1981.3905529992996
378,8.568562371572442,-219.439390146575,-11.427444240953974,-1755.9447562679368,-72.33731278156914,-205.12659394277924,223.7160448048684,1936.7176731968664
379,8.973061640414297,-227.55969085794658,-13.242386550630494,-1695.1889053051652,-87.3928472861578,-235.78635504505402,231.32308110977218,1886.9947494358694
380,9.443545317306082,-235.11754922023033,-15.427018212147951,-1631.5979926345024,-101.52123505709912,-264.1406688273124,238.478735403479,1833.1493223645657
381,9.968360596047697,-242.0886604286255,-17.93165154524082,-1566.2975879401865,-114.6804748683912,-289.6160565602234,245.1552725116861,1776.1192449425164
382,10.53385187992255,-248.46420535399162,-20.703285663641058,-1500.3946481418377,-126.84216315903068,-311.7185616347452,251.3390234018087,1716.829516659658
383,11.124838312242913,-254.24995457329518,-23.68726639738852,-1434.9505885995165,-137.98691584684897,-330.0467551962933,257.0297800177884,1656.1700429005177
384,11.725073312132647,-259.46486331710884,-26.828894982165465,-1370.9556288380181,-148.0998933600101,-344.3013433927453,262.23968697929337,1594.9749659716642
385,12.317666444624884,-264.1392250387412,-30.0749332833773,-1309.3052201990708,-157.16685627104948,-354.29101631357923,266.9916867716526,1534.004177793087
386,12.885458112954465,-268.3124704556683,-33.37495979693095,-1250.7793144070793,-165.17111476087464,-359.9343588169244,271.3175949339974,1473.927580740673
387,13.411346945261142,-272.03071474707457,-36.68253697503823,-1196.025154418333,-172.09163517489597,-361.2578393217664,275.2558984585314,1415.3126094244408
388,13.878576704573227,-275.34416720667525,-39.95615754752747,-1145.544157837948,-177.90244155322128,-358.3900914088128,278.8493832751032,1358.61545519884
389,14.270993308689816,-278.3045241925191,-43.15994647676458,-1099.6833173836087,-182.57331199065308,-351.5528899921241,282.14270463952175,1304.1763381667915
390,14.573283238389942,-280.9624670943236,-46.26410623165946,-1058.631366069467,-186.07163326237432,-341.0493837170846,285.1800170469115,1252.2190406975826
391,14.771203067883294,-283.36538191471016,-49.2451054292047,-1022.419756085841,-188.3651576166941,-327.25026462918214,288.0027776025057,1202.8547491099198
392,14.851807250829951,-285.5554058131389,-52.08562305934373,-990.9282933198119,-189.42531823584858,-310.5786252770011,290.64782822423757,1156.0900523129894
393,14.80367865263168,-287.5678887885489,-54.77427076057123,-963.8950698480659,-189.23071737460117,-291.4942673759495,293.14584741089413,1111.8387354017525
394,14.617164035090335,-289.430336232548,-57.3051226865438,-940.930159416685,-187.77041058249253,-270.47818539841535,295.5202418751203,1069.9368081585728
395,14.284614583635788,-291.1618715345978,-59.677086066891924,-921.5323973002971,-185.0466700600718,-248.01785895493455,297.7865231214049,1030.1600478850598
396,13.800629245759728,-292.77322890690147,-61.89314627993077,-905.1084629428371,-181.07700895149867,-224.5938610422103,299.95218577417916,992.2432275822451
397,13.162295888764783,-294.26725716320726,-63.95951944207673,-890.9934248494861,-175.89536750523746,-200.66814080231939,302.01707541825414,955.9001460997077
398,12.3694220514699,-295.6398875896269,-65.8847446417908,-878.4718940193983,-169.55247956846793,-176.6741864101311,303.97420643782397,920.8435706886157
399,11.424743444663905,-296.8814953704416,-67.6787481508557,-866.798965575335,-162.11553374963015,-153.00913145274848,305.8109671231001,886.8042380591536
400,10.334094525688965,-297.97856578604296,-69.35191369947151,-855.2202072054761,-153.66730370985775,-130.02774858330557,307.510631722035,853.5481341484904
401,9.10652181893146,-298.91556434865447,-70.91419572378882,-842.9900733776343,-144.30494046539408,-108.03818528541312,309.0540877644311,820.8913837531933
402,7.754317960442673,-299.6769042306364,-72.37431502621526,-829.3882777076317,-134.13859866932907,-87.29924205459845,310.42168160746064,788.712225861357
403,6.292953858111758,-300.2489042070173,-73.73907684257571,-813.733830020497,-123.29001791670031,-68.0189724481173,311.595084865901,756.9597214247525
404,4.740888911373551,-300.6216349901515,-75.01284854661826,-795.3966237285717,-111.89111286070496,-50.35439247878835,312.5590881513285,725.6590243784344
405,3.119245250508347,-300.7905605617902,-76.19722753898117,-773.8066249625533,-100.0825572859906,-34.4121165133139,313.3032356535186,694.9132263449943
406,1.4513408848481466,-300.7578936671718,-77.29091954368286,-748.4608492246902,-88.01229072671494,-20.249780264713138,313.82322443020763,664.9019418550373
407,-0.23791258107459587,-300.5336009482915,-78.28983472444811,-718.928400099938,-75.83384175116211,-7.878160728512734,314.1220058945451,635.8769192033769
408,-1.9227304531583176,-300.1360127406907,-79.18739536214487,-684.8538819772798,-63.704355152254756,2.7360499402301364,314.2105435341634,608.1550360032221
409,-3.577264907400569,-299.59201421316084,-79.97503565976973,-645.9594887865597,-51.78223176003005,11.6668221800741,314.10819935979083,582.1090718661544
410,-5.176464839836017,-298.93681683502007,-80.64286226032915,-602.0460250918824,-40.224335677101266,19.024702435249665,313.84274058457953,558.1566543759002
411,-6.696937223801956,-298.2133306244248,-81.18043364488535,-552.9930499226547,-29.18278655644463,24.95204440934903,313.4499761679881,536.7477619087033
412,-8.117756314090336,-297.471176924423,-81.57760826379976,-498.75826307557304,-18.8014233362888,29.617559513219888,312.9730489625833,518.3511495505222
413,-9.421166513889869,-296.7653974236459,-81.82540585992595,-439.37619137891807,-9.212089282037207,33.210227085177635,312.46142249615184,503.4400506116236
414,-10.593129282881598,-296.1549267708508,-81.91682488193055,-374.9561873450636,-0.5309366147805431,35.93266067443364,311.9696114396342,492.47750031148985
415,-11.623673735936592,-295.70090257296926,-81.84756189391871,-305.6797288102091,7.1450243980788395,37.994091867391944,311.55571132055576,485.90163045631556
416,-12.507023909110995,-295.4648873827624,-81.61658657104017,-231.7970060944355,13.740906009893184,39.603197162262774,311.27978603668515,484.1112916763225
417,-13.241492186284738,-295.5070728053803,-81.226537369795,-153.6228011875993,19.20625218317728,40.96104381726822,311.2021714745455,487.45236860705967
418,-13.829146788572983,-295.8845272326677,-80.68391668723497,-71.53169742421326,23.51652206457603,42.2544569716562,311.3817505724825,496.20515750277065
419,-14.275279756158106,-296.64953753200575,-79.99907856383075,14.047299169609333,26.673653848647756,43.65010780420324,311.874250107682,510.57316752576247
420,-14.587718444662515,-297.84808278375857,-79.18601530753429,102.63660427463854,28.70567913794007,45.289592453142134,312.73060284817836,530.6736779977721
421,-14.776036206741106,-299.5184660990487,-78.2619607555067,193.7162135920438,29.66541668407576,47.285719179014364,313.99541094985244,556.5303297116553
422,-14.850725129619379,-301.69011962666775,-77.24683655786754,286.7300147780335,29.6283230733832,49.72015307003236,315.7055381892906,588.067953577962
423,-14.82239490269561,-304.3825888433365,-76.1625736107441,381.0921088645112,28.689615686475832,52.64248933967789,317.8888506266531,625.109757972852
424,-14.70105757704814,-307.6046956774622,-75.03234381496017,476.1930353849304,26.96081155473073,56.07074365321045,320.56311851694664,667.3769220765327
425,-14.495549215704289,-311.3538762778021,-73.87973829204417,571.4058475400057,24.565846116237573,59.99316700846066,323.7350875440579,714.4905835652188
426,-14.213127275249663,-315.61568841275755,-72.72792764227232,666.0920374884727,21.636948738639468,64.3712198465491,327.39972523413684,765.9761624449857
427,-13.859267783695348,-320.3634854621124,-71.5988380250939,759.6073553009517,18.31045643402323,69.14348121324305,331.53964880871763,821.2699205445008
428,-13.437669685758364,-325.5582583763316,-70.51237375352278,851.307590399048,14.722742323168447,74.23022845315573,336.12474346375086,879.7276117926693
429,-12.950456186279835,-331.14865315947355,-69.48571273981187,940.5543895203378,11.006420571997086,79.53840339342948,341.11198443816386,940.6350308043206
430,-12.398546212066037,-337.0711783910637,-68.53269577211356,1026.7211736355234,7.286965070262002,84.96668203742264,346.4454812603036,1003.2202200769713
431,-11.78215518918799,-343.2506237692904,-67.66332480120653,1109.1991935411547,3.679846221150347,90.41038405886606,352.05676700106983,1066.6670545079437
432,-11.101374818330491,-349.6007152368678,-66.88337996575423,1187.4037356974409,0.2882509459142725,95.76599206241289,357.86535798392583,1130.129890001835
433,-10.35677732607151,-356.0250336919414,-66.1941607324548,1260.780460366257,-2.7985914162732812,100.93509417183344,363.77960921199923,1192.7489422144072
434,-9.549990907076669,-362.4182217239608,-65.59235363610536,1328.8118256020218,-5.506496103411777,105.82761251120233,369.6978871460027,1253.666051403371
435,-8.68419919405748,-368.6674959350446,-65.07002755430442,1391.023524214724,-7.776877823449498,110.3642306314971,375.5100742060435,1312.0404881974105
436,-7.764527451432066,-374.65447157735315,-64.6147567922155,1446.9908365310055,-9.56685576461024,114.4779819544094,381.0994087786715,1367.0644606442213
437,-6.798290232216001,-380.25729241639885,-64.20987185446272,1496.3447790937576,-10.849006496637344,118.11500695473275,386.3446513112164,1417.97799293299
438,-5.795087823921953,-385.35304307868,-63.83483694143094,1538.7779080192713,-11.610865206083172,121.23452796988035,391.1225521035301,1464.08285912566
439,-4.766750496629286,-389.8204046342672,-63.46575132222146,1574.049616218536,-11.85426600556598,123.80812627677193,395.310580353219,1504.7552707029486
440,-3.727139276372693,-393.5424975207708,-63.07596849409229,1601.9907478333612,-11.594592163619245,125.81843512457347,398.78985743842384,1539.457035498029
441,-2.6918191584545452,-396.4098397741368,-62.63682252976562,1622.5073433426253,-10.859980415756148,127.25738334762978,401.448220966954,1567.7449289879846
442,-1.6776254790680507,-398.32333368198437,-62.11844567696842,1635.5833270855887,-9.690494028265919,128.12413636962415,403.183330681844,1589.2780483357699
443,-0.7021472110574445,-399.1971814789922,-61.49065563764196,1641.281957291432,-8.137250981764282,128.42288559520003,403.9057140987036,1603.822956296603
444,0.2168470461941512,-398.9616218606842,-60.72388541600751,1639.7458787520995,-6.261470127051987,128.16063524689434,403.5416401636912,1611.2564674300497
445,1.062013234466262,-397.5653753312937,-59.790123548573305,1631.1956517348394,-4.133382668548425,127.34512971924559,402.0357047559903,1611.5659845322818
446,1.8170383328161415,-394.9776890843921,-58.6638285309872,1615.926679078752,-1.8309517213779805,125.98305559696954,399.3530139526261,1604.8473602451872
447,2.4672218021042323,-391.1898821484437,-57.322779273752076,1594.3045168275603,0.5616491817640913,124.07863997056351,395.48086065195525,1591.300337581133
448,3.000006483833349,-386.21630900952243,-55.74882436553413,1566.7586297684384,2.9558272369745047,121.63274844254897,390.4298076385409,1571.22171118741
449,3.405436542868032,-380.0946840757937,-53.92849721289081,1533.774736083109,5.260629910340917,118.64255996476274,384.2341147597795,1544.9964427858501
450,3.676523691622174,-372.8857385928178,-51.85347156067908,1495.8859663005273,7.385037360546229,115.10186057727921,376.95147798243005,1513.0870507185316
451,3.80950670308473,-364.6722135066523,-49.52084194675043,1453.6631313268633,9.240419119499744,111.00195603375333,368.662081212163,1476.021665441778
452,3.8039932314017157,-355.55722301733806,-46.933225587221195,1407.704445251783,10.743059593140067,106.33315856255959,359.46699454847953,1434.3811930294735
453,3.6629776794905715,-345.6620505979693,-44.09869489977133,1358.62507815999,11.816640178676208,101.08676090498776,349.48598141917716,1388.7860548255876
454,3.3927345873871997,-335.1234593611696,-41.03056151344285,1307.0469230775777,12.394560326238626,95.25737512447496,338.8547988352166,1339.8829745152543
455,3.002593570641916,-324.09061119074624,-37.747040560721615,1253.588949697629,12.42198468456566,88.84548601834275,327.7220888304632,1288.332264880202
456,2.504608477085951,-312.72169565415834,-34.27082565910843,1198.8584825765483,11.857517520483396,81.8600498544294,316.2459663131772,1234.796023070532
457,1.9131390367921013,-301.18037286574014,-30.62859946697995,1143.44367909206,10.674429485744787,74.32095983279417,304.5904114700141,1179.9275724232787
458,1.2443668168308233,-289.63213564233195,-26.850494558572933,1087.9073935878714,8.861395581023483,66.26120195470882,292.9215752293908,1124.3623926593461
459,0.5157684077036668,-278.240695364671,-22.969509539146102,1032.782507428532,6.422741937862106,57.72853993156322,281.40410443102354,1068.7106676450207
460,-0.25443192554194427,-267.1644921342485,-19.020880279935575,978.5686928276042,3.3782325105345574,48.78659477876451,270.1975888934602,1013.5514629838416
461,-1.0478091854980733,-256.5534226263143,-15.041407416262304,925.7304726036733,-0.23755462544803235,39.515221551078845,259.4532252625654,959.4284350837788
462,-1.8462641474211183,-246.5458686799175,-11.06874705931098,874.6963469055851,-4.376209977076922,30.010128611691364,249.3107824303513,906.8468769991413
463,-2.6325099153361164,-237.26609673611347,-7.1406785840213765,825.8586893317749,-8.976792172331022,20.381729118749014,239.89594067121598,856.271831816292
464,-3.3905000917898733,-228.82208322213663,-3.294368418027825,779.5740778311388,-13.96741334029903,10.753255207051042,231.31806162767427,808.1269602750904
465,-4.105782873864294,-221.3038040985724,0.4343491641714008,736.1637286424965,-19.267085566674062,1.2581993600221253,223.66842906558716,762.7938437831068
466,-4.765770200181724,-214.78200850356964,4.011653565798242,695.9137472594416,-24.787802101816307,-7.962825837722344,217.01898154473122,720.6114402057264
467,-5.359917338201266,-209.3074779702056,7.406362671579672,659.0749930903662,-30.436818458658465,-16.765697276998438,211.4215392144431,681.8754825029072
468,-5.87981486538936,-204.91075580237273,10.590484271611482,625.8624601758236,-36.119085941202805,-25.006730350150388,206.90750965040087,646.8377060475889
469,-6.319200746845878,-201.60231738687656,13.539680546429857,596.454187411945,-41.739776831902354,-32.546822853960926,203.4880434968995,615.7048920114066
470,-6.673904337086424,-199.3731423101936,16.233635767179354,570.9898112135589,-47.20682897036955,-39.25563858078777,201.15460045278397,588.6378047495272
471,-6.941736233563627,-198.19564328036284,18.65632125573536,549.5689473700589,-52.433429159795814,-45.01567084557741,199.8798799624486,565.7501669215908
472,-7.122338101117664,-198.0249046806786,20.79615528458965,532.2496273544726,-57.3403503452988,-49.72602932397879,199.6190685073707,547.1078481594586
473,-7.217005433729014,-198.80018434030262,22.6460588768009,519.0470140163849,-61.85805717642637,-53.30580506422515,200.3113559178234,532.728438933118
474,-7.228494398556742,-200.4466347429171,24.203411572292406,509.93258608234055,-65.92849872394285,-55.696887802186126,201.88167563608386,522.5813456325451
475,-7.160821911502047,-202.87720333536114,25.469914282350317,504.83392033183225,-69.50651594489334,-56.866134907323364,204.2426273130173,516.5884864455976
476,-7.019066188244316,-205.99467497586195,26.45136920076754,503.6351288326459,-72.56080484052552,-56.80681967752674,207.2965436172815,514.6256039196918
477,-6.809173303808734,-209.69382229078826,27.15738903340175,506.17794092979136,-75.07439368993653,-55.53931538873611,210.93766603996426,516.5241522918093
478,-6.537773788972897,-213.8636314852705,27.601049259180012,512.263367882846,-77.04461359453731,-53.11099824032927,215.05439642954346,522.0736760373849
479,-6.21201198141944,-218.38957185564465,27.798497612927942,521.6538594466908,-78.48256485366896,-49.59537602307701,219.5315918381011,531.0245766638091
480,-5.839389703675527,-223.15587685575437,27.768534483830646,534.0758581146182,-79.41210599909473,-45.0904700608257,224.25286995955886,543.091168874699
481,-5.4276247838745,-228.0478031873854,27.53217660243297,549.2226750636564,-79.86841588497246,-39.71649658991841,229.10289110947795,557.9549517212421
482,-4.984523933335022,-232.9538322859954,27.112214544680956,566.7576452683162,-79.89620027727821,-33.612911203653674,233.9695806223182,575.2680586081625
483,-4.517868614326004,-237.76777612757323,26.532772504075396,586.3175589319832,-79.54763142301023,-26.934896821120017,238.7462531181955,594.6568933338636
484,-4.035311828014057,-242.3907469784189,25.818876614809977,607.5164030702409,-78.88012097045734,-19.84939168986399,243.3335978090093,615.7259985315391
485,-3.5442832146940635,-246.73294912683485,24.996036010799997,629.9494726413756,-77.9540324399912,-12.530768509162803,247.64148245653993,638.0622298069679
486,-3.0518995448983666,-250.71525030556904,24.08983918792776,653.1979192590288,-76.83043842838504,-5.156287968505635,251.59053332390232,661.2393177177773
487,-2.5648777852458298,-254.2704919010526,23.12556758623475,676.8337944238633,-75.56901937845112,2.0985409692929347,255.11344998364655,684.8228877421725
488,-2.089448632573454,-257.3445006645805,22.127828753666712,700.4256136742304,-74.22618523481601,9.064556471082845,258.15601768425853,708.3759760309891
489,-1.6312697155250002,-259.8967709760878,21.120212629575786,723.5444213324795,-72.8534798634695,15.5833563750086,260.6777865740575,731.4650295945437
490,-1.195339314794211,-261.9007959207181,20.124975837273208,745.7702784681971,-71.49630311426687,21.511392852941157,262.6523965318682,753.6663198689189
491,-0.7859130950738795,-263.34403717023343,19.162759982546508,766.6990371231142,-70.1929600194669,26.723622148593922,264.0675382610305,774.5726364866154
492,-0.40642768816429814,-264.22753710995715,18.252350570201884,785.9492104134679,-68.97402414769314,31.11659449592263,264.92455484605034,793.8000724905152
493,-0.05943585684589412,-264.5651907120179,17.410483040611627,803.1687088597549,-67.86198531233943,34.610885430882995,265.2377020426664,810.9946714152701
494,0.2534416727899381,-264.38270810080706,16.65170137986885,818.0411939660675,-66.87114228813763,37.15278969818132,265.03309895008255,825.8386865550716
495,0.5315427991511024,-263.71631046390536,15.988272767559298,830.2918030752414,-66.00769917278244,38.71522272289198,264.34741229057414,838.0562058071653
496,0.7751647823687875,-262.61121111442696,15.430159082748506,839.6920236493714,-65.27002861552111,39.29780181243642,263.22632650610745,847.4179204644328
497,0.9855358755967358,-261.11993964768527,14.985043205164063,846.0635363065727,-64.64907460924375,38.92610913346393,261.72285784050655,853.744858989812
498,1.164755940245216,-259.3005700715637,14.658405272544494,849.2808985193832,-64.12887962547475,37.65016988000061,259.8955733447186,856.9109611772554
499,1.3157058036278524,-257.21491356364294,14.453641644564248,849.2729986827931,-63.687232778524844,35.54221026236904,257.8067753733312,856.8444276253701
500,1.4419270544778078,-254.92673337134687,14.37221749737731,846.0232673691348,-63.29644446961442,32.693788947948136,255.52070889506652,853.527837772559
501,1.5474760112348955,-252.5000337692793,14.413842889071791,839.5686838689413,-62.92425618614576,29.212420161283433,253.10184326944716,846.9970813981831
502,1.6367575026164953,-249.99746755643946,14.576661848476872,829.9976577380947,-62.534890805468336,25.217824878420988,250.6132726831313,837.3391895198414
503,1.714345628477581,-247.4788981168049,14.857444537938502,817.4468949948235,-62.090239568646844,20.8379572350682,248.11527099484874,824.6891790746748
504,1.7847996273455875,-245.00014339199953,15.251773827638514,802.0973768814084,-61.55116883367718,16.204956104880196,245.66402812477034,809.2260419652184
505,1.8524832890467997,-242.61192084525464,15.754219671075694,784.1695876182496,-60.87891528579967,11.451167243125612,243.3105869687203,791.168015180759
506,1.9213960829361485,-240.35900495119108,16.358497291705515,763.9181292664526,-60.03652484179392,6.705370377569623,241.09999243080335,770.767268003796
507,1.9950234509791755,-238.2796019557084,17.057607939511204,741.625859707785,-58.990279958284184,2.089329330640374,239.0706575477405,748.3041380660804
508,2.0762126240272236,-236.40494049978946,17.843963307668023,717.5976863373269,-57.71105378507403,-2.285237114221109,237.25394566643448,724.0810429317116
509,2.1670788661405926,-234.75907111867411,18.709496221271117,692.1541450375624,-56.17552828019219,-6.3191891049539715,235.67396213103405,698.4161897969599
510,2.2689452428358754,-233.3588626475071,19.645760831238043,665.6248921897309,-54.36721705713028,-9.92795464059722,234.3475439661516,671.6372036975833
511,2.3823170094454524,-232.21417928093751,20.64402540808694,638.3422367727394,-52.27724182948519,-13.042948750767483,233.28443171429095,644.0747941641221
512,2.506889865749681,-231.3282185376161,21.695360185183297,610.6348388999917,-49.90482287534087,-15.612422035063352,232.48760400349104,616.0565803416555
513,2.641589900452553,-230.697987686195,22.790721868388424,582.8216985454668,-47.257457779674766,-17.601759348710385,231.95375262185752,587.9011931233963
514,2.7846420574375044,-230.31489423824064,23.921035694326264,555.2065516490885,-44.35077777238638,-18.993268127274163,231.67387382220625,559.9127676196939
515,2.9336631982102643,-230.16542486756313,25.0772753845361,528.0727789369479,-41.208086530784435,-19.78551103607424,231.6339502441054,532.3759288472056
516,3.0857751471403922,-230.23188661950996,26.25054097586765,501.6789157063362,-37.85960180984293,-19.992248973904935,231.81569726628993,505.5513578344653
517,3.2377324903846887,-230.49318463809,27.432134296440694,476.2548300277019,-34.34143499964884,-19.64106778687608,232.19734790147623,479.6720057831673
518,3.386059473487696,-230.92561198553724,28.613631751348535,451.9986147480967,-30.6943566722769,-18.77176536828535,232.7544516367219,454.94000277680163
519,3.5271902119896903,-231.50362948643777,29.78695392455696,429.0742179310949,-26.962406205100198,-17.434575328052397,233.46066491955466,431.5242872457139
520,3.6576066149816957,-232.20061670929604,30.944431215996584,407.60981902346236,-23.191409613945016,-15.688299465656417,234.28851410010245,409.55896503537036
521,3.773968873530656,-232.98957880469368,32.07886444489486,387.6969452777096,-19.427471117898367,-13.598414386993376,235.21011518091856,389.14239374831135
522,3.8732340208953415,-233.843797520711,33.183579189905785,369.39031483314903,-15.71550065143491,-11.23520839067816,236.19783828456625,370.3369792672694
523,3.952758874756025,-234.73741800395263,34.25247254762135,352.7083883037035,-12.097832362030013,-8.671993849780252,237.22490801008232,353.16966615821616
524,4.010384546306509,-235.64596577501075,35.28005088518332,337.6346078891261,-8.61297959996286,-5.983428390223584,238.26593361083084,337.6331003063319
525,4.04450056240692,-236.54679044982595,36.261457126452235,324.11929983062424,-5.294561709086783,-3.2439659982672597,239.29736510959563,323.6874386376588
526,4.054087461623064,-237.41943441774217,37.1924863188965,312.08221069263203,-2.170428413174294,-0.5264476953420489,240.29787314969536,311.2627753364422
527,4.0387374957260045,-238.24592592376737,38.06958871096918,301.4156393583535,0.7380004905162828,2.0991684370962114,241.24865170732625,300.26214542815
528,3.998653782535592,-239.0109969436744,38.889860199801255,291.9881144520173,3.4161689907320603,4.566945452936385,242.13364384837712,290.56505460015654
529,3.9346288945369783,-239.70222696621093,39.65102069773494,283.6485515397177,5.8565866818899375,6.81598579835188,242.93969156971573,282.03146907070703
530,3.848004423304144,-240.31011444311272,40.35138175289359,276.2308069252573,8.058798220656108,8.791342506263652,243.656611561641,274.5061822408873
531,3.740613535710659,-240.82807842930424,40.98980565193797,269.5585267109752,10.029125697202815,10.44483427101685,244.27719965683508,267.82345738213127
532,3.614708952126793,-241.25239396129254,41.565659047509676,263.45017300372416,11.780195350863831,11.735771045545436,244.7971679064971,261.81182970398254
533,3.472879132222839,-241.58206599388754,42.07876461481342,257.72409573872847,13.330266598082927,12.63159095775003,245.21501958274393,256.29893879852386
534,3.317955711853195,-241.8186480612106,42.52935421066552,252.20351022576733,14.702387853200847,13.108402866671607,245.5318687528196,251.1162552396536
535,3.152915381846433,-241.9660130639285,42.918026523473806,246.72123821372472,15.923409632523311,13.151422660571237,245.7512122304843,246.10356394803512
536,2.980779506514988,-242.03008460079664,43.245711431665185,241.12407438261766,17.022890612062543,12.75528621499896,245.8786626041213,241.11307210208727
537,2.8045149066936155,-242.018537983231,43.51364249297268,235.27665053443144,18.031936553730144,11.924218366546642,245.92165163945182,236.01302067337107
538,2.6269393148193307,-241.94048042203568,43.72333833981395,229.06468582227978,18.9820151905098,10.672035707200493,245.88911361022124,230.69069553263498
539,2.4506349296059264,-241.80611983398995,43.876593148942185,222.3975323627537,19.90379181343486,9.021961801589558,245.79115798044992,225.05475572795194
540,2.277873237330541,-241.6264313958923,43.97547558871213,215.20995064144066,20.826029758976418,7.006236944387414,245.63874042515323,219.03682209273552
541,2.110553874349095,-241.41283057945216,44.02233472059087,207.46307734825032,21.774596792624553,4.6655109650172175,245.44334063633823,212.59229789133335
542,1.9501597596946338,-241.17686101710868,44.019810360464774,199.14457872145883,22.771612591159784,2.0480164504245657,245.2166548220224,205.70042376169016
543,1.7977299932705648,-240.92990500896005,43.97084451551842,190.26801389810726,23.834764770447887,-0.7914698383125695,244.97031012266422,198.36360042373124
544,1.653851178401535,-240.6829235261822,43.878689923072656,180.8714633363,24.976812192271215,-3.792858726282294,244.71560712425094,190.60604251961624
545,1.518667017921589,-240.44623111512038,43.74691165873976,171.01550475242954,26.20528564776565,-6.89214461206025,244.46329520187658,182.47185306360078
546,1.391905299633368,-240.2293092996153,43.57937825930347,160.78064093343673,27.522388152243952,-10.022927802211552,244.2233837245569,174.0226279398711
547,1.2729207226147665,-240.04066011859436,43.380239638066975,150.26429870962835,28.92509023251431,-13.118018514961577,244.00499035934052,165.3347121354922
548,1.1607514218387078,-239.88769945571303,43.15389008773343,139.57752575743137,30.40540967866358,-16.111073689276576,243.81622593337352,156.4962334447179
549,1.05418652767344,-239.77668788642208,42.90491574465135,128.84151195505618,31.950860089895208,-18.93821624255112,243.66411359136055,147.60403560924493
550,0.9518416489537753,-239.71269498709802,42.63802692261864,118.18405540809796,33.5450479956408,-21.53958735354788,243.5545384026247,138.7606222098303
551,0.8522388392174417,-239.6995916563608,42.35797672179605,107.7360810351712,35.16839433072794,-23.860785286103354,243.49222235942383,130.07120650273066
552,0.7538875003573213,-239.7400642894384,42.06946840803982,97.62830322180001,36.79895270061562,-25.854148794644434,243.4807191858061,121.6409426724821
553,0.6553628620094352,-239.83564475277362,41.77705525154815,87.98810536252721,38.41329431664779,-27.479848898927326,243.52242367690792,113.57239282249242
554,0.5553790733289432,-239.9867508826885,41.48503753967596,78.93669005366627,39.98742766530986,-28.70675945940954,243.61859122064794,105.96326349062298
555,0.4528544008263833,-240.19273342017115,41.19736200944186,70.58653591257874,41.49771969520954,-29.51308425107999,243.7693644023351,98.90442708127647
556,0.34696645872281184,-240.4519267179588,40.91752892499793,63.03918161824661,42.92178445427485,-29.886725928028053,243.9738049745526,92.4782283043591
557,0.23719581862456546,-240.76170211181835,40.64851165001234,56.383345444054726,44.23930493517917,-29.82539027418445,244.22993092397004,86.75706410561683
558,0.12335675074656482,-241.11852437049856,40.39269300819218,50.693379574815715,45.43275497684902,-29.33642733083429,244.53475975425326,81.80221806601479
559,0.005614207907328294,-241.5180128871791,40.15182198410722,46.02805286651967,46.487991074701284,-28.436419193540143,244.8843601943878,77.66292702688335
560,-0.11551347125001088,-241.9550100736553,39.92699329999322,42.42965311400301,47.394689280520055,-27.150532211082215,245.27391514875845,74.3756586102578
561,-0.23916615807972655,-242.42365974090174,39.718651143785515,39.92339969021741,48.146610006328736,-25.511658659729086,245.69779881034833,71.96358274157262
562,-0.3641671797361933,-242.91749811837914,39.526617032360136,38.517158695083836,48.74168297878133,-23.5593793221561,246.14967051697118,70.43622716211729
563,-0.48906092209814206,-243.42955955192986,39.350140631303155,38.201454503926165,49.18191490070966,-21.338783380183116,246.62258713879638,69.78931482191688
564,-0.6121610786644611,-243.95249781394804,39.18797125675419,38.949772906741956,49.47313244882927,-18.899185323382376,247.10913452003777,70.00478846280885
565,-0.7316076229899686,-244.47872246723048,39.0384466867058,40.719151085008654,49.62458200495364,-16.292780069156308,247.60157685145546,71.05103327762991
566,-0.8454303891519415,-245.0005480746571,38.89959494689876,43.451047890363554,49.64841410533644,-13.573277326628613,248.09202106818995,72.88331119931996
567,-0.9516168772619639,-245.51035250618963,38.76924411640871,47.07248400757052,49.55908442444175,-10.794554708965794,248.57259174337497,75.44441948785499
568,-1.0481816644068929,-246.00073937644032,38.645134967923134,51.49743577018802,49.37270408880501,-8.00936647050173,249.03561070286707,78.66558178714429
569,-1.1332347236169351,-246.46469887268717,38.525031281912135,56.62845922174005,49.10637069268483,-5.268141190417851,249.47377482181503,82.4675723260108
570,-1.205046038124653,-246.8957609284074,38.40682279537948,62.35851328789307,48.777508341610066,-2.61789739078418,249.8803251786012,86.76206451490951
571,-1.2621041084226474,-247.28813480232375,38.288616008572696,68.5729434698164,48.40324114005389,-0.10130115548328064,250.24920088584545,91.4531850141216
572,-1.3031663243649318,-247.63682956087706,38.168808746870624,75.15158097763698,47.99982027987291,2.2441154282606335,250.57517146214494,96.43924441385336
573,-1.327299738672187,-247.93775072064037,38.0461456277664,81.97090726926598,47.582120576188835,4.3865614762091925,250.853942568653,101.61460678637367
574,-1.3339113894141974,-248.18776944423652,37.91975315752079,88.90623106725491,47.16321816532143,6.300411814115592,251.08223132369727,106.87165330051552
575,-1.322767756142968,-248.38476221015557,37.789154585488106,95.83382455602936,46.754057361941676,7.966445518001948,251.25780915139174,112.10279053950258
576,-1.2940031473178046,-248.52762063445675,37.65426564128746,102.63296791208006,46.36321157558576,9.371900255432848,251.37951201832556,117.20245265740554
577,-1.248116983961524,-248.6162328148165,37.515373005782884,109.18785657675748,45.996740792635705,10.510349176285633,251.4472196977404,122.06904818344063
578,-1.1859602771749984,-248.6514389132842,37.37309799765924,115.38933327725732,45.65814633557147,11.381411938004526,251.46180712773887,126.6068067322402
579,-1.1087121282625088,-248.6349645349418,37.22834850497895,121.13641580924063,45.34842212839552,11.990316003878442,251.4250718464985,130.7274871711074
580,-1.0178476234698042,-248.56933580367942,37.08226259513808,126.33760084804456,45.06620012372082,12.347328482350791,251.3396418911672,134.35191572157922
581,-0.915098812698157,-248.45778004929903,36.936147452864155,130.9119324843252,44.80798551277868,12.46708238628824,251.2088685937424,137.41132891559386
582,-0.8024104942765962,-248.30411589708584,36.791417282796125,134.78983107979062,44.56847465098694,12.367824187872515,251.03670858313382,139.84850156006334
583,-0.6818924242994244,-248.1126363728385,36.649533552470174,137.91368319589293,44.340945308158176,12.070611721024898,250.8275990865156,141.61864367150127
584,-0.5557694784462005,-247.8879884302139,36.51195045100367,140.23819701474986,44.11770510071514,11.598492546672977,250.58633034534293,142.69005299226697
585,-0.4263312121636489,-247.63505217704295,36.3800676822029,141.73053039850353,43.89058020630451,10.97569262125752,250.31791872444006,143.04451181314852
586,-0.2958821099176183,-247.35882310787866,36.25519174624973,142.3702011319935,43.65142334006585,10.226843434348906,250.02748398668516,142.67741916014074
587,-0.1666935741063968,-247.06430073339632,36.138505934810546,142.14879144371008,43.39261816679319,9.376272804485998,249.72013415620512,141.59765261373053
588,-0.04095846073353529,-246.75638690292544,36.03104864546947,141.06946187301602,43.10755725825673,8.447380447178418,249.40086120861778,139.82715851108128
589,0.07925117807166653,-246.4397967092553,35.93369933425404,139.14629300040832,42.791072353521216,7.46211452252019,249.07445037695743,137.40027508563023
590,0.19202249793464274,-246.11898420226325,35.84717125956423,136.40347732054317,42.43979861380963,6.440559979911007,248.74540517450563,134.36279993056425
591,0.2956357091660039,-245.79808439459148,35.772009940017284,132.87438728146753,42.05245820647934,5.400644068268519,248.41788945820713,130.77082050347144
592,0.38859265733365833,-245.48087235465687,35.70859592119721,128.6005488212213,41.63005244336169,4.357959238945325,248.0956871197746,126.68933362891
593,0.4696395599452826,-245.1707395574975,35.65715008600844,123.6305521946964,41.17595557741014,3.325699026531503,247.78217931391717,122.19068657650435
594,0.5377835986674095,-244.87068704076086,35.617739452239135,118.01893316890786,40.69590710522924,2.3146984217012014,247.48033846936173,117.3528778812336
595,0.5923034094883115,-244.58333426224578,35.590281341141846,111.82505756935826,40.197902958991506,1.3335668080765464,247.19273767364305,112.25776034520185
596,0.6327537730843569,-244.3109418917712,35.57454412693596,105.11204058953835,39.69198923970365,0.38889878106981013,246.9215734135857,106.98919143433788
597,0.6589648577662992,-244.0554461015349,35.57014348173044,97.94572919108408,39.189965116079605,-0.5144538742610303,246.6686990950727,101.63117743977686
598,0.6710362272422054,-243.81850125808697,35.576533955904935,90.3937713634696,38.7050042366277,-1.3730671499589715,246.43566624621295,96.26605729491204
599,0.6693256487279575,-243.60152735658642,35.592996733251844,82.52479020763009,38.251206588943695,-2.184605669931636,246.22376989504275,90.97277000441628
600,0.6544326672198155,-243.4057582275906,35.61862540993747,74.40767419795816,37.84309525377113,-2.947478742642703,246.03409444853725,85.82524659411543
601,0.627176989606211,-243.23228660267478,35.65231261969285,66.11098806739778,37.49507483713994,-3.6605107312519163,245.86755659104085,80.89096364361195
602,0.5885719073407153,-243.08210255698538,35.692741088382505,57.70250195190933,37.22087027071983,-4.322643923833176,245.72494225282875,76.2296909583304
603,0.5397932071897602,-242.95612251888187,35.73838290549354,49.24882997225974,37.03296592016402,-4.93269021429934,245.60693539179232,71.89246079168744
604,0.48214421475738284,-242.8552067395407,35.787510212200836,40.815163498933615,36.942065445853075,-5.489144984730591,245.51413694330833,67.92078026624604
605,0.41701776758273174,-242.78016380950558,35.83821929916553,32.465079166872634,36.956592615354964,-5.9900726409727545,245.44707281207872,64.3461023619658
606,0.3458560351795314,-242.73174166991248,35.888468703551794,24.260397617658192,37.0822522388581,-6.433068522397366,245.40619043957494,61.189564181074786
607,0.27010919916972936,-242.71060566240706,35.93613057755709,16.261066356727436,37.32166850885697,-6.815296786021889,245.391844389918,58.461994300902084
608,0.1911941000995342,-242.7173053016716,35.97905347918404,8.525039425975313,37.6741152230545,-7.133598822573676,245.40427237707834,56.16418402233324
609,0.11045409115492527,-242.75223241189522,36.015133899278396,1.1081281315321319,38.13534872647194,-7.3846622027952655,245.44356399002413,54.28741037319544
610,0.029121498895850008,-242.81557394220337,36.042393306354455,-5.936198981547039,38.69755017583079,-7.565236345589243,245.50962495986028,52.81419204223814
611,-0.051715823988003576,-242.90726313074703,36.05905714860367,-12.557082367762291,39.34937932547615,-7.672378221574342,245.60214010565588,51.719253241533295
612,-0.13114245348300826,-243.02693271094364,36.063631995052695,-18.706611002987756,40.07613794510087,-7.703709680585828,245.72053807108355,50.970665004690474
613,-0.20843670364145306,-243.1738735739661,36.05497684971335,-24.34023268197963,40.86003755569398,-7.6576677275121,245.86396065643737,50.53112862233747
614,-0.28308446811193294,-243.34700177756517,36.03236470617412,-29.417223142458802,41.680563433617074,-7.533730438303337,246.03123903006653,50.35936162952758
615,-0.35478512624269304,-243.5448360695124,35.995530632252645,-33.90119422848124,42.51492450076751,-7.332603990141817,246.22087841711885,50.41154294713032
616,-0.4234494155646468,-243.7654872110581,35.94470309684353,-37.76061622164892,43.33857647584554,-7.056359920551812,246.43105204933653,50.64277083463419
617,-0.4891895555879426,-244.00665946266503,35.880615981819275,-40.96932763030567,44.12580342988429,-6.708515625507334,246.65960435333872,51.00848601581898
618,-0.5523022879812575,-244.2656638537495,35.804499820320295,-43.50700687572195,44.85034085859461,-6.294054823092997,246.90406278599863,51.46581338406606
619,-0.6132458322218927,-244.53944244856393,35.71805211668807,-45.35958362992994,45.486021840119335,-5.819388003266744,247.16165751683909,51.974779238997385
620,-0.6726119755979214,-244.82460268467602,35.62338789193315,-46.519572033370366,46.007426995604376,-5.292255643702595,247.42934821389207,52.49936665847328
621,-0.7310945877190715,-245.1174608469084,35.52297273727427,-46.986312798298535,46.39051887702007,-4.7215792053291965,247.70385734102106,53.00837873612418
622,-0.7894558351996324,-245.41409377528055,35.419541621857356,-46.766115731352656,46.61324201600869,-4.11726674926988,247.9817095464491,53.47608741278348
623,-0.8484913845450792,-245.710398007079,35.316007441486214,-45.87229818070312,46.6560710446001,-3.4899815558245595,248.2592769254178,53.88265400102558
624,-0.9089959608013739,-246.00215569735823,35.21536374685771,-44.32511816575859,46.502490903456795,-2.850883343727769,248.53283014297438,54.21431583289311
625,-0.9717307029252054,-246.28510672249533,35.12058624562814,-42.15160341087878,46.139395154834325,-2.211352426529205,248.79859548070525,54.46334148298074
626,-1.037393712274758,-246.5550262258311,35.03453754990628,-39.38527921289389,45.557390963469345,-1.582707298687992,249.05281770746916,54.62776468840611
627,-1.1065949542558162,-246.8078065072151,34.95987921004243,-36.06579914568109,44.7510026409514,-0.975925788611955,249.29182826076735,54.710914523034766
628,-1.1798362356145158,-247.03954167946583,34.89899434019436,-32.23848321218407,43.71876988615988,-0.4013792524816908,249.51211765113882,54.72076666235935
629,-1.2574964256978551,-247.24661303247797,34.853923224042745,-27.953768422765275,42.46324177776749,0.1314115001370361,249.71041039866537,54.66914754157066
630,-1.3398216021206457,-247.42577265754417,34.82631336213786,-23.26657720920848,40.990872562089706,0.6139907185169549,249.8837402976959,54.57082940793948
631,-1.4269195535437689,-247.5742226453704,34.81738460808141,-18.235609858888303,39.31182948351596,1.0391458872769241,250.02952345505926,54.44255904022679
632,-1.5187580911725296,-247.68968710967278,34.82790937081452,-12.922568382075506,37.43972563036863,1.401044198299353,250.14562639173087,54.30206561814416
633,-1.6151667808717687,-247.770474411837,34.85820729208678,-7.391320758324241,35.39129178105286,1.6953237406030328,250.2304265404136,54.1670934813162
634,-1.715841841437261,-247.81552724003413,34.90815331027904,-1.7070160010765736,33.18600077600807,1.919137896338399,250.2828626765963,54.054503233651694
635,-1.8203539479515554,-247.8244585735576,34.9771976167089,4.06483840662477,30.845656537232536,2.071153565349211,250.3024731361371,53.97948002363563
636,-1.9281585187771437,-247.79757200067456,35.0643957412462,9.859324506914263,28.393958117840487,2.1515058226323207,250.28942006458695,53.95488132632594
637,-2.0386078313538833,-247.73586533199835,35.16844692356795,15.613074652449518,25.856047619754985,2.1617132643201606,250.2444983964142,53.99074878546088
638,-2.1509641350079125,-247.6410169200458,35.28773907159995,21.265231724899078,23.25804978551983,2.104559526745503,250.1691287416733,54.09400017356433
639,-2.2644129365689203,-247.51535451960575,35.42039891517408,26.758394005038657,20.626610603450747,1.9839472903435627,250.0653338168333,54.26830856515328
640,-2.3780758976519283,-247.36180691899742,35.564346248813905,32.03952763474323,17.988442225785782,1.8047315909642614,249.9356984870201,54.514166474871075
641,-2.4910232573414883,-247.18383900509,35.71735125323522,37.060826728817865,15.369881686694859,1.572539484509138,249.78331392986743,54.82912312154692
642,-2.6022862151799013,-246.98537147062788,35.877093773191405,41.78049831028647,12.796471155011275,1.2935829803793564,249.6117069569939,55.208173556701986
643,-2.7108700497492406,-246.77068707913924,36.04122321072276,46.16344713300492,10.292567651345847,0.9744716382306522,249.42475619729984,55.6442699044957
644,-2.815768732534282,-246.54432621604658,36.20741744885638,50.18183486350736,7.8809901872322605,0.6220304240266372,249.22659761278732,56.12891834583089
645,-2.915981425444114,-246.31097518634584,36.373439003900636,53.81548957471448,5.58271199084888,0.24312754909018625,249.02152250402955,56.65282159227823
646,-3.0105307138713555,-246.07535116354003,36.537186507832224,57.052145312922434,3.4166047014925947,-0.15548380825220365,248.81387158060548,57.20652594682207
647,-3.098481961994305,-245.84208777941134,36.69673970751063,59.88749751176668,1.3992400294140686,-0.5673067906178855,248.6079287620266,57.78103467364902
648,-3.1789629067316145,-245.6156251579312,36.85039638372206,62.32506774126614,-0.4552476084424922,-0.9862228305875874,248.4078182185008,58.36835485508994
649,-3.251182519850976,-245.40010787423833,36.9966998932669,64.37587991574371,-2.135236429874814,-1.4065926628418786,248.21740788546575,58.96195239291646
650,-3.3144482045116574,-245.1992939061968,37.13445644874474,66.05795869734159,-3.6316323372856876,-1.823335263651056,248.0402223390567,59.55709828736692
651,-3.368180511291679,-245.01647709514015,37.262741735118105,67.39566844430257,-4.937828356381242,-2.2319839889246467,247.8793674482386,60.15109770848349
652,-3.4119247328609106,-244.8544249253659,37.380896896570924,68.41891685847557,-6.049616074463353,-2.628719553090647,247.7374685847786,60.74340071353482
653,-3.4453589351341276,-244.71533262660893,37.48851429074336,69.16225106106502,-6.965059279796692,-3.0103799647003413,247.61662342831713,61.33559917355643
654,-3.4682981710358516,-244.60079379039394,37.58541382982326,69.66387519713007,-7.6843418548115165,-3.3744481944059928,247.51836966056734,61.93131840619046
655,-3.4806947868147167,-244.5117869839576,37.67161133042695,69.9646182230163,-8.20960275374434,-3.7190192467452436,247.4436672334853,62.536014400487154
656,-3.4826349195015167,-244.44867737214472,37.747281000950785,70.1068788427485,-8.544770435147994,-4.042749421153796,247.3928945385209,63.15668881248005
657,-3.4743315971182014,-244.41123217612133,37.81271467883178,70.13357222808324,-8.695407459381006,-4.344791726293758,247.36585770679835,63.80153460229952
658,-3.4561153151244937,-244.3986488238284,37.86828038579099,70.08710069346374,-8.66857332696662,-4.624722383343737,247.36181230238773,64.47952568929979
659,-3.4284233991593234,-244.4095946874452,37.91438228746173,70.0083682754287,-8.472710376212197,-4.882463888512239,247.37949665020406,65.19996461071695
660,-3.3917895790243278,-244.44225719954343,37.95142361291016,69.93585737367538,-8.11755406810788,-5.118210148556063,247.41717586268183,65.97200300719086
661,-3.3468348251435183,-244.4944029120766,37.97977374729533,69.90478420927167,-7.61406563692332,-5.332358826814207,247.47269534820938,66.80415074617659
662,-3.2942597328404957,-244.5634438783173,37.99974051095028,69.94634861646968,-6.974382186772543,-5.525455311225327,247.54354236028595,67.70379037802633
663,-3.2348378501750177,-244.64650972847073,38.01154846631001,70.08709230332465,-6.211777070748642,-5.698151668847019,247.6269140970152,68.67671408073072
664,-3.169408661868673,-244.74052391688824,38.015323899332415,70.34837795624041,-5.340621918474937,-5.851182603522633,247.7197909262022,69.72670005351902
665,-3.0988687536752013,-244.84228262488958,38.011086903236226,70.74599938256384,-4.376341085568791,-5.985358841198457,247.81901328084084,70.85514444290125
666,-3.024160022168201,-244.9485345753383,37.99875078508679,71.28993042854289,-3.3353496560653397,-6.101576674283901,247.92136051727192,72.06076349444407
667,-2.9462543651468613,-245.05605971735568,37.978128852543186,71.98421782589314,-2.234967358566655,-6.2008408263900066,248.02362971579652,73.33937887629915
668,-2.8661347543521525,-245.16174469606304,37.948948516117746,72.82702039645427,-1.0933026063706615,-6.284296562275921,248.1227123458654,74.68379699460255
669,-2.7847728920878785,-245.26265336551643,37.91087255140229,73.81079406258293,0.07089696271997586,-6.353266173509269,248.21566704435227,76.0837904852468
670,-2.703103908907599,-245.3560911355845,37.86352727806347,74.92261882693673,1.2384288261763616,-6.409284610210443,248.29978726979851,77.52618687340545
671,-2.6219988543859527,-245.4396623381338,37.80653726933693,76.14466041102106,2.3898540082415174,-6.454129033099393,248.3726629681326,78.99506576315088
672,-2.5422360679802694,-245.5113198770649,37.73956596487588,77.45475577515737,3.5057468373050433,-6.489837394045783,248.43223543440322,80.4720620805659
673,-2.464472836656173,-245.56940625989665,37.662361161208906,78.82710845011417,4.566971541237102,-6.518711846368596,248.47684433804577,81.93676905718321
674,-2.3892189635980667,-245.6126849059654,37.57480371880044,80.23307657563203,5.5549797386677735,-6.54330382683905,248.505265589533,83.36723093634646
675,-2.3168139568648347,-245.64036056663568,37.47695706973963,81.64203381775505,6.452121686476063,-6.5663789334340485,248.5167385568675,84.74051190437764
676,-2.24740953756319,-245.65208783648012,37.369114577671354,83.0222810362066,7.241963234817044,-6.590861145208125,248.51098120230228,86.03332463912149
677,-2.1809590574099507,-245.64796707877832,37.25184168098891,84.3419848359962,7.909599919251385,-6.6197574691900405,248.48819202948434,87.22269931694852
678,-2.117215130963864,-245.6285276098835,37.12600990112089,85.57011799772094,8.441959559297757,-6.65606573195152,248.4490382645611,88.28667199916192
679,-2.055736315548722,-245.59469854500958,36.992820079509706,86.67737611573712,8.828085058867051,-6.7026698593947724,248.39463028317502,89.20496992142387
680,-1.995903116880892,-245.5477680804967,36.85381272776651,87.63704445503593,9.05938960177847,-6.762228443424353,248.32648273730626,89.95967019678606
681,-1.9369430920868886,-245.48933215982893,36.710864271404596,88.42578912557178,9.12987693095015,-6.837063495807858,248.24646313943168,90.53580785775893
682,-1.8779644176617425,-245.42123370875038,36.56616909883208,89.02434743338186,9.03631990186811,-6.929056870089191,248.15672906798162,90.92190927119296
683,-1.8179969297857117,-245.34549413568934,36.4222083389025,89.41809402975555,8.77839111529576,-7.0395617894868,248.05965581539502,91.11042810301684
684,-1.7560392305773271,-245.26423950711091,36.28170692823993,89.59746247982753,8.358740194708643,-7.169336240172432,247.95775709778866,91.0980634368096
685,-1.6911099889736276,-245.1796245127269,36.147580808386245,89.55820620260462,7.783013153343862,-7.3185037137476705,247.85360217778248,90.88594346058473
686,-1.6223011741394235,-245.09375781695982,36.02287619562889,89.30148836691355,7.059810338577247,-7.486544971553209,247.74973323596944,90.47966331276649
687,-1.548830737200792,-245.00863246659785,35.91070296499903,88.83379710039064,6.200580779056215,-7.672322276486651,247.64858690736745,89.88917207506582
688,-1.4700921646750273,-244.9260646392644,35.814164308032126,88.16668992601795,5.219452484820482,-7.874135091362382,247.5524235306989,89.12851116920122
689,-1.385698302031117,-244.84764332458388,35.73628483094978,87.31637915090354,4.133000303963364,-8.089803816728411,247.46326697136286,88.21541401414953
690,-1.295516957482891,-244.77469275987028,35.67993907142709,86.30317738759675,2.959955110789035,-8.316776000875233,247.38285708955127,87.17078409867382
691,-1.199696172664415,-244.7082487079287,35.64778214844428,85.15082883824542,1.7208601266494155,-8.552247854579228,247.31261616301597,86.0180749442786
692,-1.0986776548422832,-244.64904892992942,35.64218408281787,83.88575671701015,0.4376818740461927,-8.793292987184913,247.25362982580526,84.78260006620346
693,-0.9931975169456748,-244.59753743303153,35.665169195038,82.53625964328069,-0.8666153798912956,-9.036990042392304,247.20664230387567,83.49080340989575
694,-0.8842740895374848,-244.55388132183415,35.71836172617727,81.13168982021163,-2.1685217128313736,-9.280541285592943,247.17206495129386,82.16952068347518
695,-0.7731832653158142,-244.51799844520426,35.8029384219885,79.70164362155732,-3.4444492017860067,-9.521375138365558,247.14999640648327,80.84525984915909
696,-0.6614226534148347,-244.48959354563584,35.91958853229331,78.27519145612847,-4.671203323793705,-9.757227116183428,247.14025217507188,79.54352539938763
697,-0.5506665590680132,-244.46820031073574,36.06848178083424,76.88016914687174,-5.826445675523577,-9.986195474874553,247.1424011649224,78.28820659910318
698,-0.44271422833374496,-244.4532266060856,36.2492452936611,75.54254816882788,-6.889135348305479,-10.206769942091098,247.15580664795513,77.10104522456002
699,-0.33943388769166005,-244.44400017092866,36.46095090874959,74.28589740459779,-7.839936524303879,-10.417834066012556,247.1796691893224,76.00119392901651
700,-0.24270501324412544,-244.4398121065274,36.70211450648081,73.13094483498423,-8.661580585713686,-10.618643832834161,247.2130691605707,75.00487244911375
701,-0.15436109102423531,-244.43995563644188,36.97070896287554,72.09524380740838,-9.339172246045056,-10.808787104270676,247.255006590938,74.12512544004858
702,-0.07613486860535716,-244.44375801760344,37.26419193349116,71.19294515946194,-9.860430921165772,-10.988129876796215,247.30443644695603,73.3716827165248
703,-0.009607719097594385,-244.45060416849637,37.5795487949781,70.43467350628372,-10.215860744713245,-11.156756193934944,247.3602979863776,72.75092005113709
704,0.04383570481673742,-244.4599513980895,37.913349879487924,69.82750345155276,-10.398845191007371,-11.314908677346429,247.4215374749092,72.2659164461526
705,0.08304674081292339,-244.47133538369982,38.26182009086992,69.3750293547309,-10.405664972336643,-11.46293605471838,247.4871241619513,71.91660191014738
706,0.10714538456154293,-244.48436820921833,38.62091837017427,69.07752052986861,-10.23544047522548,-11.601252774239061,247.55605997289766,71.69998813814853
707,0.1155459550842444,-244.49872984032578,38.98642419382816,68.932152237272,-9.890002337064761,-11.730313946061772,247.62738388271947,71.61047296711398
708,0.10797539374566403,-244.51415483682487,39.354028164879004,68.93330138228394,-9.373695798220634,-11.850606696291695,247.70017232390651,71.64020789750995
709,0.08448383071046367,-244.53041635229977,39.719423743378606,69.07289435121118,-8.693126194513926,-11.962656839123095,247.7735372152003,71.77951625798568
710,0.045447066765072895,-244.54730953557169,40.07839724795859,69.34079299181751,-7.856854372888066,-12.067047811390736,247.84662326337144,72.01734786180612
711,-0.008439291107948695,-244.56463625273236,40.4269134165765,69.72520367294037,-6.875051922420248,-12.164447292285443,247.9186060116577,72.34175457297042
712,-0.0761740806395168,-244.5821925159497,40.76119407776852,70.21309393658142,-5.759126963870323,-12.255636064558676,247.9886916176412,72.7403704123681
713,-0.1564729170109399,-244.59975922521846,41.077787962776036,70.79060160708856,-4.521331914002902,-12.34153360511683,248.05611864762685,73.20087986229277
714,-0.24779794341921943,-244.61709607529764,41.3736303668369,71.4434222303586,-3.1743651704759808,-12.4232155929551,248.12016153940158,73.71145878300135
715,-0.34839408719670617,-244.63393801995988,41.646092026339915,72.1571621377361,-1.7309789872586192,-12.501919803622677,248.1801350351636,74.2611735874698
716,-0.4563307771939043,-244.64999358405657,41.89301699894755,72.91764604474697,-0.20360579849909985,-12.579038490105392,248.23539884748718,74.84032579039821
717,-0.5695479488160606,-244.6649444147595,42.11274946531511,73.71116978796431,1.3959852259443037,-12.656097101009525,248.28536193258492,75.44073061887458
718,-0.6859049470422435,-244.6784455695408,42.30414930375614,74.52469055612177,3.05699059173162,-12.734720827203297,248.32948582974944,76.05592000905433
719,-0.8032306977567736,-244.69012610161923,42.46659617894486,75.34594883610688,4.769824480595236,-12.81659181322886,248.3672865633512,76.68126206382115
720,-0.9193734409424548,-244.69958959616278,42.59998188177207,76.16351840155723,6.526312723958014,-12.903400804107692,248.3983346907308,77.31399105583772
721,-1.0322485215141635,-244.70641446972002,42.70469084931519,76.96678323248675,8.319823162770568,-12.996797420052623,248.42225326703445,77.95314455711548
722,-1.1398831253254746,-244.71015407759424,42.78156921410721,77.74584345809835,10.145329051355443,-13.098343083921826,248.4387137977083,78.59940746226198
723,-1.2404572418589597,-244.71033706377395,42.831883336750074,78.49135628349484,11.999404516001295,-13.209469919293594,248.44743073627123,79.25486658609117
724,-1.3323404007359445,-244.7064690011932,42.85726939219826,79.19432221590968,13.880153380534887,-13.33144788619189,248.44815579346178,79.92268400151391
725,-1.4141238087681822,-244.69803701765173,42.859675959318025,79.84583143454252,15.787074784401181,-13.465361240668868,248.4406740246465,80.6067020482533
726,-1.4846474185710237,-244.68451938843566,42.84130158199648,80.43678944542302,17.720870888567582,-13.612094223098133,248.42480394407036,81.31099759801242
727,-1.5430212914429249,-244.66540175462046,42.80452907488738,80.95764474837424,19.683203600111284,-13.772324779970099,248.40040356116785,82.03940724526956
728,-1.5886405045914929,-244.64020078899796,42.75185820763718,81.3981435958699,21.676408665046218,-13.946524217467285,248.3673833848354,82.79504811134001
729,-1.6211928584397586,-244.60849503443345,42.68583840618241,81.74713754325911,23.703176679321587,-14.134960100179208,248.32572636370818,83.57986043638188
730,-1.6406588060887566,-244.56996149020176,42.60900314551325,81.99246801529254,25.766211539495462,-14.337699503530901,248.2755136110756,84.3941977535735
731,-1.6473034350533622,-244.52441548153897,42.523807699622736,82.12094846876482,27.86787757899284,-14.554609859096951,248.21695374854116,85.23648811281618
732,-1.6416609681618661,-244.47185060694096,42.43257185245836,82.11845916677635,30.009847080728566,-14.78535502064488,248.15041297681697,86.10298576771167
733,-1.6245128779697542,-244.41247530157446,42.33742901502567,81.97016258332823,32.19275999631432,-15.029384801075212,248.07644271507516,86.98762740095002
734,-1.596861031745309,-244.34674283315658,42.24028296896159,81.66083964263495,34.4159075357852,-15.28591710022111,247.99580189356118,87.88200089405065
735,-1.5598972390629426,-244.27537219947845,42.142773301565754,81.17533903999998,36.676950824612234,-15.553912830454166,247.90947160526747,88.77542842275874
736,-1.5149703601154518,-244.1993581281647,42.04625051085513,80.49912443017922,38.971685041911925,-15.832045040107797,247.81866053126953,89.65515977992953
737,-1.4635519677044782,-244.11996895036373,41.95176156220456,79.61889778529743,41.293858331466645,-16.11866476999525,247.72480008458928,90.50666662782214
738,-1.4072014683979706,-244.03873153462138,41.860046266904,78.52327197250825,43.635053311181366,-16.41176709807617,247.62952855438738,91.31402400210622
739,-1.3475314598379013,-243.9574029465346,41.77154428809352,77.20346167875081,45.984637227495334,-16.708961447921915,247.53466390481674,92.06036186248004
740,-1.2861738639448792,-243.87792921482725,41.686411968217804,75.65395931698004,48.3297847707033,-17.007450554347127,247.4421654789267,92.72836687778127
741,-1.224747129355756,-243.80239242896758,41.60454762264041,73.8731616716755,50.655575381563416,-17.304022481045685,247.35408559236862,93.30081310826671
742,-1.1648247281413655,-243.73294808242002,41.525623549641736,71.8639139306266,52.945164691597526,-17.595059687041065,247.27251261046882,93.76109994708605
743,-1.107905362409183,-243.67175496040042,41.44912279308125,69.63394032776138,55.18002772634937,-17.87656827213709,247.19950744413305,94.09377656383231
744,-1.0553856183869414,-243.6209000862445,41.374378687327685,67.19613457139653,57.34026972829847,-18.144229275482786,247.1370356122013,94.28503387753567
745,-1.0085360544591229,-243.58232152461238,41.30061553714081,64.56868817264177,59.40499876287422,-18.393472483387047,247.086897355864,94.32314736402857
746,-0.9684817847617403,-243.5577322625668,41.22698947378587,61.77504045816417,61.352752371076654,-18.61957183828194,247.05065882985767,94.19885641380212
747,-0.9361885084632957,-243.54854876694915,41.15262930226157,58.843640390048904,63.161968306886514,-18.81776029723895,247.02958790513347,93.90566838314923
748,-0.9124546263290274,-243.55582787083364,41.07667760479277,55.807517428862184,64.81148708148731,-18.98336083273025,247.0245982522026,93.44007811731878
749,-0.8979096094085919,-243.58021524350616,40.99833232748479,52.70366668377851,66.28107208942617,-19.11192920739323,247.0362049752734,92.80169691179209
750,-0.8930182328752639,-243.62190794527038,40.91688868415729,49.572262418185616,67.55193189685112,-19.199403267785677,247.0644942545957,91.99328879182602
751,-0.8980897304376594,-243.68063268141984,40.831780689341606,46.45572318942732,68.60722892949933,-19.24225286622617,247.10910848615816,91.02071640357335
752,-0.9132903773150001,-243.75564055925528,40.74262109662166,43.39766070071623,69.43255912955526,-19.23762417495722,247.1692475125825,89.89280309566864
753,-0.9386575441790612,-243.8457184956827,40.649237952128296,40.441751827245234,70.01638785071933,-19.18347213599003,247.243685791892,88.62112114351115
754,-0.9741130714293115,-243.94921682604576,40.55170543605012,37.630578302918614,70.35042809635168,-19.07867509954448,247.33080466970742,87.2197179351598
755,-1.0194740876861808,-244.06409201373464,40.450366404619835,35.00448058879449,70.42994814336053,-18.923126260458293,247.4286382354181,85.70479215266988
756,-1.0744601494116688,-244.18796269002442,40.345844228941814,32.60047132150789,70.25399678640342,-18.71779715509908,247.53493061664193,84.09433088682269
757,-1.1386965575615677,-244.3181767091428,40.23904201397211,30.451249774799894,69.82553609785778,-18.464769133208566,247.64720211535268,82.40771687378711
758,-1.2117145242166727,-244.45188659170523,40.131127848683846,28.584352636166305,69.15147387761873,-18.16722940757958,247.76282137775567,80.6653133416056
759,-1.2929492559568834,-244.58613063150412,40.0235053868069,27.021468907887808,68.24259086485974,-17.829429157760053,247.87908079758327,78.88803279808808
760,-1.3817370157070537,-244.71791692485442,39.91776992008714,25.7779386015252,67.11336115485967,-17.456602378795576,247.99327247337467,77.09689565913516
761,-1.4773120514763722,-244.84430752379768,39.81565120854993,24.862446631465218,65.7816679100986,-17.0548457811376,248.10276215961946,75.31258485337595
762,-1.5788041798939012,-244.96249982200862,39.71894554263849,24.27691527542295,64.26842024489918,-16.630961988377802,248.20505875758954,73.55500332032817
763,-1.6852378729096105,-245.06990227867777,39.6294406137822,24.016591004896423,62.59708102655261,-16.19227039243137,248.29787706989015,71.8428425108859
764,-1.79553380428395,-245.16420178520397,39.54883757377293,24.070314597973546,60.7931191355648,-15.746392147435335,248.37919187138544,70.19317138541332
765,-1.9085137923292375,-245.24342041805735,39.478675094307,24.420957408318678,58.883403202960274,-15.301017728831074,248.44728184873196,68.62105665604162
766,-2.0229098730867663,-245.30595998843035,39.42026024263522,25.04600167517378,56.89555671799865,-14.86366700490227,248.5007626150089,67.13922581115612
767,-2.137377915192162,-245.3506336418408,39.3746104337744,25.918239080867117,54.85729648820886,-14.44145261085728,248.53860874608057,65.75778461401887
768,-2.2505158103861387,-245.37668461864723,39.342409564080505,27.006559650912013,52.7957776037371,-14.040857460895,248.5601654496494,64.4840002574788
769,-2.360885898393644,-245.3837929486583,39.32397994214385,28.276802640553306,50.73696815933099,-13.667536552100122,248.5651508987551,63.32216020909177
770,-2.467040968619393,-245.37207123895743,39.3192702673205,29.69264210595189,48.705075856429985,-13.326151970399952,248.55365042702945,62.27351500158156
771,-2.5675529517518516,-245.34205088474607,39.32785896964217,31.216482071770724,46.72204615802992,-13.020248322821242,248.5261037988834,61.33631080912689
772,-2.661043272444952,-245.29466002620651,39.34897169916909,32.810339150626774,44.80714800069726,-12.752173719398037,248.48328666874602,60.50591465233422
773,-2.746213749893788,-245.23119440589576,39.381511457861336,34.43669370358201,42.97665850035777,-12.523048933301357,248.426287119094,59.77503162823193
774,-2.821876838739572,-245.15328209778113,39.424099697625024,36.05929374104248,41.24365305942483,-12.332784598467288,248.35647794720907,59.134009829203336
775,-2.8869838901346414,-245.06284309204872,39.475126615303,37.643898422556184,39.61790221661242,-12.180143469520788,248.27548535705202,58.571224744339446
