time,ax,ay,az,gx,gy,gz,accmagnitude,gccmagnitude
0,23.732423955649818,-251.92789606494634,-30.969830540800935,-64.22743254609853,29.84466338986702,-9.179919897058264,254.93045335822205,71.64762659699392
1,23.914742989384703,-251.7636255812693,-31.038162674076265,-64.17860285648561,28.408959993593857,-9.381760789148135,254.79538550812586,71.2009000824131
2,24.108287122466063,-251.60614261002507,-31.10493754353379,-64.11942707798985,26.975088175234223,-9.571198667956159,254.66794036196848,70.74217169690769
3,24.311282432666072,-251.45797506153818,-31.17066373974069,-64.06803906879917,25.554062939868242,-9.745601235200102,254.55049451234683,70.29155748084142
4,24.5219261357055,-251.32146589141516,-31.23587415355862,-64.04122053413555,24.15673764555568,-9.902460087047302,254.4452429394843,69.86783181261137
5,24.73842633332396,-251.19871181216055,-31.301106301597706,-64.05379800532678,22.79361018369088,-10.039436626158375,254.3541402948888,69.48780616976933
6,24.959033895808908,-251.09150787679505,-31.366885532054923,-64.11814565051557,21.47464376072137,-10.154402964630439,254.2788475087581,69.1658146499039
7,25.182065676994757,-251.00129996967038,-31.433711185788482,-64.24381689735546,20.2091071830528,-10.245476994679755,254.220685654288,68.91332949922001
8,25.405919185386672,-250.92914701037478,-31.502045427768998,-64.43732113124655,19.005437831000116,-10.311051230808443,254.18059882896156,68.73872295011674
9,25.629079548787065,-250.87569428536986,-31.57230435333194,-64.70205386580889,17.87112863628852,-10.34981528112229,254.1591274883062,68.64718355159728
10,25.85012007471037,-250.8411589102556,-31.644850952774195,-65.03838012665757,16.812638683312752,-10.360771947596124,254.1563933072936,68.64078635713203
11,26.06769799614281,-250.8253280223886,-31.719989506928265,-65.44386192956631,15.835325773414265,-10.343247013454254,254.17209627412197,68.71870743692074
12,26.280547158899935,-250.82756983904102,-31.797960999577892,-65.91361238720657,14.943398539231147,-10.296892758471643,254.20552427934027,68.87756489869805
13,26.48746943405048,-250.84685716141752,-31.878939197209405,-66.44075186388213,14.139885530863738,-10.22168523054214,254.25557492383163,69.11186162790241
14,26.68732651707423,-250.88180231596982,-31.96302715442416,-67.0169363337909,13.426619149370284,-10.117915431242102,254.32078868638476,69.4144999114906
15,26.87903355298084,-250.9307019829833,-32.05025400925994,-67.63292514443766,12.804233322254738,-9.986174913826344,254.39939204547633,69.77733543368394
16,27.06155573914542,-250.9915899323433,-32.14057199737163,-68.27915500054543,12.272175181472566,-9.827336790107505,254.48934870250855,70.1917380242794
17,27.233908692606267,-251.0622954041225,-32.23385365994829,-68.94628916469875,11.82873234860518,-9.64253368510532,254.5884167426494,70.64912891835402
18,27.395162947797232,-251.14050474167843,-32.32988930512503,-69.6257153270863,11.471078370375805,-9.433134658108408,254.69420940862383,71.14146880121132
19,27.544452578762595,-251.2238238844968,-32.428384906803885,-70.3099717745079,11.195339133376939,-9.200723424438285,254.80425714049443,71.66167700183001
20,27.68098772182804,-251.30983942612062,-32.52896071055336,-70.99308863644576,10.996682656713482,-8.947080285543544,254.91606862097143,72.20396914043181
21,27.804070721646248,-251.39617614877488,-32.631150774214625,-71.6708382563554,10.869433592653287,-8.67417000547248,255.0271887603382,72.76410753264292
22,27.913115626323435,-251.48054932563676,-32.73440346025497,-72.34089534573084,10.807212239807784,-8.38413752144916,255.13525190527398,73.33956496892466
23,28.007670643816002,-251.56081064691423,-32.83808257281451,-73.00291293581783,10.803096148820034,-8.07931289501991,255.23802906347808,73.92960756995382
24,28.087442881973114,-251.63498723465244,-32.941468580966216,-73.65852388331864,10.84980074119026,-7.762226322164663,255.333468478277,74.5353059286471
25,28.152324376289762,-251.70131366168533,-33.04375942440704,-74.3112796750137,10.93987396627341,-7.435633365452812,255.4197293108238,75.15948556978462
26,28.202418222412266,-251.75825710506547,-33.14407082301218,-74.96653861858464,11.065899012527245,-7.102549899303066,255.49520844054462,75.80662801033891
27,28.2380635388915,-251.80453580253226,-33.24143660269533,-75.63131455566183,11.220698542157292,-6.766295585009502,255.55856050391301,76.48273274875648
28,28.25985787147045,-251.83913090908965,-33.33481001847721,-76.3140955257001,11.39753387318479,-6.430543990517998,255.60871127265557,77.19514888701717
29,28.268675529156766,-251.86129171217442,-33.42306726365966,-77.02463994222245,11.59029297477242,-6.099376734157996,255.64486435113858,77.95238338268717
30,28.26568034947699,-251.87053404407143,-33.50501431997214,-77.773756326916,11.793661975790497,-5.777338308140871,255.66650105166042,78.76389162947984
31,28.252331606050657,-251.86663174937436,-33.579398084572986,-78.57307179286023,12.003275959314474,-5.469487601283077,255.67337332117174,79.63985545529208
32,28.230382131896018,-251.84960128804386,-33.64492236478618,-79.43479434362251,12.215845993366548,-5.181441668766175,255.66548980790014,80.59095374985131
33,28.201868100166358,-251.81967995024638,-33.70026892126371,-80.37147453587745,12.429260571463633,-4.919407068859179,255.64309553359575,81.62813165797523
34,28.169090205175205,-251.77729864411933,-33.74412331291211,-81.39577290985987,12.642660878980985,-4.690194151756489,255.60664609231648,82.76237536766857
35,28.13458625235805,-251.7230507025676,-33.77520493917227,-82.52024051672191,12.856490491051842,-4.501210009035034,255.5567777573294,84.00450066321477
36,28.101095461192095,-251.65765854787085,-33.79230052879637,-83.75712047900574,13.072521101843819,-4.360426262992975,255.49427527876233,85.36496418623186
37,28.071515128619,-251.58194027415757,-33.794300434171106,-85.11817840781859,13.293856512057678,-4.276318390545229,255.42003942490726,86.85370631715936
38,28.048850658382754,-251.49677825348513,-33.78023730478942,-86.61456835232813,13.524917246094422,-4.2577737973357666,255.33505643024097,88.48003342120839
39,28.036160271189797,-251.40309181201079,-33.74932681373464,-88.25673862586073,13.771407843648438,-4.313966389522341,255.24037149685995,90.25254475178866
40,28.036495890327387,-251.30181589362053,-33.70100998890676,-90.05437840786387,14.040268196289256,-4.454195962048962,255.1370683651985,92.17910566130878
41,28.05284169283791,-251.1938873699743,-33.63499641481294,-92.01640176161307,14.339609446138015,-4.687691397008021,255.02625666827873,94.26686426101453
42,28.08805167054431,-251.0802402084828,-33.55130727129015,-94.15096112177993,14.678634100563173,-5.023377533907122,254.90906827685032,96.52230381381118
43,28.1447873603753,-250.9618101014752,-33.45031698359864,-96.46547800005618,15.067539286296372,-5.469606716011067,254.7866631856919,98.95131856532049
44,28.22545670851878,-250.83954845690474,-33.33279223630794,-98.96667527474547,15.517401550892039,-6.033857470972314,254.6602447615222,101.55929707302171
45,28.332154766023464,-250.71444488383335,-33.19992726814821,-101.66059354137002,16.040041333623268,-6.722404498479401,254.53108339681364,104.3511949451117
46,28.46660655281685,-250.5875564959343,-33.05337462590074,-104.55257397242029,16.64786511076841,-7.539965950718997,254.4005467978677,107.33157859273581
47,28.630112072144637,-250.46004157726162,-32.8952707201211,-107.6471920435745,17.35368312609226,-8.489335696892832,254.27013433737727,110.5046231761563
48,28.823493268528228,-250.33319453898906,-32.72825546615426,-110.94813011523604,18.170500400750278,-9.571009710866353,254.1415122525748,113.87405115015923
49,29.047042816396527,-250.20847879783798,-32.555485052919,-114.45798178648066,19.111278395832585,-10.782816863533055,254.01654614141052,117.44300227674006
50,29.30047500505294,-250.0875543227989,-32.38063659086671,-118.17798666229342,20.188664521256282,-12.119565287914428,253.89732731455967,121.21383123185186
51,29.58287950829491,-249.97229705162573,-32.20790313594665,-122.10770017820587,21.414687004180863,-13.57271620788055,253.7861900227736,125.1878345555092
52,29.892679272274602,-249.86480794693102,-32.041977349422105,-126.24460886079254,22.80041372321322,-15.130097715718115,253.6857171478953,129.36491420799382
53,30.227593969152654,-249.7674099792807,-31.88802178738064,-130.5837063687949,24.355575551079312,-16.775671373725395,253.59873243736988,133.74318994102416
54,30.584610473995532,-249.6826318017451,-31.751623625333746,-135.11704957919028,26.08815741364184,-18.48936458263215,253.5282778046964,138.31857679861145
55,30.959961792690024,-249.61317736767592,-31.638731780776396,-139.83331681093142,28.003963458422362,-20.246981353596492,253.47757471672762,143.08434727049607
56,31.349115948298753,-249.5618812350988,-31.55557502234652,-144.71739203342244,30.106166159521734,-22.02020346628454,253.44996927034308,148.03069991917698
57,31.74677655575608,-249.53164982111915,-31.50856053019674,-149.74999955025652,32.3948525237138,-23.776693012885968,253.44886122415076,153.14435759771527
58,32.14689710140757,-249.52538949574833,-31.504153222261987,-154.90741313294987,34.86658344705188,-25.480305997148907,253.47761802551287,158.4082185531125
59,32.54271114964981,-249.54592314104497,-31.54873698367684,-160.16126191634078,37.513984429937736,-27.09142496361876,253.5394757459572,163.801082728303
60,32.926780707052885,-249.59589754589342,-31.648459919100215,-165.47845263808247,40.32538713239888,-28.56741656496941,253.6374297195059,169.29747348525692
61,33.29106478044813,-249.67768465256015,-31.80906699425603,-170.821224130095,43.28454157724675,-29.863217480524735,253.77411847851354,174.86757187526487
62,33.6270097997908,-249.7932801298909,-32.035724826014494,-176.14734548717144,46.37041821649434,-30.932049102326378,253.95170520211553,180.47727661361174
63,33.925662995404934,-249.94420291541502,-32.33284460560243,-181.41046420981735,49.55711765880319,-31.726257893808203,254.1717611831766,186.08839824918803
64,34.17780899769836,-250.13139922488193,-32.70390989234534,-186.56060507587213,52.813903688137216,-32.198274375653,254.43515571632676,191.65899089651575
65,34.37412897480388,-250.35515423617989,-33.1513162391322,-191.54481486318733,56.10537230298821,-32.30167942524522,254.74195647763264,197.1438196362104
66,34.50538068609767,-250.6150144219287,-33.67622948112875,-196.30794270233963,59.39176588003209,-31.99236210704,255.0913441495737,202.49495665166978
67,34.56259695516729,-250.90972336677146,-34.27846922483798,-200.79354113587885,62.62943726800276,-31.229748658081174,255.48154480835285,207.66249468928098
68,34.53729922942626,-251.23717374211958,-34.956423651254205,-204.94486913985716,65.771463738541,-29.978077584653228,255.9097833176819,212.59536273285383
69,34.42172208234964,-251.59437783426526,-35.70700107207234,-208.70597550240996,68.76840539063896,-28.2076911794465,256.3722605584474,217.24222594567783
70,34.20904373351301,-251.97745864161234,-36.525622615548016,-212.02283899985287,71.56919700404087,-25.896309340509468,256.86415675827226,221.55244991953336
71,33.89361690658619,-252.3816630943311,-37.40625894299829,-214.84454066026296,74.12215666519094,-23.030247616543477,257.37966248305446,225.47710800058474
72,33.47119363226474,-252.8013984062507,-38.34151203751191,-217.12444293325052,76.37608893119766,-19.605538168920926,257.9120380188884,228.97000983092056
73,32.93913699638971,-253.23029200256963,-39.322740895268616,-218.82135064894774,78.28145505231838,-15.62891008515136,258.45370097502393,231.9887291306493
74,32.296612387016445,-253.66127499072445,-40.34022752964362,-219.9006291666126,79.79157811302049,-11.118584488843766,258.9963411095443,234.4956091090773
75,31.544750513756888,-254.0866888038043,-41.38337737289644,-220.33525612586652,80.86384718971867,-6.1048404803294805,259.53106070290346,236.45872483006553
76,30.686774400991837,-254.49841438473263,-42.440946252545004,-220.10678475282248,81.46088202641504,-0.6303103959943417,260.04853826616215,237.85278344033702
77,29.728082829838076,-254.888022993255,-43.50128482306234,-219.2061985354641,81.55161849712029,5.250032632749837,260.5392129165203,238.65994522785738
78,28.67628343212737,-255.24694730738477,-44.552590708562896,-217.6346388115816,81.11227542853378,11.469225288079219,260.9934863134123,238.8705505817348
79,27.54116976343827,-255.5666708659131,-45.5831586786788,-215.4039879165176,80.12716529774256,17.94902477676209,261.40193853886564,238.4837395803614
80,26.334638034525366,-255.83893301999169,-46.58161994730091,-212.53729072159615,78.58931479912664,24.60099117599848,261.75555367601663,237.507951753485
81,25.07054068216065,-256.05594547631006,-47.537163032065784,-209.06899668753647,76.50086599456205,31.32794084814003,262.0459501089389,235.96129337611407
82,23.76447567808726,-256.2106153130244,-48.43973024451371,-205.0450033460751,73.87323443385661,38.025756865786036,262.2656097818913,233.8717586024618
83,22.43351249650048,-256.2967681117973,-49.280185548305745,-200.5224811019965,70.7270071823432,44.58552793016583,262.4080998622437,231.277289342154
84,21.095857996205964,-256.30936369286434,-50.05045122882998,-195.56945932337942,67.0915712230053,50.8959723726357,262.4682795673427,228.2256578061391
85,19.77046805756123,-256.24469611954174,-50.74361265437809,-190.2641557860598,63.00447130062202,56.84608914555877,262.4424845991672,224.7741559470038
86,18.476613518979345,-256.1005694641925,-51.35399225367878,-184.6940362557906,58.5105058402609,62.32796398790149,262.32868194353887,220.989078120395
87,17.23341163168782,-255.8764414277994,-51.87719531842374,-178.954598235418,53.6605796803731,67.23964700935227,262.1265887675991,216.94498707877798
88,16.059336767311624,-255.57352813201504,-52.31013100583818,-173.14788179974548,48.51034228931731,71.48800856466941,261.83775056447877,212.72375804016593
89,14.97172632170689,-255.19486495766617,-52.651011880588115,-167.38071961559393,43.118649129447434,74.9914741355802,261.46557523193843,208.41339987104524
90,13.986299449785255,-254.7453199000418,-52.899334745930744,-161.7627463650143,37.54589149549668,77.68253646944913,261.0153211889006,204.1066554827544
91,13.116707281166047,-254.23155735907812,-53.05584478458133,-156.40419414724494,31.8522466265442,79.5099448140895,260.4940388180535,199.89938531424175
92,12.374133607719754,-253.66195151362624,-53.12248446022412,-151.4135053492553,26.095905691568184,80.44047709251684,259.91046547298765,195.88873929542706
93,11.766964754815847,-253.04644950065,-53.10232825955689,-146.89479924551406,20.331342838798825,80.4602115614476,259.2748750838119,192.1711257619428
94,11.30054631201421,-252.39638569537422,-52.99950407386445,-142.94523496308037,14.607693841119156,79.57522989124196,258.59888418545125,188.83999224078585
95,10.977042204175918,-251.72424961575678,-52.81910177566976,-139.65232290609526,8.96731724600809,77.81170320636362,257.8952171191701,185.98344391474907
96,10.795407809838697,-251.04341132902383,-52.567069386699075,-137.09124987028093,3.4446130360448266,75.21533551098376,257.1774342149119,183.6817408807117
97,10.751483437675143,-250.3678095610027,-52.25009720671935,-135.3222991659644,-1.9348281349062013,71.85016404185241,256.4596278188755,182.004733989842
98,10.838207976109722,-249.71160894108772,-51.875490388944655,-134.38846384922294,-7.154679960078894,67.79674247668314,255.75609203793329,181.00931918063048
99,11.0459457720727,-249.0888340899809,-51.451030745876714,-134.31336513786664,-12.207889777131284,63.149759578650894,255.08097316126688,180.7370092057228
100,11.362913450169344,-248.51298972411684,-50.984829155836906,-135.09959548593872,-17.096214533477184,58.01517151709806,254.4479090480202,181.2117366627186
101,11.77568778659041,-247.99667757400195,-50.48517091142441,-136.72760378505333,-21.829283523732975,52.506949350283385,253.86966731929567,182.43801080314057
102,12.269771084226251,-247.5512224802548,-49.96035767083314,-139.15522765095827,-26.42321829948085,46.74356271278199,253.35779375094222,184.3995511333296
103,12.830186956204019,-247.1863213062712,-49.41855110687607,-142.31795536253657,-30.898870229829704,40.84433558484322,252.92228356116004,187.0585125724657
104,13.442077255027108,-246.90972908882708,-48.86762448846096,-146.12996968667755,-35.27976355281502,34.925819214888136,252.57128906536153,190.35539952027491
105,14.091270392378979,-246.72699689925128,-48.315028844698894,-150.48599027524926,-39.5898541080305,29.098330015011545,252.31087715252576,194.20973950907324
106,14.764792795895255,-246.6412749744255,-47.76767987540889,-155.26389336659625,-43.851229289210444,23.462795996623324,252.14484901571157,198.5215518488723
107,15.451298848299308,-246.65319271912466,-47.23187061668578,-160.32804925833491,-48.081881878079756,18.108043712545783,252.0746325630751,203.17360495855903
108,16.141400096089818,-246.7608242452625,-46.71321346509028,-165.5332805795096,-52.29368916186421,13.108638491164253,252.09925511042354,208.03441158112634
109,16.827881277168768,-246.95974431216695,-46.216613726091474,-170.72930868799565,-56.49071961538732,8.523364220250036,252.21540044446294,212.9618681179069
110,17.505798267119612,-247.24317511059473,-45.746275338685756,-175.76552337763727,-60.66797289138948,4.394396434492913,252.41755034169688,217.80740665488736
111,18.172460921862914,-247.60221977112258,-45.30573778301814,-180.49588560041852,-64.81063502939882,0.7471865231091553,252.69820655077464,222.42049864996895
112,18.827311204628042,-248.02617428133595,-44.897941446659004,-184.78375744958424,-68.89389993172476,-2.408961741025765,253.04818552172782,226.65332959343627
113,19.4717125092145,-248.5029059149595,-44.52531699850483,-188.5064502492417,-72.88337149256525,-5.079677249554109,253.4569749023558,230.3654551065348
114,20.108668580754884,-249.01928333313504,-44.18989275375,-191.55929031309142,-76.73602118406062,-7.283753786950933,253.91313793426045,233.42825033024872
115,20.742490324345045,-249.56164122684936,-43.893412840872145,-193.85902148300875,-80.40163789410295,-9.050941349600006,254.40474943767074,235.7289744485491
116,21.378427784736722,-250.1162607973722,-43.63745837833908,-195.34639229571462,-83.82467527414109,-10.41942750258335,254.9198453169415,237.17428931235764
117,22.022283934164825,-250.66984656667555,-43.42356382462259,-195.9878120354252,-86.94638038422993,-11.43315017594273,255.44686661404353,237.69309484825393
118,22.68002658141038,-251.2099799883435,-43.25332099544397,-195.7760025492167,-89.70707727094846,-12.139084649526042,255.97507908810528,237.2385742658646
119,23.35741400329139,-251.72553114202077,-43.12846377781874,-194.72961979562447,-92.04847927805329,-12.584640159501467,256.49495008679406,235.7893785498084
120,24.059648244022473,-252.20701152894108,-43.050927340318374,-192.89186830847657,-93.91591204265782,-12.815286999983162,256.9984661574799,233.34992064116025
121,24.791067347232477,-252.6468536631966,-43.02287676698824,-190.32817996517463,-95.26034291098429,-12.872515160861218,257.47937745901794,229.9497922065245
122,25.554884483903443,-253.03960665558017,-43.04670153560365,-187.12307205117534,-96.04013038519982,-12.79220240085825,257.93335848763604,225.6423565924879
123,26.352978719343803,-253.3820410960392,-43.124974044835014,-183.37633528304477,-96.22242833346428,-12.603444804633186,258.35807873753413,220.50260746168692
124,27.185739638568297,-253.67316097771544,-43.260372444156,-179.19872810398724,-95.78420308458115,-12.327877428629737,258.7531814391434,214.62441170208996
125,28.051966383756966,-253.9141248156722,-43.45557027355524,-174.7073689185636,-94.71284553219802,-11.979487392411666,259.12017311004206,208.11727665096615
126,28.948820526054085,-254.108082097102,-43.7130975927523,-170.02102403441864,-93.00638281198535,-11.56489763285935,259.46223085294105,201.10279528781703
127,29.87183115616472,-254.25993445874747,-44.035179936051016,-165.25548698928185,-90.67331297875032,-11.084077827549022,259.78393774014194,193.7109285313805
128,30.814949494959578,-254.37603347374966,-44.4235623386607,-160.51923481537418,-87.73210028954658,-10.531421146183902,260.09095913382924,186.07628058174132
129,31.770649387727012,-254.46382878301804,-44.879325990069056,-155.90952823160427,-84.21037822942645,-9.897112462535821,260.38967458198067,178.3345112490062
130,32.730069466608505,-254.5314816132062,-45.40270505969928,-151.50909592090574,-80.14391307414233,-9.168705649181526,260.68678115510806,170.6190093527167
131,33.683192568234446,-254.58745943062436,-45.992911060638974,-147.38350939718495,-75.57538341794962,-8.332824207099266,260.98888472872295,163.05792553756194
132,34.61905804550449,-254.64012752297657,-46.64797182491202,-143.5793171331698,-70.55303124540679,-7.376900160890699,261.3020957060558,155.77163368365586
133,35.52600274179367,-254.6973526993796,-47.36459187186221,-140.12296792792273,-65.1292380623939,-6.290870294504056,261.63164503762886,148.87066001479818
134,36.39192647947509,-254.76613312888446,-48.13804082450753,-137.02051739798432,-59.35907551290708,-5.068755850073891,261.9815352173056,142.45409052213415
135,37.204577887548865,-254.85226669584407,-48.96207659398526,-134.25808098379974,-53.29887404344565,-3.7100611314081227,262.354239309751,136.6084427948072
136,37.95185618705446,-254.96006827379514,-49.82891005735547,-131.80297394084988,-47.004845935048685,-2.220937305007539,262.7504590708603,131.4069697049846
137,38.62212408026133,-255.09214419211503,-50.72921748488369,-129.60546403491674,-40.53179101373504,-0.6150693029682915,263.1689509534405,126.90935068581288
138,39.204526090827265,-255.24923007606017,-51.65220575546906,-127.60105541409486,-33.9319053671043,1.0857446021379258,263.6064263662724,123.16172153069787
139,39.68930557953675,-255.4300963073824,-52.58573350147842,-125.71322084062109,-27.253706304034353,2.8513398294810575,264.0575301091293,120.19699471756245
140,40.06811230457551,-255.6315236397206,-53.516489072810415,-123.8565021192562,-20.541081415914046,4.643268176491631,264.5148985667085,118.03542754316226
141,40.33429098983246,-255.84835000929573,-54.43022395456335,-121.9399029653526,-13.83246661828964,6.415216150316959,264.9692970966221,116.685402812876
142,40.483140118768944,-256.0735882277425,-55.31203821270523,-119.87050261981555,-7.160157922164529,8.11375117104437,265.40983407934476,116.14439440368471
143,40.51212928164829,-256.298612899815,-56.146712629949086,-117.55722052283708,-0.5497644901675244,9.679381336986543,265.8242472074002,116.400095877842
144,40.42106311720993,-256.5134134553096,-56.91908019403977,-114.91466111343287,5.980184110949431,11.047908844925827,266.1992556605657,117.43169301463648
145,40.21218049518406,-256.7069085357823,-57.614427385569385,-111.86696261918404,12.418456571483302,12.152051984657582,266.520969786612,119.21125950958502
146,39.89017923863941,-256.8673151063873,-58.218913476914295,-108.35156424085285,18.761137427930258,12.923305153757113,266.7753478240415,121.70524837952367
147,39.462159282141485,-256.9825636323699,-58.719994126233274,-104.32279264045519,25.011411309828254,13.293999789836658,266.94868717462987,124.8760397668503
148,38.93748044566619,-257.04074854919367,-59.10683410853447,-99.75515213904812,31.179079994445196,13.199521027402612,267.02813583594235,128.68349013641458
149,38.32753478019805,-257.0306011277199,-59.370693143929586,-94.64618557568706,37.27978189998178,12.580625407810015,267.00220788854836,133.08641105049406
150,37.64543765647207,-256.94196981865633,-59.50526862462255,-89.0187573911989,43.33389286514464,11.385794848500234,266.8612855553459,138.04389143397208
151,36.905646319730124,-256.7662914590162,-59.5069797997971,-82.92260091715525,49.365102265536976,9.57355236520148,266.5980895349652,143.51636928133067
152,36.123519147140065,-256.4970355442779,-59.375179675973996,-76.43497218872926,55.398679696012636,7.11465687098701,266.2080991943348,149.46636054564837
153,35.314832792842196,-256.13010329762125,-59.112283404294395,-69.66026674158317,61.45947396850802,3.99408890044266,265.68990484493276,155.8587670712052
154,34.4952773927029,-255.66416363108993,-58.72380512220902,-62.72848641741241,67.56971608240259,0.2127374088231317,265.0454757577203,162.6607127390217
155,33.67995183327958,-255.10090932630706,-58.218298921927804,-55.79249049501796,73.7467276006039,-4.211299358254165,264.28032976811704,169.84089584662826
156,32.882881663810025,-254.44521886054298,-57.60720353204309,-49.02402698950675,80.00066106204211,-9.241878298030954,263.40359321248684,177.36849198813553
157,32.11658146648786,-253.70521225468832,-56.904594091948766,-42.608610727409605,86.332415427398,-14.824508389157641,262.42794344188167,185.21168939419107
158,31.39168136786375,-252.8921930355773,-56.126847874366796,-36.73938824478832,92.7318739937116,-20.886631158543018,261.36943016787495,193.3359811668567
159,30.7166339306,-252.02047274939932,-55.29223393741579,-31.61019881326845,99.17660330572667,-27.338516125474317,260.24717630204475,201.70236987629838
160,30.09751305970389,-251.10707932648586,-54.42043948683012,-27.40810006530681,105.63112974313883,-34.07478026032419,259.0829636928456,210.26565479963543
161,29.53791108161478,-250.1713558139215,-53.532048152360325,-24.305671553447777,112.04687775877338,-40.97651575548284,257.9007141093461,218.9729679772499
162,29.03893438502521,-249.23446119754493,-52.647987298703384,-22.453437676449916,118.36281346655034,-47.913983995773634,256.7258806389847,227.76270203695185
163,28.59929279369878,-248.3187897172687,-51.78896276981919,-21.972761497631584,124.5067931945119,-54.749806629859584,255.5847688943896,236.56393335209873
164,28.215473891068942,-247.4473287860406,-50.97490003302316,-22.949552385166392,130.39757240951678,-61.34255882810142,254.5038106626947,245.29639518228862
165,27.881991006847723,-246.6429781313226,-50.22441051954887,-25.42910278047807,135.94738949245692,-67.55064741997428,253.50881467986932,253.87100618756338
166,27.591692176194176,-245.92785411073302,-49.55430101741876,-29.412323278241775,141.06500420798648,-73.2363397664383,252.62422007291602,262.1909186909987
167,27.336116618790165,-245.3226034362216,-48.979142196841245,-34.85358280653321,145.6590446673447,-78.26979922458413,251.87237776474373,270.15302300194975
168,27.10588477459228,-244.84574986169156,-48.51090974212421,-41.66028620727815,149.64150039779216,-82.53298015992266,251.272883835093,277.6498289938589
169,26.89110740503547,-244.51309578418508,-48.15870830709363,-49.6942403776332,152.93119304759642,-85.92323930184779,250.84198651845296,284.57164088827517
170,26.681798605712597,-244.33719824561777,-47.92858493144529,-58.77477793661993,155.4570596998138,-88.35653030892509,250.5920853100213,290.80894195032675
171,26.46827696500917,-244.3269356881214,-47.82343503801202,-68.68352906139242,157.16109560234227,-89.77006410777416,250.5313368166304,296.25490920645905
172,26.241539075128,-244.4871783451824,-47.84300097638279,-79.17066164587794,158.00082190759096,-90.12433803915106,250.6633779699414,300.8079820018121
173,25.993590705037803,-244.81857171519644,-47.98396031914769,-89.96235018042657,157.95116832459243,-89.40446099637812,250.9871734464022,304.3744110075592
174,25.717723282926695,-245.31743938870517,-48.240098562723226,-100.769186625299,157.00568919227675,-87.62072844351995,251.49699081166276,306.870716083249
175,25.408726536215685,-245.9758085686773,-48.60255842603007,-111.29521305112293,155.1770632861303,-84.80842936618599,252.1825039453768,308.22598290328904
176,25.063031749884534,-246.78155876609557,-49.06015568594683,-121.24723626376468,152.49686146296793,-81.02689565307284,253.02902250227214,308.3839303664641
177,24.67878388607876,-247.71869123728695,-49.59974959985113,-130.34407885007383,149.0146005566727,-76.35783177368944,254.01784239245234,307.30468416173153
178,24.255844623951404,-248.76771373606397,-50.20665450624498,-138.32542853414753,144.79613510932464,-70.9029875824733,255.12670949212875,304.9661968420093
179,23.795731990100585,-249.90613208756903,-50.86507817529589,-144.95996758242828,139.92146894590044,-64.78125863527106,256.33038600110564,301.36526170626996
180,23.301505302015343,-251.10903690500126,-51.55857197738352,-150.05249514340477,134.48209477458624,-58.12531594812599,257.60130597274735,296.51807705333374
181,22.777606307633956,-252.34977043167171,-52.27047809425938,-153.44979648015254,128.57799038235245,-51.077880400158605,258.91030352021636,290.4603290691544
182,22.2296684916531,-253.60065507725773,-52.984359915839015,-155.04506238708382,122.31441300258388,-43.78776599501913,260.22739413965377,283.2467755131418
183,21.664306542619872,-254.83376193142723,-53.68440342384301,-154.78071783277167,115.79863774838132,-36.40582111706518,261.5225866984744,274.95032808272583
184,21.0888970715393,-256.02169464060114,-54.35577960558001,-152.64957920334817,109.13678109502146,-29.0808978877384,262.7667011661418,265.66064856221305
185,20.51136002862616,-257.13836179619005,-54.984960499580644,-148.69432267280095,102.43083677994754,-21.955976741152504,263.93216534984947,255.4822924071739
186,19.939948110865352,-258.1597097326193,-55.55998406008347,-143.0053103677772,95.77603073538299,-15.164566294990387,264.99376301683975,244.5324528955148
187,19.383049081043424,-259.0643877747517,-56.070665419194654,-135.71688400768045,89.25857614229264,-8.827487412491855,265.92930620646723,232.93837846268295
188,18.849003665100618,-259.83431984875455,-56.508754159056274,-127.00229507236782,82.95388214800424,-3.0501350687445883,266.72020657996416,220.8345537003392
189,18.34593991295422,-260.45516009980145,-56.86803875558062,-117.06749346967275,76.9252428903694,2.079707502778741,267.35192444080604,208.35974855835454
190,17.881623869769605,-260.91661562755434,-57.14440038552385,-106.14404025061503,71.223009401945,6.4934503168584,267.81427948249393,195.65404818300226
191,17.463326133989508,-261.2126262852902,-57.335818835179886,-94.48144138231663,65.88422719954478,10.142646416834939,268.1016140336928,182.85597542912404
192,17.097704131239922,-261.3413990175028,-57.442333326592205,-82.33921650401471,60.932707582938995,12.999308159493252,268.21280690565146,170.09980812047763
193,16.7907003697435,-261.30530160242546,-57.46596073689577,-69.97901715396644,56.37949076931735,15.055613211798097,268.1511430807964,157.51317398534195
194,16.547457280789228,-261.1106272132849,-57.41057317062692,-57.657092392510826,52.223653136644685,16.323046240382304,267.92405075417497,145.2149806133622
195,16.372249300753623,-260.7672464696377,-57.281736551311354,-45.61736677832968,48.453407654639996,16.831041474581422,267.54272228539463,133.31371063038944
196,16.268432536271202,-260.2881674143828,-57.086512151516125,-34.085348777650225,45.04744454709167,16.62520597967294,267.0216393037528,121.90608886639978
197,16.23841171438486,-259.6890260953346,-56.83322388985094,-23.263031066840817,41.97645727479794,15.765213117806866,266.3780245373321,111.07611202136846
198,16.283623332817672,-258.98753120511185,-56.53119574614518,-13.324883128228514,39.20479672787473,14.322460259277753,265.63124396680973,100.89442250017792
199,16.404533253621267,-258.20288563414687,-56.19046566655402,-4.414976633665367,36.692194454708826,12.377584582543241,264.80218272358917,91.4180043989558
200,16.600646655935805,-257.35520602207316,-55.82148458765811,3.354769664730129,34.39549466373947,10.017926236038274,263.91261691319863,82.69017792538249
201,16.870528373693627,-256.4649588002755,-55.43481122378156,9.905282840923276,32.27033559359952,7.3350199488197605,262.9846014808007,74.74086645718835
202,17.21183212555983,-255.5524282045466,-55.04081451856719,15.190056174274673,30.272724487894816,4.422185334231164,262.0398916119861,67.58710724043947
203,17.62133782040571,-254.637228637249,-54.64939589655809,19.19400724132285,28.36045722961032,1.3722737067886919,261.09941223574214,61.23377312998165
204,18.094996790489187,-253.7378708131184,-54.26974269140671,21.931594092268377,26.494343480809583,-1.7243837627787477,260.1827872016886,55.67447012207709
205,18.62798532400903,-252.8713884892592,-53.91012249590914,23.444312080839357,24.639210166155454,-4.781794478648247,259.30793682113404,50.89257469842578
206,19.214767182785902,-252.053030307838,-53.577725773945865,23.79769119972642,22.764669225360805,-7.719869299564844,258.4907497653312,46.86237630382508
207,19.84916589177754,-251.296019312005,-53.278561062688375,23.077909053352787,20.845648570423332,-10.465724518217874,257.7448327847894,43.55029302985817
208,20.524447476097432,-250.61138093057986,-53.01740379482412,21.38813012342188,18.862697078049973,-12.954721010142848,257.0813393129231,40.91613193320846
209,21.233413992278958,-250.00783856940063,-52.79779654440898,18.84467898603312,16.80208440617577,-15.131248481406157,256.50887571775223,38.91436858047347
210,21.96850763367985,-249.49177432806047,-52.622095602868185,15.573153705384357,14.655723906673716,-16.94926890877239,256.0334817451807,37.49542265381132
211,22.721924385084414,-249.06725077687935,-52.49155641027195,11.704584772608484,12.420951688990643,-18.372637703290998,255.65867958941593,36.60690707501376
212,23.485735255364855,-248.7360882790811,-52.406448677322004,7.371743009942659,10.10019702881294,-19.37522389930568,255.38558416987826,36.194826670035745
213,24.252012243619838,-248.49799119334014,-52.36619113803477,2.705695107167673,7.700579067263403,-19.940851887005966,255.21306579180205,36.20469928625043
214,25.012955601603775,-248.3507155528107,-52.36949576606635,-2.1673033020003434,5.23346244599046,-20.06308700949578,255.1379555480144,36.58256906289931
215,25.7610186498835,-248.29027045184964,-52.41451192879525,-7.12850040310139,2.714000454930195,-19.744885912287376,255.15528354323345,37.27588054794135
216,26.489026184388518,-248.31114526408422,-52.49896230083944,-12.068867931807429,0.16068860002253535,-18.998130083726327,255.25854015335113,38.23418551001842
217,27.19028226101688,-248.40655489117597,-52.62026429885719,-16.890810575390432,-2.405055639632953,-17.843057831972796,255.4399509691789,39.40966234602154
218,27.858663091418585,-248.56869546114004,-52.77563307467671,-21.509351859582,-4.959279452585985,-16.30760638183461,255.69075675000667,40.757440263791466
219,28.488691273609096,-248.78900318061747,-52.96216432607633,-25.852808041686306,-7.475849395958667,-14.426672377963802,256.0014905044035,42.2357351575461
220,29.07558866820282,-249.0584093345217,-53.17689697118396,-29.862984442846088,-9.926784782688777,-12.241296480508836,256.36224458380724,43.805818860459645
221,29.61530658907729,-249.367584788434,-53.41685690187978,-33.494947411145816,-12.282588153523898,-9.797776417398191,256.7629214103217,45.43185572861773
222,30.104533217978464,-249.70716793724517,-53.67908367695719,-36.71643803292687,-14.512596712371554,-7.1467129503180615,257.1934622908679,47.08064838835054
223,30.540679098802098,-250.06797092442156,-53.96064238445582,-39.50700026064728,-16.58538090582685,-4.3419945761844865,257.64404979517207,48.72133726062598
224,30.921842293891157,-250.44116007471055,-54.25862322235494,-41.856896878761,-18.46921491941349,-1.4397291746300391,258.10528040011553,50.325096668657984
225,31.24675551524099,-250.81840775642485,-54.570131720058384,-43.76588299234147,-20.132638665758037,1.5028660711371593,258.56830549631536,51.86486517384661
226,31.514718442474734,-251.1920142340076,-54.89227289284409,-45.241900036238704,-21.54512229277041,4.428601648832221,259.0249403411164,53.31514058494992
227,31.725519435328668,-251.5549993850602,-55.22213283615507,-46.29974503515319,-22.6778332397682,7.281461219753711,259.4677419847711,54.65186176601182
228,31.879351693769223,-251.90116535113066,-55.55676123471193,-46.95976105010144,-23.504493586937688,10.007734077006655,259.89005845777206,55.85239039079302
229,31.976729387456356,-252.2251322120915,-55.893158023462306,-47.246586198223426,-24.00230314023453,12.557110457214995,260.28605251226674,56.89559644197364
230,32.01840924951902,-252.52234957094436,-56.228267058528104,-47.187990832775014,-24.152892626482004,14.883713997404406,260.65070391100954,57.7620419593063
231,32.00532259210647,-252.7890874718722,-56.55897912336911,-46.813825619558976,-23.943262716530818,16.947045084178956,260.9797946128713,58.43424898590666
232,31.93852174786267,-253.022410333271,-56.88214587566261,-46.15509731220504,-23.36665930382439,18.7128094691626,261.2698812035176,58.897030710390496
233,31.819143733348042,-253.22013757622045,-57.19460548624471,-45.24318389640137,-22.42333414953263,20.15360842030722,261.51825860955506,59.13786030730867
234,31.648392594398455,-253.38079446989707,-57.493219858484025,-44.109196348033734,-21.121142882179722,21.249469847004615,261.7229186545206,59.14725053853081
235,31.42754050892866,-253.50355656894655,-57.774922537587535,-42.78349041957059,-19.475939242527026,21.988204123171503,261.8825065590509,58.919118918646696
236,31.157946408577953,-253.58819106823935,-58.03677573477998,-41.29532838675498,-17.511734831367885,22.365573447271505,261.99627815282344,58.45111770404562
237,30.84108979794348,-253.6349983608004,-58.27603428593933,-39.67268716790062,-15.260606499414601,22.385269193818413,262.0640602828751,57.744914160167646
238,30.478616666853032,-253.64475689065125,-58.4902138433022,-37.94220528377998,-12.762347658863753,22.058697549569285,262.0862165205031,56.80641323056671
239,30.072393821533787,-253.61867392247697,-58.677160186258774,-36.12925650163735,-10.063873792437741,21.40457957801274,262.06361966485593,55.645920571106664
240,29.624567487542176,-253.55834408768462,-58.835116302262875,-34.25813266090687,-7.218404959526078,20.44837754493782,261.99763170205915,54.278247819224774
241,29.13762165071188,-253.4657166316022,-58.962783926745004,-32.35231237240196,-4.284458153289354,19.221564723952895,261.8900909414214,52.72276331525128
242,28.614431422287804,-253.34307139472614,-59.059376543601594,-30.434786583626707,-1.3246894489563168,17.760760874581717,261.74330523790314,51.00339030768064
243,28.058306889693736,-253.19300287996094,-59.12466130415341,-28.52840709395456,1.5953700470340841,16.10676001473296,261.5600496724611,49.148551529784825
244,27.47302346646675,-253.01841128134683,-59.158987777152866,-26.656220561844513,4.4086391872604285,14.303480743417099,261.3435667621576,47.19105476495042
245,26.862835561491835,-252.82249893533492,-59.163301850763936,-24.84174879445675,7.047828731440525,12.396871830251031,261.0975670475705,45.167909538387065
246,26.23247131656409,-252.6087701878526,-59.13914354423232,-23.109176505706248,9.446759702569546,10.433806705868955,260.8262276463919,43.12006135405656
247,25.587107123170036,-252.3810321520637,-59.08862809184116,-21.48341062682738,11.541622668806797,8.460999677366367,260.53418609404156,41.09202790275444
248,24.932321561429376,-252.1433933455887,-59.014410512386235,-19.989980957319524,13.272148516584403,6.523974238792865,260.22652660512904,39.131422169321716
249,24.274029315582045,-251.9002568352982,-58.919634864196816,-18.654760564194607,14.582667619863045,4.666110053473584,259.9087558488615,37.28835072653654
250,23.6183965613638,-251.65630434368677,-58.807870232171844,-17.503495666015553,15.423040360093399,2.927790452177355,259.58676543792444,35.614681602939385
251,22.971740256849593,-251.41646783407046,-58.683035958904746,-16.5611482255751,15.749447335847133,1.3456670056603253,259.266778575107,34.16318443101688
252,22.340414606138875,-251.18588548141673,-58.54931872106786,-15.851069221972839,15.525032189415311,-0.047947767540288136,258.9552787629909,32.986555269771124
253,21.730688682289568,-250.96983972707636,-58.411083957863916,-15.394035299574734,14.72039384959221,-1.2255539177952253,258.6589192751318,32.13634838423348
254,21.148619816142816,-250.7736762812892,-58.272783998660884,-15.20719466289274,13.313928342238746,-2.1648032713758987,258.38441321697877,31.661846005158733
255,20.599927829151255,-250.60270434887377,-58.13886500201346,-15.302978266160215,11.292023364718776,-2.8487083803838247,258.138405343001,31.60890349548496
256,20.08987538900688,-250.46207981610033,-58.01367457471104,-15.688038566107176,8.649111689564256,-3.2657291533300232,257.92732816069326,32.01881072025367
257,19.623159606275962,-250.35667444618437,-57.90137183319257,-16.362280036681053,5.387592144321918,-3.409748140225595,257.75724607123743,32.92721066545561
258,19.203819461036836,-250.29093519722517,-57.80584166533396,-17.31804352076671,1.5176292775191607,-3.27994754444509,257.63369227635843,34.36311389905077
259,18.835162829532575,-250.26873864771727,-57.73061480671413,-18.539500878768322,-2.943155288743245,-2.8806021913101385,257.56150392051745,36.34804303714143
260,18.519715903462284,-250.29324622676174,-57.67879492631185,-20.00230792257477,-7.970085529036402,-2.220802976767082,257.5446614515374,38.8953357629164
261,18.259196742746383,-250.3667664209192,-57.65299335725422,-21.67355287716562,-13.531912830129839,-1.3141248510534205,257.58613843246155,42.009628807843825
262,18.054513567664575,-250.49063025688076,-57.655271651287805,-23.512025136990207,-19.59136222870014,-0.17825225871485023,257.6877679700833,45.68653906012448
263,17.905787187340007,-250.66508613294556,-57.68709195757223,-25.46881543389363,-26.105729169799382,1.1654267307193102,257.8501315759222,49.912551787374596
264,17.812395785462506,-250.8892196152373,-57.74927538921552,-27.488244251450574,-33.02751421715965,2.692248464113149,258.0724757834422,54.665119878285196
265,17.77303923679166,-251.16090324986652,-57.84196894235756,-29.509100924810102,-40.30508483754394,4.374717116885703,258.35266131343076,59.91297202564155
266,17.785819182723472,-251.4767807512808,-57.96462192817484,-31.466161882676676,-47.883355326611984,6.182959049937388,258.68714893206146,65.61662193466252
267,17.848330199325513,-251.8322889602196,-58.11597308629801,-33.291943484666845,-55.704478053022626,8.085185875539008,259.07102519337224,71.7290650445765
268,17.957756658617367,-252.22171958745542,-58.294049601771995,-34.91863346195835,-63.708541329084845,10.048165780548587,259.4980698844099,78.1966440327019
269,18.110969573016842,-252.63832098089622,-58.49617926808022,-36.280135615651716,-71.83427114323493,12.037703843216198,259.9608652510227,84.96005966511251
270,18.304617986846495,-253.07443814436726,-58.71901702812486,-37.31415561288847,-80.01973543631456,14.01913254530629,260.45094515238935,91.95549949561122
271,18.535210266027445,-253.52168724250478,-58.95858696540868,-37.96425182626352,-88.20305031594476,15.957813412989788,260.95898038022176,99.11585365313188
272,18.799181762527933,-253.9711590501766,-59.21034043737413,-38.18177454881439,-96.32308739359107,17.819649820514073,261.47499465322943,106.37198470116394
273,19.092946668449382,-254.4136443619031,-59.46923050817479,-37.92761987765151,-104.3201802103879,19.57160958710221,261.9886043776909,113.65401750500018
274,19.412933344406834,-254.839873342231,-59.729802266626486,-37.17373115349829,-112.1368255518048,21.182254175332236,262.48927424477216,120.89261532294563
275,19.755603922080574,-255.24076023414622,-59.98629806685389,-35.90429076533884,-119.71837256940577,22.622269159673902,262.96658018159417,128.02020991858953
276,20.117460449432794,-255.6076447648627,-60.23277622041376,-34.116557686237705,-127.01368940093204,23.864988379149395,263.4104710966719,134.97215617381787
277,20.495041160723463,-255.93252196549489,-60.46324118954187,-31.82132027369662,-133.97579384770592,24.886902076876193,263.811521219673,141.68778510669253
278,20.884911460931423,-256.2082529106996,-60.67178278985894,-29.042948469368422,-140.56243205991373,25.668137534686622,264.1611655575159,148.11133293669937
279,21.283654737662406,-256.4287499985968,-60.85272120006473,-25.819043545112482,-146.73658746112744,26.192899259601568,264.45191195182656,154.1927275798468
280,21.68786800897794,-256.5891316572666,-61.00075375851941,-22.199696309170672,-152.46690159639314,26.44985464814802,264.677524261408,159.88821763161945
281,22.09416663860392,-256.68584262663643,-61.11109881863652,-18.2463759051689,-157.7279893901173,26.432450326187546,264.8331722003134,165.16083263953968
282,22.499201004955996,-256.71673720935934,-61.17963150530134,-14.03048095373776,-162.50063349466453,26.139144267997107,264.9155443684002,169.98066747136033
283,22.89968633980581,-256.6811241655629,-61.203006124857275,-9.631592916447511,-166.7718459158479,25.57353960746522,264.92292210220273,174.32498800073148
284,23.292445230851452,-256.5797732073979,-61.17876025996635,-5.135478402219285,-170.53478974970557,24.744407931790864,264.85521294146463,178.17816022457453
285,23.674460688716476,-256.4148841946379,-61.10539622119556,-0.6318928934455061,-173.78855945087122,23.665592829269997,264.7139436313989,181.53141027525612
286,24.042936289972324,-256.1900210266042,-60.98243645224511,3.787756784843569,-176.53782433722066,22.355788484811463,264.50221353980845,184.38242848799376
287,24.395358816588146,-255.91001285760703,-60.81045059130843,8.032829926171964,-178.79234667213174,20.838193000754345,264.2246101367217,186.73483646339616
288,24.729558187932202,-255.5808257307299,-60.591053109351975,12.015884968028438,-180.56639214773338,19.140041545752126,263.8870888577532,188.5975414550975
289,25.04375946198654,-255.20940816049387,-60.326871718714706,15.655061936111322,-181.87805632520042,17.29202998541656,263.4968203793947,189.98400683893354
290,25.336622238933543,-254.80351465764355,-60.021487943461985,18.876347984984978,-182.74853501931295,15.327644904105275,263.06200910096896,190.9114703765685
291,25.607263763495858,-254.37151165814038,-59.67935217987783,21.615661376156122,-183.20136930774183,13.282420521445722,262.59168737675975,191.40014312575187
292,25.855263216566097,-253.92217077773734,-59.30567613047325,23.820692799795808,-183.26169651975624,11.193146622495183,262.09549071491966,191.4724210103858
293,26.080645994013388,-253.46445475530857,-58.90630569033348,25.452448341275744,-182.9555371474193,9.097053950185867,261.5834197449058,191.15213831007281
294,26.283848126848653,-253.00730181158258,-58.48757734083339,26.486445521889895,-182.30914429755785,7.031004283941119,261.0655952209255,190.46388796825707
295,26.465662389764695,-252.55941434467624,-58.05616110000959,26.91352261392557,-181.348437415914,5.0307115274603715,260.5520126421912,189.43242812755634
296,26.627169059257067,-252.12905786332487,-57.61889337955056,26.74023168525908,-180.09853599606834,3.1300176519848626,260.0523032520071,188.08218819280475
297,26.76965559692136,-251.7238758305297,-57.182603841533776,25.988797323665366,-178.5834022643898,1.3602435771228254,259.5755082520768,186.43688144106534
298,26.894530526723546,-251.35072566761895,-56.75394132303191,24.69663546426561,-176.82559479872623,-0.25036960131485686,259.12987297471915,184.51922508513726
299,27.003237244525614,-251.01554054664513,-56.339204657852875,22.91543991885196,-174.84612810001124,-1.677118830297901,258.7226673646405,182.3507630436864
300,27.09717333668639,-250.7232207830167,-55.9441844150368,20.709857714847544,-172.66442686693043,-2.8991919352685764,258.3600383487973,179.951781849112
301,27.17762021693138,-250.47755764317372,-55.574021134132174,18.15578770742097,-170.29835891944782,-3.89991539494835,258.04689852342574,177.34130665442612
302,27.245686720749966,-250.28119117604683,-55.23308476808939,15.338349591788788,-167.7643281478865,-4.666901876625943,257.7868541012454,174.5371626779877
303,27.302269052783434,-250.13560224217974,-54.924878991004356,12.349581903135526,-165.07740884852524,-5.192105872063144,257.5821733063347,171.55608777748031
304,27.34802842820065,-250.0411373689511,-54.65197290931206,9.285937374608995,-162.25150495745402,-5.471798199909266,257.43379454622243,168.41388371419293
305,27.383386924389832,-249.99706363000763,-54.41596157380794,6.245651630361388,-159.29952105583646,-5.506471522676006,257.34137196333364,165.12559612373488
306,27.408541304316678,-250.00164958441744,-54.2174556081005,3.3260660652189173,-156.2335355001181,-5.3006894513397,257.3033545212351,161.70571525015907
307,27.42349371981433,-250.05226743572416,-54.05609934076351,0.620987379433422,-153.06496884327913,-4.862891347388619,257.31709363759194,158.16839050583852
308,27.428097260460397,-250.1455109627026,-53.93061604209396,-1.7818357384364027,-149.80474254421017,-4.205163653882908,257.3789735146702,154.52765182681836
309,27.42211342391894,-250.2773234474177,-53.83887809217854,-3.8030438989437543,-146.46342384920175,-3.3429866008307334,257.4845577421838,150.79762995527773
310,27.405277828607314,-250.44312983040987,-53.777999075224024,-5.373740401429529,-143.05135287749735,-2.2949626089519604,257.6287454969734,146.99276671275948
311,27.377369870243704,-250.6379676831029,-53.74444404082043,-6.437252761835854,-139.5787476291539,-1.0825299385702374,257.80593079186536,143.12800551151688
312,27.338281625127358,-250.85661225859965,-53.73415367854191,-6.9505423570119556,-136.05578216799628,0.27033754033085394,258.0101587338499,139.21895210585666
313,27.28808128491831,-251.09369177596247,-53.74267791150409,-6.88523700866365,-132.49263294615426,1.7374458041304524,258.2352735686844,135.28199604947613
314,27.227066796367335,-251.34379014716825,-53.765314298052125,-6.228275916247648,-128.89948849477184,3.2907142572579082,258.4750543305308,131.33438456340727
315,27.155806055392414,-251.60153554756405,-53.797246625608096,-4.982169747423607,-125.28651886640299,4.90053112568938,258.72333514516976,127.39424260475732
316,27.075160920736955,-251.86167452736714,-53.833679307765564,-3.1648902906366,-121.66380347984288,6.536134358301669,258.97410864377935,123.48053586532508
317,26.98629352232371,-252.11913266978218,-53.869963689200944,-0.8094135111642575,-118.0412192762565,8.166021003996123,259.221612454004,119.61297702378828
318,26.89065476194292,-252.36906395824045,-53.90171295569576,2.037053061063442,-114.42829491620137,9.758386658077153,259.46040014427103,115.81187940156586
319,26.789956229325263,-252.60689180916432,-53.92490284956302,5.314123065753155,-110.83404054337237,11.281594694621331,259.6853990255033,112.09796571562477
320,26.68612770724536,-252.82834494902718,-53.935955822903104,8.949526530680481,-107.26676586000073,12.704672772026205,259.89195763135535,108.49214244950541
321,26.58126302395925,-253.0294908970572,-53.93180679896342,12.860610258315335,-103.73390147111677,13.997831638068753,260.0758854752387,105.015252205899
322,26.477557395833497,-253.20676894150134,-53.90994944238642,16.956008392351233,-100.24183933160379,15.132998712228567,260.2334870346476,101.6878170970035
323,26.377239633456977,-253.35702348293827,-53.86846266527325,21.137451744937053,-96.79580739942061,16.08435651124966,260.36159113118003,98.52978561000516
324,26.28250258394771,-253.4775376571456,-53.80601785435405,25.30168822339323,-93.39979109322297,16.82887395374443,260.4575761044852,95.56029328576311
325,26.195434924435876,-253.566066276496,-53.721867866719386,29.34248954941085,-90.05650997804115,17.34681707211829,260.5193904240696,92.7974439717743
326,26.117956984380246,-253.62086640313603,-53.615819143334484,33.1527206025442,-86.76745277213537,17.62222470298757,260.5455676986835,90.25811373563617
327,26.051762753340554,-253.64072344207656,-53.48818838962189,36.626446794732175,-83.53296812287677,17.643334337273124,260.5352346003992,87.95777449917914
328,25.99826964168078,-253.62497059653487,-53.3397453727257,39.66105202191152,-80.35240355281397,17.402943539956052,260.48811014048897,85.91032996230142
329,25.958576855962637,-253.57349975994197,-53.171643684980495,42.159335498634235,-77.22428127936426,16.89869323541092,260.4044949550695,84.12795322074945
330,25.933432473547157,-253.4867622766237,-52.98534182771612,44.03155104174217,-74.14649772410921,16.13326068848457,260.2852496369958,82.62091421478814
331,25.923208683508246,-253.36575844184026,-52.78251751459026,45.19734814120688,-71.11653357453326,15.11445214982061,260.13176163129896,81.39738607629064
332,25.927884476893908,-253.21201517721653,-52.564978586763324,45.587571355772056,-68.1316630308637,13.855187775830663,259.9459008463498,80.46322257361763
333,25.947035403364325,-253.02755202874903,-52.33457446460632,45.145873821235156,-65.18915382729634,12.373374370570474,259.7299649676459,79.82170384480595
334,25.979830688683574,-252.81483642366854,-52.093112684666394,43.83010216890659,-62.28645291578462,10.691664449759152,259.4866164227264,79.47325372965449
335,26.025038710929522,-252.5767298461618,-51.84228555845299,41.61341374288384,-59.42135535382159,8.837102891051725,259.2188138161478,79.41513827902648
336,26.08104227160529,-252.31642709908573,-51.58361195967374,38.4850923097307,-56.59215519968448,6.84066496423919,258.9297411795086,79.64116057424562
337,26.14586512301133,-252.03739107218038,-51.31839852119129,34.45103510110674,-53.797776943888856,4.736691887368635,258.62273847797536,80.14137138454839
338,26.217210833524465,-251.74328555043053,-51.04772327272159,29.53389165510678,-51.03788466764896,2.562232300586809,258.30123662834745,80.9018183345281
339,26.292514376024844,-251.43790868161514,-50.77244327753307,23.77284316425241,-48.312964519032136,0.3563002583655321,257.9686999929431,81.90435818664804
340,26.36900589893556,-251.12512974824077,-50.49322628135828,17.223019663431536,-45.62437504866611,-1.8409374042197955,257.6285789262176,83.12655765503358
341,26.443785061942666,-250.80883172754895,-50.210604726311615,9.954561354882717,-42.974360104146626,-3.989029115670875,257.28427434178803,84.54170797791832
342,26.513903225443677,-250.492861682603,-49.92504862653262,2.051339684100446,-40.36602074599897,-6.048144375645336,256.9391153457322,86.11897731633628
343,26.576449899384663,-250.180990339779,-49.6370517817842,-6.390636562965455,-37.80324605177035,-7.979997284804405,256.5963498072045,87.8237227086748
344,26.62863935667292,-249.87688141592272,-49.34722382792454,-15.265094840803576,-35.290607301256365,-9.748765468849783,256.2591465041212,89.61797932059879
345,26.667893164130856,-249.5840705002133,-49.05637904506901,-24.457606328840296,-32.83322505324819,-11.321979855603642,255.93060638768577,91.4611383605053
346,26.69191446103493,-249.3059526228108,-48.76561205356506,-33.84787075940001,-30.43662295971888,-12.671358594457244,255.61377966867508,93.31081536073764
347,26.698750140658753,-249.04577706934893,-48.47635078454635,-43.312111508054635,-28.10658475458995,-13.773556435999408,255.31168491175208,95.12389679678955
348,26.686837750162493,-248.80664757001372,-48.1903784414496,-52.72550466201439,-25.849030910769606,-14.610799559020546,255.0273261923675,96.85773544639936
349,26.65503488219874,-248.59152572955733,-47.90981842603267,-61.96455927142868,-23.66992867892805,-15.17137584298427,254.76370462118945,98.47144544899984
350,26.602629975599676,-248.40323539694353,-47.63707922212381,-70.90936361742267,-21.575243905286154,-15.4499527019183,254.52382106267828,99.9272302601003
351,26.52933470226443,-248.24446547300863,-47.37475984701336,-79.44561532890606,-19.570936068329488,-15.447699329573142,254.3106675049409,101.19166438695609
352,26.435259405587544,-248.1177684004239,-47.12552043365635,-87.46636231404956,-17.66299073352663,-15.172197570781536,254.12720519075577,102.2368455416467
353,26.32087419580839,-248.0255514193888,-46.89192642510453,-94.87339689304383,-15.857477628514845,-14.637135153645774,253.9763283350725,103.04133859295486
354,26.186959115779057,-247.97005777879474,-46.67627831744056,-101.5782666683744,-14.160619041959412,-13.861785866563755,253.86081309043604,103.59084598598787
355,26.034547184782568,-247.95333551535396,-46.48044138191975,-107.50289125761338,-12.578852815327954,-12.870292451528794,253.78325232518625,103.87855967239831
356,25.864864140902228,-247.97719211386354,-46.30569076977277,-112.57980211019095,-11.118876560719352,-11.690778566255553,253.74597762480676,103.90517487610599
357,25.679268463750304,-248.04313435688027,-46.15258646422976,-116.7520508223087,-9.787663955787384,-10.354325390416541,253.75097069287554,103.67857352077165
358,25.479194997155744,-248.152294056775,-46.020889791695495,-119.97285696268978,-8.592448761300167,-8.893855747890388,253.79976716786786,103.21321188002017
359,25.266105445141278,-248.3053421493921,-45.909529204424096,-122.20508671363133,-7.54067634376406,-7.342973566947024,253.89335693190995,102.52926998437773
360,25.0414491965349,-248.5023955848216,-45.81661848608619,-123.42066616960297,-6.639925075435545,-5.734808862903773,254.03208615853848,101.6516368684001
361,24.806637995101166,-248.74292316250057,-45.73952594602442,-123.60003600892506,-5.8978006501052445,-4.1009181598675,254.21556726893996,100.60881385314525
362,24.56303745494537,-249.02565755857665,-45.67498894298853,-122.73174633555855,-5.321805276502296,-2.470287494213609,254.4426032908018,99.43181664095866
363,24.311977153419143,-249.34852110790771,-45.6192645444271,-120.81227170231071,-4.919181575352499,-0.8684801292384549,254.71113270378413,98.15314619317024
364,24.05477923657673,-249.70857240016662,-45.56830460748528,-117.84609796769847,-4.696728810929875,0.68303578429015,255.01819976058837,96.80587981932557
365,23.79280358785892,-250.10197946469222,-45.517942355781244,-113.8460975620186,-4.660587849586476,2.167352776331886,255.35995362975356,95.42291067288366
366,23.52750606487015,-250.52402338208404,-45.46407774530932,-108.8341721271582,-4.815991676775225,3.5723655925550046,255.73167771492385,94.03633965827186
367,23.260505297491058,-250.9691338560765,-45.40285037036423,-102.84210612710925,-5.166980611447306,4.890781748749696,256.12784843315995,92.67700220028183
368,22.99365300066785,-251.43095599803135,-45.33079091582749,-95.91254630410901,-5.716085092387218,6.11990476649041,256.5422208803548,91.374096383447
369,22.72910254603145,-251.90244567124697,-45.24494474719624,-88.10000293354098,-6.463983122059465,7.2612041713233255,256.9679374194116,90.1548707329566
370,22.469370556181598,-252.3759894102578,-45.14296375260625,-79.47176105672447,-7.409143051089721,8.319696061258458,257.39765440398844,89.04433022452086
371,22.217386462455952,-252.84354419978646,-45.0231647318342,-70.10859267212918,-8.547464615983884,9.303166577639907,257.82368196255527,88.0649272510068
372,21.976525290819495,-253.29679219085008,-44.884554387325764,-60.10517216844474,-9.871931859500004,10.221277478933816,258.2381319196189,87.23621810016752
373,21.750619469028845,-253.72730563094746,-44.72682239466665,-49.57011433459194,-11.372291186238579,11.084597916497106,258.63306942962913,86.57448215651604
374,21.54394620302968,-254.12671775376154,-44.550305163111794,-38.62557448046949,-13.034767048128803,11.903609302351068,259.0006646219846,86.09231777714163
375,21.361187899977963,-254.4868959548023,-44.35592371783419,-27.406371551556006,-14.841827276871213,12.687730836101117,259.33334134134145,85.79824343432315
376,21.207364189954042,-254.80011415320715,-44.14509971310317,-16.058616262438353,-16.772010193871076,13.44441187367259,259.6239208087464,85.69634373267303
377,21.087735333170908,-255.05922173998692,-43.919654150344044,-4.737846359163374,-18.79982616918922,14.178333967270028,259.86575870327414,85.78600627082041
378,21.007678153014773,-255.25780683617975,-43.68169418993469,6.393310249936691,-20.895746744753858,14.890760239357542,260.05287471155066,86.06179645649958
379,20.97253699101613,-255.39035161281305,-43.43349463054098,17.167906518104484,-23.026294156474393,15.579063000797053,260.1800739063043,86.51351320086627
380,20.987453453248946,-255.4523772037221,-43.17738209662716,27.417827160154918,-25.154242614714704,16.236452494723355,260.24305941336564,87.12645924382858
381,21.057179895769483,-255.44057546445183,-42.915631462492016,36.97724914604207,-27.238939887147087,16.85192074905545,260.23853584922216,87.88194628485867
382,21.18588267052657,-255.35292459174042,-42.65038515407538,45.68632533193789,-29.236753760080504,17.410405220507272,260.16430298324195,88.75803770953459
383,21.376942102912324,-255.1887853825992,-42.38360624068858,53.394988518924904,-31.101643190256485,17.893167678479198,260.01933888771725,89.73051104787442
384,21.632756982006498,-254.9489747250255,-42.11707525008694,59.966757774972564,-32.785848726371945,18.278375036562416,259.80387147215356,90.77399930675116
385,21.954561916157655,-254.63581292489377,-41.85243817270605,65.28241584821185,-34.24069131346167,18.541860974891904,259.51943687683047,91.86324706794784
386,22.342266004490416,-254.2531417548378,-41.591309143724146,69.24341809228211,-35.417463086345876,18.65804052250121,259.1689227906281,92.9743971125029
387,22.794320684757356,-253.80631064802247,-41.335426063111036,71.77489173529518,-36.26838843796527,18.600944491462553,258.7565943792945,94.08621005288423
388,23.307623368689974,-253.30212932619617,-41.086851509434155,72.82809135970328,-36.74762888032247,18.345336857183916,258.2881003159216,95.18111588336872
389,23.877461856786965,-252.74878646268704,-40.84820553468546,72.38219319158584,-36.81230155146578,17.867875856647345,257.7704566288443,96.24600390477136
390,24.497502864274804,-252.1557356346391,-40.62291216916443,70.44533733466048,-36.42347922219232,17.148278691519632,257.2120067541285,97.27267609462432
391,25.159826452046943,-251.53355142333442,-40.415438473418185,67.05486229970197,-35.5471395533521,16.170450226149157,256.622357034583,98.25791714009871
392,25.855006759468335,-250.89375966233206,-40.23150422526836,62.276717510534944,-34.155032890334304,14.9235378692433,256.0122876312329,99.20316892842284
393,26.572238160795223,-250.24864633560853,-40.07824192597768,56.20408306648353,-32.225440531700826,13.402877776805184,255.39363928844327,100.11383390109877
394,27.299504759955454,-249.61104954030654,-39.96429050970624,48.95526730007419,-29.743798801388444,11.610801458033604,254.77917666536666,100.99826530973303
395,28.02378992384429,-248.9941383824035,-39.899811484058816,40.67098694687042,-26.70316838450961,9.557276669612373,254.18242908607542,101.8665283723205
396,28.731321311416156,-248.41118182802387,-39.8964226303591,31.51115817690759,-23.10453350631937,7.260361973915501,253.61750962764694,102.72903139099644
397,29.407845622464556,-247.87530957108436,-39.96705113610248,21.651336986966268,-18.95692190552319,4.746460230979357,253.09891350314305,103.59512942391224
398,30.038926130377245,-247.39926607019953,-40.1257142674321,11.278944221687864,-14.277344280383122,2.0503622475526373,252.64129670522146,104.47179747828635
399,30.610255089127445,-246.9951581759898,-40.387240571547984,0.5893956003071555,-9.090560816093351,-0.7849224401001912,252.25923582275018,105.36245967197866
400,31.107972436139825,-246.67419630440568,-40.76694755812586,-10.217765966291436,-3.4286920604110303,-3.7085452180303387,251.96696983561876,106.26604923989682
401,31.5189818803376,-246.446429018464,-41.28029270199145,-20.9426655503674,2.6692990116548683,-6.6624009129378265,251.7781246434565,107.17636319683074
402,31.83125543860755,-246.3204712700414,-41.9425136414413,-31.388775546872157,9.158218494221888,-9.581900845875664,251.7054212676317,108.08176407426303
403,32.03411778204393,-246.3032274469023,-42.76827102181995,-41.36645905902344,15.987305250111033,-12.396919807220137,251.76036919810434,108.96526754404799
404,32.11850243401039,-246.399611626662,-43.7713040787642,-50.69637419080506,23.10090255569614,-15.032896648045195,251.952947196333,109.80503760290387
405,32.07717292959736,-246.61226880354923,-44.96410536726388,-59.21274535717375,30.439094267827937,-17.412065180029437,252.29127484750862,110.57529052138979
406,31.90490340909514,-246.94130210982007,-46.35761760133724,-66.76650870951171,37.93826684511696,-19.454789849366303,252.78127913393135,111.24758670364065
407,31.59861461562762,-247.3840121274156,-47.96095284033608,-73.22833190269512,45.53156709105039,-21.080979289435696,253.42636124736876,111.79246841144116
408,31.1574627517117,-247.93465526737657,-49.78113250063544,-78.4914951175481,53.14923724091646,-22.21155042794077,254.2270697840949,112.18138301779307
409,30.582880089831633,-248.58422880055377,-51.822845892810676,-82.4746028284114,60.7188230160796,-22.769916309469743,255.18078729476173,112.38881706200779
410,29.878567670794393,-249.32029032364773,-54.088225050544935,-85.12407709519114,68.16526531471706,-22.683472056007318,256.2814377620087,112.39455598133742
411,29.05044180140547,-250.12681921260733,-56.576634428086734,-86.41636597204335,75.41090102254024,-21.88505518789771,257.51922291212367,112.1859777609118
412,28.106537216416918,-250.98412705128848,-59.28447550401337,-86.35978736937759,82.37541174808698,-20.314358567710574,258.8803953955371,111.76028573946093
413,27.056870627485775,-251.8688232529497,-62.205008173852356,-84.99592111394236,88.97577004922003,-17.91927619214506,260.34707685019396,111.12658654722652
414,25.913269009756792,-252.75384122421679,-65.32819260186638,-82.4004609017496,95.12624028935186,-14.657163672703074,261.8971287071961,110.30772390910366
415,24.689167447003893,-253.60852957318167,-68.6405565395247,-78.68344336188734,100.73849546419466,-10.495996344393117,263.5040833407161,109.34178796505864
416,23.399381710441165,-254.39881212942586,-72.12509385860216,-73.98878292155864,105.72191222204572,-5.4154084563849025,265.1371428604548,108.2832325529663
417,22.05986103529579,-255.08741991944746,-75.76120032204214,-68.4930575668856,109.98410392738361,0.5924031358960951,266.76125252060183,107.20354877130247
418,20.687426801623086,-255.63419763471583,-79.52465269062603,-62.40351074903857,113.43174596211,7.521927787818833,268.33725534641246,106.19146093023078
419,19.299502927815638,-255.99648644369336,-83.38763731837182,-55.955257383436035,115.97173834942531,15.35375995988571,269.8221340955855,105.35262934499686
420,17.913843590096732,-256.1295841546116,-87.31883444775511,-49.407705935928405,117.51273795920648,24.054206117012868,271.16934599103854,104.80886187396216
421,16.548263354418662,-255.98728264537115,-91.28356445540376,-43.04023282462262,117.9670758855166,33.57509743634975,272.3292546931205,104.6968512836851
422,15.220374112387587,-255.52248103753425,-95.24400231002149,-37.147168794271096,117.25305534209616,43.853825351206616,273.24966263512215,105.16646740908394
423,13.947332551581026,-254.68787120548154,-99.15946641395772,-32.03217891444542,115.29760233464292,54.813615471259745,273.8764450256598,106.37864124075774
424,12.745601315022396,-253.43668984856652,-102.98678765555975,-28.002138210474477,112.03921658416328,66.36405316938968,274.15428445049923,108.50288274272773
425,11.630726409993965,-251.72352862057244,-106.68076374845796,-25.360623695807323,107.43114517235796,78.40187097291877,274.0275021254046,111.71447609852476
426,10.617132683966084,-249.50519094923388,-110.1947026317396,-24.401160784943958,101.44467781944519,90.81200366737387,273.4409786225345,116.19139618913192
427,9.717938263013986,-246.74158148859686,-113.48105666778598,-25.40037764792203,94.07244217934243,103.46891168346785,272.3411535166285,122.11098952016872
428,8.944787836907212,-243.3966118909795,-116.492146450888,-28.611234674839007,85.33156137989923,116.23816706801101,270.67709005386297,129.64646257018487
429,8.307703775340816,-239.43910491000437,-119.18096927452403,-34.25650708976767,75.26652528590576,128.9782894110313,268.4015877823145,138.96322142174262
430,7.814953547369428,-234.84367777298846,-121.50208298289685,-42.522705695041,63.95162240060629,141.54281180496776,265.4723232193315,150.21510907945645
431,7.472931973650041,-229.5915852907279,-123.41255139782439,-53.55462229769655,51.49278150749915,153.78254954631112,261.8529961857641,163.54059138501015
432,7.286057348118133,-223.6715034092777,-124.87293296007607,-67.45068116497669,38.028681431853386,165.54803712341322,257.51445755073325,179.05894901773328
433,7.25668110372102,-217.08023501556644,-125.84828977851916,-84.25926479925278,23.731003713909264,176.6920922617155,252.43579297253075,196.8665414952801
434,7.385011288492186,-209.82332180516678,-126.30919025816075,-103.97616095335829,8.80372614595556,187.07245957042045,246.60533693108874,217.0332186249113
435,7.669050692888085,-201.9155486622501,-126.23267536981542,-126.54324855891895,-6.518615815082149,196.55448079277764,240.0215919262823,239.59896417285648
436,8.104551042835752,-193.38132990442637,-125.60315681837452,-151.84850458398117,-21.973738960884738,205.01373393493338,232.69402901613213,264.5708638500081
437,8.684985163265262,-184.25496959028922,-124.41321506921304,-179.72737408842082,-37.27549554511618,212.3385797914593,224.6437477435142,291.92049328529913
438,9.40153935365514,-174.5807906749488,-122.6642665121359,-209.9655045632284,-52.11879239140176,218.43255184144587,215.90397588494795,321.58182023282683
439,10.243128424900783,-164.41312995520633,-120.36707191717905,-242.302805458809,-66.1854682557505,223.21652446116775,206.520392230073,353.44970845486574
440,11.196436038677383,-153.816197313591,-117.54206241254,-276.43875640056206,-79.15101207242193,226.63059515799344,196.55125849811768,387.379098986725
441,12.245983301057757,-142.86379872721787,-114.21946397708354,-312.0388537678952,-90.69196695267614,228.6356192616848,186.067349262508,423.18492876287877
442,13.3742290263931,-131.63892300890186,-110.4392064668979,-348.7420548850458,-100.49383064345095,229.21434031755766,175.15167130777363,460.64282788282816
443,14.561705551646872,-120.23319252793362,-106.25060827368613,-386.16905119502906,-108.2592343501808,228.3720663250989,163.89896626211527,499.4906159481233
444,15.787194187836587,-108.74617846580293,-101.71183284035588,-423.931175547881,-113.71616013561608,226.1368508987716,152.41499283414683,539.4305955942261
445,17.027944180440194,-97.28458178004243,-96.88911859633566,-461.63972368056926,-116.62594405593393,222.55914935095868,140.8155878574704,580.1326183771843
446,18.259938390045285,-85.96128222241846,-91.85578959672593,-498.9154464491365,-116.79080891531507,217.71093261972598,129.2255089237733,621.237875695729
447,19.45820776766452,-74.89425953194394,-86.69106027642636,-535.3979486361835,-114.06067759169244,211.68425686866794,117.77706572868507,662.3633468910562
448,20.597195026628807,-64.20539311611843,-81.47865408270538,-570.7547141492335,-108.33903521605632,204.5893033060776,106.60855212711266,703.1068196097654
449,21.65116580108059,-54.019148892132186,-76.30526205189832,-604.6894683590583,-99.58763520074363,196.5519208854223,95.8624959571813,743.0523851871374
450,22.594663308716125,-44.46116428524597,-71.2588734102189,-636.9495880695364,-87.82987851967665,187.71072331407333,85.68374869052386,781.7763047298322
451,23.40300031861036,-35.65674451728219,-66.42701576586343,-667.3322792276686,-73.15273538541133,178.21381021168557,76.21744167233481,818.8531393516791
452,24.052780117008627,-27.72928515159469,-61.89494702588858,-695.689262237488,-55.70712090654704,168.21519926455093,67.60683979667678,853.8620396339613
453,24.522436248326187,-20.798637448010417,-57.74384433498577,-721.9297345022466,-35.70667910862418,157.87107083300924,59.99112663084412,886.3930938616746
454,24.792779256118326,-14.979434682958951,-54.049036849353776,-746.0214194119043,-13.424971374758815,147.33593775886035,53.50315727664295,916.0536414337996
455,24.84753747311255,-10.379399405885824,-50.87832916671466,-767.9895600655695,10.808894470598768,136.75886016782073,48.26721688771658,942.4744668978882
456,24.673877850186123,-7.097653479137516,-48.29046100144375,-787.9137734893549,36.61611899854647,126.2798270101353,44.39682385988805,965.3158008418087
457,24.262891595454434,-5.223054283211979,-46.33374631151941,-805.9227448022963,63.575435314344325,116.02642237835055,41.992617119023166,984.2730650890805
458,23.610028037425256,-4.832581384754724,-45.04493145601967,-822.1868077270892,91.2315481641998,106.11088535014794,41.1403664890795,999.0823093377635
459,22.715459007733745,-5.989798306711113,-44.448307004501146,-836.9085250916014,119.10459387430674,96.62765797232208,41.90914395036167,1009.5252926950731
460,21.58435573403661,-8.74341408554171,-44.55510157759563,-850.3114483487575,146.70038880497702,87.65149812312833,44.34969209062939,1015.4341654882514
461,20.22706125096266,-13.125969358176173,-45.363178708969535,-862.6272975567019,173.52120013711712,79.23621339776437,48.49302462343303,1016.6957045520712
462,18.65914387782678,-19.152672033530102,-46.857049366660846,-874.0818626104507,199.07674634614023,71.41404983744142,54.34929267080415,1013.2550505520733
463,16.901321201854227,-26.820408370971556,-49.00820367327065,-884.8799834902655,222.89511859619125,64.19574656353105,61.906949444692046,1005.1188916963313
464,14.979248783114304,-36.1069566456982,-51.77575569074711,-895.1900229705766,244.53331087630107,57.57124586183776,71.1322446062887,992.3580380907872
465,12.923172846361126,-46.970432458528066,-55.107384951113296,-905.1283003345613,263.5870574194,51.51102942010114,81.96907733636795,975.1093384715813
466,10.767450940012955,-59.348996812131624,-58.94054780738819,-914.7440084627018,279.69970089398413,45.96803559379491,94.33923344512398,953.5769079981999
467,8.549948519338853,-73.16085984558771,-63.203920987481965,-924.0051861095733,292.56985253293715,40.88009880396495,108.14302642937429,928.0326612728855
468,6.311322614068788,-88.3046140417759,-67.81902958665806,-932.7863564175503,301.9576526725887,36.172838972446264,123.26035534548478,898.8161745148024
469,4.094206542875665,-104.65993008422848,-72.70200283361632,-940.8584637382794,307.6894930559388,31.762915274890144,139.55218389155615,866.3339280179922
470,1.9423125604574882,-122.0886454588401,-77.76539389840434,-947.8817346512019,309.66111679911353,27.5615441586254,156.86243522298216,831.057996795848
471,-0.10052747948642636,-140.43626962364968,-82.91999536402665,-953.4020472425874,307.8390653395495,23.478166640270707,175.02028583495036,793.5242566695431
472,-1.9913604084755487,-159.53391987986356,-88.0765806001961,-956.8513094055462,302.2604925072413,19.424135088159634,193.84282984661593,754.3301508123823
473,-3.6891240579024536,-179.2006893364189,-93.14750422625136,-957.552221197162,293.03141328935635,15.316276992990183,213.13807325932513,714.1320179883259
474,-5.155648298878281,-199.24643324921595,-98.04810300407271,-954.7276334705533,280.3234977214845,11.080185683557291,232.70820737419731,673.6419228745744
475,-6.356620321861151,-219.47494318436796,-102.69785207674475,-947.5145262052135,264.3695564533184,6.6530884133029415,252.35310218225547,633.6238586085534
476,-7.262491062119006,-239.68746042646484,-107.02124988644573,-934.9824298582206,245.4578911019285,1.9861524073080496,271.87395411088414,594.8891215114054
477,-7.849301075973589,-259.68646142791306,-110.94842713242905,-916.1559169133551,223.92569738607008,-2.953890111281331,291.077017495487,558.2905981241302
478,-8.099405229112158,-279.27962973127035,-114.41549900158238,-890.0406120444255,200.15171224198224,-8.183886203167562,309.7773448792842,524.7156657542616
479,-8.002076112735493,-298.2839117099774,-117.36470335314318,-855.6520183854735,174.54829057786247,-13.704223648410284,327.8024570374297,495.0773994021806
480,-7.553966173781005,-316.5295386630539,-119.74438793711921,-812.0463416614621,147.55308806408217,-19.499608782314,344.99585889501316,470.30380761424004
481,-6.7594084057983315,-333.8638862734099,-121.50892442036361,-758.3524175983151,119.62051832958828,-25.540606503717008,361.2203121627681,451.3248907424874
482,-5.630535744064995,-350.15503536393186,-122.61863369223472,-693.8038119180056,91.21314887706178,-31.785834898583396,376.3607703101046,439.05742523595694
483,-4.1872010387778635,-365.29489661069596,-123.03980404402519,-617.7701637605661,62.79319954563423,-38.184659841648944,390.32687810893145,434.3875199121047
484,-2.4566837193693103,-379.2017676523673,-122.7448708937188,-529.7868771776887,34.81430714329716,-44.68020006903153,403.05493856733847,438.1511539915756
485,-0.47317665838095646,-391.82220446375214,-121.71280473737495,-429.5823240700364,7.713715003219345,-51.21243481354023,414.50925638313447,451.1130792333541
486,1.7229430294779087,-403.1321094008829,-119.92972533955373,-317.1017974384295,-18.09496749317893,-57.721205336550376,424.68277959490865,473.9446362808602
487,4.086043899985411,-413.13696433237914,-117.38972810508024,-192.52753850895724,-42.22831400491571,-64.14891641984117,433.59697896603075,507.20118533389945
488,6.566344512724933,-421.8711664885076,-114.09587656442679,-56.294248972770156,-64.33884854955821,-70.44276998683016,441.3009259579859,551.2999715097333
489,9.111157461902074,-429.3964548302918,-110.0612861149837,90.90041475821006,-84.11997456963128,-76.55639664542244,447.8695529789002,606.4993248035119
490,11.666233299933205,-435.79944421328406,-105.31020125195862,248.09078889413982,-101.31004101785524,-82.45078999325831,453.40110263325766,672.8801244464062
491,14.177162585950077,-441.188312813954,-99.87895357751668,414.04394426769557,-115.69554556605769,-88.09449234930042,458.0137958115268,750.3304331593596
492,16.59079472358286,-445.68871572414747,-93.8166823631286,587.2665140508087,-127.11348903915292,-93.46302809115825,461.8417726311917,838.5341306939678
493,18.85663442331012,-449.43902531807544,-87.18570423633592,766.017839107841,-135.4528966974927,-98.53762920097854,465.0303868951389,936.9642571908464
494,20.928179881389212,-452.5850275100284,-80.06143383169812,948.3295946355814,-140.65551331968132,-103.3033434764631,467.7309646451491,1044.881626537166
495,22.764170198781493,-455.274231688914,-72.53178197960452,1132.031967955635,-142.71566649847128,-107.74665682565185,470.0951697435815,1161.3390955823804
496,24.329712257340404,-457.64997889516115,-64.69598968194572,1314.7863223710306,-141.6792843124589,-111.85279603656258,472.26915151902784,1285.1916784182881
497,25.59725890717547,-459.84555472061413,-56.662891096385856,1494.1240976914848,-137.64205610626942,-115.60290602280975,474.3876773600166,1415.112475661728
498,26.54741134070818,-461.97852742079283,-48.54863334017939,1667.4914689254676,-130.74674070463354,-118.9713135253748,476.5684726406169,1549.6141511942608
499,27.16951973721153,-464.145535685322,-40.47391243207419,1832.299028865039,-121.17965230669952,-121.92309544815534,478.90699861298594,1687.0754464164083
500,27.462058366566332,-466.4177437464269,-32.56081171261167,1985.9755051289233,-109.16638455678616,-124.41216340275703,481.47189487783226,1825.7719961517882
501,27.43275477121738,-468.8371645854566,-24.92935123739313,2126.024296206984,-94.9668612228413,-126.38005660215077,484.3012972639575,1963.9105248086817
502,27.098457530447057,-471.4140258614929,-17.693874272949436,2250.0814359080346,-78.86982259389542,-127.75560330893971,487.4002155070176,2099.665375026453
503,26.48473340645688,-474.12531848145295,-10.959410912807261,2355.9734813474392,-61.186868138357795,-128.4555672735969,490.73911895136234,2231.2162614209333
504,25.625192399475285,-476.9146249455309,-4.818169434608104,2441.773764149304,-42.246179115314725,-128.3863415094524,494.2538334095434,2356.7861443156876
505,24.560548502345924,-479.6932747161105,0.6536873285332805,2505.8554373778784,-22.38604261736302,-127.4466902169251,497.8467995169996,2474.6781683318804
506,23.337434516936938,-482.34281887431104,5.398822276355111,2546.9397783765094,-1.9482942281624172,-125.53147500010981,501.3896845635358,2583.3106904822084
507,22.007000272247705,-484.7187593223394,9.38090862883692,2564.1382585115607,18.728207509185047,-122.53623905360462,504.72727908393114,2681.24951536923
508,20.623333678102696,-486.65541248886973,12.586079790252509,2556.9869570601295,39.31396385700331,-118.36246818644501,507.68255038899525,2767.2365483683907
509,19.24175228885945,-487.9717375729044,15.023526151403995,2525.4719742134653,59.49496406223088,-112.9233047098561,510.06267178476327,2840.21416226088
510,17.917019143401628,-488.4779178240086,16.725149503980166,2470.0445883584466,78.97844176561892,-106.14946142970348,511.6658021892352,2899.3446446917796
511,16.701540681704603,-487.9824523087965,17.7442253466666,2391.6250158255207,97.49813275004549,-97.99506754492309,512.2883593511323,2944.0241586731036
512,15.643606672411757,-486.29949633607845,18.153075528126326,2291.593790980426,114.81889650301058,-88.44317291095733,511.7325130781545,2973.890725412242
513,14.785732737585676,-483.2561817934542,18.039817690496157,2171.7700250675834,130.74055851985182,-77.51063767192434,509.8136233583033,2988.825858031631
514,14.163166030871217,-478.69965408016316,17.50432903553864,2034.3761564033653,145.10083566612798,-65.2521384312518,506.36736052646114,2988.9496654888603
515,13.802614415749474,-472.5035794776341,16.65363161480076,1881.9892890343062,157.77722682050677,-51.763031882894914,501.25626748484586,2974.60952205387
516,13.721258300861733,-464.57390417717926,15.59696464692442,1717.479822247894,168.68778671693397,-37.18083777659585,494.3755535271884,2946.3627475099797
517,13.92609973159313,-454.85368117279296,14.440847050186225,1543.9387631655409,177.7907518398497,-21.68514172144039,485.65794212139673,2904.9541294924015
518,14.41369245998497,-443.3268202842021,13.284443814541044,1364.5958349027562,185.0830498024072,-5.495779061062965,475.07742890450135,2851.289487388549
519,15.170278129622162,-430.02065593395895,12.215530009203444,1182.7311828179595,190.5977894664909,11.13075646848918,462.65184042997237,2786.406766082678
520,16.172329265771427,-415.0072639825071,11.307296706684255,1001.5840807853695,194.40088585146958,27.90663821669447,448.4441193854605,2711.4462970089435
521,17.38747403771333,-398.40349155503515,10.616168028313355,824.2624868431965,196.58700989358738,44.51962486742929,432.56229887123413,2627.621816403617
522,18.775755693987065,-380.3696929027126,10.180706600396034,653.6575278325533,197.27506264930054,60.64133955248999,415.15816660212323,2536.1935503207255
523,20.291163993468746,-361.10719203508955,10.021589412046863,492.36694461739324,196.6033598405791,75.93660570498912,396.4246576563153,2438.444193205631
524,21.88336675160279,-340.85452173601567,10.14255196302968,342.6311672275149,194.72468634500206,90.0734837516288,376.59204933293654,2335.6580486370913
525,23.499565009788125,-319.88252018688144,10.53213592233464,206.28502183013336,191.80135390203796,102.73361841322547,355.9230626887848,2229.1031412120947
526,25.086393826174067,-298.48840032779566,11.166037678485926,84.72715444263225,188.00037749902356,113.62248568240773,334.70700260986075,2120.0158650966137
527,26.59179178273037,-276.98894108773885,12.009840251256165,-21.09182417954898,183.48887802078787,122.47912096202305,313.2530922137587,2009.5877164948176
528,27.96676601373383,-255.71298080668632,13.021914886331496,-110.66261576231707,178.42981555502934,129.08491919564975,291.8831778141611,1898.9537964023937
529,29.16698602165267,-234.99341913563117,14.156297201954088,-183.89319876004274,172.97815089764163,133.2711296399346,270.9239973632912,1789.1829751482348
530,30.154149080438337,-215.15895318490604,15.365372864595953,-241.06975378727392,167.27751632326294,134.92472508293278,250.69921855121106,1681.2697927780252
531,30.89707292647109,-196.5257864586521,16.602246433872168,-282.8056425029226,161.45745140641992,133.9924049573775,231.5214631544598,1576.128252534087
532,31.372487267019356,-179.38955519281072,17.822710217016457,-309.98209299674505,155.63123267775973,130.4825858221987,213.6845414869523,1474.587601577349
533,31.565512785148677,-164.01771584309455,18.986772812100167,-323.6845056690395,149.89430490003298,124.46533093854919,197.4561231692051,1377.389996142183
534,31.46983246849533,-150.64262911755318,20.05974503510572,-325.1382462900992,144.32330955553303,116.07026437308697,183.0710653917763,1285.1896993569587
535,31.087573245053477,-139.4555596294043,21.012911272696524,-315.64746450532675,138.97569971659556,105.4825985271669,170.72560537034212,1198.5532707519055
536,30.428925179214975,-130.60178576830876,21.823835938204077,-296.53992087607844,133.8899241877977,92.93747440645559,160.57259904959244,1117.9601541214288
537,29.51153116619924,-124.17698196154939,22.476367789177495,-269.1200929015625,129.08615334843213,78.71287013502797,152.71795417492606,1043.8031649207253
538,28.359683217721404,-120.22499568913437,22.960410132381462,-234.63203385623052,124.56750361734363,63.121374466850334,147.21836502576863,976.3885786003905
539,27.003363153296885,-118.73709531994305,23.271523532814268,-194.23264831066103,120.32169938151728,46.50114781061013,144.0804118364745,915.9357666569798
540,25.477166344369316,-119.65271342475425,23.410421050854833,-148.97528813158425,116.32309475593101,29.206403627720054,143.26104345510558,862.5765580471377
541,23.819147076794433,-122.8616557662746,23.382405976689565,-99.80291475435804,112.53496651252296,11.597739055361696,144.66941873595724,816.3546702866414
542,22.0696229223915,-128.2076914410188,23.196790280999224,-47.54955501413821,108.91198599854424,-5.967372820153855,148.1700401733549,777.2256241726758
543,20.26997320574123,-135.49338790348108,22.866320117106255,7.051581001607478,105.40278176420767,-23.143643099830864,153.5870713065007,745.0575213242394
544,18.461463420706455,-144.48600910598523,22.406623790292777,63.35514755962474,101.95251406348125,-39.60632767470653,160.70968787315448,719.6329495024723
545,16.68412379443751,-154.92425845879575,21.835688282854782,120.78774757296102,98.50539451923287,-55.05867505301084,169.29827448959875,700.6521376246081
546,14.975706789243512,-166.52562258310854,21.173363079392278,178.83083634832545,95.00709614519256,-69.23828866870066,179.09124797563717,687.7373635126183
547,13.37074566311614,-178.99405781346627,20.440884982503288,237.0040319821372,91.40700844895302,-81.92227095796908,189.81226861838644,680.4385528552166
548,11.899734297868456,-192.0277592255959,19.660415061518485,294.85014428710343,87.66029854452789,-92.93105522314254,201.17759304568128,678.2399976266983
549,10.58844690174688,-205.3267610323617,18.85457896276257,351.9229073575418,83.72974222971858,-102.1308694075198,212.90332674073989,680.5681463616936
550,9.4574141962061,-218.60013631915248,18.046004482016038,407.7780509911906,79.5872896704543,-109.43481476497449,224.7123494305844,686.800450133328
551,8.521569611836373,-231.5725916505006,17.25685505899944,461.9680005792349,75.2153297802748,-114.80258301499553,236.34071093601844,696.275260261784
552,7.790074417738385,-243.9902861863716,16.50836363883038,514.0401787040519,70.60761677399046,-118.23887763034013,247.54332658192297,708.302746274685
553,7.266324648527105,-255.62574369596746,15.820376859036953,563.5386152685533,65.76982301693488,-119.79064651075363,258.09883789938226,722.1767284456477
554,6.948135765707962,-266.2817674542887,15.210923620404062,610.0083713058968,60.71968560196457,-119.54327138418863,267.81354420551384,737.1872110505079
555,6.828094024800664,-275.79431061022694,14.695823997140728,653.0021521509747,55.48672139291922,-117.61589065743203,276.52435181443263,752.6332901980192
556,6.894057144996099,-284.03429613655106,14.288353875981748,692.088427953543,50.11149750489553,-114.15605487044024,284.10072799885864,767.8360268217768
557,7.129781381675578,-290.9084186783668,13.998978045446277,726.860385851815,44.64446155425387,-109.33392653882731,290.4456841561288,782.1508416662313
558,7.515647621715806,-296.358993453242,13.835160473696927,756.9450952655587,39.14435767225422,-103.33623927356973,295.49584488764606,794.9790070896341
559,8.029455887456969,-300.36294325251146,13.801256106014595,782.0123593900825,33.676278232398694,-96.36022556579049,299.2206853031127,805.777869304929
560,8.64725604997221,-302.93003267458226,13.898484469989784,801.7828352989004,28.30942463149614,-88.6077097075462,301.6210369296096,814.069518247039
561,9.34418292405499,-304.10046888376866,14.124982268527003,816.0351172285624,23.11467029643356,-80.27954323282495,302.72697302791437,819.4477150846193
562,10.095266024206946,-303.9419910057955,14.47593017173422,824.6115813480848,18.162033013318872,-71.57053621670747,302.59518743573886,821.5829773205553
563,10.876187413572161,-302.5465668460521,14.943747984923755,827.4228785890419,13.518170425419461,-62.66500994124691,301.30597831431646,820.2258005844947
564,11.663964722229275,-300.0268074960325,15.518351860941005,824.4510318150817,9.244011914605878,-53.733066005980305,298.95994086101217,815.208060739829
565,12.43754043827056,-296.5121994943441,16.18746686944441,815.7511445183482,5.392632593517454,-44.927635129942935,295.674463043882,806.4426888804082
566,13.17826304939478,-292.1452425889304,16.936987772827333,801.4517619754009,2.0074616782710746,-36.382336842699615,291.58010773790585,793.9217461176867
567,13.87025045635029,-287.07757058093665,17.751380112629572,781.7539451949771,-0.8791008936925455,-28.21015010826674,286.8169550285453,777.7130468693125
568,14.500631018366567,-281.46612429759597,18.614112583239468,756.929126616476,-3.2466079596628776,-20.50286570567172,281.53097092515884,757.9554914933207
569,15.059662296521799,-275.4694396805958,19.508110164777502,727.3158181860384,-5.087001836835796,-13.331264876902612,275.87046348794763,734.8532746159786
570,15.54073188031322,-269.2441098605445,20.416215765861324,693.315240640821,-6.404563056538036,-6.745946232646877,269.982683972786,708.6691370807076
571,15.940248688703583,-262.9414771270114,21.321646531907604,655.3859403667809,-7.2153949335872,-0.7787049421739051,264.0106282665014,679.7168291084138
572,16.257436859021634,-256.70460793717746,22.20842994547289,614.0374590516246,-7.54649019752297,4.5556445274189565,258.0900916921041,648.3529512528563
573,16.49404754785388,-250.66560054101774,23.061804773420445,569.8231228276379,-7.434444105569747,9.257117931383842,252.34702723670853,614.9683387057548
574,16.65400634542221,-244.94326965683862,23.868573025582453,523.3320225095654,-6.923891271571007,13.338200095001802,246.89525262994988,579.9791537647421
575,16.743015376929293,-239.6412455515179,24.6173913773589,475.1802654218776,-6.065750445047865,16.821386022248294,241.83454513943877,543.8178509897709
576,16.768129546330808,-234.84651589577345,25.298993714521913,426.0015925282253,-4.915362915174873,19.736728576015402,237.2491544860347,506.9241798152822
577,16.737325914315978,-230.6284281466059,25.906340105720023,376.4374722672444,-3.5306068706406624,22.119485038784045,233.2067541568232,469.7363900806195
578,16.65908407718216,-227.0381584126779,26.434691113233118,327.1268044747414,-1.9700629828578926,24.007940585016474,229.75784002131363,432.68280671273925
579,16.54199372070722,-224.10864041321122,26.881609659764866,278.6953933124088,-0.29129683582674015,25.44147119406789,226.93557314102546,396.1739397610243
580,16.394403232322055,-221.85493599560905,27.24689559405444,231.74537581009506,1.4506873403406628,26.458892736825764,224.75605174077302,360.5952936082076
581,16.22412032345097,-220.27501750268985,27.53246048545362,186.8448202829468,3.204779014667851,27.09712753194897,223.21898622871635,326.30103224305367
582,16.038172174453862,-219.35092266724206,27.74215177806972,144.51773360901151,4.9248491441119455,27.390204900881198,222.30874147311815,293.60864315251104
583,15.842629085189275,-219.05023484412217,27.88153610773121,105.23473473524311,6.570574675304512,27.36859827334929,221.99570245175815,262.79471750060543
584,15.642492484870969,-219.32783512456652,27.95765141579308,69.4046603001985,8.107992784629682,27.058888315712228,222.23791277820513,234.09192602446723
585,15.44164560665885,-220.12786808359485,27.97873675042331,37.36736381814271,9.509789371157462,26.48372955107542,222.98293039762046,207.68721788032644
586,15.242862997879964,-221.38585963318803,27.95394767878903,9.387950296308551,10.755337261376308,25.66208727487499,224.16984102321396,183.72120776793733
587,15.047873078537192,-223.03092380854434,27.893064355448235,-14.347347321853112,11.830509539049176,24.60970258786363,225.73136780572978,162.2886552686325
588,14.857466080888534,-224.9879954268118,27.806198685603146,-33.733493924823804,12.727301789169648,23.339736440616253,227.59601544005412,143.43989212415525
589,14.671638021268445,-227.18002755893065,27.703506740929285,-48.747086842243746,13.443303153120564,21.863539011375476,229.69018856339378,127.18302692603764
590,14.489760158602092,-229.53009669770464,27.59491256655611,-59.444876342767856,13.981059312123143,20.19148869582079,231.94022795141387,113.48675370028776
591,14.310762924013288,-231.96336425939907,27.489849545774334,-65.96042206856585,14.347370569817132,18.333845490419737,234.27431353462023,102.2836065439748
592,14.133323611160383,-234.40885033891183,27.397025301654462,-68.49900561167443,14.552565303170018,16.301566446088614,236.62419033177804,93.47352966808299
593,13.956048088512015,-236.80098410668668,27.32421562235753,-67.33098175434215,14.60978378265813,14.107035871943893,238.926681676446,86.92766360912898
594,13.777638225309556,-239.0809045078526,27.27809217991723,-62.78380135150829,14.534300470424212,11.76466975640229,241.1249632173522,82.49227760930992
595,13.597038359774782,-241.19749456304473,27.264087890218114,-55.23297487997801,14.342905142477797,9.291362133251468,243.16958065715357,79.99280047266551
596,13.413555781946824,-243.10814208660275,27.286302559871377,-45.092266480505735,14.053355264070385,6.706750537629181,245.0192035509717,79.2379149177865
597,13.226951758604892,-244.77922848376286,27.347450019252083,-32.80341458440832,13.683904594823712,4.033287919382897,246.64111616789435,80.02368322995531
598,13.037501075257609,-246.18635491470974,27.44884642597234,-18.825668738007767,13.252906458845871,1.2961190031314516,248.0114538936312,82.13766682456098
599,12.84601943734261,-247.31432118531708,27.59043798540901,-3.6254153935143365,12.778484763738641,-1.4772303760304273,249.11519960234298,85.36299284797656
600,12.65385939141037,-248.15687727806093,27.770865052708174,12.333859224046451,12.27826188830279,-4.257332527117365,249.94595889340567,89.48231130151359
601,12.462876674601187,-248.7162707236157,27.987558520756505,28.601051128947777,11.769130178268783,-7.013478596745464,250.50553632677068,94.28157958432422
602,12.27536998236461,-249.00261523162666,28.236863572780706,44.74618080497884,11.267053174751315,-9.71440650531229,250.8033369880063,99.55360938939427
603,12.09399795765172,-249.03310723963335,28.514185237998984,60.36824590679895,10.7868839002736,-12.329096966783334,250.8556189504305,105.10131366748354
604,11.921677745386827,-248.83111744031987,28.814149755247147,75.10206953330294,10.34219036225154,-14.827595872380394,250.68462261676027,110.74059811807876
605,11.761469835151859,-248.4251841910381,29.130775662552477,88.62406258504122,9.94508254097402,-17.181821304722362,250.31760281786666,116.3028512797357
606,11.616454253417558,-247.8479353095471,29.45764890193349,100.65684968093989,9.606040061614486,-19.366315874759188,249.78578925150848,121.63699875332567
607,11.489603510495751,-247.13496429265595,29.78809700089793,110.97273597840721,9.333744983258532,-21.35890960917764,249.12330052993576,126.61109953889444
608,11.383658010518102,-246.323686494093,30.115358381737416,119.39601656330484,9.134929003054793,-23.14126480054218,248.3660367822784,131.1134750628497
609,11.301009737522412,-245.45220023820414,30.43274387403425,125.80415044818743,9.014248047955094,-24.699281552977105,247.55057537071374,135.05337330940787
610,11.243599731287214,-244.558177156504,30.733788430043177,130.12783733639142,8.974198880837115,-26.023350714642696,246.71309373269608,138.3611806965395
611,11.212834091378056,-243.67780513853558,31.012391762444036,132.35004718676436,9.015091416026397,-27.108449043276977,245.888342562663,140.98820241640914
612,11.209522140810574,-242.8448061986981,31.262947075792898,132.5040607480439,9.135086847343114,-27.954079375453272,245.10869150421263,142.90603783256356
613,11.233839136305026,-242.0895503363123,31.480457262241973,130.67058460979214,9.330305901294137,-28.564065815453294,244.40326830610505,144.1055815614035
614,11.285314587227633,-241.43828505001613,31.660637948065613,126.9740082782703,9.59500442485613,-28.94622016182577,243.79721095726697,144.5956837448272
615,11.362845831639588,-240.912498361105,31.800006639098687,121.57787486909382,9.921806253673497,-29.11190079281853,243.3110504638588,144.4015056454143
616,11.464735125990007,-240.52843080011533,31.89595690421139,114.6796427673614,10.301977103007696,-29.075489018583678,242.96023946439922,143.56261005215637
617,11.588747324899712,-240.29674868453571,31.946816108336883,106.5048243129282,10.725719105168373,-28.853810412589258,242.75483867841757,142.13083087183634
618,11.732184372828058,-240.22238710941465,31.95188480509856,97.30059987857625,11.182464180467427,-28.465529681025593,242.69936922108013,140.1679729844097
619,11.891972331811429,-240.3045664533543,31.91145565360907,87.32902149318312,11.661145777654697,-27.930547047387154,242.7928341779048,137.74340156606834
620,12.064756511100082,-240.5369810644187,31.82680969764488,76.85993857044998,12.150432349064642,-27.26942189645669,243.0289077233191,134.93158859318922
621,12.24700035186722,-240.90815339648094,31.700188091561582,66.16379788842977,12.638911634864936,-26.502845711236624,243.3962847497017,131.80969153904064
622,12.435083962144448,-241.4019415096506,31.534737972371364,55.50448876801915,13.115221605432097,-25.651181497287418,243.87917875162282,128.45524327840315
623,12.625398624492341,-241.9981828367569,31.334432276746128,45.13242008895647,13.568130803765495,-24.73408138859337,244.45795090980528,124.94403052587094
624,12.814434280409344,-242.67345272496442,31.103964889865196,35.27802588429372,13.986576890610781,-23.770188469766193,245.1098492174909,121.3482285408699
625,12.998857852518325,-243.40191266064977,30.84862433759156,26.145898422285608,14.359676662925771,-22.776923486034168,245.80983321565387,117.73484140928254
626,13.17558108546473,-244.15622033057488,30.574150849530934,17.909740048842025,14.676723328057445,-21.770352401180993,246.53145742514724,114.16447182557033
627,13.341817216733054,-244.90847177876637,30.286582655334673,10.708306644613831,14.927187475937973,-20.765126959031917,247.2477848371379,110.69041709190765
628,13.49512624143106,-245.63114497374096,29.99209772354434,4.6424865103511905,15.100737395360484,-19.774487677392543,247.93230092618464,107.35806547370294
629,13.633448909295106,-246.29801425018385,29.69685696920522,-0.22637994460501787,15.187292523254465,-18.810317117610857,248.55979876009127,104.2045536569867
630,13.755129946456275,-246.8850064175574,29.40685450218869,-3.876880148434728,15.177121107299332,-17.88323072477451,249.10720702260286,101.25864285643318
631,13.858931300316836,-247.37097177420952,29.127779910312462,-6.32659997870817,15.06098961984223,-17.00269276393909,249.5543350995146,98.5407763081418
632,13.944036409073398,-247.7383466207195,28.864896856354747,-7.629928508586728,14.830367059343633,-16.17714559470255,249.88451259769283,96.06329130907827
633,14.010046593180002,-247.9736878666148,28.622941361809147,-7.874691635181899,14.477682144247321,-15.414141526107707,250.08510450412527,93.83077119363672
634,14.056970659014139,-248.06806476962026,28.40604204497328,-7.177756640389013,13.99662589596591,-14.720467668526943,250.14788745181477,91.84053338090702
635,14.085208642895227,-248.0172975948887,28.217663353698715,-5.679790539036021,13.382486703808048,-14.102255487549522,250.06927710860444,90.08325594416951
636,14.095530292690432,-247.8220378850235,28.06057167223676,-3.539387188548637,12.632500170092422,-13.565068143624194,249.85040141434456,88.5437447274218
637,14.089048537285652,-247.48768998071742,27.936823273722013,-0.9267998326501483,11.74619232958718,-13.113960200019932,249.49701917528574,87.20183491827589
638,14.067188039892729,-247.02417840866633,27.847772461074662,1.982474046996867,10.725692639518988,-12.753505965938706,249.0192883747007,86.03340668412785
639,14.031649019094655,-246.4455707241223,27.794097778898735,5.014010254079611,9.575992750234057,-12.487794664083767,248.4313934331521,85.01147813287315
640,13.98436674057043,-245.76957017720716,27.775843755087717,8.000445193028755,8.305128661715736,-12.320392771758248,247.75104535132027,84.10732562191224
641,13.927467309279093,-245.01689686090904,27.792475182447745,10.786922980041883,6.924267443502606,-12.254276214067522,246.99887287929621,83.29157502163322
642,13.863220560087862,-244.2105795149069,27.842940572337376,13.23582296918547,5.447684992867549,-12.291737442662422,246.19772630739922,82.53520902880747
643,13.793990946221212,-243.37518277575458,27.92574129412896,15.230624966981189,3.8926277975112074,-12.434274586846096,245.3719180577035,81.81044408783019
644,13.722187412411625,-242.53599641166696,28.03900314465041,16.67881014240415,2.279058651266517,-12.682471571422388,244.54642601601446,81.09144410629197
645,13.650213394828405,-241.71821402548125,28.18054758412232,17.513738520989328,0.6292930458114866,-13.035879219395772,243.74608654306013,80.35485490813953
646,13.580418344918883,-240.94612884252362,28.347960466751285,17.695487012540937,-1.03246104624957,-13.49290791916132,242.99480431612173,79.58016114777152
647,13.515052439820664,-240.24237343610434,28.538656656755062,17.210673202989657,-2.6806424622758667,-14.05074254603149,242.31480547429052,78.74988412391721
648,13.456226232036926,-239.6272284879841,28.749939420737057,16.071327879529647,-4.288934203723329,-14.705290072519698,241.72595886409687,77.8496526918658
649,13.405876776167421,-239.11802292225357,28.979053980664613,14.312912076978279,-5.8308956808316434,-15.451169651824674,241.24518749517662,76.86818876459633
650,13.365741292556251,-238.72864411628655,29.223235126823855,11.991601367532676,-7.280605693778119,-16.281753740433846,240.8859887505999,75.79725262218365
651,13.337338822021511,-238.46917257620544,29.479749216733488,9.1809805066628,-8.613292060943214,-17.189266796588555,240.65807763987348,74.63159071955445
652,13.321959681228348,-238.34565061685296,29.74593107653754,5.968304998302714,-9.805924833725232,-18.164945108117678,240.56716256962542,73.36891983796917
653,13.320661897567557,-238.3599893500033,30.019216280923533,2.450492575116776,-10.837751987288058,-19.199257440816282,240.61485788208677,72.00996735892139
654,13.33427329664584,-238.51001291010834,30.297169131133863,-1.2699927546479315,-11.690759276082932,-20.282181736196502,240.7987320429751,70.55857063223118
655,13.363397659871374,-238.78963367538904,30.57750642205433,-5.089208082361657,-12.350039429335984,-21.403528436538938,241.11248519771544,69.02182212309893
656,13.408423372555413,-239.18914756681036,30.858116764387965,-8.905606626999651,-12.804059808676461,-22.553296655176784,241.5462451455453,67.4102340783389
657,13.469533170049443,-239.695634532632,31.13707485093077,-12.62359356533648,-13.044821880296158,-23.722045797298392,242.08696680898709,65.7378883577513
658,13.546713950748394,-240.29344624646657,31.41264976644347,-16.156656320598472,-13.067910318894851,-24.901262704778965,242.71891721230196,64.02253405195708
659,13.639766185458768,-240.9647610236279,31.683306387729598,-19.429985952688224,-12.87243430101049,-26.083703121497987,243.424226008266,62.28559703973826
660,13.748313097822864,-241.69018498977726,31.94769919389811,-22.382530702053877,-12.46086856211638,-27.26368629975029,244.18348070884667,60.55207091681779
661,13.87181026841535,-242.44937845602226,32.204658401070354,-24.968447526643793,-11.838806899173077,-28.437322868554176,244.97634580635665,58.85026678485923
662,14.00955645936576,-243.22168708489704,32.45316912266371,-27.157941572107752,-11.014645544562454,-29.602658604968475,245.7821857114289,57.211409128466215
663,14.160706324287458,-243.98675861101597,32.692345013903996,-28.937505874179067,-9.99921758132639,-30.75972041309148,246.58067269717853,55.66907530453913
664,14.324285444007579,-244.72512744435835,32.92139839539197,-30.30959323650454,-8.805401734236716,-31.910455501796143,247.35236264771467,54.25848601887826
665,14.499207938988244,-245.41875132042355,33.139609098941186,-31.29176834725922,-7.447729153485197,-33.05856024382376,248.07922325078732,53.01566279016143
666,14.68429673142973,-246.05148622951566,33.34629425442573,-31.915400259939958,-5.942010209345123,-34.20920113886919,248.74510131004348,51.97647529265832
667,14.878306260232378,-246.60948810216988,33.5407809778318,-32.223963274908996,-4.305000036372536,-35.368636249645306,249.33611802738423,51.17560645425798
668,15.079947076793017,-247.08153206602626,33.722383517255786,-32.271018465256795,-2.5541169272842867,-36.54375104871976,249.84098334873448,50.64546647840659
669,15.287911404612402,-247.4592425138946,33.89038598558173,-32.117949478446654,-0.7072221176282792,-37.74152756570727,250.25122279266026,50.415089041665695
670,15.500898553669007,-247.73722980694072,34.044031423633605,-31.83152588952422,1.2175364464128204,-38.96846989738543,250.56131267855815,50.509044285236364
671,15.717639023408136,-247.9131322109869,34.18251759886055,-31.481366290808573,3.2018195477292424,-40.23001234112412,250.76872236828774,50.94640414996795
672,15.93691616339393,-247.9875645782354,34.304999636335,-31.13737219367609,5.227139661690262,-41.52993839323821,250.8738649786357,51.739796112068035
673,16.157584429947097,-247.96397827269584,34.41059929144521,-30.867202965343278,7.274863857356085,-42.869839415845426,250.87996094585574,52.89458125972862
674,16.37858360061698,-247.8484397800628,34.4984204184578,-30.733861283813095,9.326191853195859,-44.24864083876947,250.7928217172697,54.4081915950753
675,16.598948694894684,-247.64933810976007,34.567569980671486,-30.793457573259253,11.362125752284987,-45.662221395504965,250.6205634761144,56.26965912987782
676,16.817815667184366,-247.37703320758612,34.617183764256616,-31.093220084038208,13.363447706908609,-47.103147274898156,250.37326288592251,58.45936550873803
677,17.034423090484868,-247.04345899647706,34.64645576570211,-31.669814154689163,15.31071998995554,-48.560538437671795,250.06256820526607,60.94903537967058
678,17.248110021614355,-246.66169542092837,34.65467002729846,-32.54802911762296,17.18431893232749,-50.020078941816855,249.70127984211513,63.70198952149427
679,17.458310147616984,-246.24552420231834,34.64123354597995,-33.73988360842788,18.964510282415905,-51.46417716681251,249.30291471653982,66.67366503546792
680,17.66454234420645,-245.80898306838776,34.60570886495283,-35.2441890929177,20.631569211670236,-52.872275532433775,248.88126885462458,69.81240022225768
681,17.866398016909578,-245.36593295245942,34.54784513841014,-37.046596891987214,22.16594399883912,-54.22130289824545,248.4499924122166,73.06047185566914
682,18.06352596850165,-244.9296519020073,34.46760678923603,-39.12013600628367,23.54845897938394,-55.48625655538546,248.0221906498882,76.35536317310292
683,18.25561592001772,-244.51246810468493,34.36519922767443,-41.42622839050668,24.76055010051537,-56.6408948209121,247.61006313839184,79.63123238464269
684,18.44238214084231,-244.12544259068284,34.24109133243163,-43.91614638487722,25.784525538068113,-57.65851591677897,247.22459170210325,82.82054369591235
685,18.623548860347874,-243.77810989575187,34.096034408129185,-46.532855546510326,26.603844152793183,-58.5127942909148,246.87528537891788,85.85581536211176
686,18.798839140948214,-243.47828232461202,33.931077104797495,-49.213166923716095,27.20340567070732,-59.17864217875802,246.56998803169634,88.67143206039799
687,18.96796862738242,-243.23192055667116,33.74757541424079,-51.890107424215174,27.569847800286947,-59.63306245937156,246.31475131137205,91.20546241072326
688,19.130645086875322,-243.04307044945367,33.54719648956708,-54.49540655824508,27.691846511088524,-59.85595904736514,246.11377272916388,93.40141779620747
689,19.286574021728967,-242.91386333232654,33.331914821460394,-56.96199333014052,27.560416036184268,-59.83087317659827,245.96939598365336,95.20988683154823
690,19.435470028122403,-242.8445750446322,33.10399939067471,-59.22639877174333,27.169204697764158,-59.54561768510894,245.88216863857596,96.58998174643497
691,19.57707316843992,-242.8337374829237,32.86599084000126,-61.23096737570716,26.514781453421897,-58.99278640607439,245.8509508021275,97.51053899079027
692,19.71116945265146,-242.8782953517658,32.62066837234562,-62.925793792911946,25.596906317215588,-58.17012160407975,245.87306747863957,97.95102639897925
693,19.837614442483844,-242.97379998518775,32.37100682667397,-64.27031843653744,24.418775807476152,-57.08072862268683,245.944496541457,97.90212255694247
694,19.956358873461376,-243.1146314670439,32.12012505025851,-65.23453552021849,22.987232616850996,-55.733133012205755,246.06008372574516,97.36594934686815
695,20.067475029730538,-243.29423994370663,31.871227145114947,-65.79978777191577,21.31292708001377,-54.141180925267065,246.21377575670348,96.35595446895664
696,20.171182432739656,-243.50539713618477,31.627538378779345,-65.95914192917492,19.41041700397646,-52.32378826929864,246.3988628514795,94.89645564902979
697,20.26787124077431,-243.74044963896552,31.392237588321212,-65.71735682830638,17.29819223945633,-50.30454800391955,246.60822239266795,93.02187121531388
698,20.358121660839924,-243.99156649483606,31.168387919351147,-65.09047061586482,14.998611116584213,-48.111208207032824,246.83455645013598,90.7756721796489
699,20.44271770618574,-244.25097453529156,30.958867848694236,-64.10504491346444,12.537737582888257,-45.77503627275508,247.07061682646255,88.20909865274697
700,20.522653788718817,-244.51117592626244,30.766304625172584,-62.79711156363875,9.945070629860947,-43.3300870217205,247.30941227082522,85.37968842004472
701,20.599132869665265,-244.76514326605442,30.593012396400876,-61.210872114815416,7.253161480587906,-40.81239475520118,247.5443934335707,82.34966813337941
702,20.673555174066948,-245.00648851558597,30.440937257483,-59.397202032615674,4.497119064359138,-38.259111430239706,247.76961207065338,79.1842583316229
703,20.747496799748568,-245.2296029911094,30.311611244396946,-57.41201149647108,1.7140103385890977,-35.70761507771266,247.97985194265627,75.94994284810218
704,20.82267790474024,-245.42976653519707,30.206116963575198,-55.31451328722389,-1.057831416701264,-33.19461408363985,248.17072971361043,72.7127513571855
705,20.900920534136716,-245.6032247667001,30.125064192693365,-53.16544632813461,-3.7795707679507267,-30.75527368722302,248.3387649157504,69.53660095863903
706,20.984096617904733,-245.74723404915548,30.06857945700533,-51.0253014015574,-6.4126816337339845,-28.422390741877784,248.48141877409765,66.48173887211641
707,21.074067336902967,-245.86007457808847,30.03630923992372,-48.95259368413976,-8.919777021196008,-26.22564131532213,248.597102451076,63.603323657496
708,21.172615895716245,-245.94103277322958,30.027437065620106,-47.0022250208724,-11.265426010729659,-24.19092312832471,248.68515606933815,60.95017713304866
709,21.281376566782637,-245.99035491529298,30.040714208259214,-45.223977138493694,-13.416927408219799,-22.339811326714198,248.74580062895964,58.56373366910125
710,21.401763446297842,-246.00917464048388,30.074503254500847,-43.66117506705947,-15.345011941376974,-20.689141879583303,248.78006558757937,56.477208111700946
711,21.53490254762816,-245.99941751068525,30.12683309938787,-42.349557600030046,-17.024448881097374,-19.250732257494995,248.78969541168652,54.71499837831053
712,21.6815706301411,-245.96368645294174,30.195463164370498,-41.31638829233191,-18.434537925240164,-18.031244251420205,248.77703887065536,53.29233366458242
713,21.84214359618742,-245.90513239056193,30.277953911409195,-40.57983584504378,-19.559472557640024,-17.03218912163743,248.74492524608743,52.21517396257747
714,22.016556561736767,-245.82731480308775,30.371740402116384,-40.148646345106364,-20.388566511550785,-16.250070916019435,248.69653194867027,51.48036098606145
715,22.20427704770728,-245.73405724785331,30.474205753011624,-40.022121438869064,-20.916340258468,-15.676659874948664,248.63524828755524,51.07601457077212
716,22.404292295993397,-245.62930308942668,30.58275162413616,-40.19040612969496,-21.142469621756817,-15.29938439891374,248.5645403436273,50.98216234267566
717,22.615111438825824,-245.51697674385707,30.69486316964222,-40.635077869407304,-21.07160371901939,-15.101827098822456,248.4878219646501,51.17158417978751
718,22.834782969557743,-245.4008554828736,30.808166218404967,-41.33001563845925,-20.713064372612237,-15.064307918853014,248.40833665261857,51.61084682811385
719,23.060927564979007,-245.28445617940116,30.92047496792089,-42.242514718406255,-20.08044359071124,-15.164535174088606,248.32905448097011,52.26149786417998
720,23.29078582468593,-245.17094041734407,31.02982922525392,-43.33460096190767,-19.191119239286,-15.378303666736423,248.25258727888166,53.08138194616031
721,23.521280009235333,-245.06304036658608,31.134521118973737,-44.56448864367074,-18.06571110644791,-15.680218044164695,248.18112437548675,54.0260362259274
722,23.749088412352393,-244.9630069373257,31.233111968969776,-45.88811931006997,-16.727499899548942,-16.04441944344195,248.11639037294793,55.05011666582887
723,23.970730545415936,-244.8725809676109,31.32444036471334,-47.26071606359141,-15.201830335977116,-16.44529430151229,248.05962566532054,56.10880390474089
724,24.182660758162246,-244.79298737051548,31.407622434143825,-48.63828879019887,-13.515516746853676,-16.858145894907082,248.0115895364733,57.15913725729358
725,24.381367272295297,-244.724951142817,31.482044989651122,-49.97903100043913,-11.6962660751039,-17.25981149242711,247.97258455349103,58.16122895995862
726,24.563473027445557,-244.66873298169494,31.547351915513364,-51.24455780411018,-9.772129411686404,-17.62921072155017,247.94249972839913,59.0793178056293
727,24.725834415070022,-244.62418115337252,31.603423891798844,-52.40094618793817,-7.770989755386184,-17.947813661869308,247.92086875920648,59.88263111283089
728,24.865633945876095,-244.59079545409617,31.650351397940675,-53.4195519606976,-5.720090814387285,-18.200020135849606,247.90693883713155,60.54603539068523
729,24.980463103295,-244.5677988424795,31.688401040616302,-54.27759108783742,-3.6456095521894794,-18.373444555768415,247.8997452742312,61.05046775883095
730,25.068392075291136,-244.55421264288935,31.717975742499743,-54.95848539526393,-1.5722738573701442,-18.459103411110114,247.89818762411159,61.38315093498674
731,25.128023773487502,-244.54893187068024,31.73957019369713,-55.451982801577785,0.47697385076729304,-18.45150496677012,247.90110379413505,61.53760345445441
732,25.158530468138025,-244.55079787493816,31.75372393877991,-55.75406975512527,2.4812661864385035,-18.348642933523497,247.90733950512285,61.5134631557433
733,25.159672254782905,-244.55866595545862,31.760975166955838,-55.86669827944343,4.4220521300844196,-18.15189774376019,247.91581109165267,61.31614571619789
734,25.131797239132553,-244.57146590064332,31.761818479330163,-55.79735225764483,6.283288134157273,-17.865850655137475,247.925560016356,60.956361430183925
735,25.075823820727653,-244.58825362503293,31.75666967696994,-55.55847787436969,8.05157663743025,-17.498017303792906,247.93579771854044,60.44951305530825
736,24.993205939991878,-244.60825239936963,31.745840070091564,-55.166802168276135,9.716249627415843,-17.058508630605463,247.94593970544776,59.8149961060337
737,24.88588273689179,-244.63088263959813,31.729521984199078,-54.64256215295367,11.269395282096333,-16.559628388496993,247.95562821743346,59.07542118658988
738,24.756214716166788,-244.65577978151234,31.707786052042284,-54.008665636312074,12.705826506700536,-16.01541777086623,247.9647432831228,58.25577653576649
739,24.606909044504945,-244.68280024106264,31.680589683267147,-53.289804275050614,14.022991401537533,-15.441159079881832,247.973402354652,57.382548467491574
740,24.440936833217222,-244.71201574675766,31.647795074021644,-52.51153986295368,15.220827374741999,-14.852851670776575,247.9819488923276,56.482818119625584
741,24.261445180335194,-244.74369650853365,31.60919449564407,-51.69938635514789,16.301562679811056,-14.266674502218981,247.99093035864328,55.58335480407081
742,24.071666525880154,-244.77828392820095,31.5645404267212,-50.877912303615425,17.26947141067995,-13.698450374494897,248.0010662741979,54.70972886265904
743,23.874827691362853,-244.81635395342943,31.5135782358838,-50.0698905709237,18.13059011166295,-13.163127304676081,248.01320737604644,53.8854695768052
744,23.67406092537246,-244.85857266306763,31.456079444540727,-49.295523615107896,18.89240583642848,-12.67429244402963,248.02828742890557,53.13129552877259
745,23.472319353215592,-244.90564608645278,31.391874014702065,-48.57177256580624,19.56352651683766,-12.243733413366442,248.04726970315343,52.464445108810416
746,23.272299321986363,-244.95826649760428,31.32088053843572,-47.9118162732721,20.15334481924593,-11.881060826501484,248.07109042670913,51.89813312951301
747,23.076372110468295,-245.01705751490206,31.243133561979793,-47.32466245214219,20.671706316859076,-11.59340404917499,248.10060164465506,51.44115569758186
748,22.88652726089773,-245.082520363292,31.158807473223163,-46.814927259915564,21.12859191725652,-11.385189911780001,248.1365159471488,51.09765992945574
749,22.70432938584622,-245.15498364979135,31.068236375977772,-46.38279262729269,21.533823235312536,-11.258011208559898,248.1793554772205,50.867088301966405
750,22.530889765182614,-245.2345589487792,30.971929222229722,-46.0241429542145,21.896798165222666,-11.210588504942939,248.2294075019584,50.74429998456861
751,22.36685345480706,-245.32110437571944,30.870579300502193,-45.730874980768185,22.226262387531147,-11.238825289294642,248.2866886316313,50.719863969132184
752,22.212402034406608,-245.4141981043902,30.765067109177846,-45.49136722372409,22.530120974118812,-11.335953144943613,248.35091948137494,50.780511638857
753,22.067271543759556,-245.51312338753416,30.656455730443273,-45.29108867030136,22.815292582377328,-11.492760591852043,248.42151113332426,50.90972986686474
754,21.930784619479795,-245.61686605973676,30.545978043448397,-45.11332067955973,23.08760691655155,-11.697896608180626,248.49756416035518,51.088469984104535
755,21.801895399104605,-245.7241248038886,30.435015518834224,-44.939961473695384,23.351744264537142,-11.938237548006429,248.5778802973468,51.2959432170802
756,21.679245436024864,-245.83333377006542,30.325069062302905,-44.7523794021996,23.611214251037726,-12.19930418429646,248.66098623331763,51.51046974646194
757,21.561228632667994,-245.94269657698584,30.21772338669236,-44.53227949103162,23.86836980239931,-12.4657139498572,248.7451685642635,51.710346660185486
758,21.446063022429577,-246.05023037620327,30.114607315392135,-44.262547744671544,24.12445189862606,-12.721652235347639,248.82851871040384,51.874699961029
759,21.331867142744407,-246.15381848277798,30.01735282230266,-43.92803924821783,24.379660968120117,-12.95134602292088,248.9089864743828,51.984287459416606
760,21.216738753380238,-246.25126995201578,29.927555347294703,-43.51627920853543,24.633251509605838,-13.139523367576013,248.98444076456047,52.02222267079423
761,21.098833687309515,-246.34038429220712,29.846737178673852,-43.01805048359586,24.883647348586525,-13.271843353185705,249.05273573336106,51.97459444647285
762,20.976442570825036,-246.4190192121012,29.776314827456392,-42.42784661589373,25.128575557485064,-13.335283094416022,249.1117801845512,51.830962649580876
763,20.848063016029343,-246.48515899451291,29.7175706289151,-41.744175595532546,25.365217351663684,-13.318471006608343,249.15960770441606,51.58471639747778
764,20.71246483909676,-246.53698093409426,29.671628359779653,-40.96970618381483,25.59037421577923,-13.2119587235526,249.19444476014897,51.23328787543185
765,20.568746106200994,-246.57291737964596,29.63943236743539,-40.111255246554016,25.80064715761329,-13.008427416465425,249.21477409409871,50.77822107851462
766,20.41637840590522,-246.5917111935123,29.62172953862287,-39.17962077386432,25.99262635985099,-12.702827537316026,249.21939104157218,50.22510061709293
767,20.25524049852047,-246.5924627179653,29.619053471999297,-38.189270742032114,26.16308765168839,-12.292453919895257,249.207450743529,49.58335054965399
768,20.08564010620127,-246.57466658218237,29.63171052148767,-37.15790247979279,26.30919125169984,-11.776960558473087,249.17850455704195,48.86591688018394
769,19.90832391454727,-246.53823699353035,29.65976784188837,-36.1058906969164,26.42867727917464,-11.158321160081266,249.13252435692215,48.08884988215642
770,19.72447593097351,-246.4835206191897,29.70304398037308,-35.055644929023785,26.52005173242899,-10.440742708157112,249.0699139354502,47.27080395957344
771,19.535704405139594,-246.4112967544358,29.761102785063258,-34.03089898179864,26.58275609305055,-9.630539791650957,248.9915073217075,46.43247353046559
772,19.34401768453671,-246.32276506943668,29.83325146719327,-33.05595604940852,26.617313486284576,-8.735977370228982,248.89855444959468,45.59598353177763
