time,ax,ay,az,gx,gy,gz,accmagnitude,gccmagnitude
0,10.01194121402268,-261.0858469217547,-62.11895143770243,-41.218870005056786,17.190062280921676,5.316401989020555,268.5599485150096,45.252169962099494
1,9.962644160366073,-261.1445292426378,-61.98345558289631,-39.75597167799512,17.936408293672567,4.7275526359832005,268.5861124037555,44.35784429558715
2,9.907167033346395,-261.1866301020397,-61.8443611677221,-38.30002387710976,18.665595688293326,4.166191288427688,268.5951229844082,43.46755423321768
3,9.845218828179373,-261.2118397228266,-61.704133992843545,-36.86269262396461,19.36872827713667,3.6366409600116647,268.5872063442436,42.58819303531983
4,9.776616818145293,-261.2201970863425,-61.56513882231917,-35.45583751925763,20.0367408173205,3.143045809708863,268.5629095909032,41.726609103636896
5,9.701292923871975,-261.21211278077567,-61.4295746046743,-34.0913690509511,20.660568980994814,2.6893188644024586,268.5231091484518,40.88953433130838
6,9.619301514768805,-261.18838104363465,-61.29941778246095,-32.78107409462881,21.23132102304288,2.2790851781563433,268.46901037213695,40.08349068611055
7,9.530828151038,-261.15017899698984,-61.176375357981954,-31.536408810923295,21.74044662097727,1.9156211438547628,268.4021368804756,39.314673134596354
8,9.436198090109494,-261.0990517288293,-61.061848927260115,-30.368261775206705,22.179899363980095,1.601791110346819,268.3243085155701,38.588810404209994
9,9.335882963571539,-261.03688278007274,-60.95691055973018,-29.28669398805332,22.54229064923593,1.3399828459757246,268.23760763608203,37.91100872674666
10,9.230503814456512,-260.96585056593693,-60.86229113112507,-28.300665827245464,22.821034200148457,1.1320437803352745,268.14433432355736,37.285587073538586
11,9.12082861802124,-260.88837213586856,-60.77838129562648,-27.417763420648694,23.010481735745387,0.9792203990450096,268.0469518397934,36.71591483070685
12,9.007762611948916,-260.8070363480878,-60.705244579414085,-26.64393788581796,23.10605100146415,0.8821036295013055,267.948024179343,36.204263734972876
13,8.892330386414118,-260.72452890982794,-60.64264126588938,-25.983270273249012,23.10434699396922,0.8405834459512446,267.8501477709097,35.75168485753257
14,8.775649657481447,-260.6435518099767,-60.590061125458405,-25.437773195301936,23.003275637108754,0.8538161564862087,267.7558793553641,35.3579186643977
15,8.658897693705875,-260.5667396201252,-60.546762748389256,-25.007237704973498,22.802146630410945,0.9202078332653763,267.6676619920705,35.02134238175456
16,8.543272261605047,-260.49657519257244,-60.51181720362114,-24.68913177407278,22.50175932374585,1.0374169749208182,267.5877512194228,34.73895505164633
17,8.429949629615606,-260.43530752983753,-60.484153880254766,-24.47855522052308,22.10446317503887,1.2023785743870312,267.5181436857601,34.50639776359232
18,8.320042584406995,-260.38487495966274,-60.46260662836795,-24.3682551451747,21.614183495162724,1.4113502212246667,267.4605109855841,34.31800519420879
19,8.214561476769944,-260.3468370545184,-60.445958645360854,-24.348705375652976,21.036404251120715,1.6599788120043082,267.41614180590096,34.1668847953172
20,8.114380949768707,-260.3223188120828,-60.432984851531636,-24.40825247022872,20.378102576470408,1.9433842098546936,267.38589561663355,34.04502127695613
21,8.02021427630826,-260.31197036710637,-60.422490700961326,-24.53332914503008,19.64763372964189,2.2562542528412495,267.37017092304546,33.94340576392295
22,7.932596379500688,-260.3159449374243,-60.41334653321976,-24.70873352648213,18.854569710951406,2.592944313600474,267.36889055693007,33.85219049305014
23,7.851875858158322,-260.3338968440556,-60.40451677142051,-24.9179695644362,18.009498748455968,2.947574424525487,267.38150566631185,33.760870581477896
24,7.7782157645233605,-260.3650002985897,-60.395083509883584,-25.143640511769348,17.123795698471337,3.3141177746454265,267.40701898187945,33.658493837317344
25,7.71160245474275,-260.4079882726713,-60.38426427235579,-25.367883933070054,16.209374691725287,3.6864759008570687,267.4440266344433,33.533897772623185
26,7.6518615271920405,-260.46120929337013,-60.371423989756515,-25.5728337597725,15.278435100700214,4.0585378355607995,267.490776414049,33.37597036980024
27,7.598679637272161,-260.5226986367212,-60.35608158139489,-25.741093057233314,14.343210483232406,4.424222564855222,267.54523909271285,33.17392856556125
28,7.551630785940829,-260.59025930039746,-60.33791184476903,-25.8562009037076,13.415728162493506,4.777506094475211,267.60518843512295,32.91760669856506
29,7.510205546894039,-260.66154746819336,-60.316743527044785,-25.90307832476781,12.507585158571239,5.112435887147043,267.6682849026756,32.5977468822175
30,7.473841695039205,-260.7341570565882,-60.29255444622057,-25.86844145257245,11.629744819247621,5.423136230795261,267.7321579328208,32.206284567515226
31,7.441954866955111,-260.805698433582,-60.26546444984435,-25.741174478488023,10.79235802833242,5.70380826713704,267.7944821461504,31.736625163254853
32,7.413968198056978,-260.87386743612274,-60.23572687734694,-25.51265967186376,10.004613297761127,5.948728155048505,267.85304382179,31.183910741663684
33,7.3893402404623965,-260.93650208901227,-60.203718961961805,-25.177065731671338,9.274621015778507,6.152246388881819,267.90579518180675,30.545278561083155
34,7.367590707751792,-260.99162560027116,-60.16993126795493,-24.731598240147903,8.609338020672297,6.30879085087274,267.95089509612103,29.820114497294284
35,7.3483235881920255,-261.0374750875255,-60.13495592433949,-24.176716713089153,8.01453882193633,6.412875932402283,267.9867355995863,29.01030408003679
36,7.331246950386375,-261.072516094466,-60.09947317371984,-23.516321856661733,7.494838626695621,6.459120111447215,268.0119541398099,28.120481809079713
37,7.316188554222606,-261.09544343649594,-60.064235574299985,-22.757914579213107,7.0537705403674575,6.442274695957892,268.0254318944258,27.158276302209014
38,7.3031064009671285,-261.10516944970766,-60.03004902940849,-21.912725651856007,6.693914973006118,6.357266880594195,268.02627898103776,26.134545319932506
39,7.2920936275579376,-261.10080140344814,-59.99774973142416,-20.99581232907865,6.417073887085983,6.199260572018173,268.0138080391182,25.06359148161449
40,7.283377507333296,-261.08161061759216,-59.968176229840324,-20.026116332417153,6.22447690471689,5.963738371117008,267.9874984609405,23.963346956507504
41,7.277312621959413,-261.0469965143753,-59.94213623397565,-19.026476684455517,6.1170014741047884,5.64660752385251,267.94695431719293,22.855513718031514
42,7.274368503146893,-260.9964492345052,-59.9203683596365,-18.023590888265744,6.095386247038278,5.244331563529025,267.8918595524281,21.76564509237149
43,7.275112260030892,-260.92951448550366,-59.903499679433764,-17.0479185703178,6.160416237341218,4.754087833263996,267.82193421377804,20.72315441161811
44,7.280186943246281,-260.84576401653163,-59.89200054765463,-16.133522641904875,6.313060500900338,4.1739491936135815,267.736895352518,19.76123785774142
45,7.290286628108686,-260.7447745841336,-59.886138713317436,-15.317844122870401,6.554547810073527,3.5030861231623693,267.63642584947695,18.916701270475027
46,7.306129340333891,-260.62611750075115,-59.88593517681845,-14.641407988154095,6.886372434039692,2.741983279598842,267.52015376552805,18.229684700772903
47,7.328428892470146,-260.4893598869222,-59.89112452427859,-14.147458783779857,7.3102296984196915,1.892662569170612,267.38764393425305,17.743283357172807
48,7.357866456332972,-260.33407772203253,-59.90112250788745,-13.881526285621145,7.827888362929028,0.9589030202373856,267.23840251729945,17.50306855550591
49,7.395062464493695,-260.15987989043185,-59.91500336048333,-13.890922959005675,8.441012959560362,-0.053553601666997304,267.0718943023493,17.55651647953873
50,7.4405494191262305,-259.9664417313963,-59.93148874363418,-14.224176192797113,9.15095327488044,-1.1368233984842127,266.88757172519956,17.952355356066267
51,7.4947463471000795,-259.7535460663349,-59.9489494479069,-14.930399146628968,9.95851977700476,-2.2807395801626047,266.68491391060115,18.7398429254083
52,7.557935735009184,-259.5211292340599,-59.96542015205118,-16.058604676589532,10.863763098459707,-3.472762816906473,266.4634734205777,19.967986223686815
53,7.630243664126802,-259.2693293631839,-59.97862680618078,-17.656967416902777,11.865773210976034,-4.697954830703889,266.22292793970354,21.684715281032048
54,7.711623618004221,-258.9985340467648,-59.9860255980919,-19.772039957881027,12.962510430234593,-5.939026464197149,265.96313392579543,23.93602194436123
55,7.801844183824251,-258.7094247728246,-59.98485210029367,-22.447930429087002,14.150676628963039,-7.176469841538646,265.6841793540754,26.765075083075274
56,7.900480660865126,-258.4030158036776,-59.97217914927528,-25.725450842255572,15.425631569338833,-8.388781781813458,265.38643300133975,30.21132419333082
57,8.006910454536584,-258.080685572168,-59.944982161580455,-29.641248275591277,16.781356409070938,-9.55278244556308,265.07058811681014,34.3096049529819
58,8.120312142662506,-257.74419906331684,-59.90021072194432,-34.22693417814158,18.210464357704673,-10.644029560466022,264.73769875026215,39.08926245109943
59,8.239668270822884,-257.39572012644265,-59.83486527997085,-39.50823031949591,19.704257212038684,-11.637324800409047,264.3892074820351,44.573310269589314
60,8.363772150671913,-257.03781317337246,-59.74607768120653,-45.50415266596767,21.252825982164204,-12.507305244797502,264.0269637835528,50.77764583264775
61,8.491239040336875,-256.6734341186043,-59.6311940665008,-52.226256233492855,22.845193795073804,-13.229109468724758,263.6532325928156,57.71034395925596
62,8.620522031092255,-256.30591062999815,-59.48785848337706,-59.677964421512314,24.469499461016046,-13.77910470338266,263.27069285796745,65.37105097409092
63,8.749932834163147,-255.93891184846092,-59.314095525547906,-67.8540053101233,26.113220271447894,-14.135658554034352,262.88242588357,73.750500811251
64,8.87766754821959,-255.57640779535126,-59.108390511962455,-76.7399748900072,27.76343250787004,-14.279935914695757,262.49189341503876,82.8301721492224
65,9.001837395087776,-255.22261876047477,-58.86976597974228,-86.31204338854687,29.407107470413013,-14.196699053296518,262.1029055249308,92.58210178869591
66,9.120504289221282,-254.88195508942076,-58.59785337259443,-96.53681622189247,31.031439337954502,-13.875086510808744,261.71957850605605,102.96886456529624
67,9.23172093051831,-254.55894801340102,-58.29295865721343,-107.37135627721926,32.624198793520485,-13.30934459040902,261.3462831528933,113.94372467068466
68,9.333574896992877,-254.25817251239482,-57.956120233127905,-118.76336978262874,34.17410325219525,-12.499483875034146,260.98758405768774,125.45095795387422
69,9.424235995879805,-253.98416368464967,-57.589157009539555,-130.65155424814577,35.671191031096114,-11.451832459824127,260.6481708940244,137.42633998543874
70,9.502005916939048,-253.7413287015557,-57.1947040212656,-142.96610382964346,37.10718328455692,-10.179457565226572,260.332783123892,149.79779049060824
71,9.565368977189799,-253.53385706603302,-56.77623257188942,-155.629364727002,38.47581437790839,-8.702428164590748,260.04613008235793,162.4861610815666
72,9.613042386367017,-253.36563239017036,-56.33805171981826,-168.55663057307822,39.77310896787701,-7.047893469908482,259.7928088152646,175.40614986953065
73,9.644023993860596,-253.2401490831433,-55.885288027646645,-181.6570650320715,40.997582761812694,-5.249955706618367,259.5772222087313,188.46732344884072
74,9.657635032141185,-253.16043709198408,-55.42384095625373,-194.83473611772973,42.15034405981707,-3.3493206124581927,259.40349977894743,201.57522410294823
75,9.653555157157422,-253.1289971832594,-54.96031216414757,-207.98974443669906,43.23507500193723,-1.3927155200537276,259.2754230255876,214.63253830447388
76,9.631847205858348,-253.14774832127767,-54.50190827094407,-221.01942609876812,44.257875205427666,0.5679273192980163,259.1963566210678,227.5403021490108
77,9.592969453876346,-253.21798768704906,-54.0563183152236,-233.81961068309246,45.22695646577973,2.476515483593389,259.16918609088543,240.19912059409032
78,9.537773607004821,-253.3403629970714,-53.63156904894276,-246.2859153521224,46.152185519742325,4.274052487185765,259.19626220140174,252.51038022332986
79,9.467487229878104,-253.51485615573853,-53.23586307369146,-258.31505759567085,47.044482142997545,5.900077880661438,259.2793520728846,264.3774392227788
80,9.3836798239513,-253.7407769440808,-52.87740626093533,-269.80617071516355,47.91509109383255,7.2942533623354,259.4195970286134,275.7067825758767
81,9.288212373795929,-254.01676541209162,-52.564231622889444,-280.6621077882929,48.774757291401045,8.398047442102639,259.61747732056676,286.40913451026785
82,9.183170972836514,-254.3408019415538,-52.30402670924048,-290.7907215138261,49.63284284505014,9.156464166808531,259.87278416635144,296.40052365458854
83,9.070786162253986,-254.71022460287992,-52.103970736670306,-300.1061089270177,50.49643112640309,9.519757790700789,260.1846000309941,305.6032989526551
84,8.953340757110437,-255.12175431939184,-51.970586171274654,-308.529810827923,51.36946637978063,9.44507520486057,260.5512887032629,313.9470955314779
85,8.833069969447267,-255.57152919654308,-51.90960771630563,-315.991954773001,52.25197718003422,8.897970802342298,260.97049723363887,321.3697484896809
86,8.712058441732067,-256.0551498743155,-51.925870106057616,-322.432326900848,53.1394285097586,7.853743309192331,261.4391720164978,327.81814838437015
87,8.592139381270892,-256.56773773814695,-52.02321519914031,-327.8013520670458,54.02224075579039,6.298550142202302,261.95359111686065,333.24902553500056
88,8.474801305133782,-257.1040072616221,-52.204418727614986,-332.0609552935979,54.885505122195795,4.230261536701903,262.5094143722303,337.6296427465021
89,8.36110783882973,-257.658352776931,-52.47113751543359,-335.18527250107695,55.70891459594191,1.6590237561840133,263.1017519290084,340.93836983616023
90,8.251635473944493,-258.2249487761466,-52.82387867776667,-337.16117674814217,56.46691861973204,-1.392491919819099,263.72525082620706,343.16511034061944
91,8.146433247643678,-258.79786165948576,-53.26199282457435,-337.9885887578274,57.12909897274087,-4.889170020892154,264.3741981513846,344.3115520339302
92,8.045007158233629,-259.3711698911233,-53.78369323862013,-337.6805472641905,57.66075473094839,-8.783869113155726,265.0426383156523,344.39121833678
93,7.946330982206516,-259.93908897608566,-54.386102224620224,-336.2630245867662,58.02367592699312,-13.018176847680271,265.7245012751434,343.4293062714972
94,7.848884094819418,-260.4960975478074,-55.065324478477145,-333.77448414211466,58.177078827111465,-17.52349306306069,266.4137381115145,341.46230663605724
95,7.7507158417961195,-261.03706095253904,-55.81654572360266,-330.26518748685874,58.07867076437985,-22.22242408961127,267.10446013573835,338.5374117178991
96,7.649534830499085,-261.55734875997257,-56.63415328025381,-325.79626739828325,57.68580937400254,-27.030463396132703,267.79107737763957,334.71172362954496
97,7.542820196684849,-262.0529425181013,-57.511873827541855,-320.4385895505334,56.95671985725555,-31.857925571577827,268.46843189685524,330.0512813587854
98,7.427950619331054,-262.5205299143978,-58.442922504914975,-314.2714285678817,55.8517343012907,-36.61209201621524,269.1319209331812,324.6299268928964
99,7.302345776558953,-262.9575814078761,-59.42015680229163,-307.3809855271455,54.33451870866479,-41.19951743316852,269.7776046363565,318.52803112392
100,7.163614118993913,-263.3624053238538,-60.43622848683941,-299.8587746744046,52.3732558371774,-45.52843643425387,270.40229296606094,311.8310999146231
101,7.009700258635602,-263.7341773127703,-61.48372715048837,-291.7999083977132,49.941754806037714,-49.51119998943735,271.0036063040063,304.62828080614514
102,6.839024931561862,-264.07294006187806,-62.55530982892401,-283.3013119822832,47.02046125341988,-53.06666322262785,271.58000446790044,297.0107919879879
103,6.650610475021367,-264.3795694415686,-63.64381243291596,-274.4599034335904,43.59734425981002,-56.12244060129274,272.13077936494966,289.0702975035798
104,6.444185192138901,-264.6557041447531,-64.7423402934372,-265.3707784748084,39.66863810198749,-58.61694322902075,272.6560077131893,280.8972562914275
105,6.220260950003936,-264.9036375857196,-65.8443368617701,-256.1254464472659,35.2394182648251,-60.50111673684605,273.15646231763486,272.5792777186136
106,5.980179847464524,-265.12617347204497,-66.94363142428243,-246.8101688520208,30.323992382478252,-61.73980763741922,273.6334833964154,264.1995228068801
107,5.726127596390764,-265.32644988316594,-68.03446834092651,-237.50445771958988,24.94608847859251,-62.31270071043131,274.0888151815253,255.83519783978298
108,5.461113020086262,-265.507740404705,-69.11152146316525,-228.27979418086682,19.13882561150257,-62.21478908534525,274.52441691273697,247.55619400606946
109,5.188914460024113,-265.67324423257406,-70.16989781019717,-219.19862639712792,12.944456193287278,-61.45636073119991,274.9422607100116,239.42393104319794
110,4.913994832290327,-265.8258795606159,-71.20513428290488,-210.31369862982342,6.4138748985037255,-60.06250841848633,275.3441310511586,231.4904624694455
111,4.641387765201478,-265.9680954756014,-72.21319034959507,-201.66774914194895,-0.3941041275954636,-58.07219332991332,275.73144123849625,223.79789380056877
112,4.376557948308624,-266.10171654437994,-73.19043849569766,-193.29359467225188,-7.413692773488813,-55.53691372980624,276.1050809381204,216.37815294967268
113,4.1252398081014,-266.2278311487397,-74.13365306296184,-185.21459502263755,-14.573281062943662,-52.5190471853123,276.4653055616058,209.2531338594976
114,3.8932600275241436,-266.3467300346488,-75.03999718729861,-177.44546466462907,-21.79677286980462,-49.08994501138168,276.8116736192103,202.43521048926328
115,3.686351003962328,-266.45789669922556,-75.90700710178287,-169.9933716890911,-29.005075161004456,-45.327859234964215,277.14303342340463,195.92809024075777
116,3.5099635857667986,-266.5600469570185,-76.73257319779628,-162.85924172862255,-36.11770288575961,-41.3157764336865,277.45755646233516,189.72794808879894
117,3.369087955784883,-266.65121135423783,-77.51491781896249,-156.039170059719,-43.054453461680566,-37.1392224491954,277.75281140065954,183.82476077351842
118,3.268091219703364,-266.7288510738163,-78.25257048786477,-149.52584184394567,-49.73709752277707,-32.884090642981356,278.02586995128854,178.2037486082195
119,3.2105791052962265,-266.7899961551553,-78.94434183424814,-143.3098686389034,-56.091027828626714,-28.634536686077492,278.2734342566014,172.84683195901826
120,3.199287292331299,-266.83139475599205,-79.58929780028994,-137.38096701646626,-62.04680720027743,-24.47097667038252,278.491975394063,167.73401909515104
121,3.236005589948484,-266.84966358622887,-80.18673575533123,-131.72892923616223,-67.54155920650517,-20.46822335208744,278.6778739695213,162.8446592460764
122,3.3215359017900985,-266.84143174785834,-80.73616395384913,-126.34436237770443,-72.52015135134884,-16.693796654434657,278.8275557137814,158.15851552731738
123,3.4556830135903147,-266.80347235645894,-81.23728533508405,-121.21919674664862,-76.93612913612895,-13.206446753203927,278.93761691911965,153.6566328516438
124,3.637275862877476,-266.73281829070737,-81.68998612297258,-116.34698338611521,-80.75237086647556,-10.054928551038355,279.00493628052936,149.32199342955272
125,3.8642161485347963,-266.62686016974396,-82.09432923827248,-111.72301289103218,-83.9414479153975,-7.277063587710623,279.0267712551286,145.13996661567845
126,4.133550835248903,-266.4834260376466,-82.45055228144177,-107.34429391251098,-86.48569270118055,-4.899119233640789,279.00083830270773,141.09857141169064
127,4.441565039120642,-266.30084314631466,-82.75906970593795,-103.20943091889482,-88.37699476065931,-2.9355260063802553,278.92537720564496,137.18857915136624
128,4.7838916163476535,-266.0779828129832,-83.02047863487701,-99.31843815338323,-89.61636120359393,-1.3889429172011236,278.79920017541934,133.4034902002344
129,5.155633417720241,-265.8142897967497,-83.23556752841412,-95.6725215691462,-90.21328926327689,-0.25066871761238063,278.621726821197,129.7394212892429
130,5.551493802187452,-265.5097980759585,-83.40532660431225,-92.27385422803972,-90.18500453269618,0.4986155734829021,278.3930063757075,126.194939437391
131,5.965910824985335,-265.1651352766115,-83.53095854872525,-89.12536441243158,-89.55561877079951,0.8877999483631881,278.11372881194643,122.77087494358342
132,6.393190542065569,-264.7815182336982,-83.61388766063527,-86.23055003826704,-88.35525639882455,0.9540336036295926,277.7852265860468,119.47014020495287
133,6.8276350182922325,-264.36074222022086,-83.65576530149535,-83.59332758287353,-86.6191897439716,0.7411980984829584,277.40946870909374,116.29757323447404
134,7.263660914009157,-263.9051661442493,-83.65846955034792,-81.21791795472703,-84.38701087981644,0.29822440232114433,276.9890486365787,113.25981464579172
135,7.695905121332347,-263.417695245488,-83.62409737090678,-79.10876508968629,-81.70185437365508,-0.3226815041775177,276.5271668666664,110.36521512512051
136,8.119315007032883,-262.9017614015761,-83.5549483305769,-77.27047591516235,-78.60967274847498,-1.067837783939683,276.0276080410116,107.62375874413891
137,8.529222365382486,-262.36129944328394,-83.45349981678811,-75.70776400499028,-75.15855724906842,-1.8838454359031105,275.494711041992,105.04697844689278
138,8.921401795223236,-261.800716555127,-83.32237458047857,-74.4253756623159,-71.39809178091107,-2.7192456219627843,274.93332964699505,102.64783602869089
139,9.292115297464521,-261.2248513614796,-83.16430216973436,-73.42797788433045,-67.37872738751261,-3.5260214189512715,274.34878110594,100.44054097876592
140,9.638145125991667,-260.6389196874134,-82.98207635410508,-72.71999293821962,-63.151166986468965,-4.260898625262246,273.7467805460463,98.44028997877845
141,9.956816518746967,-260.04844503237354,-82.77851099556216,-72.30537276612637,-58.76575371340126,-4.88641072188128,273.1333601935991,96.66291950280936
142,10.246011349296678,-259.459173276833,-82.55639703749748,-72.18731581454338,-54.271859882570816,-5.371704304437452,272.5147738493527,95.12447514710894
143,10.504173298347323,-258.87697280674615,-82.31846335398726,-72.36793697507026,-49.71727651139484,-5.6930725733767105,271.8973886342961,93.84071079375762
144,10.730304874709748,-258.30772278694883,-82.06734403677389,-72.84790705005588,-45.1476054134922,-5.834215596168623,271.28756742364516,92.82653752340234
145,10.923956356963393,-257.7571934896251,-81.80555422414277,-73.62608172008805,-40.605657488212685,-5.786236959596778,270.69154634146275,92.09544670403507
146,11.085206386938772,-257.23092330023917,-81.53547585703444,-74.6991422153731,-36.13086273355384,-5.547396687883531,270.1153121289893,91.65893477681387
147,11.21463363715702,-256.7340973533126,-81.2593539379914,-76.06127135661337,-31.75870013595486,-5.122649158724428,269.56448424632464,91.52595939978164
148,11.313278933603423,-256.27143284970833,-80.97930307593614,-77.70388930187967,-27.52015889400978,-4.523001509918697,269.04420641021665,91.70245756137861
149,11.382597626918253,-255.8470761453264,-80.69732332838211,-79.61547278471359,-23.441246032100373,-3.764732408051074,268.5590520828196,92.19095545631752
150,11.424402860678258,-255.46451673701668,-80.41532357475688,-81.78147934180348,-19.542558999320185,-2.8685132009240966,268.1129482563341,92.99029681977886
151,11.440801458289151,-255.1265231234113,-80.13514992832194,-84.1843935508022,-15.838945169691758,-1.8584737431338563,267.7091215601429,94.09551074437734
152,11.434125143933544,-254.83510485716803,-79.85861618755298,-86.80390535191711,-12.33927306148483,-0.7612538349042056,267.35006997169086,95.49783164008468
153,11.40686053434481,-254.59150373555102,-79.58753319169026,-89.61722122841581,-9.046341914829455,0.3949216761712868,267.03756208949983,97.18487310829546
154,11.361581704433895,-254.3962150785591,-79.32373417509498,-92.59949799025345,-5.956955813092358,1.5811106207683228,266.772664098693,99.14094480188247
155,11.300889121034128,-254.24903765165107,-79.06909366024875,-95.72437711463225,-3.062184617689568,2.7684369429445357,266.55579240381286,101.34748820023613
156,11.227358397737802,-254.14914820996805,-78.82553794262073,-98.96458624287928,-0.3478262097471317,3.928770973569291,266.38678757580703,103.78359539584392
157,11.143501684195627,-254.09519404937151,-78.59504582074796,-102.29256501574872,2.2049263605342757,5.035297220801128,266.2650029375122,106.42656616604157
158,11.051743491158778,-254.08539467601545,-78.37963908117813,-105.68106679946466,4.618621739173668,6.06297009855061,266.1893991598439,109.25245422194374
159,10.954411269275306,-254.1176423125802,-78.18136342906509,-109.1036879255637,6.918512844704467,6.988866674521175,266.15863521263327,112.236554836416
160,10.853739179245778,-254.1895910035982,-78.00226179499462,-112.5352832114796,9.13137914506123,7.792452044042883,266.17114636428056,115.35379403480167
161,10.751881529358151,-254.2987257990449,-77.84434275345004,-115.95224082893317,11.28425408160871,8.455776612600497,266.22520174253043,118.5789942422753
162,10.65093078031437,-254.44240669141055,-77.7095468640217,-119.33260927920658,13.403113003852548,8.96362506996503,266.31893700098794,121.88701105349574
163,10.552934265914026,-254.6178860743889,-77.59971327497041,-122.65609081956114,15.511584014140054,9.303634333567482,266.4503613939093,125.25275717798706
164,10.459904070700409,-254.82230261252533,-77.51654830173914,-125.90393485567864,17.629746801701767,9.466392945975192,266.61734233719363,128.65114835670363
165,10.37381575720237,-255.05265771656624,-77.46159707914232,-129.05877775644151,19.773082036064363,9.44552841907519,266.81757356877074,132.05701845160013
166,10.29659352767099,-255.30578288079045,-77.43621875154827,-132.10447999873372,21.95162635206054,9.237782975483974,267.0485348887651,135.44505490829786
167,10.230081539706765,-255.5783069914522,-77.44156505992842,-135.02600724655778,24.16937636462896,8.843072967500483,267.30745219016114,138.78980125689878
168,10.176003124152459,-255.86663253864225,-77.47856177187091,-137.8093904384507,26.423970907981086,8.264523478999308,267.59126628590957,142.0657617544293
169,10.135911308083656,-256.16692855217576,-77.54789229950825,-140.44178387360242,28.706665307610677,7.5084674011870804,267.89661801216306,145.24762717066707
170,10.11113512953821,-256.47514613301126,-77.64998305414144,-142.91162266413863,31.00259628458793,6.584397620634291,268.21985532412555,148.31062285840454
171,10.102726679450683,-256.7870599081887,-77.78499047032787,-145.20886444418122,33.29132199067225,5.50486181894177,268.55706579451856,151.23096317911867
172,10.111413711150876,-257.0983359437865,-77.95279001376414,-147.32528689740874,35.547609227792655,4.28529160656398,268.90413535432776,153.98638208214484
173,10.137562172524042,-257.4046239277886,-78.15296770863546,-149.2548037104499,37.74242945984152,2.943761003781099,269.2568315487946,156.5566994815988
174,10.181152251125834,-257.70166903179677,-78.38481472776313,-150.99375747442957,39.84411705377138,1.5006732660774225,269.6109072467593,158.92437765899575
175,10.24177052219462,-257.9854369215771,-78.64732550892285,-152.5411487526232,41.81963747768036,-0.021620663648204353,269.9622188164163,161.0750212699444
176,10.318619603232282,-258.25224391468663,-78.93919991785219,-153.89876556798853,43.6359100069529,-1.599264603216025,270.30685133610814,162.99777831848436
177,10.41054548002402,-258.49888324245234,-79.25885022686302,-155.07118630777083,45.26112890799722,-3.2073892532094352,270.64124242976123,164.68560717892595
178,10.516081524288117,-258.7227378756922,-79.60441389826444,-156.06564061781089,46.66602924634362,-4.820639662352981,270.96229585065333,166.13538570005178
179,10.63350716189795,-258.9218706768132,-79.97377310115351,-156.8917260336885,47.82504854653991,-6.413721337965751,271.26747615804214,167.347851596895
180,10.760918018157106,-259.095083919299,-80.36458152433921,-157.56099137673988,48.71734331146781,-7.961946707462782,271.55487689481737,168.32737735337741
181,10.896303150009626,-259.2419423852327,-80.77429856851494,-158.08640989631004,49.32762910134542,-9.441762848816882,271.8232565559108,169.08159621603872
182,11.037624000470453,-259.3627570292955,-81.20023059779429,-158.4817747025901,49.646823236195225,-10.831241472687722,272.0720391305462,169.6209072121927
183,11.182889416591028,-259.4585292762153,-81.63957862198448,-158.7610556545168,49.672478968482096,-12.110513140485638,272.30127883212907,169.9578955750141
184,11.330221603869449,-259.530859140997,-82.08949141865513,-158.9377604264219,49.40900834905541,-13.262129795801046,272.5115915160309,170.10671014846164
185,11.477909014566029,-259.5818232647961,-82.54712251919051,-159.02434307345803,48.86769768747961,-14.27134300548837,272.70405792085944,170.08244131287222
186,11.624443554410473,-259.61383136212845,-83.00968864155499,-159.03170115564694,48.06652450326651,-15.126289762353295,272.8801059612911,169.90054184956423
187,11.768540948814342,-259.6294712347624,-83.47452621279646,-158.9687973531328,47.02978826487316,-15.818082875252202,273.04138065766267,169.5763289480306
188,11.909144548251561,-259.63135323701465,-83.93914190177789,-158.8424333806557,45.78756922212777,-16.3408082065375,273.18961082342236,169.12459812588932
189,12.045414165284882,-259.62196479587675,-84.40125294965958,-158.65719289983215,44.37503079728044,-16.691435623398807,273.32648138093947,168.55936928059742
190,12.176702556827198,-259.603544447288,-84.85881377290956,-158.4155566499115,42.831582227015744,-16.869654037372033,273.4535193476211,167.8937722411864
191,12.30252272472937,-259.5779831754403,-85.31002675982951,-158.11817859387995,41.199920428434844,-16.877643237127195,273.5720004171353,167.14006568725418
192,12.422509248042495,-259.5467588671495,-85.75333710121093,-157.76429840112118,39.52497399868041,-16.719796657013138,273.68288178843403,166.30977114830546
193,12.536376500624248,-259.5109074032578,-86.18741348634042,-157.35225485541812,37.85277773209071,-16.40241019070358,273.7867653350553,165.41389464803942
194,12.643876050139633,-259.47103122926234,-86.61111808188843,-156.8800580829884,36.229312147795646,-15.933352987569261,273.8838931432701,164.46320333965858
195,12.744754959059154,-259.4273433323429,-87.02347002610139,-156.3459764379905,34.699347847110154,-15.32173697098085,273.97417491270477,163.46852333970855
196,12.838716293776162,-259.37974180727684,-87.42360669498996,-155.74909623833406,33.30533763886404,-14.577602433617253,274.05724409175525,162.44102737412763
197,12.92538304981715,-259.3279079951398,-87.81074652276308,-155.08981824552038,32.086399347742,-13.711637065871189,274.13253736991453,161.39248568378954
198,13.004266911401977,-259.27141963383565,-88.184156494127,-154.37026220269138,31.077428856838303,-12.734944558356235,274.1993904714307,160.33545945172577
199,13.074743575828634,-259.20986948750016,-88.54312668293049,-153.5945583508464,30.308376676421172,-11.658875967654506,274.2571420396708,159.28342155984728
200,13.136036538253178,-259.14297951099053,-88.88695336218375,-152.76901185382437,29.8037129565043,-10.494932214442574,274.3052367384771,158.2507942438492
201,13.187211114842846,-259.07070091071495,-89.21493128755068,-151.90213261141855,29.582096138451092,-9.25473976454994,274.3433186769768,157.25289750535495
202,13.227180074678206,-258.99329164321097,-89.5263549256132,-151.00452967735794,29.65624989962846,-7.950094458271473,274.3713070909379,156.3058066965111
203,13.254721590245909,-258.9113649352943,-89.82052781657092,-150.08867706928763,30.033042020617334,-6.593061555734102,274.3894479263379,155.42612317347113
204,13.268509327021734,-258.82590512043674,-90.0967789372218,-149.1685664368583,30.71374774822814,-5.196114456478354,274.3983373900845,154.63066858980062
205,13.26715346078807,-258.7382501242629,-90.35448475670243,-148.25927143837959,31.694470010974214,-3.772291162052255,274.3989163055101,153.93612089691382
206,13.249250489980197,-258.6500428432011,-90.59309551948485,-147.37645742296112,32.96668074544435,-2.3353465806615596,274.3924367727288,153.35861721929103
207,13.213439182418217,-258.5631560441312,-90.81216404215634,-146.53587602518257,34.51784288380712,-0.8998795387999727,274.38040478457935,152.91335362413668
208,13.158459890011375,-258.4795971056835,-91.01137501313681,-145.75288553193846,36.332071844585755,0.5185849975905671,274.3645039480711,152.61421268079906
209,13.083214575178207,-258.40139995529466,-91.19057269636687,-145.04203341811717,38.3907981388945,1.9035756929001904,274.3465064167769,152.47344580502525
210,12.986825063120799,-258.33051197301813,-91.34978532439403,-144.41672784793724,40.67339754010907,3.237730419647733,274.3281776736305,152.5014291689766
211,12.86868723316529,-258.2686834152179,-91.48924525985558,-143.88901209091836,43.1577608291689,4.502936593575745,274.3111818768353,152.70650103581406
212,12.728519054610505,-258.21736608239297,-91.60940482006556,-143.4694422261456,45.82078104702736,5.680558965558344,274.2969939853242,153.09487709156852
213,12.566400530141411,-258.1776266871927,-91.71094812792794,-143.16705661194752,48.63874299879912,6.751750542728651,274.2868238512414,153.6706311212931
214,12.382803809906978,-258.15007893785224,-91.79479934870457,-142.98941712223655,51.587607955566874,7.697835429946331,274.2815561190127,154.43572293031445
215,12.178612134152292,-258.1348369533483,-91.86212726397244,-142.9426978512026,54.6431956342216,8.500746683137871,274.28170833696436,155.3900541787252
216,11.955126935064277,-258.13149137316657,-91.91434551552359,-143.03179655084926,57.78127425697965,9.143498586344071,274.2874083350376,156.53153492714912
217,11.714063251950796,-258.1391084699015,-91.95310733165543,-143.26044640090356,60.97757648952994,9.61067137267382,274.29839079718585,157.85614770152702
218,11.457534280981019,-258.1562517552484,-91.98029340808432,-143.63130956153998,64.20776382604312,9.88888690230049,274.31401217405687,159.3580004854711
219,11.188026153270735,-258.18102496571953,-91.99799191765861,-144.14603837208207,67.44736471700983,9.967255454229113,274.33328262780145,161.0293644764065
220,10.908363942293313,-258.2111348221882,-92.00847020495641,-144.80529440860894,70.67171266771767,9.837775956670878,274.354913428557,162.8606962194929
221,10.621669663333522,-258.2439714510271,-92.01413835321557,-145.60871948152666,73.8559095977032,9.495674304674383,274.37737794567596,164.84064643351604
222,10.331312838066173,-258.27670373065314,-92.01750534453627,-146.55485589915216,76.97483662144005,8.939666720588283,274.3989839576975,166.95605920542846
223,10.04085412291783,-258.3063860550267,-92.0211289763755,-147.64101619163569,80.00322883562241,8.17213737563041,274.4179544195768,169.1919653923458
224,9.753982545844638,-258.3300721935728,-92.0275611316365,-148.86310547311842,82.91582291706064,7.199221777595052,274.43251320455283,171.53157356785135
225,9.47444707980899,-258.3449312919958,-92.03929040731707,-150.21540312715408,85.68757733406672,6.030789834075117,274.4409718797305,173.95626138630675
226,9.205983603871152,-258.348360774303,-92.05868432665778,-151.6903146014513,88.29395628217758,4.680325151784566,274.44181338808164,176.44557040057174
227,8.95223870848838,-258.3380910109874,-92.08793327123969,-153.2781084610354,90.71126155752005,3.1647002723203124,274.43376858804754,178.97720841832378
228,8.716692197703216,-258.3122770609742,-92.12899795243666,-154.9666578464015,92.91699239590397,1.5038514638939793,274.4158819211191,181.52706529609648
229,8.50258043927638,-258.2695734890623,-92.18356190750522,-156.7412084294587,94.89021204761674,-0.27963857875253034,274.387563023902,184.0692502483133
230,8.312822875014781,-258.2091890970429,-92.25299028845653,-158.58419636661287,96.61190122826667,-2.1610367213177075,274.3486218146659,186.57616082768718
231,8.149954066234654,-258.1309193168614,-92.33829609335513,-160.4751394160753,98.06528200068816,-4.114016150842007,274.2992853959028,189.0185953158489
232,8.016063670009098,-258.0351550199663,-92.44011494045601,-162.39062230787505,99.23610034498184,-6.111252776804261,274.240196037415,191.36592099311576
233,7.912746677294725,-257.92286762807186,-92.55868953745585,-164.30439371942657,100.11286081252238,-8.125038507095487,274.17239057726,193.58631029613736
234,7.841065961543079,-257.79557162187643,-92.69386509410947,-166.1875870291395,100.68701141806687,-10.127888547514106,274.09726273579054,195.64705499036052
235,7.801528642159988,-257.6552667643317,-92.84509683551035,-168.00907076410155,100.95308064554614,-12.093121187109858,274.0165109356011,197.51496515129875
236,7.794077103521363,-257.504363507807,-93.01147026859338,-169.7359277689952,100.90877070033447,-13.995391072558549,273.9320751141253,199.1568551133595
237,7.818094921929394,-257.34559599140556,-93.19173394739066,-171.3340549746495,100.55501174909455,-15.811160449442859,273.84606657472943,200.54011282198312
238,7.872427515026117,-257.18192757137615,-93.38434342177747,-172.7688684632301,99.895980886957,-17.519096813218155,273.76069505655903,201.63334241838385
239,7.955416962636543,-257.0164538892845,-93.58751407536619,-174.0060914605845,98.9390872052416,-19.10038943251158,273.67819691835297,202.40706264039764
240,8.064950000136578,-256.8523081468352,-93.79927972296446,-175.0125961591687,97.69492106720477,-20.538981009442953,273.6007677168414,202.83443616726143
241,8.19851757439656,-256.6925726524222,-94.01755318564452,-175.75726432895803,96.17716223854462,-21.821714172184123,273.53050165066173,202.8919981021817
242,8.353283694958273,-256.54019990214204,-94.24018477580977,-176.21182721341415,94.40243871630732,-22.938395430303487,273.46933946940663,202.56034639516452
243,8.526160835706877,-256.3979454430696,-94.46501492550918,-176.35164313121234,92.39012672927929,-23.88178161312457,273.4190255859064,201.82475431219916
244,8.713888943964799,-256.26831353712254,-94.68991811371504,-176.156372384196,90.16208290084398,-24.647495733072514,273.381074293553,200.67566604556822
245,8.913115101831037,-256.153515351284,-94.9128365897411,-175.61051397348356,87.74230200443641,-25.233880814253304,273.3567442476655,199.109041676364
246,9.120470962510046,-256.0554383477675,-95.1318038573672,-174.7037769858542,85.15649779317648,-25.641801609874392,273.34701989705394,197.12652658571753
247,9.332645288244716,-255.97562497944668,-95.34495923973893,-173.43127040638402,82.43160959006141,-25.87440532358628,273.3525984937183,194.73543204814766
248,9.546449312849717,-255.91525871425017,-95.55055590616257,-171.79350736116655,79.59524322503295,-25.936853399053533,273.37388160671213,191.94852687972238
249,9.758873195195656,-255.8751556469166,-95.74696535909833,-169.7962322557616,76.67506105970101,-25.836037049354594,273.41097050901885,188.78365344247305
250,9.967132377408827,-255.85576033943963,-95.93268148818403,-167.4500907850718,73.69814176553791,-25.580289307298578,273.46366521045667,185.26319376101165
251,10.1687031184363,-255.85714496911945,-96.10632693988676,-164.77017203465377,70.69033562885166,-25.179105800101038,273.53146720044515,181.41342154227837
252,10.36134692172732,-255.87901131138707,-96.2666638351578,-161.77545763297283,67.67564470621991,-24.64288508422067,273.6135861432048,177.2637820774357
253,10.543124198049513,-255.92069549330122,-96.41260992914462,-158.4882144640751,64.67565831365506,-23.982697323655245,273.7089508422133,172.84614341450774
254,10.712398320027363,-255.98117572685973,-96.54326028598284,-154.9333649580342,61.7090724713677,-23.21008764812308,273.8162247185227,168.1940587650732
255,10.867831968392345,-256.05908327007086,-96.65791358816493,-151.13786336292836,58.79131701765965,-22.33691801159859,273.9338257764132,163.34207275876682
256,11.008378023551133,-256.15271667228734,-96.75610148523788,-147.13009922390188,55.93430685726022,-21.375248999158668,274.05995061084866,158.3250946573186
257,11.133267163544486,-256.2600590931943,-96.83761900575846,-142.9393425084973,53.146325385528534,-20.337260840197576,274.1926016212493,153.1778522605037
258,11.241993992616367,-256.37879835736067,-96.90255387980638,-138.595240153824,50.432039745089,-19.23521078266132,274.3296163998918,147.9344330079843
259,11.334303117813311,-256.5063495370852,-96.9513123776195,-134.12737198299322,47.792640224149615,-18.08142184194103,274.46869828363157,142.627914659775
260,11.410176118321363,-256.6398802057256,-96.9846388867512,-129.56487432609552,45.226090423537045,-16.888295717679974,274.6074472299714,137.2900864958967
261,11.469819801759536,-256.7763389548811,-97.00362618930914,-124.93614070806203,42.727470951384156,-15.668340477251613,274.74339048550314,131.9512617565599
262,11.513655598862128,-256.9124882100633,-97.00971361433868,-120.26860883820375,40.28939710758448,-14.434201711859401,274.87401298028857,126.64018131162241
263,11.542309494060072,-257.0449427060486,-97.00467105345459,-115.58864059970907,37.90248998938372,-13.198684688133348,274.9967879569113,121.38400610089333
264,11.55660154671274,-257.17021510005856,-96.99056808123675,-110.92149656435836,35.555880568651524,-11.97475493928122,275.1092088851012,116.20839156374517
265,11.557533888111973,-257.2847700454129,-96.96972877801322,-106.29139952414886,33.23772753284903,-10.775505965225324,275.2088240465154,111.13763184524775
266,11.546276191790959,-257.3850875616324,-96.94467391437342,-101.72167394915509,30.935731865920474,-9.614085172412068,275.29327510750784,106.19485616407744
267,11.5241480103538,-257.4677356675848,-96.91805268825014,-97.23494144276482,28.637633904734347,-8.503572593095592,275.3603403976791,101.4022553348222
268,11.492597863523935,-257.529451081725,-96.89256634835893,-92.85334709720539,26.33168150844848,-7.456810890826828,275.40798260361845,96.78131364248475
269,11.453179292367182,-257.5672256450216,-96.87088614790443,-88.59878865259877,24.007060593712264,-6.486189354913335,275.43439957156045,92.35302030015387
270,11.407524137217575,-257.5783953375378,-96.85556832350677,-84.49311972406167,21.654281276259475,-5.6033888223776485,275.43807627166524,88.13803561922427
271,11.35731314408238,-257.56072849115554,-96.84896910441347,-80.55830002159686,19.265514185151,-4.8190985427763415,275.4178358275709,84.15678970386266
272,11.304243852554114,-257.51250994746454,-96.85316299777361,-76.8164690480468,16.834872572359405,-4.142719505254625,275.37288772713976,80.4294956496656
273,11.249995694086223,-257.4326182227034,-96.86986766116664,-73.28992456399487,14.358637140416489,-3.582071118633312,275.30287164092977,76.97606435524891
274,11.196192360248995,-257.32059298488645,-96.9003784495129,-70.00099259716292,11.835422179270267,-3.1431190132109603,275.2078954257689,73.81591364005423
275,11.14436179534346,-257.17669021627825,-96.94551519940656,-66.971781758023,9.266283277824826,-2.8297411837118207,275.0885657806627,70.96767017125973
276,11.095894642316594,-257.0019223443613,-97.00558318751978,-64.22382120688151,6.654768146933348,-2.643548051681745,274.946009736821,68.4487687966493
277,11.052002577184359,-256.79808045577454,-97.08034972699471,-61.777588977067545,4.006912920730266,-2.5837695705854893,274.78188486385835,66.27496046380705
278,11.013678544563632,-256.5677355988062,-97.16903761523741,-59.65194556948269,1.3311869473580973,-2.6472193285298986,274.59837590693155,64.4597471347027
279,10.981661269290797,-256.31421632661477,-97.27033644661229,-57.86349660823034,-1.3616102804082346,-2.8283417593540463,274.39817565105034,63.013769854865984
280,10.95640648283828,-256.0415602175087,-97.38243238973031,-56.425917280805585,-4.058495833856377,-3.1193441632436514,274.1844482142878,61.944183822481946
281,10.938067076991747,-255.75443822636802,-97.50305625616448,-55.34927919781883,-6.744489163319187,-3.510410506269504,273.96077374037964,61.25406084293128
282,10.926483912869822,-255.4580523514371,-97.62954864760846,-54.639425722373446,-9.402832606552293,-3.9899892911967063,273.7310746057277,60.94186350572704
283,10.921188364256885,-255.15800906185373,-97.75893989854353,-54.29744313576929,-12.015242864353636,-4.545143622079977,273.49952469135326,61.00103532244521
284,10.921417030152023,-254.86017286093798,-97.88804164827775,-54.31927098055787,-14.562191008089062,-5.1619483264077,273.270444739367,61.419746001776645
285,10.92613851442784,-254.57050583096395,-98.01354633419265,-54.695485273993135,-17.023210267084824,-5.825916849325965,273.0481879750935,62.180821156917105
286,10.934091691010263,-254.29489975234043,-98.13213080400095,-55.4112741130808,-19.37723236099524,-6.52243947803004,272.8370208206136,63.26187226115971
287,10.943834382540134,-254.0390074401328,-98.24056060954638,-56.44660889313929,-21.60295368088294,-7.237213919696937,272.64100368058547,64.63562742427824
288,10.953800893268028,-253.80807948415097,-98.33579222848942,-57.776598933596226,-23.67923142041835,-7.956649020065058,272.46387657606977,66.2704485740692
289,10.962366371963675,-253.60681177867366,-98.41507120837387,-59.372005272871746,-25.585506527044707,-8.668222541062253,272.30895389934295,68.13100783647512
290,10.967915536740078,-253.43920825569688,-98.47602476444699,-61.19988201914687,-27.30224555235595,-9.360774886613118,272.17903182411925,70.17908681642825
291,10.968912935033869,-253.30846237259533,-98.51674748590182,-63.22431091443176,-28.811388242275964,-10.024722982468152,272.0763111228592,72.37445777601381
292,10.963971726798123,-253.2168603893435,-98.535878487408,-65.40719588444516,-30.096783308963555,-10.652182382505154,272.0023375296408,74.67580520572254
293,10.951917966303748,-253.1657093013476,-98.53266776639127,-67.70908810974076,-31.14459225718192,-11.236990973694514,271.9579614069098,77.04164919069501
294,10.931847482120537,-253.15529232074795,-98.50702894698925,-70.09001718694577,-31.94364088998728,-11.774634095532392,271.94331827734044,79.43123718328651
295,10.903172735181162,-253.18485484925296,-98.45957515031422,-72.51030889323872,-32.485700282763474,-12.26207808408522,271.95783165998563,81.80537715162205
296,10.865657473479375,-253.252623681305,-98.39163444874488,-74.93137376948273,-32.7656834373292,-12.697526626103645,272.0002393535484,84.12719151508695
297,10.819437535262574,-253.35586135396485,-98.30524133299097,-77.31645242599201,-32.78175010599186,-13.080120997287315,272.0686435358509,86.36277685756707
298,10.765026749598395,-253.4909559763137,-98.20310113247305,-79.63130298296919,-32.53531964943248,-13.409610154892022,272.16058377494454,88.48175840851953
299,10.703307564699466,-253.65354476783403,-98.08852564325328,-81.8448139866959,-32.03099917739226,-13.686018809897375,272.27313059956316,90.45773046035636
300,10.635506744697594,-253.83866729256985,-97.96534021716077,-83.92952371916249,-31.27644045931786,-13.909340701549985,272.402995960001,92.26857466574107
301,10.563157069147886,-254.0409422575555,-97.83776477774732,-85.8620254730331,-30.28214325867865,-14.079280757303268,272.54665577992427,93.89664850122583
302,10.488046383129507,-254.2547599591011,-97.7102731835761,-87.62323930581873,-29.061224317650428,-14.195064483731645,272.7004788654189,95.32883728076962
303,10.41215567033195,-254.47448125646824,-97.58743683933052,-89.19853467925077,-27.6291701014838,-14.255326682905187,272.8608558513528,96.55646589828238
304,10.337588141577267,-254.69463346517782,-97.47375949139514,-90.5776951275288,-26.00358793728044,-14.258085149105023,273.0243217712372,97.57507127311526
305,10.26649160429272,-254.91009369549408,-97.37351087240899,-91.75472490254657,-24.203965126805873,-14.20079886098283,273.18766619901356,98.38404288722711
306,10.200976551023851,-255.11625075517293,-97.29056732291241,-92.72750737435182,-22.251440059809553,-14.080504606325036,273.3480256001324,98.98614612222208
307,10.14303254217686,-255.30913777381207,-97.2282675848757,-93.49733484140346,-20.168584359186834,-13.894021094950492,273.5029534919601,99.38695057847866
308,10.09444565790247,-255.4855293212773,-97.18929141040876,-94.06833842118559,-17.979191388235023,-13.638205544544762,273.65046531023796,99.59419243045254
309,10.056720043312962,-255.64299914229798,-97.17556729101345,-94.4468539595297,-15.708064370176539,-13.310244621131059,273.7890566156711,99.61710535544907
310,10.031006766441598,-255.77993766223742,-97.18821356298504,-94.64076462092055,-13.380796870975376,-12.907959694086184,273.9176954380619,99.4657579425022
311,10.018043256948287,-255.89553163953477,-97.22751481850108,-94.65886239457585,-11.023539178071035,-12.430105825204809,274.0357918117894,99.15043617666015
312,10.018106424419354,-255.98971101100156,-97.2929334311793,-94.5102688223847,-8.662745778498866,-11.87664480920471,274.14314934624576,98.6811072609714
313,10.030982095063543,-256.06306965936176,-97.38315417001287,-94.20394985706537,-6.324901363960665,-11.248974785760353,274.23990459729913,98.06699568783593
314,10.055952644410832,-256.1167675561916,-97.49615817272915,-93.74835137644203,-4.036225334064934,-10.550102195708078,274.3264600437081,97.31629451369189
315,10.091803770583859,-256.15242170716056,-97.62932106911644,-93.15117130281611,-1.8223574755668803,-9.784745828313406,274.4034158727731,96.4360248878844
316,10.13685044475547,-256.17199273023033,-97.77952906124362,-92.41927241567707,0.2919697941075148,-8.959366990292535,274.4715048192894,95.43204575969553
317,10.188981277674499,-256.17767288752594,-97.94330634085438,-91.5587278472307,2.2832647899547305,-8.082123996133404,274.53153315261454,94.30920416565871
318,10.245719787443056,-256.1717801591774,-98.11694718870064,-90.57498015773939,4.1296059136365795,-7.16275295909722,274.5843296894604,93.0716056719657
319,10.304300306284295,-256.1566617052711,-98.2966463928443,-89.47308609149471,5.810956544265373,-6.212380174472401,274.63070360559607,91.72297568303247
320,10.361755632877939,-256.1346089117941,-98.47862239273455,-88.25801362656127,7.309455100322324,-5.243274228165032,274.6714109878381,90.267076522942
321,10.415013132763175,-256.1077851147133,-98.65922887025677,-86.93495621306994,8.609670595275553,-4.268548321119291,274.7071295001555,88.70814301788708
322,10.460995763585547,-256.0781660665915,-98.8350520375117,-85.5096309730469,9.698814876182505,-3.3018251548732453,274.7384401293148,87.05130066315496
323,10.496724362720272,-256.04749244576436,-99.00299205810222,-83.98853243728634,10.566903516090997,-2.3568780222650334,274.7658146902815,85.30293473160052
324,10.519417519299038,-256.0172333633585,-99.16032765071584,-82.37912020744713,11.206858032091827,-1.4472623553568635,274.78960766459124,83.47098500533818
325,10.526585524303039,-255.9885598604416,-99.30476326148806,-80.68992682637708,11.614542952640177,-0.5859517680269808,274.81005109559646,81.56514831674049
326,10.516115171441044,-255.96232767944707,-99.43445868501973,-78.93058029972872,11.788732588956922,0.21500836846521204,274.8272517125665,79.59697902402618
327,10.486342443744,-255.93906903376265,-99.5480417408964,-77.11174347529115,11.7310044583288,0.9448183334591024,274.84119012724653,77.57988533647102
328,10.436110378339372,-255.9189935589124,-99.64460529582773,-75.24497931638886,11.44555928360766,1.5942028338983754,274.8517226227692,75.52902656908714
329,10.364809787011096,-255.90199890891108,-99.72369030820256,-73.34255649461441,10.938971252668168,2.1556436102175325,274.8585864637956,73.46112246132469
330,10.272401160380985,-255.8876913920654,-99.78525668498244,-71.41721316682681,10.219876455019264,2.623560574153443,274.86140965410436,71.39419009651937
331,10.15941704274638,-255.8754166398689,-99.82964377326084,-69.4818979502937,9.298611709089718,2.994438459334483,274.85972574236956,69.3472262722896
332,10.026945288678146,-255.86429975211922,-99.85752240657088,-67.54950601531786,8.1868199800849,3.266897983763783,274.85299384405147,67.33985331045851
333,9.876594601526183,-255.85329379680914,-99.86984059114593,-65.632625340327,6.897041936642556,3.4417119818016797,274.84062362083955,65.39194458272706
334,9.710444378763732,-255.8412349549606,-99.86776503853271,-63.743304264719036,5.442315446999276,3.5217678037068265,274.8220044791243,63.523243093211
335,9.530981182195347,-255.82690198328245,-99.8526207492065,-61.892847424008515,3.835805310291073,3.5119777700685186,274.796537683252,61.752983147533975
336,9.341024334500066,-255.80907717109892,-99.82583080390857,-60.091643837738886,2.0904836797742132,3.4191400049187264,274.7636696043711,60.099522402036776
337,9.143643384377729,-255.78660578817957,-99.78885853707455,-58.34902891601486,0.21887742159275128,3.2517527955463845,274.72292417151914,58.57999015997849
338,8.942070449716857,-255.7584511970582,-99.74315427583055,-56.67318146880934,-1.7671072809680195,3.0197867195380184,274.6739327683827,57.20995779290044
339,8.739610603826522,-255.7237432379311,-99.69010862153901,-55.071056931611835,-3.8562793800726403,2.734419990974471,274.6164601549856,56.00313808619931
340,8.539553455913538,-255.68181809483127,-99.63101375366597,-53.548358257444704,-6.038179139193691,2.40774366058328,274.5504253739735,54.971121334315875
341,8.345088949364406,-255.6322485318874,-99.56703357971432,-52.1095457290315,-8.303024266327476,2.0524443128388814,274.4759169946361,54.123156501828205
342,8.159230183638812,-255.5748639823718,-99.4991829171138,-50.75788609255238,-10.641598719267959,1.6814725881905457,274.39320236441796,53.465985414103585
343,7.984745682971505,-255.5097603346575,-99.42831539530452,-49.495539958133655,-13.045100032735311,1.3077061390016278,274.3027306830432,53.00373671308576
344,7.824102944058781,-255.43729944964787,-99.35511948030154,-48.32368454183699,-15.504962552238528,0.9436155275777129,274.2051297707584,52.737884326205005
345,7.6794243802735025,-255.3580986740309,-99.28012191046544,-47.24266674819281,-18.01267381017275,0.6009412090357822,274.101196554264,52.667272624472496
346,7.552456065138627,-255.2730109769509,-99.20369772622442,-46.252179549659196,-20.55959969753523,0.29038929327997903,273.991881573532,52.78820755100844
347,7.44454901307889,-255.18309672532484,-99.12608586595918,-45.35145292091666,-23.13683164429282,0.02135340917017986,273.87826807894345,53.09461016596914
348,7.356652131967116,-255.0895883834965,-99.04740907295219,-44.539449511353624,-25.735066372768454,-0.19833029591665183,273.76154644066446,53.57822664761895
349,7.289315508876229,-254.99384954775644,-98.96769681365608,-43.815054886943656,-28.344526324103416,-0.36258832343155306,273.6429846782309,54.22888697037354
350,7.242702475155757,-254.8973297797282,-98.88691015800391,-43.177252479586386,-30.95492655733077,-0.46726892063702774,273.5238960516544,55.03480317229862
351,7.216609011921844,-254.80151679245688,-98.80496802435728,-42.625274265589084,-33.55549148557031,-0.5102494615578206,273.4056049047799,55.98289716544427
352,7.2104894212975355,-254.70788772647327,-98.72177460107048,-42.15871964839676,-36.135021946623745,-0.49148729671237695,273.28941227951174,57.059147341600536
353,7.2234876239245525,-254.6178614735535,-98.63724791936365,-41.77763708743028,-38.68200969431795,-0.4130105564571766,273.1765630934683,58.24894279473661
354,7.254473812192025,-254.53275415323304,-98.55134942892455,-41.48256563428046,-41.18479253928149,-0.278847273806418,273.0682167728094,59.5374338004343
355,7.302086393903048,-254.45373986959356,-98.46411409096179,-41.27453637826766,-43.631739346962384,-0.09489349606312572,272.9654231324763,60.90986707782902
356,7.3647790599031895,-254.38181875495226,-98.37568002884211,-41.15503632830351,-46.01145041477616,0.13127650020002318,272.8691050052336,62.351894097374355
357,7.440872278146267,-254.31779398706985,-98.28631621890855,-41.12593900785302,-48.31295612402047,0.3906523810084358,272.7800486043714,63.84984038705864
358,7.5286076270903886,-254.26225894555057,-98.19644614356363,-41.18940682745457,-50.525896026199895,0.6730745369046561,272.6989018928758,65.39092398101151
359,7.62620248320107,-254.21559510208584,-98.10666490550787,-41.347770203610196,-52.640662330060984,0.9675556487051421,272.6261805252282,66.96341259177053
360,7.731902143417785,-254.17798076561837,-98.01774720348013,-41.603387707167485,-54.64849620518525,1.2626255594321178,272.56228044375524,68.55671224162317
361,7.844026727140851,-254.14941035677464,-97.9306439522656,-41.9584906912984,-56.54153168017826,1.546686912312029,272.50749594570317,70.16138476407318
362,7.961010967895106,-254.12972328334018,-97.84646620354957,-42.415015307845394,-58.31278870685344,1.8083685976771116,272.4620418181741,71.76909686097622
363,8.081435860888913,-254.1186407342242,-97.76645619795704,-42.97442484006661,-59.9561225259386,2.0368641843222255,272.42607788881946,73.37250805208627
364,8.204051771450883,-254.11580800894427,-97.69194653990017,-43.63752590108333,-61.466139773163064,2.2222430842624683,272.3997341290006,74.96510805620187
365,8.327792972397742,-254.12083947639152,-97.62430939646924,-44.40428309488327,-62.83809283385254,2.3557232194449402,272.383134297781,76.54101583541335
366,8.451783793405662,-254.1333628483276,-97.56489825632241,-45.27363783988116,-64.06776354586262,2.4298955227989967,272.37641596704117,78.09475313199772
367,8.575336732625027,-254.15305912118492,-97.51498526344348,-46.24333780140455,-65.15134626781725,2.4388927836468017,272.3797446315474,79.62100524040413
368,8.697942985954212,-254.17969442543156,-97.47569753525521,-47.30978363610352,-66.0853391064281,2.378498103244524,272.39331964110914,81.11438132607115
369,8.81925591121172,-254.21314037228134,-97.44795612932707,-48.46789983864362,-66.86645112203782,2.2461914054479424,272.4173701077111,82.56918630736953
370,8.939068059898132,-254.2533804722398,-97.4324213066791,-49.71103688932569,-67.4915329091321,2.04113576728962,272.45213985475,83.9792166477771
371,9.057282618159359,-254.30050174255575,-97.4294473400139,-51.03091274331058,-67.95753813921783,1.7641084270422844,272.49786177968633,85.3375934240633
372,9.17388036592199,-254.35467239904128,-97.43904935025661,-52.41760242979369,-68.26152419699648,1.4173838889389436,272.55472340060237,86.63664717302026
373,9.288883576158723,-254.4161081654676,-97.46088373224795,-53.85958418153317,-68.40070044423705,1.0045784622377805,272.62282657210073,87.86786930766003
374,9.402318633909616,-254.48503096477657,-97.49424293431794,-55.34384828006171,-68.37253226877469,0.5304668892882161,272.70214523681227,89.02194335369508
375,9.514179489899728,-254.56162444115938,-97.53806482052151,-56.856070486549044,-68.17490724847137,0.0007824651216289764,272.79248553852864,90.08886523520476
376,9.624394247423616,-254.64599084645664,-97.59095646531634,-58.38084609091464,-67.80636605850658,-0.5779878503591683,272.89345256982,91.05815531132723
377,9.732797080270059,-254.7381133203074,-97.65123181553571,-59.90197436842729,-67.26639524731995,-1.198802511781519,273.00442740063573,91.9191565726844
378,9.83910721495728,-254.83782659829953,-97.71696211407333,-61.4027778870337,-66.5557722196008,-1.8542493634182116,273.1245568931876,92.6614046345372
379,9.94291595665111,-254.9447979051414,-97.78603739235929,-62.866437774413725,-65.67694540366773,-2.5367074450537954,273.2527573789965,93.27504730060436
380,10.043681951608274,-255.05851848969382,-97.85623685128942,-64.27632536857344,-64.63442539975361,-3.2384822061216343,273.3877318582925,93.75128560840092
381,10.140734321072623,-255.17830511669138,-97.92530560129478,-65.61631265151159,-63.43515676844492,-3.95191239514557,273.5279991700477,94.08280504632518
382,10.233283045211156,-255.30330994490092,-97.99103492993119,-66.87104796671956,-62.088836098201696,-4.669449375182077,273.6719326341293,94.26416536120342
383,10.320435923284796,-255.43253671723022,-98.05134296582528,-68.02618893767081,-60.608141252550546,-5.38371182180327,273.817805082594,94.29212020735898
384,10.401221444755425,-255.56486118017665,-98.10435239452089,-69.06859038033146,-59.008840079123125,-6.087520691204085,273.96383710808993,94.16584378078316
385,10.474616873847584,-255.69905408131487,-98.14846183756076,-69.98645048836048,-57.30975438986307,-6.77392093748035,274.1082457371604,93.88705000410415
386,10.539580750978951,-255.83380572390675,-98.18240764694396,-70.76942282398817,-55.53256573462204,-7.436197517055822,274.24929136581096,93.45999958480151
387,10.595088868173473,-255.96775163394102,-98.20531320518815,-71.40870393932515,-53.701461750248036,-8.067893472024867,274.38532144339536,92.89139972065054
388,10.640172602155106,-256.0994992863198,-98.21672334011183,-71.89710636039639,-51.842633952912934,-8.662837126199411,274.51480993203444,92.19020882754162
389,10.673958324933162,-256.22765603105745,-98.21662206774579,-72.2291242550333,-49.98364845437626,-9.215183670260547,274.6363919581889,91.36736347054324
390,10.695706531152746,-256.35085837029817,-98.20543253337495,-72.40099492657774,-48.15271948773741,-9.719473939850085,274.74889331439016,90.4354464890266
391,10.704849380825296,-256.46780253357366,-98.18399886607382,-72.41075420153011,-46.377921463349814,-10.170710480695682,274.85135458734726,89.40831448616058
392,10.701025529729478,-256.57727585928114,-98.15355079754458,-72.25827888262558,-44.686378293319784,-10.564448532670133,274.94304969749527,88.30070015201666
393,10.68411130306886,-256.6781878942256,-98.11565318741293,-71.94530591980032,-43.103468703903985,-10.896897645601797,275.023498554014,87.12780138850347
394,10.654247340251644,-256.76959954281523,-98.07214379671386,-71.4754169118743,-41.65208316802962,-11.165028312520056,275.0924734232917,85.90486618289239
395,10.611859747187916,-256.8507481958852,-98.02506356264803,-70.8539785714957,-40.35196233672744,-11.366677166980065,275.1499985564214,84.64678072057612
396,10.557674583291465,-256.92106664753925,-97.97658408039952,-70.08803456331647,-39.219139329470416,-11.50064381292303,275.1963426596472,83.36766872116738
397,10.492724291291216,-256.9801938465495,-97.92893684003451,-69.18615046918619,-38.26550016004096,-11.566772177101774,275.2320039483914,82.08051188331775
398,10.418344589188228,-257.02797618765567,-97.88434797967997,-68.15821988071733,-37.49846909399535,-11.566009428177859,275.2576878595645,80.7968034738219
399,10.336160512011116,-257.0644590636459,-97.84498108853748,-67.01524426075935,-36.92081971153533,-11.500436076741286,275.2742780212334,79.5262483602672
400,10.24806073253193,-257.08986952369975,-97.8128892623838,-65.76910139832249,-36.53060832310817,-11.373261918625943,275.28280167993813,78.27652258005394
401,10.156159898358537,-257.1045918165782,-97.78997651238083,-64.43231697019937,-36.321224206235385,-11.188783999818796,275.28439129345054,77.05310395802003
402,10.062749396760136,-257.10913818558066,-97.7779679160392,-63.01785149537236,-36.281550611555765,-10.952304661716447,275.28024431902674,75.85918282331421
403,9.970237678974755,-257.1041175770313,-97.77838752508114,-61.538911592452216,-36.39623102585494,-10.670009798709673,275.27158339412415,74.69565896854209
404,9.8810820256021,-257.0902050296169,-97.79254285002314,-60.00879051203546,-36.64603596775778,-10.348809569312225,275.2596191601773,73.56122773553413
405,9.797714319697208,-257.0681144012434,-97.82151458232633,-58.440738752190484,-37.008325767982676,-9.99614586400983,275.24551784140897,72.45255433134454
406,9.72246387946215,-257.038576643365,-97.86615003786481,-56.8478614851152,-37.45760365532486,-9.61977278158645,275.2303752238056,71.36453106797914
407,9.657480603731393,-257.0023250270615,-97.9270586733429,-55.24303601572588,-37.96615073669002,-9.227518060390937,275.2151978829314,70.29060743285514
408,9.604661634831833,-256.9600876977609,-98.00460807930634,-53.63884014598031,-38.504730363384304,-8.827034649934651,275.20089156338594,69.22317833536404
409,9.56558455753546,-256.91258690440674,-98.09891921798578,-52.04748153208806,-39.04334458314024,-8.425552233833491,275.18825577213045,68.1540121860455
410,9.541449879707402,-256.86054342732746,-98.2098603750076,-50.480718944594194,-39.552020711232366,-8.029638508367412,275.17798312246504,67.07469807258703
411,9.533035131953945,-256.8046842535569,-98.33704017925135,-48.94976855453028,-40.00160224782127,-7.644979523290573,275.17066182538207,65.97709036961932
412,9.540662355023239,-256.74575143584985,-98.47980084223674,-47.46519163230495,-40.364515936786745,-7.276187628498414,275.1667798858857,64.85372965848839
413,9.564180071687238,-256.6845102549465,-98.63721326804485,-46.03676392971724,-40.615486005484726,-6.926644696915398,275.16672988723707,63.69822071482123
414,9.602960144233416,-256.62175519126674,-98.80807584101052,-44.673330961344675,-40.73216771649839,-6.598387288132206,275.1708136366908,62.50555130237741
415,9.65590925558446,-256.55831268879166,-98.99091854351454,-43.38265677226299,-40.69567536885932,-6.292039136696034,275.1792463110161,61.272339276013206
416,9.721494162675137,-256.4950401349744,-99.18401362559901,-42.17127600987813,-40.49098472732767,-6.006794689404856,275.1921599768173,59.99699974870188
417,9.797779412529007,-256.43282082369467,-99.38539342766602,-41.04435983748067,-40.10719627349672,-5.7404554060486985,275.20960644362384,58.67982857777275
418,9.88247594220695,-256.3725549346859,-99.59287530560843,-40.005605313268596,-39.53765317821922,-5.4895183204147635,275.2315594141834,57.32300290705016
419,9.972998876191504,-256.3151467527757,-99.80409309362722,-39.05715552987623,-38.77991576143687,-5.249314118121156,275.25791588525595,55.93050361363676
420,10.066532764991935,-256.26148840768127,-100.01653427474496,-38.19955470034747,-37.83560158514866,-5.0141898867979835,275.28849670658207,54.507967935116106
421,10.160102391951506,-256.2124403469501,-100.22758200075688,-37.43173936976324,-36.710106466991505,-4.777729850765909,275.3230461253659,53.062483151850905
422,10.250647156923513,-256.16880867352785,-100.43456117589763,-36.75106477336432,-35.41222607361995,-4.533005927579173,275.3612300868522,51.602333966673484
423,10.335097028050782,-256.1313194961658,-100.63478785066083,-36.153364373294764,-33.95370012537045,-4.27284897522456,275.40263308498294,50.136717228499606
424,10.410448191191245,-256.100590611446,-100.82562110910874,-35.633040679803685,-32.348701797334094,-3.9901312584069686,275.4467534951806,48.675438051190405
425,10.473836782329256,-256.07710118686015,-101.00451645606066,-35.18318622416581,-30.613294158751618,-3.6780509597309394,275.49299758997887,47.228601399911554
426,10.52260933468833,-256.06116060778555,-101.1690793903807,-34.79573450969389,-28.764874021295228,-3.3304103497768027,275.5406727871135,45.806312945784136
427,10.5543886775462,-256.0528781526217,-101.31711742652101,-34.461641438476406,-26.821621774296368,-2.941880252874054,275.5889809929351,44.41840232812591
428,10.567133966302022,-256.0521355068478,-101.44668848011702,-34.171097723266975,-24.80197393039025,-2.508244418267664,275.6370130958884,43.07418075361495
429,10.559193426809179,-256.0585642097016,-101.5561434885295,-33.91377194941881,-22.724133297358577,-2.0266181135233685,275.68374572135576,41.78224297774998
430,10.529348461058392,-256.0715299202398,-101.64416146828681,-33.67908223805208,-20.605629785045437,-1.4956356570407185,275.72804129148255,40.55032104426441
431,10.47684810411498,-256.0901249693992,-101.70977577440216,-33.456492063534235,-18.462942504511584,-0.9156018439550031,275.76865226447023,39.385193668189025
432,10.4014333315854,-256.1131701905037,-101.75239087520801,-33.235823078506414,-16.311190810500904,-0.28860249499499735,275.80423020893136,38.29265106728065
433,10.30335109723636,-256.13922663261184,-101.77178932591274,-33.00757527581505,-14.16389851635882,0.38143021431728175,275.83334015726587,37.27751091963142
434,10.18335800282057,-256.16661748626234,-101.76812881512626,-32.76324284147482,-12.032832291945859,1.0887014060747588,275.85448049440845,36.34367757073298
435,10.042713222129532,-256.1934603006782,-101.74192928098742,-32.495612749556464,-9.9279128146479,1.8255892093877912,275.8661084359538,35.49423398537938
436,9.883160027504687,-256.2177092348432,-101.69405030002454,-32.199032447031115,-7.857195720717578,2.58273482360567,275.86667089907866,34.731554227139746
437,9.706895288974067,-256.2372066462949,-101.62565940123177,-31.86963282802331,-5.826918500539709,3.349188303416973,275.8546403261672,34.05742330074453
438,9.516526653685647,-256.249742864464,-101.53819270864685,-31.50549327894395,-3.841608769139222,4.112610244425501,275.828554884266,33.47315104554539
439,9.315017554671172,-256.25312259230844,-101.43331020706762,-31.106737266231796,-1.9042485040886032,4.859528006170671,275.78706243246086,32.979667723325555
440,9.105620555862483,-256.24523602893316,-101.31284861960944,-30.67555003124556,-0.016487688086393844,5.575643219030289,275.72896758962156,32.57759129090266
441,8.891799822311892,-256.2241324924543,-101.17877506345141,-30.216114313728035,1.8211007491361257,6.2461851938251645,275.6532810163339,32.267259971525604
442,8.677143858693661,-256.18809409776134,-101.03314418450967,-29.734464985889698,3.608734632715231,6.8563026502362545,275.55926965590834,32.04872799907556
443,8.465270221944865,-256.13570698947285,-100.87806048568633,-29.238268147657944,5.347116730346885,7.39148404281093,275.4465062883464,31.921726416540075
444,8.259724697065908,-256.0659277342683,-100.7156463775742,-28.73653391645668,7.037122973651999,7.837994778220472,275.31491644418855,31.88559386165745
445,8.063878250695268,-255.97814259219797,-100.54801544898362,-28.239274626778563,8.679499552732263,8.18331784000358,275.1648204855369,31.93918412745417
446,7.8808256289492755,-255.87221737479393,-100.37724978190899,-27.75712166433511,10.274584319186781,8.416582867937912,274.99696842209124,32.08075814278828
447,7.7132895223726194,-255.74853549576125,-100.20537984867363,-27.300915085863096,11.82206743173433,8.528967803598665,274.81256482908674,32.30786827062163
448,7.563533861785237,-255.60802180337427,-100.03436557334383,-26.88128076477612,13.320804223525863,8.51405711978611,274.6132812198393,32.61724278594859
449,7.433289333992979,-255.45214999299148,-99.8660774361102,-26.508210083771598,14.768689821928811,8.368141591391742,274.40125351004144,33.00467819267571
450,7.3236938421566045,-255.28293186646297,-99.70227692428664,-26.190657119782774,16.162600490158386,8.090446452329397,274.1790627863089,33.46494663897715
451,7.235250367579384,-255.10288739792034,-99.54459602688276,-25.93616778780854,17.498401629413834,7.683277323499556,273.9496983670175,33.99172498210332
452,7.167804372920281,-254.91499541357695,-99.39451575895238,-25.75055443513602,18.77101755532955,7.152076185557855,273.7165030250783,34.577550899610884
453,7.120542418563662,-254.722625616945,-99.25334397149285,-25.63762781259474,19.974554132725977,6.5053827040991,273.4831011840932,35.21380982705967
454,7.092013005624452,-254.52945360535367,-99.1221930451254,-25.598996262665057,21.102462605140293,5.7546993230303265,273.25331185575675,35.89075470775391
455,7.080169813417161,-254.33936132823112,-99.00195843766484,-25.63393962235067,22.14773183354554,4.914261764648647,273.0310489488607,36.597559122714564
456,7.082436533567849,-254.15632608064735,-98.89329933349228,-25.73936305504092,23.103096764149665,4.000719929877924,272.8202122574758,37.322403829857585
457,7.095791517378779,-253.98430167932685,-98.7966227318402,-25.909833970796026,23.961253063086073,3.0327375406256802,272.62457296226745,38.052597184284636
458,7.116869523154771,-253.82709603304707,-98.71207219474213,-26.13770327522477,24.715070958461652,2.0305219668068273,272.4476579423113,38.77473094140081
459,7.14207705377459,-253.68824986440484,-98.63952222600223,-26.41331005420634,25.357804680527725,1.0152983439105565,272.29263759380626,39.47487381718978
460,7.167717211192722,-253.57092172582438,-98.57857899241874,-26.725266037928115,25.883296733645388,0.00874422652309372,272.16222210308405,40.138805095321246
461,7.190119725970746,-253.47778455755332,-98.52858792037726,-27.06081258539629,26.286178027342796,-0.9675973999738907,272.05857114631567,40.75228900581726
462,7.205771827347051,-253.41093877722554,-98.48864861064837,-27.406238673438054,26.562065462384076,-1.8929079566419915,271.9832217134313,41.30138754102276
463,7.211445804096988,-253.37184619487752,-98.45763742787807,-27.747344005692007,26.707758050167612,-2.7476668641913573,271.93703807735096,41.772805293049814
464,7.204319310847894,-253.3612878870278,-98.43423791240424,-28.06992755724695,26.72143128547347,-3.514190245020646,271.9201867766223,42.154255492384884
465,7.182084570230238,-253.3793476150353,-98.41697873096109,-28.360279225541188,26.602827496906198,-4.17711732221519,271.93213788168583,42.43483238091588
466,7.143042650445517,-253.42542060928199,-98.40427823025823,-28.60565119706768,26.35343742707096,-4.723829066090057,271.97169193518243,42.605371944730706
467,7.086179179016763,-253.49824580327058,-98.3944939478423,-28.794686462764272,25.97666548979065,-5.144786118933589,272.0370300862463,42.65878131214914
468,7.011218353197325,-253.59595818319988,-98.38597496257775,-28.917784761969486,25.477968160818858,-5.433775774589716,272.1257834614766,42.590317057789285
469,6.918652832597828,-253.71615707928188,-98.37711494514028,-28.967391018665193,24.864952105957002,-5.588060711373683,272.23511704713525,42.39779437992271
470,6.80974780737963,-253.85598603710653,-98.3664040938488,-28.938197669017026,24.14741672221949,-5.608425364288508,272.3618233201435,42.0817127366861
471,6.6865181160175045,-254.01222020928725,-98.35247846156231,-28.827259378474643,23.337325926626114,-5.499119299665235,272.50242127850083,41.64528898926945
472,6.551677852663189,-254.1813577562211,-98.33416526071726,-28.63402536090286,22.44869711476402,-5.267700513039791,272.6532570761656,41.094395936413484
473,6.408562663539098,-254.35971238311703,-98.31052265986689,-28.36029968337318,21.49740101360389,-4.9247848893049335,272.81060305346324,40.43741135194927
474,6.261026046455676,-254.54350482294734,-98.28087255271001,-28.010142839146738,20.500873401723926,-4.4837109050900406,272.9707526066523,39.684989006869145
475,6.113312426423566,-254.7289517808738,-98.24482484221986,-27.589728351308022,19.477746760998777,-3.9601309188346927,273.13010906009333,38.849767568062205
476,5.969911337347554,-254.91235149629327,-98.20229188815424,-27.10716652553257,18.4474156936312,-3.371542117231181,273.28526738200935,37.94603512946304
477,5.8353983725828495,-255.0901654959603,-98.1534919399345,-26.572304289920705,17.42955398921798,-2.7367715425541586,273.4330880690676,36.98936655773505
478,5.71426947999496,-255.25909616673857,-98.09894073558739,-25.99650616994352,16.443603745688687,-2.0754308737216993,273.57076272308757,35.996248530007556
479,5.610775580283454,-255.41615944079103,-98.03943106262544,-25.392417776809143,15.508258267520368,-1.4073578978694925,273.6958707551497,34.98370402005896
480,5.528764355500678,-255.55875129262316,-97.97600085800121,-24.773710495202625,14.640960702033961,-0.7520626522440249,273.8064263713748,33.96892476903634
481,5.471535524428825,-255.68470616918117,-97.90989116043608,-24.154804760870668,13.857439361829323,-0.128196546167619,273.900914701431,32.96891740115927
482,5.441715214490726,-255.79234519112364,-97.8424957787859,-23.550569559968196,13.171298121226032,0.44693794479666227,273.97831584119797,32.00016667095139
483,5.441154171744727,-255.88051210045623,-97.77530495648732,-22.975997489779413,12.593675987909014,0.9578211004665462,274.0381158357512,31.07831816563963
484,5.470853336735254,-255.94859540097534,-97.70984567982642,-22.44585754782214,12.132984183656168,1.391079688530484,274.0803041801521,30.217882664031332
485,5.530918779303741,-255.99653573165597,-97.64762150206904,-21.97433109511406,11.794722695952737,1.735769702602776,274.10535803010816,29.431964864272505
486,5.620546512863126,-256.02481804313305,-97.59005468523158,-21.574639347057722,11.581372564090783,1.983570310374921,274.1142137625757,28.732019717390404
487,5.7380366347583545,-256.0344485590783,-97.53843314199182,-21.258672648290215,11.492356205993758,2.128884852589095,274.10822677279026,28.127639749907758
488,5.880835531028122,-256.02691686969047,-97.49386426792232,-21.036632506044946,11.524056290278457,2.1688488449797108,274.08912056971764,27.62637658170747
489,6.045604315151133,-256.00414391939455,-97.45723738777323,-20.91669716126766,11.669883843327135,2.1032492025917113,274.05892646119395,27.23359967935141
490,6.228311086153503,-255.9684171150429,-97.42919620753533,-20.904720883001357,11.920387998285383,1.9343628846504972,274.0199154057758,26.952395549968845
491,6.424343927132289,-255.92231419087756,-97.41012235988832,-21.003976687199827,12.263402461922329,1.6667264856759993,273.9745238513314,26.78351119651816
492,6.628640848366718,-255.86861775496882,-97.40013086063897,-21.214952102686578,12.684226715962872,1.3068507750659537,273.9252755219117,26.725346578314024
493,6.8358323195620665,-255.81022271447756,-97.39907800051658,-21.53520792775051,13.165842464302631,0.862895726658898,273.87470124170585,26.77400168746986
494,7.040391918291208,-255.750039244738,-97.40658162244637,-21.959310371534453,13.689167301952425,0.34432212717210364,273.82525911885085,26.923384229291084
495,7.236790970949727,-255.69089466751052,-97.42205262419218,-22.47884710487198,14.233347749164652,-0.2384646454203296,273.779257703651,27.165383430379123
496,7.419653536990035,-255.63543824819635,-97.4447351181115,-23.08253697732114,14.776092748381389,-0.8744646149609293,273.738784882235,27.490113941361532
497,7.583908314901509,-255.58605316032222,-97.47375163865165,-23.756440892926687,15.294046736127392,-1.5524152825944644,273.7056451475399,27.886230954890184
498,7.724933955283737,-255.54477963560805,-97.50814952164546,-24.484277188386336,15.763198781094939,-2.2610968712516377,273.681307579046,28.34131344083799
499,7.838694014399746,-255.51325278836592,-97.5469449402528,-25.247838868390478,16.159321356114003,-2.989604499179948,273.6668664770459,28.842307011550094
500,7.921857559767533,-255.49265790649196,-97.58916173375175,-26.027502802585584,16.458429495590927,-3.7275832951314607,273.6630161561277,29.376011961486
501,7.971901394323611,-255.48370515193767,-97.63386291066386,-26.80281356403442,16.637248817761918,-4.465424271881717,273.67004085847736,29.929596383768068
502,7.9871900707689525,-255.48662456274718,-97.68017347570738,-27.55311834092475,16.673679516800785,-5.194420237851887,273.6878200331061,30.491109964166945
503,7.9670302813801035,-255.50118097829593,-97.72729399118697,-28.258225400552124,16.547243163382007,-5.90688221318759,273.7158483134703,31.049971943366856
504,7.911696781716884,-255.52670715956992,-97.77450505400729,-28.899057379266193,16.239500027074733,-6.596217731699662,273.75326854942017,31.597407239657763
505,7.822427850047718,-255.56215223145918,-97.82116370009865,-29.458271943536882,15.734426451954866,-7.256973045952822,273.7989154994727,32.12680764495886
506,7.701389559349298,-255.6061418520606,-97.86669360859527,-29.920825380043215,15.018744152754651,-7.884841612452187,273.8513674656767,32.63399961107434
507,7.551609740664843,-255.65704624305081,-97.91057166662722,-30.274458548424292,14.082195676090983,-8.476641380550351,273.9090032033512,33.11740547402858
508,7.376884072686248,-255.7130523132952,-97.95231372326636,-30.51008862725295,12.917762405457916,-9.030263494913498,273.97006167752255,33.5780902434237
509,7.181657968084453,-255.77223645511802,-97.99146213459333,-30.622093829972293,11.521823347088192,-9.544595206145171,274.0327025163774,34.0196909612634
510,6.970888836336692,-255.8326350284443,-98.02757709476903,-30.608481846931888,9.894254574103508,-10.019420138318338,274.095065221946,34.448230188912135
511,6.749893960895629,-255.89230994028216,-98.06023289788922,-30.47093652534161,8.038470619338312,-10.455299594484517,274.1553252714039,34.871819685320084
512,6.524189647615289,-255.94940709888436,-98.08901929640803,-30.21474149341279,5.961410202278416,-10.853439298367052,274.211745243692,35.30026497412285
513,6.2993274771505785,-256.0022060282465,-98.11354719898762,-29.848584103107623,3.6734693340342663,-11.215546833885794,274.2627192467184,35.74458623522839
514,6.0807334470222845,-256.04915964691264,-98.1334573365977,-29.384248096241638,1.1883849563620583,-11.54368589187179,274.30680936372664,36.216475634284066
515,5.873555530325648,-256.0889240219677,-98.14843035431578,-28.836208562769347,-1.4769282422535452,-11.840134011863787,274.3427735168668,36.72771555277528
516,5.682524697643625,-256.120378608293,-98.15819693537787,-28.221147620064517,-4.302586330349146,-12.107250597707468,274.3695848349956,37.28958576458445
517,5.5118337522222305,-256.14263797022414,-98.16254680705262,-27.557413153739656,-7.265990043950957,-12.347361497742337,274.3864431334509,37.91228981791024
518,5.365037462187985,-256.15505624215047,-98.16133573857323,-26.86444526235245,-10.342125770526065,-12.562665404039576,274.39277942575114,38.60443109989872
519,5.244976514343028,-256.15722562188756,-98.15448998479486,-26.16219531612475,-13.503916143237289,-12.75516582447777,274.3882545212641,39.37256684967376
520,5.1537268295716725,-256.1489700427562,-98.14200805444528,-25.47056079229479,-16.72262227526751,-12.926630511370835,274.37275275433916,40.220863711339675
521,5.092574786256,-256.13033494801635,-98.12396004068894,-24.808855786171943,-19.968297485952792,-13.078578123280543,274.34637179016977,41.15087174889736
522,5.06201788511777,-256.1015739336767,-98.10048486525612,-24.195333087676445,-23.21028873880912,-13.212289747428601,274.30940932677845,42.16142598121977
523,5.061789388002647,-256.0631329791874,-98.07178563708995,-23.646769691691805,-26.417777521621506,-13.328840921736651,274.2623473981889,43.2486762759114
524,5.090904546163747,-256.0156329715396,-98.0381231263827,-23.178124070643076,-29.560347305271076,-13.429148118755846,274.2058348843625,44.406238587614055
525,5.147725276378991,-255.95985116089676,-97.99980734699719,-22.802270624474016,-32.60856078227082,-13.514022428511096,274.140668754898,45.62545364453583
526,5.230039640482782,-255.8967020776373,-97.95718744281183,-22.529814204125422,-35.534527449779915,-13.584222591567157,274.06777453500274,46.895733749062394
527,5.335152327479114,-255.82721835994437,-97.91064032799967,-22.368985039370866,-38.31244113568481,-13.64049976763146,273.9881864929496,48.204974644180716
528,5.459982491495699,-255.75253190296257,-97.8605587129232,-22.325611462313137,-40.91906779721103,-13.683627549665385,273.90302807777283,49.54000749266814
529,5.6011655500923725,-255.67385567894917,-97.80733923585865,-22.403164497830492,-43.33416614010466,-13.714412666304685,273.81349311204656,50.88706587526854
530,5.7551556833071755,-255.59246641013465,-97.75137144426,-22.60286499224268,-45.54082703858321,-13.733684302873815,273.7208280967701,52.23224420295264
531,5.918325807942569,-255.5096879824492,-97.69302832920928,-22.923840960154337,-47.52572209093643,-13.742262619777847,273.626315696741,53.56192682761208
532,6.0870619533093855,-255.42687515322385,-97.63265895258608,-23.363320805449597,-49.2792565344149,-13.74090947293825,273.53125910720564,54.86317109776954
533,6.257849400074551,-255.34539687957323,-97.57058337829805,-23.91684749060658,-50.79562662302922,-13.730266323651481,273.43696668495556,56.12403222531426
534,6.427348581667954,-255.26661858339577,-97.50708972335941,-24.578499770302162,-52.07278582704196,-13.710785785239473,273.3447360909956,57.33382260964632
535,6.592459369536524,-255.19188287134952,-97.4424328842373,-25.34110901963805,-53.112327357289125,-13.682664128946728,273.25583730196763,58.483302685851086
536,6.750372890718366,-255.12248856872642,-97.37683452844472,-26.196463366489652,-53.91929238656078,-13.645782296329854,273.17149418952295,59.564804014843965
537,6.898610566828745,-255.0596683116164,-97.3104842656096,-27.135494059028296,-54.50191411037301,-13.599662536094058,273.09286485560943,60.5722880266093
538,7.035050669515619,-255.0045652783949,-97.24354232656428,-28.148441662338158,-54.871307809874125,-13.543446753426831,273.0210213897395,61.501345564652716
539,7.157943236662828,-254.95820986899878,-97.17614428209129,-29.225001451691174,-55.04111668881088,-13.475901103384675,272.956930014341,62.349143279708315
540,7.2659145665168055,-254.92149726699049,-97.10840812796641,-30.354448249273855,-55.0271227027835,-13.395449421537965,272.90143264115784,63.11432319411412
541,7.357962718775977,-254.89516686615778,-97.04044355171042,-31.525741200560677,-54.84683101741006,-13.300236027543898,272.85523073210555,63.796861665044645
542,7.4334455656929626,-254.8797844677487,-96.97236271629112,-32.727609009718186,-54.51903615627019,-13.188216544197328,272.8188721228168,64.3978937567073
543,7.492062979440557,-254.87572790899725,-96.90429166786676,-33.94861633872095,-54.06337735837887,-13.057273800330192,272.7927411594321,64.91950890281592
544,7.533834739001309,-254.8831764295419,-96.83638141476548,-35.177212646791524,-53.4998902785796,-12.90535462829719,272.77705214606175,65.36452389851432
545,7.55907571860044,-254.9021037689045,-96.76881769056294,-36.40176573234795,-52.84856209196351,-12.730622354790324,272.7718457918168,65.73623983928108
546,7.568369831867042,-254.9322748202498,-96.70182844366148,-37.61058359207253,-52.12889737814175,-12.531618964849645,272.7769881942079,66.0381906577514
547,7.562543922300294,-254.97324562720894,-96.63568828337628,-38.79192988409737,-51.359502850604436,-12.307430285567182,272.79217191642374,66.27389236596451
548,7.542642257125232,-255.0243665414459,-96.57071941690913,-39.9340401143169,-50.557700033431374,-12.05784709299278,272.8169188373145,66.4466038798724
549,7.50990164125897,-255.08478848405178,-96.50728889865425,-41.02514726356807,-49.73917625542307,-11.783514753025525,272.8505846535726,66.55911206265004
550,7.465726666707241,-255.15347255351867,-96.4458021871241,-42.05352636636012,-48.91768547957692,-11.486063773465169,272.89236523978826,66.61355475383552
551,7.41166440602005,-255.22920365617333,-96.38669305918376,-43.00756697531429,-48.10481098394776,-11.16821342172735,272.94130548765776,66.61129530659318
552,7.349377925191332,-255.31060918437674,-96.33040996586938,-43.87588018751503,-47.30980128540322,-10.83384046327534,272.99631158318493,66.55286001795004
553,7.280618203896077,-255.39618379163235,-96.27739909015298,-44.647443107997304,-46.53948870594099,-10.48800537643055,273.05616776908056,66.43794577695445
554,7.207194310442493,-255.484320933886,-96.22808472801648,-45.31177885125777,-45.79829664460871,-10.136929409935595,273.1195584195739,66.26549973227446
555,7.130941952161429,-255.57335118967066,-96.18284797817043,-45.859165184596336,-45.0883372227685,-9.78791775728373,273.18509578000845,66.03386655633912
556,7.053690772485686,-255.66158661582722,-96.14200489439985,-46.28086040502335,-44.40959600519655,-9.449226902745597,273.2513530874936,65.74099280690223
557,6.977230957836546,-255.7473696182726,-96.10578525016871,-46.56933164382072,-43.76019548724177,-9.129877616606617,273.316902069764,65.38467273037857
558,6.903279886234641,-255.82912406336771,-96.07431300119457,-46.718469067842015,-43.13672438541576,-8.839418783810542,273.38035309886794,64.96281621782639
559,6.833449749343239,-255.90540574964493,-96.04758942436678,-46.723769777979165,-42.534615797016166,-8.587650867471817,273.44039567764383,64.47371792696373
560,6.76921725783746,-255.97494905240367,-96.02547980904654,-46.582477654537804,-41.94855435618205,-8.384321008587174,273.4958366169591,63.91630702845916
561,6.7118965756076605,-256.03670663860055,-96.0077046323,-46.29366965118953,-41.372890956325165,-8.238804252718761,273.54563335971693,63.290359556631046
562,6.662616496893067,-256.0898796559747,-95.99383636417595,-45.85828446412772,-40.802043618597985,-8.159786873971251,273.58892045189253,62.596659560816285
563,6.622302673229272,-256.13393665539775,-95.9833031516566,-45.279095265573915,-40.230864653706426,-8.154967939085468,273.62502799058547,61.837100541998446
564,6.5916654841539035,-256.16862052012624,-95.97540035081367,-44.56063336955976,-39.6549572971928,-8.230793947261905,273.65349172532325,61.01472433869532
565,6.571193925885549,-256.19394365705097,-95.96931021147128,-43.70907346176267,-39.070929346647944,-8.392238697991813,273.6740551698482,60.13370009682813
566,6.561155655358252,-256.2101725459201,-95.96412916901402,-42.73209286491593,-38.47657660261176,-8.642636861261373,273.6866645667434,59.199250692625434
567,6.561603072703324,-256.21780338585353,-95.9589013716805,-41.63871721129671,-37.870994304976534,-8.983575563222374,273.6914578546133,58.2175374428582
568,6.572385054373651,-256.2175309776484,-95.95265640910242,-40.439163295929845,-37.25461921400512,-9.414844189682228,273.6887489219892,57.19551566568957
569,6.5931637108432595,-256.21021311969844,-95.94444881872548,-39.14468742088391,-36.62920774391648,-9.934439093411278,273.67900841908255,56.14077349244688
570,6.623435437839092,-256.1968327017062,-95.93339687933126,-37.76744472866111,-35.997756541303154,-10.538617444228393,273.6628422834006,55.06136458714835
571,6.66255557216054,-256.1784593981331,-95.91871835804535,-36.320362157765906,-35.364371632265744,-11.221993298408693,273.6409689263113,53.96564275110598
572,6.709766004246242,-256.1562124439978,-95.89976108271615,-34.81702491993873,-34.734091459992136,-11.977668937985396,273.6141957074548,52.862103471684996
573,6.764225007998438,-256.1312254983468,-95.87602641310768,-33.27157399359352,-34.11266842265235,-12.79739524333203,273.58339494474336,51.75923489285679
574,6.825038386683286,-256.1046141692863,-95.84718400811506,-31.698610287187446,-33.50631333893806,-13.671755869155524,273.54947941269864,50.66537885245711
575,6.891290953246897,-256.07744648201015,-95.8130768541939,-30.11310005815755,-32.921407829153935,-14.590370932783298,273.5133772048669,49.58860176210546
576,6.962077394957702,-256.05071646927485,-95.77371629862726,-28.53027596637495,-32.36419086376467,-15.542116558644048,273.4760060138754,48.53657517165127
577,7.036531613106525,-256.025321132697,-95.7292676952906,-26.965528709928456,-31.84042745823715,-16.515356836224687,273.4382472504659,47.51646660246007
578,7.113853598170275,-256.00204116508985,-95.68002812051714,-25.434285296936995,-31.35506935775538,-17.498184518837498,273.4009208520706,46.53484226115699
579,7.193332838533191,-255.98152591541793,-95.62639834846145,-23.9518713764474,-30.91191922314206,-18.47866619064018,273.36476197140354,45.59758416414404
580,7.274367259038738,-255.96428305099272,-95.56885171871693,-22.533356533098228,-30.513310974859245,-19.445086816491727,273.33040086522755,44.70982473623982
581,7.356476791481389,-255.95067326112292,-95.50790256356747,-21.193383031411646,-30.15981933336766,-20.38618776146497,273.29834721458684,43.87590199430244
582,7.439310904773715,-255.94091025191636,-95.4440765841118,-19.94598012104535,-29.850011179697585,-21.291391731048716,273.26897992748474,43.09933803722793
583,7.5226497832783314,-255.93506625529412,-95.37788520041494,-18.804367447956206,-29.580250319925227,-22.151007818159314,273.24254333187906,42.382842827673386
584,7.606399310551227,-255.93308325648104,-95.30980554794856,-17.780752051680995,-29.34456574804853,-22.956410029237052,273.21915053807777,41.728344203348854
585,7.690580493433754,-255.93479000684377,-95.24026733587814,-16.88612372901769,-29.134591595835488,-23.700183258169947,273.19879447419237,41.13704369964721
586,7.775314350589241,-255.93992452706638,-95.1696470761413,-16.130053346929,-28.939584587556787,-24.37623160550496,273.18136652377194,40.609496190568265
587,7.860803538454344,-255.94816122079254,-95.09826927785288,-15.520498282709442,-28.746522014992482,-24.97984517841477,273.166681835661,40.14570979424879
588,7.947312045923186,-255.9591410626913,-95.02641332443112,-15.063618825394178,-28.540280196059715,-25.50772308005135,273.15450945786137,39.7452612458771
589,8.035144125794766,-255.9725028021233,-94.95432414703352,-14.763609313271466,-28.303890332037213,-25.957952192641038,273.1446047422812,39.40742126967997
590,8.124623315030762,-255.98791283596168,-94.88222453525198,-14.622548250964993,-28.018865805495793,-26.329943453302707,273.1367410930798,39.13128449558714
591,8.216072072600511,-256.005091338723,-94.8103269230276,-14.640272810655615,-27.665592276978195,-26.62432938576134,273.1307380586107,38.91589906678361
592,8.30979235931517,-256.02383237924147,-94.73884269277802,-14.814284833454941,-27.223769382621935,-26.842828417056996,273.126482963288,38.76039196170978
593,8.406047464302699,-256.044016139502,-94.6679874185585,-15.139697216204919,-26.672890429512265,-26.98808275897295,273.12394376725325,38.6640868253367
594,8.505045522006847,-256.065612018946,-94.5979810167632,-15.60923078505012,-25.99274442154197,-27.063477286388967,273.1231716606781,38.6266115458399
595,8.606925312411983,-256.0886722940605,-94.52904252861217,-16.213271926850947,-25.16392334481495,-27.07294698387373,273.12429299665797,38.64799298950521
596,8.711744900471446,-256.11331693405856,-94.46138022083134,-16.94000006465984,-24.168317193596707,-27.020780356552095,273.1274913727562,38.72873647650884
597,8.819473376864917,-256.13971096292283,-94.39517868412756,-17.775591391375873,-22.989579829758213,-26.91142589790141,273.13298174877673,38.86988795945315
598,8.929985539748028,-256.168036303889,-94.33058530032167,-18.704501173281674,-21.613550315305268,-26.74930832384219,273.14097922895394,39.07307746060157
599,9.043059015508529,-256.19846032635877,-94.26769856858027,-19.709821685234076,-20.028616603036898,-26.538660715944243,273.1516654356656,39.34054294687256
600,9.158373179743018,-256.2311033616564,-94.20656031683087,-20.773706964488042,-18.226011189802477,-26.28337783980198,273.1651552819967,39.67513424511649
601,9.275509330205992,-256.2660073241358,-94.14715299934826,-21.877849766041976,-16.200031308456598,-25.986894724477377,273.1814665483632,40.08029667427838
602,9.393951849436517,-256.3031073658019,-94.08940240416732,-23.003991090890594,-13.94817919182727,-25.652093296055803,273.2004941817742,40.56003378819899
603,9.51309046040214,-256.3422082815887,-94.03318543755776,-24.134439061785837,-11.471220647488328,-25.28123872879747,273.2219908259023,41.11884818007953
604,9.632223959628298,-256.3829671591082,-93.97834236825642,-25.252572216107268,-8.773162559244879,-24.87594639146322,273.2455547923614,41.76165909754819
605,9.750565944963226,-256.4248834742978,-93.92469294934354,-26.34330277496908,-5.8611520526701,-24.437179779528496,273.27062642493706,42.49369609624687
606,9.86725309925366,-256.4672974559808,-93.87205595593848,-27.39347817917193,-2.745302002831856,-23.965279407980063,273.2964934948702,43.320369366050244
607,9.981356599534992,-256.5093971007701,-93.82027164326368,-28.392203844928797,0.56155068954329,-23.460022063708745,273.32230583799395,44.24711961203841
608,10.09189717771385,-256.5502337261914,-93.76922636356737,-29.331076002156415,4.044146132437982,-22.920708982522786,273.3470988865146,45.279253051097356
609,10.197864219311665,-256.58874542755575,-93.71887813885571,-30.204319759061452,7.685152667612661,-22.34628043635388,273.3698250995856,46.421769598480836
610,10.298239014023459,-256.62378733673796,-93.66928146317629,-31.008833405446076,11.465558273305733,-21.735452940802055,273.3893916676222,47.67919411183856
611,10.39202185337182,-256.65416725562443,-93.62060914280696,-31.744144881284228,15.365091546350854,-21.086873899273296,273.4047023850062,49.05542127715765
612,10.478262144752623,-256.6786850496896,-93.57316877500695,-32.41228993114911,19.36266140542437,-20.399287134511827,273.4147013206318,50.553584210317055
613,10.556090178018572,-256.6961740726075,-93.52741166875947,-33.01762347424771,23.43680473666962,-19.671701639222448,273.41841586008786,52.17595512014905
614,10.624748785301197,-256.7055428405601,-93.48393262826323,-33.56657607191441,27.566131599468466,-18.903555214217167,273.41499684379124,53.92388362786549
615,10.683623001663062,-256.70581526326237,-93.4434599174776,-34.06736637275778,31.72975825698601,-18.094864562021556,273.4037539134835,55.79777498525868
616,10.732265986817374,-256.69616802434183,-93.40683568932239,-34.529678757336015,35.9077190946831,-17.246353858660427,273.3841847855532,57.79710706912414
617,10.770419816951232,-256.6759640964763,-93.37498799237255,-34.964313899605465,40.081349311305694,-16.35955477036784,273.3559978354731,59.920482193174436
618,10.798030161270441,-256.64478169564535,-93.34889606449012,-35.38281914865022,44.233630967773585,-15.436872222854117,273.3191278953084,62.16570773680281
619,10.815254198762641,-256.6024381419824,-93.32955099740248,-35.797105589304834,48.349495465683475,-14.48161185547335,273.27374545834465,64.52989828773231
620,10.822461356176225,-256.5490081631043,-93.31791401758673,-36.2190590618533,52.41607582530812,-13.497966898122755,273.22025961037235,67.00959120592266
621,10.820226615199829,-256.48483621220794,-93.31487454570068,-36.660152830509446,56.42290239710788,-12.490964120760843,273.1593150171103,69.60086701370585
622,10.809316365473725,-256.41054236699796,-93.3212098994196,-37.13106958314327,60.362036079837594,-11.466370453344652,273.09178319710634,72.2994656870699
623,10.790667124248946,-256.3270213233863,-93.33754813460706,-37.64133994430364,64.22813389536346,-10.430563788750339,273.0187481466712,75.10088982462361
624,10.765357830392562,-256.2354339701999,-93.36433521863597,-38.199004031685824,68.01844292652682,-9.390373308480163,272.94148626910305,78.00048600966505
625,10.734576735753995,-256.13719109213787,-93.40180754570031,-38.81030232489859,71.73272007540056,-8.352896311752403,272.8614405667918,80.99349665465816
626,10.699584097628989,-256.03392885307335,-93.44997073805706,-39.47940261952629,75.37307674009253,-7.325299793560807,272.7801891371284,84.0750762932586
627,10.661671930935045,-255.9274757917532,-93.5085857182519,-40.20817110214545,78.94374936246902,-6.314615732437453,272.69940810284163,87.2402686423216
628,10.62212207497704,-255.81981118766382,-93.57716311688827,-40.99599723123367,82.45079904455507,-5.327539193431963,272.62082924964847,90.48394375488844
629,10.58216383118816,-255.7130149788607,-93.6549670590454,-41.839683541028826,85.9017462355172,-4.370238017911697,272.5461929377975,93.80069809744842
630,10.542932443914012,-255.60920998776493,-93.74102909154973,-42.73341202886678,89.30514981929298,-3.4481820967321735,272.4771972957133,97.18472410122546
631,10.505429737573849,-255.51049796875333,-93.83417238963165,-43.668797835449034,92.67014351041372,-2.5659989493611293,272.4154452040757,100.62965919453877
632,10.470488339591185,-255.41889181842305,-93.9330455144225,-44.63503803373286,96.00594586540807,-1.7273605558515672,272.36239106495816,104.12842700947624
633,10.43874108891949,-255.33624702491758,-94.03616413792761,-45.61915835020977,99.32136295527235,-0.934904288589685,272.3192897565029,107.67308490931994
634,10.410597300025039,-255.26419589302836,-94.1419585287694,-46.606353877289436,102.62430436313262,-0.19018866262068881,272.28715039432484,111.25469188972932
635,10.38622736227697,-255.20408814876856,-94.24882426670518,-47.580412224541945,105.92133332423379,0.5063172635163763,272.26669746336756,114.86320920536343
636,10.365556711302556,-255.1569412084409,-94.35517361574612,-48.52420054012684,109.21727035613164,1.1552134821718734,272.25834155451696,118.48744304426151
637,10.348269680139827,-255.1234028117581,-94.45948520363092,-49.42019296451689,112.51486674500735,1.7581212705172606,272.26216144731734,122.1150348560156
638,10.333823259575821,-255.10372800521213,-94.5603500239422,-50.251013406895915,115.81456017081216,2.3176122425427277,272.27789872163095,125.73250138140638
639,10.3214703278252,-255.09777168542723,-94.656512139865,-50.99997013189887,119.11432017877245,2.837118555826223,272.3049654611782,129.32532371442173
640,10.310291351231783,-255.10499708558817,-94.74690274910745,-51.65156257727141,122.4095867069692,3.320828511085838,272.34246491287786,132.8780830191814
641,10.299232949987024,-255.12449975479873,-94.83066650241437,-52.191945578751955,125.69330081420759,3.773571516047969,272.3892242425966,136.37463945568322
642,10.287151219507628,-255.15504580744633,-94.90717921940795,-52.609340294722884,128.956023304797,4.200695989013685,272.443837871636,139.79834991235398
643,10.272857413181255,-255.19512254350832,-94.97605648459722,-52.89438373985382,132.18613425349733,4.607943269411948,272.5047193513487,143.13231903324913
644,10.255163545888626,-255.24299897407715,-95.03715309427893,-53.04040995186987,135.37010454006085,5.001320026747834,272.57015937011425,146.35967683318907
645,10.232925636177036,-255.29679335118482,-95.09055391407442,-53.04365612337224,138.4928292179875,5.386971096338667,272.63838729015816,149.46387507644815
646,10.205082634743793,-255.35454453296137,-95.13655720094928,-52.903387446641496,141.53801146143965,5.771054184045913,272.7076335444641,152.4289935907504
647,10.170689572631174,-255.4142839490257,-95.17565167332293,-52.62193561945148,144.48858460864298,6.159617472886088,272.7761902588797,155.24004676707654
648,10.128944051042529,-255.4741050771425,-95.20848861204837,-52.20464819264628,147.32715844248543,6.558480816507629,272.8424676211802,157.8832797587084
649,10.079205753702718,-255.5322276748372,-95.23585018922293,-51.65974906543867,150.03647465644852,6.973120979833736,272.9050438192341,160.3464436014694
650,10.021009066220515,-255.58705447436614,-95.25861511109649,-50.998114019287456,152.5998558336353,7.408561408491528,272.96270677972706,162.6190388258181
651,9.954069132965614,-255.63721856593855,-95.27772253273501,-50.23296861553131,155.00163240145724,7.869267317057237,273.01448638442326,164.69251806568374
652,9.878281873346793,-255.6816201636855,-95.29413517121573,-49.37951848289843,157.2275329257495,8.35904736455838,273.05967627476815,166.56043949845886
653,9.793718702914667,-255.71945181032402,-95.3088027425303,-48.45452371185771,159.26502476089874,8.88096367523622,273.0978447700994,168.2185645850701
654,9.700616956172917,-255.75021138391423,-95.32262716489974,-47.47582995707285,161.10359444917907,9.437252414444552,273.128834832416,169.66489558933486
655,9.5993672037517,-255.77370265621042,-95.33643111779539,-46.46186951129928,162.73496026136488,10.029257578626506,273.15275343124574,170.8996508631881
656,9.490498710159667,-255.79002365278066,-95.35093138869378,-45.431146654765875,164.1532127131157,10.657381042378361,273.1699510784902,171.92517892367425
657,9.374664160549758,-255.79954356050717,-95.36671807775993,-44.40172319039742,165.35488252698016,11.321051931749036,273.18099263581263,172.745815738188
658,9.252624472474881,-255.80286933546452,-95.38424026616094,-43.39072187123796,166.33893895303714,12.018717640806727,273.18662070487613,173.36769289052617
659,9.125233983884087,-255.80080356414598,-95.40379820426905,-42.41386677776322,167.10672407559974,12.747857107532939,273.18771307743236,173.7985067285745
660,8.993425748124675,-255.79429559681785,-95.42554150616711,-41.485080086023906,167.6618303186107,13.505014764204084,273.18523594586435,174.04725970535557
661,8.858196433665904,-255.78438840140075,-95.44947238748964,-40.61615365722641,168.00992904771374,14.285851827647615,273.1801948188329,174.12398512026107
662,8.720590564249221,-255.77216381417082,-95.4754527262407,-39.8165110406926,168.15855880781646,15.085211082898399,273.1735852223953,174.03946617531022
663,8.581684265055323,-255.7586888622814,-95.5032136100725,-39.09307067342237,168.11688298742249,15.897192075422183,273.1663452395117,173.80496033737097
664,8.44256894476109,-255.74496572790727,-95.53236603868163,-38.45021484183939,167.8954282426411,16.715235017608755,273.1593118492538,173.4319402046314
665,8.304335338806993,-255.73188782930447,-95.56241166991317,-37.8898624416856,167.5058157590949,17.532212968032507,273.1531830101458,172.93186148067056
666,8.16805815942024,-255.72020438170372,-95.59275296745773,-37.411637692899234,166.96049645849814,18.340532542620753,273.14848748045483,172.31596647606509
667,8.034781384725491,-255.71049552254885,-95.62270267592524,-37.01312213085162,166.27249848511715,19.13224357851419,273.1455642963698,171.5951277666618
668,7.905504106643771,-255.70315948673692,-95.65149304436072,-36.69017338143881,165.4551914520798,19.899157998041275,273.1445534382577,170.77973196292604
669,7.781166899364726,-255.6984123715316,-95.67828560189125,-36.43729137408154,164.52206802158958,20.632977752263695,273.1453984692767,169.8795990088132
670,7.66263881032008,-255.69629992417075,-95.70218254877952,-36.24801082358357,163.48654032070013,21.325431183513576,273.14786099650973,168.90392891679664
671,7.55070522877641,-255.6967197939101,-95.72224090253779,-36.11529818098713,162.36174697416286,21.968416436165658,273.1515459127159,167.86126590157872
672,7.446056991570605,-255.69945194303602,-95.73749039412101,-36.03193200491782,161.16036630643478,22.55414971222164,273.15593563014227,166.75946968755107
673,7.34928108778121,-255.70419438819272,-95.74695574876074,-35.99084798901754,159.8944323402793,23.075315296239115,273.1604308997833,165.6056852103062
674,7.260853217690167,-255.71060116681855,-95.74968345056926,-35.98543365798349,158.5751521421747,23.52521347538058,273.16439535744337,164.40630458492822
675,7.181132312971198,-255.7183194853865,-95.74477249737176,-36.0097626105352,157.21272519759322,23.897901888215127,273.167200781496,163.16691838155984
676,7.1103569731497664,-255.72702341301664,-95.73140814101201,-36.0587633892043,155.8161672545092,24.188325540951872,273.16827024184204,161.89225618380166
677,7.0486435517995725,-255.73644208794315,-95.70889721464664,-36.12832278180151,154.39314220210215,24.392430753174104,273.1671167378515,160.5861186552843
678,6.995985294772975,-255.74638101772123,-95.67670331888301,-36.215327099518326,152.94980619913252,24.507258667862377,273.16337537061327,159.25130491488525
679,6.952251649207158,-255.75673559844105,-95.63447986262412,-36.31764766147358,151.4906687012752,24.53101475251645,273.15682749962656,157.88954017660123
680,6.917186890662108,-255.7674964943917,-95.58209881772501,-36.434078531226994,150.0184753604831,24.46311190861743,273.1474157713632,156.50140949694628
681,6.890407662081689,-255.7787470661719,-95.51967311866305,-36.56423566880893,148.5341179265213,24.304186178880343,273.1352494577472,155.08630405437262
682,6.871399747962491,-255.79065360311233,-95.44757086996655,-36.7084271458697,147.03657628237815,24.056085290405317,273.12060017598054,153.64238664334093
683,6.859515171046684,-255.8034495988914,-95.3664198393512,-36.86750396703558,145.52289776867593,23.721831207081525,273.1038886448534,152.16658315237032
684,6.853971221508301,-255.81741556590504,-95.27710113330785,-37.042700469903714,143.98821915615747,23.305558480771314,273.085663534848,150.65460689241908
685,6.853853099369092,-255.83285588610968,-95.18073151622909,-37.235472445834915,142.42583687528895,22.81243057620681,273.0665736729854,149.10102268440687
686,6.858121474241366,-255.850074071478,-95.07863450197596,-37.44734025204771,140.82733091618616,22.248536588261707,273.047334972705,147.4993571978389
687,6.865625644409216,-255.86934769094952,-94.97230104043285,-37.67974339330676,139.1827465619859,21.620770936744893,273.02869357782873,145.84226061451056
688,6.8751223266965,-255.8909041432868,-94.86334129108127,-37.93391231491432,137.48083546538024,20.936698748035607,273.0113868542615,144.12172194229834
689,6.885299580607503,-255.91489839833724,-94.75342957936373,-38.21076237868022,135.70935367957256,20.20440973305137,272.996104005766,142.32933636244155
690,6.894805058924957,-255.94139378925374,-94.64424513490926,-38.51081414021244,133.85540975407844,19.43236348976444,272.98344821776794,140.45661847297973
691,6.9022776664062295,-255.97034690418263,-94.53741160332689,-38.83414308243994,131.90585177411188,18.629229359316174,272.97390233180556,138.49535102999135
692,6.906381659349476,-256.00159756751265,-94.4344385797168,-39.180360788880684,129.8476790088509,17.80372425107949,272.9678000831938,136.43795548113061
693,6.905842126861964,-256.0348647891445,-94.33666844875908,-39.54862801109869,127.6684620065931,16.96445211965029,272.96530483806134,134.27786853414767
694,6.899480732031049,-256.0697493503291,-94.24523154170794,-39.937698170340624,125.35675450156911,16.119748905198204,272.96639747127364,132.00990815354209
695,6.886250689628095,-256.1057433222573,-94.16101203694441,-40.34598774127109,122.9024811254583,15.277536728964831,272.9708744771277,129.6306125405835
696,6.865270186803973,-256.14224628530377,-94.08462625722495,-40.7716680275824,120.29728638100949,14.445191045613262,272.9783566458854,127.13853666530822
697,6.8358536248300465,-256.1785874658611,-94.01641420754426,-41.212771311819644,117.53483246006725,13.629424309196562,272.9883078444452,124.53449268579502
698,6.797540013538234,-256.2140525880186,-93.95644445040101,-41.66730337273381,114.61103615683334,12.836189405950096,273.00006278337366,121.82172302653328
699,6.750117582356405,-256.2479139838926,-93.90453173200977,-42.1333540013755,111.52423820991584,12.070605524965345,273.01286216921136,119.00599789294091
700,6.693643319509246,-256.27946233365935,-93.86026608602944,-42.609197512915145,108.27530175221602,11.336908258882094,273.0258932313097,116.0956324696605
701,6.628455902611749,-256.30803822899236,-93.82305143150667,-43.093376397897536,104.86763997741764,10.6384246451653,273.0383331951687,113.10142285660068
702,6.555180485554405,-256.3330616058436,-93.79215106075961,-43.584763121813936,101.3071763789087,9.977572720681156,273.04939292295876,110.03650369619105
703,6.474724111641985,-256.3540571177099,-93.76673700742275,-44.082597481528516,97.6022436385627,9.355884117027692,273.05835783479597,106.9161340797318
704,6.38826110232573,-256.37067381374067,-93.74594012146619,-44.58649955864575,93.7634291899848,8.774047384842515,273.06462345871245,103.75742136023737
705,6.297208529122325,-256.3826979821297,-93.72889778205142,-45.09646075060425,89.80337664916576,8.231969134803332,273.06772347874664,100.57899476933636
706,6.203192654477706,-256.390058573772,-93.714796624785,-45.61281714363629,85.73655287971395,7.728849666194102,273.06734884520205,97.40064219529425
707,6.108007861693383,-256.39282513407517,-93.7029084143195,-46.13621028105319,81.5789906186558,7.263269450358016,273.0633572693202,94.24292412307406
708,6.013570013166456,-256.3911986039418,-93.69261803969182,-46.66754012608158,77.34801636863679,6.8332826505088,273.0557731345039,91.12677855455995
709,5.921866411191161,-256.38549572363866,-93.68344329663044,-47.207913990571264,73.06197256839127,6.436513876595574,273.0447784499383,88.07312973687965
710,5.834904625752475,-256.37612815788003,-93.67504655002045,-47.75859387957504,68.73994175595334,6.070254669551347,273.0306959841903,85.10251182375231
711,5.754662370068619,-256.3635778836958,-93.66723860026242,-48.3209435538483,64.40147847628845,5.7315567516916754,273.01396619090934,82.23471633675332
712,5.683040292341347,-256.3483707342676,-93.65997517645135,-48.89637585397205,60.06635214887467,5.417319744154994,272.99511989550683,79.4884696567006
713,5.62181905584094,-256.33105011591573,-93.65334650848303,-49.48630037076073,55.75430130579891,5.124371737386237,272.9747488270612,76.88114396493036
714,5.572621579824551,-256.3121527734146,-93.6475605568109,-50.09207117541915,51.48479705392093,4.8495417791647615,272.9534759790898,74.42850237827811
715,5.536880974681071,-256.29218814999837,-93.64292086131795,-50.71493394241574,47.27681194314401,4.589723963554909,272.93192759869635,72.1444769240592
716,5.515814503775067,-256.2716224444397,-93.63980051223258,-51.35597151223363,43.14859019635582,4.3419332217545605,272.9107083695099,70.04097695582222
717,5.510403692149657,-256.2508679533922,-93.63861416185253,-52.01604697127727,39.11741670648773,4.103353012249617,272.89038101076886,68.12772590255135
718,5.521380406377035,-256.2302778064199,-93.63979011936682,-52.695743837058345,35.19938507956986,3.8713749290881143,272.87145110067297,66.41212577183732
719,5.549218416075902,-256.2101458852117,-93.64374441949093,-53.39530388665742,31.40916861290569,3.643629993829185,272.85435757737025,64.89915106150998
720,5.594129715009778,-256.19071159118704,-93.6508583798798,-54.114564283652825,27.75980155675461,3.418011270268725,272.8394691181756,63.59127588082019
721,5.656064797499281,-256.1721690811626,-93.66146063374691,-54.85289655052434,24.26248051910905,3.1926875114417976,272.8270863732991,62.4884393710367
722,5.734716193675087,-256.15468048468153,-93.6758140832089,-55.60915025270759,20.926396927600734,2.9661077468399974,272.8174497471448,61.58805445627586
723,5.8295248424204,-256.13839233993235,-93.69410778378328,-56.38160386572112,17.75861086994809,2.7369969336484803,272.8107520152694,60.88506347860041
724,5.939689230526044,-256.12345402294665,-93.71645346062576,-57.167924342771386,14.763974474750116,2.5043429943449635,272.8071545293666,60.37204174083126
725,6.064177548617709,-256.11003641437867,-93.74288614471999,-57.96513578326643,11.94510961017912,2.2673758058153486,272.8068051953476,60.03934706923695
726,6.201743329014826,-256.0983486641492,-93.77336828916415,-58.76959679308761,9.302440661311648,2.025539045585988,272.80985600642737,59.87531096376907
727,6.350945059724644,-256.0886509072045,-93.8077966922555,-59.576986012398514,6.834279207611465,1.7784562117409857,272.8164778931346,59.86646532311544
728,6.510170071238385,-256.08126128114253,-93.84601162111605,-60.38229605110015,4.536954176040016,1.5258925540101007,272.82687113657397,59.99779841055728
729,6.677662638427872,-256.07655648898435,-93.88780764998904,-61.17983756767173,2.40497887004479,1.2677150314646448,272.84127046208675,60.25303454044128
730,6.851555882749425,-256.0749661178459,-93.93294578622985,-61.96325690699562,0.4312452812891489,1.0038526857219485,272.8599448500188,60.61493333815453
731,7.029906809161542,-256.07696166125396,-93.98116635433524,-62.72557176941324,-1.392763860640488,0.7342599335255696,272.88319274922287,61.065605493937106
732,7.2107336477396755,-256.0830415806945,-94.03220187948848,-63.459229071491414,-3.0767541117785364,0.45888523223392425,272.9113336576171,61.5868418743942
733,7.392054510841901,-256.0937138238217,-94.08578902644503,-64.15618714343611,-4.631397259264954,0.1776473773404332,272.94469703999897,62.1604512662868
734,7.5719262322348735,-256.1094770870638,-94.14167868104923,-64.8080209842908,-6.068115186144416,-0.1095786555078557,272.9836094362849,62.76859914670515
735,7.748482235028239,-256.13080183401837,-94.19964357974703,-65.40604538178516,-7.3988759481227016,-0.40296495978437574,273.0283804626078,63.394136592428424
736,7.919968395845248,-256.158111688872,-94.25948340776822,-65.94144756250921,-8.636007516526258,-0.7027224603817452,273.07928822261886,64.02090600616586
737,8.084775975685734,-256.19176537472407,-94.32102775242383,-66.40541981141017,-9.792033267706088,-1.0090815982125476,273.136564391533,64.63400986692005
738,8.241470670900492,-256.23203897746384,-94.38413745868904,-66.78928374030936,-10.879531154082756,-1.3222634199327727,273.2003789280539,65.2200307288624
739,8.388816813664022,-256.27910811712803,-94.4487047331944,-67.08460130738668,-11.91101570846011,-1.6424435509077093,273.27082411427534,65.76719488519925
740,8.525795872293564,-256.33302968801274,-94.51465195878339,-67.28327226016322,-12.898839092324726,-1.9697122837534637,273.34789756966165,66.26547743575384
741,8.65161866428042,-256.3937231853354,-94.58192888066583,-67.37762202348098,-13.855104911054806,-2.3040344385907763,273.4314841237466,66.70665159632749
742,8.765730997453852,-256.4609521482672,-94.65050776232516,-67.36048701331497,-14.79158696199706,-2.6452127699540497,273.52133689979746,67.08428884809626
743,8.867812741854742,-256.5343067507861,-94.72037623264555,-67.22530534053352,-15.719644672158825,-2.9928585889281343,273.6170584827384,67.39371843723448
744,8.957770629611012,-256.6131889883774,-94.79152772515695,-66.96621992103543,-16.65012771821527,-3.346372964351837,273.71808350488726,67.63195491924665
745,9.035725399742518,-256.696802224407,-94.86394963209663,-66.57819860041403,-17.593264055700413,-3.7049413214918663,273.82366436435115,67.79760140178345
746,9.101994185998336,-256.78414698428156,-94.93760961558911,-66.05717266443284,-18.558528047534104,-4.067543450278579,273.9328620261888,67.89073446113467
747,9.157069201735903,-256.87402468801974,-95.01244088070611,-65.40019165203249,-19.554488224551914,-4.432979937768138,274.0445438016701,67.91277488641072
748,9.201593805089985,-256.9650504625952,-95.08832747428687,-64.60558922092476,-20.588637099128565,-4.799914970988561,274.15738957665343,67.86634680629106
749,9.23633699063089,-257.05567538601775,-95.165090755111,-63.67315230762791,-21.66720813261723,-5.166934397335974,274.2699072467772,67.75512662119641
750,9.262167273847915,-257.1442176976747,-95.24247812313664,-62.604284201849126,-22.79498722146838,-5.532616892004354,274.38045732766,67.58368262292359
751,9.280026813332944,-257.22890187650273,-95.3201549609149,-61.40215150402139,-23.975127708623514,-5.895615074841651,274.4872860639032,67.35730622927345
752,9.29090648731827,-257.3079041030204,-95.39770055802906,-60.07180520430361,-25.20897878058252,-6.254742515584587,274.5885659315651,67.08183628187713
753,9.295822515777552,-257.37940236851165,-95.47460855329474,-58.620267164079635,-26.49593717052851,-6.609061872578705,274.6824421056382,66.76347870346189
754,9.295795042556598,-257.44162926220037,-95.55029209660552,-57.056574897470334,-27.833331564274104,-6.957968992549181,274.7670831251628,66.40862485699314
755,9.291828852227388,-257.49292530072154,-95.62409344670743,-55.39177949131999,-29.216348331294565,-7.301267669005349,274.8407336574439,66.02367305584875
756,9.284896174184144,-257.53179067904773,-95.69529713737839,-53.638893464800724,-30.63800644671849,-7.639229890781093,274.90176706919624,65.61485863634286
757,9.27592137862976,-257.5569335254979,-95.76314540854598,-51.81278706793469,-32.08918876413366,-7.972636770508871,274.9487355495461,65.18809855660652
758,9.265767257661448,-257.5673130315415,-95.82685454973536,-49.930032799183444,-33.558735875010136,-8.302795903834847,274.98041578095155,64.7488563849822
759,9.255222468467881,-257.56217610231323,-95.88563110041342,-48.00869882463307,-35.0336072140486,-8.631531686148964,274.99584851203053,64.30203265843514
760,9.244989647347802,-257.54108639799574,-95.93868725783726,-46.06809269961925,-36.49911154004749,-8.961146109293121,274.99437073481346,63.85188398597075
761,9.235673802866971,-257.5039448204738,-95.98525522525584,-44.12845760947988,-37.93920549628992,-9.294348749678644,274.9756394771052,63.40197221334485
762,9.227770939524735,-257.4510006788062,-96.02460060214908,-42.21062456582767,-39.33685496529325,-9.634156048412025,274.93964652818636,62.955142860246944
763,9.221657379332633,-257.3828529615478,-96.05603523426201,-40.335625863463285,-40.67444970098801,-9.983761669428295,274.88672372613087,62.513530259519506
764,9.217580722739623,-257.3004413611424,-96.0789300889012,-38.524277683648464,-41.934257452678494,-10.346381783737634,274.81753870625863,62.078585544762674
765,9.215653611587797,-257.2050269826275,-96.09272865416482,-36.79674279467607,-43.098899793799994,-10.725081428354194,274.73308126317175,61.65112280813195
766,9.215851393852043,-257.09816310810623,-96.09696114105783,-35.17208732853618,-44.15182872476796,-11.12259023616766,274.63464081096964,61.23137825553415
767,9.218014577593733,-256.98165698250966,-96.09125947135163,-33.66784794371606,-45.07778155934269,-11.541117406225156,274.52377587138386,60.819076980649605
768,9.221856718347881,-256.85752417696744,-96.07537269568192,-32.29962676370037,-45.86319213839338,-11.982176562873468,274.4022769454503,60.4135021826914
769,9.226978122553028,-256.72793745616787,-96.04918212974292,-31.080731027167143,-46.49653909694741,-12.446431136924245,274.2721243360907,60.01356243405402
770,9.23288544090718,-256.5951721265982,-96.012715201632,-30.021872411056272,-46.96861633411881,-12.933570163565241,274.13544242142507,59.61785398692127
771,9.239016841032084,-256.46154964331487,-95.96615692131545,-29.13093770896442,-47.27271630778098,-13.442222966644428,273.99445164974094,59.22471688034876
772,9.244771967354792,-256.3293809509503,-95.90985811917051,-28.412838330842327,-47.40472252609749,-13.969919149677613,273.8514193115222,58.83228539694782
773,9.249545379041486,-256.2009107468463,-95.84434004657656,-27.869441495684367,-47.36311293908476,-14.51309782932765,273.70861001539333,58.43853485055203
774,9.252761777554948,-256.07826363321215,-95.77029530878943,-27.499581752375114,-47.14888031044937,-15.067167391243004,273.5682367096637,58.04132753381127
775,9.25391122340927,-255.96339299049333,-95.68858523595452,-27.299148263285495,-46.76537876296406,-15.626614419389904,273.4324130100831,57.63846087054422
