time,ax,ay,az,gx,gy,gz,accmagnitude,gccmagnitude
0,-4.150690198375128,-257.0272073063187,66.0782384249451,-12.354268577843003,57.21008628179019,-1.0587469285103743,265.4166239614037,58.44758754539656
1,-4.140609514663652,-257.10226585943195,66.3168111679164,-12.546925909542958,57.48306623197837,-1.06682001534387,265.5503348478396,58.7578581889984
2,-4.126579083518912,-257.1695606656367,66.55485788781361,-12.758924114509835,57.74740170686567,-1.0732352317176148,265.6764102102745,59.06621184550751
3,-4.108985528555076,-257.2286436364169,66.7889525777176,-12.992433088166896,57.9998099644274,-1.077712862419963,265.7935476994076,59.370274840691536
4,-4.088207936334219,-257.2792172862952,67.01576570981571,-13.24947546348097,58.237156686857624,-1.0799724217213353,265.9006142695258,59.667779258180765
5,-4.064607113971974,-257.32114618110603,67.23214710824463,-13.53184962191578,58.45652796858023,-1.0797357460766401,265.99667818168274,59.9566076937234
6,-4.03851710528366,-257.35446384746655,67.4351995987402,-13.841056168050768,58.655296264681056,-1.07673180985368,266.08103430339054,60.2348324048743
7,-4.010239355832735,-257.37937442756845,67.62234136978788,-14.178230285198028,58.83117838983495,-1.0707034202707566,266.15322149393916,60.50074772991068
8,-3.9800397702671586,-257.39624861321744,67.79135594053324,-14.544082078308566,58.98228425812721,-1.0614156933343997,266.2130313496143,60.752895192988575
9,-3.9481487494581695,-257.4056137595086,67.94042947403067,-14.938846682247382,59.1071556773199,-1.0486659259847964,266.2605081509805,60.99008126835213
10,-3.914764176768304,-257.40813846915347,68.06817576261284,-15.36224552430788,59.204795041087976,-1.0322942546479448,266.29594038035447,61.21138822251894
11,-3.8800572180864537,-257.4046122356826,68.17364951284384,-15.813459681025074,59.274684115294924,-1.0121943722473166,266.319844539093,61.41617870736412
12,-3.8441806391641733,-257.39592091842144,68.25634872012763,-16.29111582095631,59.31679327953347,-0.9883235332783489,266.3329422108642,61.6040948411193
13,-3.807279068043155,-257.38301895593685,68.31620711242758,-16.793284873872555,59.331581612377626,-0.9607110801752198,266.3361314905948,61.77505245798424
14,-3.769500280292144,-257.366899320406,68.35357783861663,-17.317493378692863,59.319988168506406,-0.9294648061552786,266.3304540372153,61.9292311152889
15,-3.7310063095376402,-257.3485622473504,68.36920962015469,-17.86074741397893,59.28341475868827,-0.8947746637746995,266.31705904704165,62.06706038437541
16,-3.691983093267648,-257.32898380420187,68.36421639665627,-18.419569010760622,59.223700569887214,-0.8569135932788242,266.29716542280005,62.18920295237667
17,-3.652647428002622,-257.3090854977139,68.3400411894212,-18.9900448743501,59.14308907435636,-0.8162354979656095,266.2720234661605,62.29653511721575
18,-3.613250186303402,-257.28970634196213,68.2984146935992,-19.56788699731116,59.04418783324587,-0.7731705982703228,266.2428775820611,62.39012529999245
19,-3.5740750748364727,-257.2715789295044,68.24130912251019,-20.148504274313648,58.92992192879385,-0.7282185739972695,266.2109316067041,62.47121114146836
20,-3.5354326998057783,-257.2553109008937,68.17088801404624,-20.727083575560922,58.803481818113696,-0.6819400738971567,266.17731828269075,62.54117556494207
21,-3.497650237314173,-257.24137279376913,68.08945290689358,-21.29867804765527,58.66826640898156,-0.6349473110995942,266.14307406164914,62.60152193615421
22,-3.461057410909683,-257.23009270598885,67.99938791876085,-21.85829987048476,58.52782215890512,-0.5878945240604708,266.10911992130497,62.65384822963891
23,-3.425969703620971,-257.2216576744618,67.90310337157588,-22.40101442570626,58.38577902088656,-0.5414690192615107,266.0762483973598,62.69981998654336
24,-3.39266987854614,-257.2161212489928,67.80297980152507,-22.92203284072823,58.24578410571765,-0.496383309665791,266.04511666962424,62.741141834453494
25,-3.3613890561804136,-257.21341645570556,67.70131395425545,-23.41680010111949,58.11143400461314,-0.4533685633543257,266.0162453319687,62.779527425225815
26,-3.33228878887716,-257.21337314499357,67.60026860805546,-23.881076290264712,57.986206831215604,-0.413169246089728,265.9900223432834,62.8166678222398
27,-3.3054456824905296,-257.2157385445664,67.50182821471829,-24.311008932914056,57.87339519761364,-0.37653852957142303,265.96671152466985,62.85419860661055
28,-3.2808400106946656,-257.22019974095343,67.40776229457592,-24.70319482205472,57.7760415048166,-0.34423380075430193,265.94646486185803,62.893666222682775
29,-3.2583493773287926,-257.22640689479965,67.3195981134817,-25.054730075130813,57.69687706818619,-0.3170115284390547,265.92933785174165,62.936494307308976
30,-3.237747915980452,-257.2339962068937,67.23860341986763,-25.36324751623093,57.638266691608315,-0.2956208541968531,265.91530715173656,62.98395093427486
31,-3.2187110129927823,-257.2426118170686,67.16577923318525,-25.626940838525993,57.60216033580951,-0.2807954932638583,265.9042897534467,63.03711784965246
32,-3.2008252524366307,-257.2519258772622,67.10186215270798,-25.84457536676349,57.590053475754374,-0.2732437320645454,265.8961628253777,63.09686285642703
33,-3.1836031923750108,-257.2616560969632,67.04733539716965,-26.015485598687118,57.60295758512437,-0.2736364596754346,265.89078335560873,63.16381649937171
34,-3.166502587258809,-257.27158019296354,67.00244757648792,-26.1395600448871,57.64138189722163,-0.28259333928159913,265.8880067987881,63.23835407676816
35,-3.148949648805711,-257.28154685153277,66.96723787934265,-26.217214212225468,57.70532716295508,-0.3006674497841366,265.8877040195911,63.32058375798353
36,-3.1303658043970843,-257.2914829647874,66.94156596376803,-26.249352911123985,57.79429160638977,-0.3283289338109279,265.88977587002853,63.41034126773709
37,-3.1101971661782137,-257.3013970133616,66.9251445279907,-26.237323429049145,57.90728876194287,-0.36594827781909045,265.8941647620661,63.50719130053284
38,-3.087945600956572,-257.31137855499685,66.91757249298838,-26.182861460054006,58.04287642149838,-0.4137798151381627,265.9008626653484,63.61043558417713
39,-3.0631999511798536,-257.3215938624557,66.91836700931488,-26.08803192457321,58.19919551064363,-0.4719459538782717,265.9099151079885,63.719127268030206
40,-3.0356657291729765,-257.3322778371464,66.92699297998399,-25.955166901149607,58.37401734312928,-0.5404225498051617,265.9214209578425,63.832091039110566
41,-3.0051915984447826,-257.3437224305527,66.94288923263136,-25.786802844783058,58.56479742003981,-0.6190257982369467,265.9355279756941,63.94794812040924
42,-2.9717911223645963,-257.35626197809694,66.96549077144118,-25.5856191569308,58.7687338058546,-0.7074010270255997,265.95242437498194,64.06514516550357
43,-2.9356584820581206,-257.3702560804853,66.9942467952791,-25.354380090029956,58.98282815523338,-0.8050138426854825,265.97232691133075,64.1819860936139
44,-2.897177112069171,-257.38607086148465,67.02863446701288,-25.095881971696272,59.2039476677604,-0.9111442069527779,265.99546628926413,64.2966661197815
45,-2.856920516437764,-257.404059491023,67.06816865877623,-24.812907764621425,59.428886549710285,-1.0248841771454522,266.02207079399415,64.40730754580636
46,-2.815644903032183,-257.42454279689576,67.11240796159875,-24.50819087482455,59.65442587042905,-1.1451401784564252,266.05234901165113,64.51199714066678
47,-2.7742736420236915,-257.4477907158671,67.16095721254062,-24.18438974449172,59.87739095056246,-1.2706407215787998,266.0864724252672,64.60882504046891
48,-2.7338738675498786,-257.4740053638245,67.2134668459707,-23.844074117603455,60.09470558246712,-1.3999503831199185,266.12455871772045,64.69592501337978
49,-2.6956258313870425,-257.503306604625,67.2696295718869,-23.489723075367298,60.30344244650028,-1.5314906160093416,266.1666567612821,64.77151570116949
50,-2.660785968062874,-257.53572100700814,67.3291750756936,-23.123734153660326,60.500869075280555,-1.66356757959315,266.21273433406424,64.8339421448749
51,-2.630645074652331,-257.57117486054557,67.39186345265689,-22.74844215558991,60.68448871774754,-1.794406725405708,266.2626694012994,64.88171663781522
52,-2.6064834435442754,-257.60949151075357,67.45747793484779,-22.36614566809934,60.85207555042124,-1.9221934036850155,266.31624536708523,64.91355780738503
53,-2.5895250293919365,-257.65039286190813,67.52581725364507,-21.979138787596,61.00170388372052,-2.04511832709827,266.3731502523685,64.92842681804756
54,-2.580892674994233,-257.69350465484086,67.59668775114383,-21.58974519265267,61.13177126184088,-2.161426385854027,266.4329794631004,64.92555967342956
55,-2.5815661382970307,-257.7383650637857,67.66989509024972,-21.200351506355254,61.24101558996742,-2.2694670631804423,266.49524168230886,64.9044947260349
56,-2.5923443461100755,-257.7844361612295,67.74523521775386,-20.81343685918023,61.32852659692151,-2.367744541418116,266.559367372898,64.8650946335215
57,-2.613813088130937,-257.8311177893309,67.8224842975964,-20.43159566623669,61.393752030445484,-2.4549655111629045,266.6247193833995,64.8075620979036
58,-2.6463192396490265,-257.8777633470678,67.90138766660145,-20.057550869705167,61.43649897138431,-2.5300827014525913,266.69060520616335,64.73244877410673
59,-2.6899524446246645,-257.9236969782442,67.98164825496004,-19.694155290393113,61.456930540909106,-2.5923322395068675,266.7562905134924,64.64065674338192
60,-2.74453490182797,-257.9682316425903,68.06291514737629,-19.344379270225126,61.455558090305715,-2.641263124661937,266.82101365237673,64.53343193847402
61,-2.809619468496928,-258.0106875819912,68.14477299320897,-19.0112834181929,61.43322876550169,-2.676757350772853,266.88400081243896,64.41234891924147
62,-2.8844958260302667,-258.050410746094,68.22673289578768,-18.697975969269997,61.39110820594059,-2.6990394977306846,266.94448160821025,64.27928649160488
63,-2.9682040718887337,-258.0867907619904,68.30822536611157,-18.407555064736325,61.33065812795648,-2.70867490673655,267.00170482111633,64.13639390440214
64,-3.0595548895382043,-258.1192779732994,68.38859599494874,-18.143037189002282,61.2536086468806,-2.7065558722599308,267.05495400369,63.986047748447135
65,-3.1571554044862586,-258.1473989679388,68.46710461351412,-17.90727397247773,61.161925335078664,-2.6938756635014633,267.1035625742191,63.830800125510315
66,-3.259439886465559,-258.1707699475589,68.54292873363482,-17.70286043029817,61.057771122835476,-2.6720906418915713,267.14692797093727,63.67331903278214
67,-3.364704518462915,-258.18910730452154,68.61517189109009,-17.53203832204214,60.94346322344948,-2.6428712600827833,267.18452440490626,63.51632217875096
68,-3.4711455241943403,-258.2022348452738,68.68287716698296,-17.396598644399383,60.82142537694573,-2.608043298690098,267.2159137332796,63.36250566913659
69,-3.5769000568747273,-258.21008723213123,68.74504572207766,-17.297787333138952,60.69413594338361,-2.569521282369541,267.2407539929576,63.21446926695236
70,-3.680089303396452,-258.2127094459258,68.80065976386666,-17.236218139616042,60.564072751771114,-2.5292365464573305,267.25880525219134,63.07464027589375
71,-3.7788631098717222,-258.2102524059594,68.84870905656759,-17.21179649220333,60.43365604546149,-2.489062828470565,267.2699326789775,62.94519847860995
72,-3.87144513358763,-258.20296524956854,68.88821991881409,-17.223658053171857,60.30519124326897,-2.450742490275462,267.27410703120836,62.82800489417123
73,-3.956177254076806,-258.1911850481775,68.91828562281538,-17.27012562311302,60.18081348578548,-2.4158165174404482,267.27140302537015,62.724537329840494
74,-4.031561809713862,-258.1753248247943,68.9380971396156,-17.348687911187394,60.062436055159445,-2.3855613076135147,267.26199612874643,62.63583575857532
75,-4.096300107297338,-258.155860642822,68.94697317789547,-17.456003335600133,59.951704745559475,-2.3609350012192065,267.2461582248476,62.562460422109936
76,-4.149325578341877,-258.1333183420421,68.94438839903137,-17.587931331280753,59.849960062615025,-2.3425357585903077,267.2242523958165,62.504465158232826
77,-4.189830059709311,-258.10826028728695,68.92999859623775,-17.73959256095747,59.758208681497926,-2.3305739157425096,267.1967268409621,62.4613877083854
78,-4.217282042151947,-258.08127232168533,68.90366160446968,-17.90545797814804,59.6771049693602,-2.3248593135126945,267.1641077855374,62.432257758352314
79,-4.231436247444567,-258.0529510337726,68.86545285567443,-18.079465028881735,59.60694279511764,-2.324804323578947,267.12699120182845,62.41562244707818
80,-4.232334386319293,-258.0238914911931,68.81567479901317,-18.25515764149717,59.5476574770139,-2.3294422907924446,267.0860332926224,62.40958826566505
81,-4.2202973478820125,-257.9946757170346,68.75485976769455,-18.425845239497594,59.49883753619157,-2.3374603720890814,267.04193990421373,62.411877688185
82,-4.195909385807859,-257.96586228424013,68.68376622242842,-18.584774908762718,59.45974579187144,-2.3472451273215973,266.99545522493696,62.4198984157317
83,-4.159995090514865,-257.93797741183613,68.60336863766085,-18.725310079514323,59.42934913043219,-2.3569387179162673,266.947350221731,62.43082267100194
84,-4.113590076062077,-257.9115078568211,68.51484161761022,-18.841108678616205,59.40635598064183,-2.364503203975411,266.8984112640719,62.44167354592721
85,-4.057906430834169,-257.88689572668096,68.41953906516395,-18.926293728369682,59.38926019293253,-2.367790218762585,266.8494292833799,62.44941506650402
86,-3.9942941411827233,-257.86453513953586,68.31896928604031,-18.97560984040847,59.37638973374668,-2.3646132511497817,266.80118964213824,62.4510424914537
87,-3.924199867505853,-257.84477049336647,68.2147667672602,-18.98455991230047,59.365958401701256,-2.352819859598466,266.75446269256315,62.44366942220012
88,-3.8491245453931486,-257.8278959750383,68.10866111569307,-18.94951745229094,59.356118647913625,-2.3303613249164643,266.70999481418824,62.42460852821546
89,-3.770581253842494,-257.81415580646666,68.00244346130273,-18.867811221937867,59.3450135420284,-2.29535746613138,266.66849954264217,62.39144304955357
90,-3.6900546631986857,-257.80374461931603,67.8979306595463,-18.737780211812314,59.33082599323017,-2.2461545570306765,266.6306483033454,62.34208672049376
91,-3.608963189533803,-257.79680736729694,67.79692785478673,-18.55879826087534,59.311823538888,-2.181374502278435,266.597060334331,62.274830358596816
92,-3.528624765108053,-257.79343836213286,67.70119027156672,-18.331268822033827,59.28639733604616,-2.0999537331917604,266.56829162625365,62.1883740435789
93,-3.4502269347347054,-257.7936792793936,67.61238536396951,-18.05659144365829,59.25309435373246,-2.0011707395392664,266.5448230215233,62.0818444916825
94,-3.3748019047116555,-257.7975162134742,67.53205659788371,-17.737102469373664,59.21064210042402,-1.8846617526952116,266.5270478740172,61.95479784750954
95,-3.3032072694880124,-257.8048760024609,67.46159011103215,-17.375993218338564,59.15796555483746,-1.7504247280914416,266.5152598010092,61.80720867133207
96,-3.2361133269711306,-257.815622105385,67.40218524942621,-16.9772094781055,59.09419635631868,-1.598812333963337,266.50964105987657,61.63944643720189
97,-3.173997941947977,-257.8295503804594,67.35482956541786,-16.545336554138157,59.0186747416791,-1.4305151055536438,266.51025204412343,61.45224137336553
98,-3.1171496552291345,-257.84638525852114,67.32027846553524,-16.085474393661908,58.93094512697168,-1.2465362684043508,266.51702243264924,61.24664192335055
99,-3.0656791595064647,-257.8657769885489,67.29903948583978,-15.603107413871358,58.83074659092774,-1.0481599526573873,266.5297446445283,61.023966447690235
100,-3.0195385068071134,-257.8873007166028,67.29136116220764,-15.10397360896367,58.71799980949569,-0.8369146129332238,266.54807032322145,60.785752010983195
101,-2.9785466663661357,-257.9104580622378,67.29722658349915,-14.593937314002932,58.592792185691295,-0.61453347832955,266.57151050288905,60.53370318699527
102,-2.942419481603452,-257.93468160574855,67.31635189607074,-14.078869664874716,58.45536297615573,-0.38291380195881536,266.59943990635713,60.269643733365456
103,-2.9108017802705586,-257.9593423740564,67.34819016202427,-13.564540267958142,58.30609011503067,-0.14407651892854628,266.63110553925725,59.99547371085177
104,-2.883299407566712,-257.9837601045998,67.39194096176999,-13.056522857455843,58.14548015958656,0.09987236743168246,266.6656394424625,59.713134130242814
105,-2.8595092423583504,-258.0072158791536,67.44656598361448,-12.560116812009909,57.97416231304032,0.3467777221592167,266.70207524834007,59.42458049816017
106,-2.8390456990686928,-258.0289666983292,67.5108106396466,-12.080285408179533,57.792886837443326,0.5944679676740968,266.7393681185653,59.13176574097371
107,-2.821562661992371,-258.0482616314966,67.58323151734051,-11.621610704973452,57.60252743141769,0.8407842986345562,266.7764176493758,58.836632012517484
108,-2.806770175479192,-258.0643592010163,67.66222917882655,-11.188264072840397,57.40408644761887,1.0836065002501334,266.81209328181205,58.54110998608304
109,-2.794445549182776,-258.0765456149105,67.7460854300779,-10.783990651060611,57.198701317226174,1.3208757023395579,266.84526161551133,58.24712355431876
110,-2.784438870857025,-258.0841534138412,67.83300375269742,-10.412105427359533,56.98765031522537,1.5506145665132176,266.8748148717093,57.956597488810765
111,-2.776673241503331,-258.08658009599935,67.92115122599294,-10.075498164658882,56.772355792606795,1.7709454548576113,266.89969965828055,57.67146549253478
112,-2.771140302054243,-258.08330632107237,68.00870008780208,-9.776644101681066,56.554383118349286,1.9801071020207703,266.918945181427,57.39367612222043
113,-2.767891734146055,-258.07391335564273,68.09386721532374,-9.517617321811668,56.335433773602425,2.1764702681085684,266.9316901418142,57.12519424036404
114,-2.7670273801520207,-258.0580994838598,68.17495029504816,-9.300103956201257,56.1173313499192,2.358552801877268,266.93720773696367,56.867996010611705
115,-2.768680563759894,-258.0356951076465,68.25036012254786,-9.12541290673037,55.901999640466485,2.5250344575798827,266.9349283647375,56.624055981073354
116,-2.7730012895198692,-258.00667614623205,68.31864900332144,-8.994482464804795,55.691432519934054,2.6747716665736494,266.92445965070266,56.39532543626037
117,-2.7801383174303442,-257.9711751368388,68.37853540104311,-8.907882011334857,55.487655766474944,2.8068123197623382,266.90560327096296,56.18370181461478
118,-2.790221488367223,-257.9294892202181,68.42892486277908,-8.865808844666699,55.29268131643517,2.9204105362693222,266.87836780676776,55.99098950293054
119,-2.8033458785978502,-257.8820840689435,68.46892706485532,-8.86808099236728,55.108454733865386,3.015041347901993,266.84297670126426,55.818852780991165
120,-2.8195592768291675,-257.82959285454154,68.49786871202073,-8.914127523787105,54.93679707459288,3.0904151152930925,266.79987039647784,55.668762226821244
121,-2.838854163042262,-257.7728095202007,68.51530197913891,-9.002978336931612,54.779342874988636,3.1464912784113106,266.7497018781311,55.54193653912597
122,-2.8611649031463506,-257.71267583406944,68.5210081814532,-9.133255618426015,54.63747656273085,3.1834908133540196,266.6933250501273,55.439282354266616
123,-2.8863702870251995,-257.65026194023756,68.51499644007653,-9.303169170358828,54.51226998579944,3.2019066040374837,266.6317756082167,55.361335052163
124,-2.9143009184890056,-257.58674049351123,68.49749732200057,-9.5105175977083,54.40442392015048,3.202510847274782,266.56624448686415,55.30820369931991
125,-2.9447504865271426,-257.52335498073074,68.46895174752224,-9.752697002208635,54.31421640257782,3.1863585587394914,266.4980445278301,55.27952322950146
126,-2.9774897070537207,-257.46138339088594,68.42999576207735,-10.026718360128925,54.24146059628884,3.1547862263491897,266.42857163458126,55.27441676948419
127,-3.0122816675159543,-257.4020988831969,68.3814419432736,-10.329234188645607,54.18547461626128,3.109404683868012,266.35926219034917,55.291470665350765
128,-3.048897329249697,-257.3467294419748,68.32425821604886,-10.656574477624597,54.14506529987826,3.052085366458576,266.29154884540316,55.32872424199172
129,-3.0871299948043633,-257.29641862726976,68.2595447202333,-11.004791272215465,54.11852734481376,2.9849392750787183,266.22681686079716,55.38367568808552
130,-3.1268076331766017,-257.25218940108635,68.18850915896151,-11.369710826392513,54.10365860020203,2.9102882325568076,266.16636301406805,55.45330476621923
131,-3.1678021110092764,-257.2149127131984,68.11244082168595,-11.746991958187136,54.097791598833616,2.830628342446888,266.1113587262689,55.53411232258137
132,-3.2100346634533032,-257.18528219935274,68.03268339445214,-12.132189124895355,54.09784068418011,2.7485859020078314,266.06281873195576,55.6221758371579
133,-3.2534773877860785,-257.1637960393477,67.95060688229364,-12.520818754962825,54.10036341739469,2.666866342640025,266.0215763800628,55.713219602780306
134,-3.2981510759894865,-257.15074671584165,67.86757935133095,-12.90842744272172,54.101634471365976,2.5881971202968286,265.9882664643577,55.802697660378314
135,-3.344120109791169,-257.14621901887745,67.78493946038434,-13.290660648578767,54.097729987059274,2.515265894874289,265.96331617416206,55.885887388942095
136,-3.391485212200483,-257.15009607811356,67.70397075813277,-13.663330496146976,54.084620320788616,2.4506557604211165,265.9469442161518,55.957991577976706
137,-3.4403745813795843,-257.1620725629099,67.62587857008602,-14.02248111787036,54.05826910759926,2.3967795831310634,265.9391674964839,56.01424675212765
138,-3.4909335931830343,-257.18167372566097,67.55177011683784,-14.364449823774667,54.01473648398022,2.355815573203376,265.93981425225707,56.05003536185271
139,-3.543313152054416,-257.2082788275256,67.48263831318626,-14.685922237004421,53.950284126695635,2.329646066492657,265.94854233839266,56.060999197146735
140,-3.597656942749739,-257.24114757183276,67.41934947112009,-14.983979540719577,53.861479537437944,2.319801209130664,265.9648614025536,56.043151112828355
141,-3.6540880779769207,-257.27944829345194,67.36263487469135,-15.256136176111525,53.74529684619509,2.3274089132332167,265.98815773694656,55.992982003756545
142,-3.712695769297605,-257.322286732941,67.31308594528616,-15.500366728574217,53.599211420285556,2.3531521370543484,266.0177206117432,55.907560040500236
143,-3.7735226919270457,-257.3687342950636,67.27115250085596,-15.715121266525305,53.42128577932402,2.3972342698714137,266.0527689097658,55.78461948110277
144,-3.8365537383078108,-257.41785483975247,67.23714344631419,-15.899328931206043,53.21024467614094,2.4593532042192927,266.0924769846777,55.62263682975524
145,-3.901706800874423,-257.4687293292841,67.21122913125075,-16.05239002991286,52.96553762876357,2.538684587698408,266.1359989061554,55.42089261854835
146,-3.968825999209261,-257.52047798744326,67.19344463601172,-16.17415726104132,52.68738761937045,2.633874759749716,266.18249058112684,55.17951758793496
147,-4.037677439178871,-257.5722798750857,67.1836934688131,-16.26490703006106,52.37682508319401,2.7430439269801337,266.23112953380723,54.8995225131665
148,-4.107947353645324,-257.6233898565324,67.1817515160375,-16.325302105062622,52.03570668232302,2.863800115976409,266.28113228375315,54.58281135291883
149,-4.179242416453924,-257.6731528190369,67.18727137761337,-16.356347096840835,51.66671869981225,2.9932643160919126,266.33176922481204,54.23217778001368
150,-4.251092050166126,-257.721014809947,67.19978729066518,-16.35933841085642,51.2733652151569,3.1281070071442505,266.38237673334186,53.8512855039211
151,-4.322952549477026,-257.7665306394107,67.2187207695378,-16.33581035951522,50.85994153610641,3.2645960121213777,266.43236609953425,53.44463310330868
152,-4.3942128218129355,-257.80936757411337,67.24338705876012,-16.287479026366814,50.431493613359535,3.39865539227004,266.4812289396085,53.01750430567612
153,-4.464201562764327,-257.84930496853576,67.27300260042634,-16.216185333898377,49.99376425370466,3.5259349744546116,266.5285389842046,52.57590471561688
154,-4.532195730703561,-257.8862298863006,67.3066938929535,-16.123838726536388,49.55312680452146,3.641890056247056,266.5739503797152,52.1264858774585
155,-4.597430222445665,-257.9201288634442,67.34350824703672,-16.012362981101578,49.11650666115147,3.7418707604844434,266.6171927659535,51.676457316543434
156,-4.659108718651494,-257.9510760133352,67.38242695850947,-15.883645811918168,48.691290608424346,3.8212202868603113,266.65806344346294,51.23348695542401
157,-4.716415834994854,-257.9792177867986,67.42238132814295,-15.73949404529162,48.28522378579629,3.875380906689101,266.69641703511286,50.805590145134374
158,-4.768530923338461,-258.0047549275115,67.46227183874444,-15.58159615896647,47.90629398361297,3.900006034423482,266.7321532412019,50.40100749882058
159,-4.814643961319981,-258.02792242796613,67.50099068294062,-15.411493908959251,47.56260300335602,3.891076169843084,266.7652035173193,50.02807173522308
160,-4.853973891310276,-258.0489684653259,67.53744761695282,-15.230564572975693,47.262224967961636,3.845015991434012,266.79551761636026,49.695063847107825
161,-4.885789562061064,-258.0681333170838,67.57059865922189,-15.040014989640655,47.0130518157007,3.758809440549818,266.82305083769614,49.41005916122028
162,-4.909433100763719,-258.0856291863517,67.59947651240743,-14.840888047677067,46.8226267895162,3.6301093403109292,266.8477525935549,49.18076428885519
163,-4.924345101945161,-258.1016218053749,67.62322104610557,-14.634081602759693,46.69796752838807,3.457337999493991,266.869556702254,49.01434657739397
164,-4.930090522570936,-258.11621464457517,67.64110799843145,-14.420379064496158,46.64538133402154,3.2397753324532,266.8883737268461,48.917258442712935
165,-4.926383721329251,-258.12943645726745,67.65257423566955,-14.200490239477451,46.6702762630874,2.9776312006066012,266.9040856237385,48.89505985941359
166,-4.913110818675868,-258.1412326951252,67.65723824895696,-13.975100525775517,46.7769727971523,2.6720989045878047,266.91654286035714,48.95224324668399
167,-4.8903476303160645,-258.15146111509114,67.65491491865606,-13.744926211975498,46.968521855027774,2.325387031845831,266.92556404565954,49.092065897197045
168,-4.858371827593827,-258.1598917830449,67.64562392223324,-13.510773380620464,47.24653571599058,1.9407272029150773,266.9309381016117,49.31639582416576
169,-4.817668489408809,-258.1662116637,67.62959147742013,-13.273597737966066,47.61103894424106,1.5223556919233867,266.93242907811424,49.62557737470507
170,-4.76892862189928,-258.17003396891187,67.60724534869495,-13.034562619217558,48.060346633859915,1.075467483284913,266.9297837635051,50.01832317611557
171,-4.713040489143032,-258.1709123610637,67.57920322631847,-12.795092460080289,48.59097722004045,0.6061420864863856,266.92274221819605,50.49163893850525
172,-4.6510737783917255,-258.16835996632904,67.54625478060468,-12.556919132896462,49.197606665090355,0.12124131210986494,266.9110512711282,51.040787253511844
173,-4.584256784842379,-258.1618729040018,67.50933790226317,-12.322118640444883,49.87306996228293,-0.3717198273721079,266.8944808309778,51.65929571553388
174,-4.513947017267764,-258.15095764837224,67.46950983686378,-12.09313570203758,50.60841462879676,-0.8647268741104988,266.87284253832104,52.339013457448736
175,-4.441595951117436,-258.13516104525996,67.42791412454356,-11.87279379464765,51.39300927734171,-1.3494409745519242,266.84600986182676,53.07021863989264
176,-4.368709055397461,-258.1141012973784,67.3857444815144,-11.664288311198986,52.2147085455974,-1.817390693891011,266.81393831250307,53.84177765780632
177,-4.296802571881197,-258.08749784367063,67.34420697975034,-11.471160738083523,53.060073651004515,-2.260174983411582,266.7766841338084,54.64135487140196
178,-4.227358726773443,-258.0551979320563,67.304482036154,-11.297252189516065,53.91464563913642,-2.669670767081484,266.73441974500287,55.45566956090226
179,-4.161781108066951,-258.0171978774561,67.26768774104659,-11.146635330332048,54.763266053605385,-3.038237942334127,266.68744440560147,56.270794616056286
180,-4.101351905567197,-257.973657438817,67.23484591171437,-11.023524709376872,55.590437372587914,-3.3589142870028934,266.63618895803467,57.072489321053126
181,-4.047192627246276,-257.92490633326196,67.20685201303719,-10.93216679063168,56.38071325993139,-3.625592940810427,266.58121400667613,57.8465566168579
182,-4.000229833196693,-257.87144252855927,67.18444982568802,-10.876712436580714,57.11910659080074,-3.833175815678604,266.52320142542806,58.57921352804978
183,-3.9611674185667964,-257.8139225070566,67.16821150611437,-10.861076140000403,57.791501457471554,-3.977697390666445,266.4629395590173,59.25746211668895
184,-3.930466934863001,-257.75314412263765,67.1585235097914,-10.888787711677354,58.38505409836765,-4.056414698303402,266.4013028532962,59.86944746199628
185,-3.9083371668493307,-257.69002302612074,67.15557873830141,-10.962843190135803,58.88856710871454,-4.067860780774674,266.3392269619378,60.404788879581155
186,-3.8947336390644227,-257.6255639685411,67.15937512687536,-11.085562311141876,59.29282154623213,-4.011860439500413,266.2776806592967,60.85487101846397
187,-3.8893681016396573,-257.56082856767625,67.16972064216614,-11.2584599373344,59.590852714556426,-3.88950868897828,266.2176360882779,61.21308268684301
188,-3.8917275367587214,-257.49690125827306,67.18624436522134,-11.482138441608125,59.778157437228934,-3.703113879560412,266.1600389224512,61.47499321863581
189,-3.901101843388221,-257.43485512095765,67.2084130512326,-11.756207234420337,59.85282336502539,-3.456108875339833,266.10577991915255,61.6384587534125
190,-3.9166189529361763,-257.37571916841995,67.23555226258586,-12.07923451147339,59.81557408722811,-3.152934865301547,266.0556691460785,61.70365377174037
191,-3.9372856006236017,-257.32044854856787,67.26687089058603,-12.44873492927052,59.66972735856094,-2.7989032419012734,266.0104139698919,61.67302642666093
192,-3.9620314400250427,-257.2698990070619,67.30148777067589,-12.86119529369196,59.421067464674906,-2.400041419005949,265.97060174681394,61.551179496085176
193,-3.989753897915293,-257.2248067454865,67.3384592834647,-13.312138458280582,59.07763651132246,-1.962928491350999,265.9366879996936,61.344682034352154
194,-4.019361271114203,-257.1857744579217,67.37680723517268,-13.796223513708634,58.649453078189055,-1.49452636801994,265.9089906274143,61.06181987991635
195,-4.0498119924158145,-257.15326388382766,67.41554668766732,-14.307378152697021,58.14816997633088,-1.0020115766338984,265.8876903633226,60.71229585451573
196,-4.080148548996369,-257.1275947611117,67.4537135793297,-14.838957058698739,57.58668547736176,-0.49261242028734864,265.87283731049644,60.30689249547845
197,-4.1095250594138895,-257.1089496156642,67.4903919191174,-15.383918545641272,56.978724089423565,0.026544415836949355,265.86436293961714,59.85711129316467
198,-4.137227946308236,-257.0973833891285,67.52474011899255,-15.935010641718485,56.338403641364145,0.5485744227946266,265.86209646392734,59.37480261593968
199,-4.162689520576996,-257.0928365681769,67.55601574987539,-16.484957436541674,55.67980517661391,1.0669604847521608,265.86578411083764,58.87179992146481
200,-4.18549465152271,-257.0951503454305,67.5835977387298,-17.026636803601004,55.01656115246847,1.5756612291483698,265.87510961680044,58.35957071566336
201,-4.205381002700294,-257.1040824294564,67.60700480808936,-17.553241524248307,54.361475921110284,2.069201914285138,265.8897143048615,57.84889528327132
202,-4.222233533135291,-257.1193223277545,67.62590886136593,-18.058417286149187,53.72619058629707,2.5427479950948197,265.90921528131844,57.34958263113748
203,-4.236074122571878,-257.14050513783985,67.64014216387108,-18.536372876273322,53.120902125114625,2.99216196747637,265.9332205309962,56.870231380990944
204,-4.247047300466808,-257.16722307574696,67.64969761789415,-18.981959965313912,52.55414417050236,3.414044240915489,265.9613399938611,56.41804150731557
205,-4.2554030734380675,-257.1990342122967,67.65472207448924,-19.39072201142268,52.03263418398981,3.8057586703765316,265.99319210298336,55.99868088575998
206,-4.261477626371608,-257.2354682141303,67.65550329719659,-19.758913859937383,51.56118907010177,4.165443107868507,266.0284057486941,55.61620869489533
207,-4.265672229778105,-257.27602923773173,67.65245178065626,-20.08349547757634,51.142708724813225,4.492005033796329,266.0666181186193,55.27305587657738
208,-4.26843028036693,-257.3201964012103,67.6460790492432,-20.362104819737258,50.77822467858597,4.785102095141129,266.10746923479917,54.97006115961031
209,-4.270212315249811,-257.3674224335751,67.63697422638873,-20.593015966263465,50.46700900160701,5.045107305173063,266.1505942213076,54.70655964343853
210,-4.27146910591889,-257.41713122290395,67.62578053891176,-20.775089284850175,50.206737059452955,5.273058806668043,266.1956144265573,54.48051966115831
211,-4.272613394948642,-257.4687150884568,67.61317309365201,-20.90772044798853,49.993696532564485,5.470594436991688,266.24212854895586,54.28872257262053
212,-4.273991321932681,-257.52153266249593,67.59983886231305,-20.99079462515994,49.82303427436913,5.639871775599359,266.2897048787321,54.12697921356531
213,-4.2758549692745484,-257.5749082194559,67.5864593724873,-21.024651116121902,49.689032021421475,5.783474846994553,266.3378756168864,53.990375902476565
214,-4.278337632927189,-257.62813307776906,67.57369615120467,-21.010062173890933,49.58540167469063,5.904309177405289,266.38613391524046,53.87354220850494
215,-4.281433324795406,-257.68046936214455,67.562178621769,-20.948227970723273,49.50559085912502,6.005487447624367,266.43393386694606,53.770932184198294
216,-4.284981671663783,-257.7311561069868,67.5524940257902,-20.840787814527232,49.44308973352369,6.090208534553053,266.48069334340425,53.677110529576694
217,-4.2886589387106655,-257.7794175416122,67.54517899193989,-20.689846029077657,49.3917305450524,6.161633281880589,266.5257994452982,53.58703522093088
218,-4.291975578327004,-257.82447340885506,67.54071248749801,-20.498009528534478,49.34597219406176,6.22276086067276,266.568616370244,53.49632854592446
219,-4.294280561969559,-257.86555122049845,67.53950999564358,-20.268433156929028,49.301163067067655,6.27631001604313,266.6084955740542,53.401529237978494
220,-4.294772642427191,-257.90190038011514,67.54191880701244,-20.00486834789669,49.25377652712697,6.32460976297111,266.64478813887513,53.300319418165216
221,-4.292518424835055,-257.93280811463296,67.54821425474432,-19.711710502171815,49.201614621280406,6.369504097693814,266.67685925458443,53.19172119857625
222,-4.286476713420862,-257.9576171661689,67.55859659676166,-19.394040561481884,49.14397669231479,6.412274971627256,266.7041046945438,53.076258953922924
223,-4.275528217013244,-257.9757451598007,67.57318816507738,-19.057656520827674,49.08179058656187,6.453587163432952,266.72596910705204,52.95608433646453
224,-4.25850942735801,-257.9867053841132,67.59203043914032,-18.709091066033217,49.01770495473595,6.493457879468964,266.7419657765742,52.835062030793694
225,-4.234249307797974,-257.9901283677438,67.61508086157158,-18.35561212840579,48.95614172955342,6.531252994423467,266.7516972041846,52.71881499890068
226,-4.201607341444721,-257.9857832223641,67.64220942796493,-18.005203839904578,48.90330828651659,6.565710844362751,266.75487550864494,52.61472857510702
227,-4.15951150419005,-257.97359742526226,67.6731952549046,-17.66652607620066,48.86716912597403,6.594993431017872,266.75134140368044,52.531913273737345
228,-4.1069948289825975,-257.95367360918664,67.7077234457077,-17.34885148248935,48.857377204017475,6.616763858848322,266.74108043253966,52.481126614407074
229,-4.043229379651323,-257.9263019631715,67.74538268305909,-17.061979630685606,48.88516532800626,6.6282879078315595,266.7242352023101,52.47465471155797
230,-3.967556631830901,-257.89196696969,67.78566406987026,-16.816128767061276,48.963198368567454,6.626556908324079,266.7011125008586,52.52615487032701
231,-3.879513455510647,-257.85134743709676,67.82796172021239,-16.62180642472107,49.10538745662285,6.608428495060614,266.67218440039164,52.65046098803742
232,-3.7788531284539206,-257.8053091818908,67.87157546533363,-16.489660938880622,49.326667823768794,6.570781294482854,266.63808280024017,52.86335414571702
233,-3.6655611128881103,-257.75489025201864,67.9157159448641,-16.43031658675336,49.64274247188129,6.510679126473268,266.5995873578368,53.18130134608122
234,-3.5398656994445346,-257.7012791583138,67.95951241860816,-16.45419565946552,50.069794400795345,6.425539940659556,266.55760733229886,53.621165896228185
235,-3.4022440315880194,-257.6457870645676,68.00202373251881,-16.57133124869386,50.624170678838105,6.313304519379963,266.5131583596104,54.19989344765102
236,-3.2534244223971807,-257.5898151898612,68.04225275727302,-16.791174894318583,51.322042173905416,6.172599977330875,266.4673354439725,54.93417816347934
237,-3.094386196085105,-257.5348188012395,68.0791642170313,-17.122403477197878,52.179043192608596,6.002893244858385,266.4212834685762,55.840113804528656
238,-2.9263584424098017,-257.48226917031343,68.11170531036319,-17.572729819045005,53.209895562852175,5.804629977864024,266.37616639142914,56.93283466129825
239,-2.7508189482915246,-257.43361477729053,68.13882811771131,-18.14872134765091,54.42802190204589,5.579354636089614,266.3331360964496,58.22615125596719
240,-2.5694940494886063,-257.39024292782614,68.15951258964131,-18.85563091639541,55.84515306471072,5.329807813236888,266.2933016989487,59.732185723981125
241,-2.3843592445598127,-257.3534428707553,68.17278889518839,-19.697243480305012,57.470935180934944,5.059997322548043,266.2577000207348,61.46101189654811
242,-2.1976394179825802,-257.3243714702495,68.1777580241061,-20.675741883958754,59.31254232340327,4.7752400548887515,266.227267943193,63.4203054057118
243,-2.011806848482245,-257.3040224339113,68.17360973420737,-21.791594536051814,61.37430159827262,4.482172229519664,266.2028173475654,65.61500956053635
244,-1.8295750640574338,-257.2932000076945,68.15963718087245,-23.04346719733856,63.65733820650997,4.188726344569268,266.18501333045805,68.04702316005594
245,-1.6538869363399655,-257.2924979448523,68.13524784675766,-24.42816043547739,66.15924866325754,3.904073879495507,266.17435635911164,70.71491670318343
246,-1.4878958825725483,-257.3022844335742,68.09997070003845,-25.94057351434398,68.87381083664411,3.6385335665286407,266.1711689965973,73.61368357978357
247,-1.3349394394736807,-257.3226934968695,68.05345982459124,-27.573694707797443,71.79073973368058,3.403445805433775,266.17558774586183,76.7345327837205
248,-1.1985047763691332,-257.3536231712667,67.9954950448644,-29.31861740388297,74.89549800658827,3.211014527936066,266.1875604354609,80.06472951779513
249,-1.0821860153879552,-257.394740574339,67.9259802582851,-31.16458093990025,78.16917001923574,3.0741185078270115,266.2068494308323,83.58748982278436
250,-0.9896335543792194,-257.44549379873587,67.84494022082946,-33.09903481511676,81.58840804828255,3.0060947613658744,266.23304079968244,87.28193509168365
251,-0.9244959208744614,-257.5051303801152,67.75251638601235,-35.10772470372344,85.12545876222742,3.0204973092200373,266.2655593428974,91.12311198491078
252,-0.8903550078040373,-257.5727218256772,67.64896217838749,-37.174798557776455,88.74827740465548,3.1308351713036084,266.30368909965483,95.08208274999727
253,-0.8906558137921367,-257.64719336397934,67.53463794854319,-39.282931102198894,92.42073599795728,3.350293987470357,266.34659859218146,99.1260901948865
254,-0.92863196340421,-257.7273577612799,67.4100058486286,-41.413465175219386,96.10293036130389,3.6914460431554716,266.39336977473954,103.21880054877337
255,-1.0072282877354026,-257.8119518166066,67.27562489569848,-43.546568574597075,99.75158887961156,4.16595372077981,266.44302943873595,107.32062620877696
256,-1.1290216401539437,-257.8996739941302,67.13214648076348,-45.661405240526435,103.3205839012038,4.784271519352293,266.49458167997665,111.38912899909008
257,-1.2961409503550816,-257.9892215423099,66.98031052073546,-47.736319720845124,106.76154450046779,5.555351786558674,266.5470399188012,115.3795031585883
258,-1.5101873225116726,-258.07932540463037,66.82094231581777,-49.749033968070115,110.02456719359995,6.4863591471406545,266.59945689364173,119.24513590061423
259,-1.7721549187421026,-258.1687813067295,66.65494996553034,-51.67685562646115,113.05901907779192,7.58239826083236,266.65095108244657,122.93824208231132
260,-2.0823537347579038,-258.2564756213993,66.48332201596192,-53.496897058508296,115.81442572093063,8.846259100512412,266.7007281840179,126.41056821393353
261,-2.440336288935289,-258.3414049229343,66.30712498870643,-55.186304512528714,118.24143369831535,10.27818368083326,266.7480966039951,129.61415953704292
262,-2.8448313752682846,-258.4226885409623,66.12750056782507,-56.72249727462041,120.29283452778785,11.875658390529333,266.7924763267751,132.5021819342942
263,-3.2936888432195275,-258.4995739747183,65.94566233417001,-58.083417537698764,121.92463265727187,13.633236848733038,266.83340112926425,135.02978785268408
264,-3.7838395820318773,-258.57143573822634,65.76289188994112,-59.24779288196663,123.09713544040659,15.542399260374902,266.8705147710338,137.15501239911075
265,-4.311274527116299,-258.6377689126544,65.5805340121177,-60.19541418327193,123.77603845993434,17.59145522113899,266.90356242283116,138.83968268748947
266,-4.8710457281742165,-258.69817913236244,65.39999022748599,-60.90743185240468,123.93347574196882,19.765497559974882,266.9323789593498,140.0503206116241
267,-5.457291587503055,-258.75237077588713,65.22271003145482,-61.366672189545746,123.54900154051211,22.0464149843666,266.956875728325,140.75901646928514
268,-6.063287583415302,-258.8001348300695,65.05017894722461,-61.55797337715461,122.61046852419561,24.412970953025432,266.9770270903154,140.94424834026833
269,-6.6815231801072645,-258.84133745137495,64.88390276746478,-61.468537685118065,121.11476664838288,26.840955304146185,266.9928576079726,140.59162025400127
270,-7.303804938411385,-258.87590986995883,64.72538761909955,-61.08829336692893,119.06838824093398,29.303413682194602,267.0044304443072,139.69449162154146
271,-7.921384886543926,-258.90384006423943,64.57611590358819,-60.410256812067644,116.48778829537513,31.7709577227122,267.0118373883513,138.25447165031218
272,-8.525112111538235,-258.92516654371735,64.43751865456474,-59.43088284500415,113.39951468412484,34.212156327043154,267.01519092502184,136.28175554380147
273,-9.1056045393382,-258.939974506114,64.3109453400359,-58.150388600551466,109.84009051344403,36.594005309327,267.0146187799204,133.79528376835097
274,-9.65343704207351,-258.9483944633721,64.19763246741977,-56.57303428476362,105.8556394262216,38.88246937491216,267.0102612478244,130.82271093469205
275,-10.15934124520835,-258.95060310916523,64.09867244507099,-54.70734272603593,101.50125370510075,41.043086956221735,267.00227128634043,127.40017648908213
276,-10.614411683859315,-258.946825807308,64.01498411703477,-52.566239461209506,96.84011413855275,43.04162510561772,266.99081692737485,123.57187533125519
277,-11.010312373698568,-258.93733976694335,63.94728638338147,-50.16709664414573,91.94237948484793,44.84476870086969,266.976085219308,119.38943268386407
278,-11.339477513638721,-258.92247681995275,63.89607636814736,-47.53166747561385,86.88387169956263,46.420825925337645,266.95828675233895,114.91109396322285
279,-11.595299987698432,-258.9026247221766,63.86161355694494,-44.685902894533754,81.74459057905368,47.74043052247719,266.9376598022841,110.20074681951488
280,-11.77230163928189,-258.87822604437747,63.843911046782594,-41.659648365214544,76.60709781755665,48.77722075496457,266.9144732056106,105.32679854498683
281,-11.866279955443417,-258.8497739844252,63.842734552102584,-38.48622506608473,71.55481536738077,49.50847527641039,266.88902724059585,100.36093723043521
282,-11.874426710924627,-258.81780477824935,63.85760929933173,-35.201906075304564,66.6702861476289,49.91568714899265,266.861652040425,95.37680899812061
283,-11.795415117714763,-258.78288674048247,63.887834612773474,-31.845303843780904,62.033446399214945,49.98505894551815,266.83270337085116,90.44864615755156
284,-11.629452999404851,-258.7456062133023,63.93250583975563,-28.456689970146982,57.71995830225357,49.70790423067805,266.8025558512687,85.64988218069517
285,-11.37830045170478,-258.70655076579385,63.99054309835092,-25.077271662427624,53.799648924467824,49.08094363844336,266.77159376427016,81.05178899037314
286,-11.045251435641946,-258.6662899514076,64.06072599178029,-21.748450980934873,50.33509728815249,48.10648705453225,266.74019953152725,76.72217024555172
287,-10.635079881079422,-258.6253540137912,64.14173293468863,-18.511092897633354,47.38040550164846,46.79249683797981,266.70873994951194,72.72414122584738
288,-10.15395217716056,-258.58421128979217,64.23218324173943,-15.404826502354249,44.98018270485104,45.152530383202475,266.6775505689184,69.11502181347215
289,-9.609309259781888,-258.5432456654874,64.3306797820832,-12.46740060899575,43.16876229220282,43.20556349541019,266.64691916695483,65.94536424593838
290,-9.009722618977495,-258.50273609109036,64.43584984088965,-9.734110876060704,41.96966387693999,40.975698928461654,266.6170698992277,63.25813206747679
291,-8.364729203294573,-258.4628405697272,64.54638183840704,-7.237310657132804,41.39530225911358,38.49176696155793,266.5881501391833,61.08804132867021
292,-7.684650343573424,-258.42358698709864,64.66105571818179,-5.006012457454714,41.44693687773355,35.78682702989456,266.5602220025757,59.46106982456785
293,-6.980399603635639,-258.38487259977387,64.77876509224348,-3.0655814700310833,42.11484754430978,32.89758110873433,266.53326006890563,58.39413524141735
294,-6.263284051873415,-258.3464730831065,64.89852961969811,-1.4375176335569155,43.37871634089301,29.863710737962787,266.50715599013176,57.89493877499311
295,-5.544802895121229,-258.30806099231427,65.01949666928739,-0.13931844434063173,45.20819192663349,26.727150320929734,266.4817297717373,57.96196744906571
296,-4.836446797823308,-258.2692325356523,65.14093211420456,0.8155882374039257,47.56361128232482,23.531309773635556,266.4567467510283,58.584646304568416
297,-4.149500712444751,-258.22954082031526,65.26220104077463,1.4178536557492272,50.396854861452816,20.32025990209827,266.4319387838703,59.74363093063259
298,-3.4948528188582104,-258.1885332361422,65.38274009410767,1.6621721397611426,53.65231361426836,17.13789422285346,266.40702788088623,61.41123127878604
299,-2.8828121262198527,-258.14579038056524,65.5020240255734,1.5472104514151088,57.267949632040036,14.027081466945782,266.38175047106813,63.551958902379376
300,-2.322937181085064,-258.10096390807536,65.61952960888243,1.0755110491191042,61.17643542785583,11.028823778883467,266.3558805839548,66.12319109706685
301,-1.8238779906829565,-258.053810920877,65.73470032273293,0.2533751824594301,65.3063595049162,8.181436551916425,266.32925050869096,69.0759463104446
302,-1.3932328146946484,-258.00422295775155,65.84691503951845,-0.9092706578947499,69.58348751075239,5.519766710234251,266.3017678613926,72.3557652459564
303,-1.037421189997757,-257.952248183041,65.95546349880478,-2.399023245337001,73.93206880248256,3.074466798443847,266.27342839695376,75.90369112796074
304,-0.7615746188681368,-257.898105948366,66.05953070990903,-4.199165643195449,78.2761776203348,0.8713423171824188,266.24432429514485,79.65734059464646
305,-0.5694466494601055,-257.8421934381546,66.15819172977328,-6.28984512363847,82.54107626071385,-1.069210644251869,266.2146480035034,83.55205367722891
306,-0.4633442618108666,-257.78508451705505,66.2504175501372,-8.648266843244068,86.65458465415621,-2.7326612574921576,266.1846919440057,87.52210737187917
307,-0.44408232701777633,-257.7275210882993,66.33509212086126,-11.248904379796773,90.54843675944838,-4.110678440224195,266.1548444060325,91.50197262893778
308,-0.5109626124829191,-257.670397299346,66.41103984763761,-14.063728189127241,94.15959967582141,-5.201331215389698,266.12558180709016,95.42758967270386
309,-0.6617787315567618,-257.6147369777747,66.47706222696468,-17.062452598537813,97.43152705643294,-6.0091450276254506,266.09745738186103,99.2376321010928
310,-0.8928486586049178,-257.56166489252854,66.53198165987975,-20.21280106033135,100.31531485786958,-6.545007557393593,266.0710864114226,102.87472671567959
311,-1.1990766077468231,-257.51237276034635,66.57469004651674,-23.48078823156788,102.77072491602844,-6.825921393698215,266.04712830731035,106.2865936693392
312,-1.5740458009919043,-257.46808115271597,66.60419958150321,-26.83101651564624,104.76704033779248,-6.874604906633564,266.0262660416571,109.42707030483493
313,-2.010142840748864,-257.4299984910013,66.61969315800518,-30.22698457378424,106.28371644189984,-6.718946725898506,266.0091834324223,112.25698220466589
314,-2.498713286462598,-257.3992782574067,66.62057181608706,-33.631406286712455,107.31079248966462,-6.391323392716646,265.99654072600595,114.74482698500708
315,-3.0302468599129275,-257.3769755885258,66.60649671998235,-37.00654056618802,107.84903329849118,-5.927794005637454,265.98894894794915,116.86724073541073
316,-3.594589459225133,-257.3640045942404,66.57742327529343,-40.31453478217116,107.9097762741638,-5.367189938826487,265.98694366692496,118.60922380622767
317,-4.181177673645348,-257.3610979302585,66.5336252283355,-43.51778671275978,107.51446824343948,-4.7501218012569515,265.99095902268033,119.96411147014557
318,-4.779289765192829,-257.3687702447836,66.47570695035292,-46.57933115722111,106.69388736860067,-4.117929483962416,266.0013030130449,120.93328525954782
319,-5.378305452303046,-257.38728713029195,66.40460268711846,-49.46325718244036,105.48705812638512,-3.51160413950806,266.0181351528346,121.52563208071015
320,-5.967965662055604,-257.4166411646754,66.32156240063671,-52.13516026606353,103.93988155497549,-2.970713034364883,266.0414477452593,121.75677018762113
321,-6.5386227812252855,-257.45653647274696,66.22812480255129,-54.56263061260486,102.10351806891804,-2.5323592832728212,266.0710520602248,121.64807319052437
322,-7.081471705656217,-257.506382909176,66.12607900688442,-56.71577521997204,100.03257505140566,-2.230208397146148,266.10657055810765,121.22553461308107
323,-7.588752169222585,-257.5653004665821,66.01741674114298,-58.56776760076733,97.78316507026604,-2.0936121579356506,266.14743590479776,120.51852529942384
324,-8.053913681421939,-257.6321339630166,65.90427729226572,-60.09541603172143,95.41091215079436,-2.1468573806417606,266.19289703407253,119.55850373140825
325,-8.471736247110073,-257.70547761208917,65.78888749898252,-61.27973892304999,92.96899237782586,-2.408562627925987,266.242032139923,118.37774454975117
326,-8.838402925501061,-257.783708808269,65.6734992661295,-62.1065338131406,90.50629999550642,-2.8912402056171795,266.29376834623605,117.00815215107549
327,-9.151523659015412,-257.8650303293102,65.56032724672951,-62.566923724305354,88.06582927859529,-3.601034374989187,266.3469078354146,115.48022241389643
328,-9.410112721572046,-257.9475200348855,65.45148935248262,-62.65786064273259,85.68335399471148,-4.537640417472218,266.4001602083654,113.82220510951589
329,-9.614523900994497,-258.0291868905355,65.34895242367965,-62.382561117465,83.38646977538949,-5.6944036347053455,266.45218059451867,112.05950292409082
330,-9.766348218958198,-258.1080317333098,65.25448465659305,-61.75084472385962,81.19404180452278,-7.058592805939445,266.5016124979092,110.21432295078688
331,-9.868279382016496,-258.18211072780156,65.16961543035372,-60.779343959846194,79.11607449702163,-8.611838773880937,266.5471337327778,108.30557668348574
332,-9.923952891362866,-258.249599144301,65.0956023302038,-59.49155510843246,77.15399532333338,-10.330725120310712,266.58750335834986,106.34900795775174
333,-9.937765601567003,-258.3088530955695,65.03340469246174,-57.91770412543713,75.30132419100443,-12.187513824043661,266.6216074710538,104.35751641200696
334,-9.914682907831612,-258.35846716539885,64.98366295299805,-56.09440954504495,73.54468323260367,-14.150984197228247,266.6485020089082,102.34163693557652
335,-9.860040575714546,-258.3973262154431,64.94668334717818,-54.06413480613218,71.86508892527155,-16.187358607036145,266.667451111916,100.3101322973816
336,-9.779347871256558,-258.4246498616808,64.92242791772257,-51.8744335470886,70.2394589782642,-18.2612842792717,266.67795984687325,98.27065528232356
337,-9.678098280515217,-258.44002817128927,64.91051021420893,-49.5770015056866,68.64226041194449,-20.33683765284197,266.679800231808,96.23043687459118
338,-9.561593602507998,-258.44344716744223,64.91019744466797,-47.22655681526828,67.04722228763622,-22.378516764680775,266.6730295856951,94.19695755593276
339,-9.434786421677268,-258.43530283728603,64.92042013178201,-44.879576922119995,65.42903584118959,-24.352188068294222,266.65800036225335,92.17855959422617
340,-9.302144916195408,-258.41640254634257,64.93979050242874,-42.59292573663707,63.764965988133014,-26.22595680568275,266.6353608240596,90.18495989557675
341,-9.16754276229597,-258.3879530516276,64.96663082455088,-40.422409372833584,62.03630184054076,-27.97093435516579,266.6060461422839,88.22762654217507
342,-9.034175752511507,-258.3515346434204,64.99901260554309,-38.421302802007354,60.229580926936684,-29.561881532957088,266.5712597195149,86.31998834045775
343,-8.904505834963718,-258.3090613301917,65.03480694529904,-36.638892605482035,58.337532677188726,-30.977713129129224,266.5324447229387,84.47745574913758
344,-8.780232642374619,-258.26272744014483,65.07174542968303,-35.119082616765006,56.359700904466074,-32.201855400709235,266.49124601894147,82.7172428801217
345,-8.662292117094394,-258.21494158493266,65.10748986562317,-33.899109689257735,54.30272121160423,-33.22245424621374,266.4494629789643,81.05799274731724
346,-8.550881419510317,-258.1682496619497,65.13970810720457,-33.00841611131433,52.18024607052008,-34.03243689271341,266.4089940699325,79.5192203170973
347,-8.445508796660746,-258.12524944567235,65.16615244911316,-32.46772293236295,50.01252681116862,-34.62943388783454,266.3717747903036,78.12059923449304
348,-8.345066376531719,-258.0885001576416,65.18473673693126,-32.28834393703172,47.825677493182766,-35.015571038634285,266.33971123013845,76.88112791342301
349,-8.247923011372002,-258.06043092085736,65.19360850477722,-32.471772520235604,45.65066031631181,-35.19714297566514,266.31461205496066,75.81821879364672
350,-8.152033589048159,-258.0432520264116,65.19121300523497,-33.009563160049936,43.52204511929229,-35.18418163783559,266.29812185666344,74.94676055781366
351,-8.055060846913502,-258.0388725565392,65.17634674784975,-33.8835163676066,41.4766053875669,-34.98993449331419,266.29165862067447,74.27820617871615
352,-7.954505573795664,-258.0488273535763,65.14819891189751,-35.06616249498693,39.55181888829873,-34.63026894113523,266.296357701537,73.81973914971832
353,-7.8478409933300775,-258.0742157734929,65.10637962363681,-36.52152734532572,37.784342170262484,-34.12302117216639,266.3130243133461,73.57356618199795
354,-7.732646970810636,-258.1156541750131,65.05093457427394,-38.20615239304318,36.208525144413585,-33.48730972571416,266.3420961793557,73.53637783313137
355,-7.6067393866777975,-258.1732436970743,64.98234587320351,-40.07033494879441,34.85502571747459,-32.742835746856855,266.3836176884568,73.69900996238857
356,-7.468289556416356,-258.24655459565173,64.90151941159696,-42.05954831077863,33.74957610925215,-31.909193083399717,266.4372267093654,74.04632926417689
357,-7.315928185281654,-258.3346282018814,64.80975928843915,-44.115997891066954,32.91194329469122,-31.00521148548133,266.50215506440776,74.55735571202733
358,-7.148828450999245,-258.43599727243554,64.70872998400272,-46.18026565345285,32.355117114398574,-30.04835509506364,266.57724341561516,75.20562371415726
359,-6.966763636020075,-258.5487249550852,64.60040702111321,-48.19299168932901,32.084751515526975,-29.054196133671844,266.66097081870294,75.9597724179559
360,-6.7701360948003115,-258.6704617153679,64.48701697227295,-50.09653892574797,32.09887671963134,-28.035980425318805,266.75149841345217,76.78434453765895
361,-6.559975842657294,-258.79851844572164,64.37096801225444,-51.8365859373036,32.38789195745838,-27.0042975446097,266.84672574795127,77.640763391386
362,-6.337908396097875,-258.9299528355576,64.25477283603767,-53.36359470700433,32.93483921354755,-25.96686440504447,266.9443573052445,78.4884506772999
363,-6.106092644316009,-259.0616652215316,64.14096646931696,-54.63410525669547,33.71594849596961,-24.928427236690986,267.0419761590144,79.28604343416606
364,-5.867130697659787,-259.190499757191,64.03202198304346,-55.61181662082757,34.70143541005081,-23.89078308803312,267.1371214514773,79.99266714721155
365,-5.6239530831260796,-259.3133467922891,63.93026729136438,-56.268422380044676,35.85652311657325,-22.852918038700945,267.22736650162597,80.56922194017807
366,-5.379684370137188,-259.42724261533107,63.83780627586421,-56.58417789935943,37.14265328117722,-21.81125523712166,267.3103946552402,80.97963927066571
367,-5.137496141815787,-259.52946298954777,63.75644763309289,-56.54818541015508,38.51884385673083,-20.760002068467955,267.3840703279207,81.1920673545388
368,-4.900455882953401,-259.61760715204684,63.68764497186657,-56.15839279521546,39.94314481006515,-19.691582801651762,267.44650298551454,81.17994528547959
369,-4.671381332524952,-259.68966925064444,63.63245149180321,-55.42131310418406,41.37413610940027,-18.597141346183456,267.4961020741117,80.92292924714039
370,-4.452709567881665,-259.7440947250911,63.59149186615754,-54.35148437561462,42.772406440287774,-17.467098175599755,267.53162126321683,80.4076396497987
371,-4.246388400251129,-259.77982000637854,63.56495274974636,-52.9707018798903,44.1019483666651,-16.291745488817693,267.55219091256043,79.62820517611783
372,-4.053795064007208,-259.79629507349586,63.55259182631284,-51.307064915790754,45.33140844526476,-15.061864565501924,267.55733843142673,78.58658802821662
373,-3.8756844187270874,-259.79348963589626,63.55376380760733,-49.3938853326739,46.43514036337398,-13.769348559521012,267.54699701616886,77.29268366331445
374,-3.712166511848064,-259.7718846361196,63.56746059971526,-47.26850418783532,47.39402445899633,-12.4078127278468,267.5215038425208,75.76419762433672
375,-3.56271170191909,-259.7324511279855,63.59236211737005,-44.971057966891784,48.19603498650448,-10.973172834035502,267.48158893922187,74.02631115007175
376,-3.426180742595088,-259.67661841214306,63.62689396809528,-42.54322975720776,48.83655351131767,-9.464171838454739,267.4283557164535,72.11115519123474
377,-3.3008770673076486,-259.606232874543,63.66928840620609,-40.027016571315365,49.31843981681738,-7.8828354164684695,267.36325372393543,70.05711834904237
378,-3.1846185147568202,-259.52350857587135,63.71764551584751,-37.463542770832845,49.65187920975849,-6.234838381030645,267.2880439463449,67.90801753965015
379,-3.074825530321409,-259.43097044665024,63.769992419614205,-34.89195022250962,49.85402746609644,-4.529766437604267,267.2047569414037,65.71216072691236
380,-2.96862248559542,-259.33139095960536,63.82433925647462,-32.34839615750417,49.948473601974825,-2.7812604375266314,267.1156443539195,63.521329032363255
381,-2.8629484281118005,-259.22772129504466,63.878731510433944,-29.86518756690163,49.964538399421656,-1.0070331244375206,267.02312466588177,61.38970155187867
382,-2.7546734954678973,-259.1230181937832,63.93129877808506,-27.47007544499828,49.9364250018158,0.771248712714461,266.92972432704505,59.372741495717264
383,-2.6407174208002577,-259.02036784295444,63.980300112308704,-25.185723921149872,49.90223797130135,2.5282205135492504,266.838015561987,57.5260583162018
384,-2.5181669140823315,-258.92280823601584,64.02416572605769,-23.02936000366424,49.90288924740715,4.235214629731856,266.7505521550524,55.904258431605555
385,-2.38438908897846,-258.83325149088967,64.06153428599538,-21.01260123776004,49.98091312438538,5.8607889072752615,266.669804421782,54.5597973266835
386,-2.2371384482923946,-258.7544076189923,64.09128448776227,-19.141452525502537,50.17921686368438,7.371379764845403,266.59809445383763,53.54184775738246
387,-2.074655263611245,-258.68871125482286,64.11255926219323,-17.4164603018027,50.53979782636257,8.732065470989829,266.5375326584189,52.8952016216145
388,-1.8957535014749147,-258.6382529437017,64.1247809933855,-15.8330119445251,51.102461121836456,9.907420780731957,266.489956708349,52.65922584131487
389,-1.6998966706538634,-258.6047167765494,64.12765663168322,-14.381769712730064,51.90357325033743,10.862440115244109,266.45687432987586,52.8668945975421
390,-1.48725997120751,-258.58932639983846,64.12117240856631,-13.049230234867451,52.97488711310755,11.56350317033806,266.43941178936524,53.54392104903723
391,-1.2587769464689875,-258.5928015963877,64.10557868685709,-11.818401234917388,54.34247241819152,11.979354346134993,266.43827030210207,54.70801115666899
392,-1.016168693325994,-258.6153276346146,64.08136610877335,-10.669585895548678,56.02578324764624,12.082065884500986,266.4536927378872,56.36826061265622
393,-0.7619537774971922,-258.6565393992764,64.04923466460058,-9.581261812000688,58.03689151852282,11.847954222562455,266.4854429280538,58.52471343760379
394,-0.4994373246751891,-258.7155219522272,64.01005768492695,-8.531036288197598,60.37991121984859,11.25841982780937,266.5327996158015,61.16809779262578
395,-0.23267818715617325,-258.79082860860126,63.96484304957909,-7.49665348386035,63.05063348183741,10.30068263051367,266.59456661510706,64.27975101174047
396,0.03356640698189624,-258.88051683630584,63.914694006750345,-6.457022443895098,66.03638661106007,8.968388125807476,266.6691000132029,67.83174173738072
397,0.29391863950674924,-258.9822013512164,63.86077180327179,-5.393229192708266,69.31612829771619,7.262063276269363,266.7543522985617,71.78719233207926
398,0.5424793976615561,-259.0931228232941,63.80426181911985,-4.289491810416499,72.86076961898019,5.1894063333268665,266.84793224773284,76.10079957366787
399,0.7729473259653424,-259.21022977415385,63.74634418282751,-3.134015679917921,76.63372274412029,2.7654002598738776,266.94717842458135,80.71954632852763
400,0.9787552724136122,-259.33027063806543,63.68816910676069,-1.9197076479354775,80.59165697332898,0.012245182965471378,267.04924337870096,85.58359193997764
401,1.1532214196703099,-259.44989266873034,63.63083657819921,-0.6447129802765724,84.68544144986537,-3.0408890660731034,267.1511852039882,90.62732503651283
402,1.2897121192235497,-259.56574446925754,63.57537962925741,0.6872526338952049,88.86124788194462,-6.358283947744721,267.25006311315644,95.78055963772941
403,1.3818129996864488,-259.6745793046249,63.522750124615854,2.0667932157927815,93.06178276031395,-9.898255523907817,267.34303399199257,100.96985343693206
404,1.423504223425224,-259.77335670851386,63.47380573906458,3.4789506979767792,97.22761526221429,-13.613884664511167,267.42744718496755,106.11992497489621
405,1.4093349583335788,-259.85933990344506,63.42929654374388,4.90354650069879,101.2985635865441,-17.45387533593037,267.50093472094335,111.15514307358616
406,1.3345914208880112,-259.93018618950794,63.38984953310975,6.3157325798465225,105.21509856954833,-21.363519579211616,267.56149382292625,116.0010570284207
407,1.1954524081539644,-259.98402700342103,63.35594965020677,7.6867305538531445,108.9197194196801,-25.28574597684363,267.60755816549306,120.5859301818539
408,0.9891262228900378,-260.0195341174839,63.3279164059256,8.98473191443186,112.3582531029015,-29.162227287069292,267.63805425206596,124.84223369841303
409,0.713963401683298,-260.0359685404704,63.30587593978584,10.175928590717117,115.48102744796864,-32.93452234954044,267.6524395617452,128.70805298879557
410,0.3695405961864258,-260.0332090330804,63.289729262915536,11.225640800523962,118.24386982350147,-36.54522702734778,267.6507196809338,132.12835780582634
411,-0.04328793112028021,-260.0117577035904,63.27911843860514,12.099507331265423,120.60888955778529,-39.939108484710914,267.63344242689107,135.0560898931137
412,-0.5223736691510424,-259.97272091446115,63.27339352225284,12.7647014006292,122.54501358160528,-43.06419636814981,267.60166797729886,137.45302970130456
413,-1.0642935355753753,-259.91776472071945,63.27158400422868,13.191132887909655,124.02826020327886,-45.87280370523979,267.5569152059281,139.29041534288103
414,-1.6644062508409776,-259.8490452755631,63.27237902529462,13.352595494200086,125.0417535401931,-48.32245006071755,267.50108573077983,140.5493009184558
415,-2.3169445791378798,-259.7691160625988,63.274120599371805,13.227816148388634,125.5754986483905,-50.37666017411613,267.4363685560303,141.2206556195447
416,-3.015141261728401,-259.6808153551981,63.27481347797882,12.801364555805877,125.62595274750898,-52.00561320785085,267.36512954358705,141.305217858354
417,-3.7513850488060885,-259.587138761414,63.27215424980961,12.064383696918219,125.19543951527672,-53.18662091818715,267.28979111829244,140.81312883528005
418,-4.51740183420593,-259.49110287346036,63.26358095167383,11.015107450615908,124.2914601265226,-53.90441749784712,267.2127084211642,139.76337670402418
419,-5.304454656865233,-259.39560680648094,63.246343012983154,9.659139187036905,122.92595608026902,-54.15124947596742,267.13604851510877,138.18308569680644
420,-6.103555466653754,-259.3032987956218,63.21758987014618,8.009474877031918,121.11457515725884,-53.92676080017756,267.06167925694035,136.1066846725956
421,-6.905681197567677,-259.21645503412003,63.174475154887006,6.086265710385679,118.87598393264093,-53.23767587507292,266.9910741108171,133.5749873564382
422,-7.701986720990451,-259.1368775600334,63.114272081069984,3.9163280408075285,116.2312593709843,-52.097291561137766,266.9252384954529,130.63421290176987
423,-8.484007382689745,-259.0658172411319,63.034494653560756,1.5324220770248,113.20337965639023,-50.52479747824606,266.8646622627946,127.33497105243066
424,-9.243843971020535,-259.0039267917897,62.93301871618277,-1.0276658445268563,109.81682219649765,-48.544451854603565,266.80930165472154,123.73123167415413
425,-9.974323350319763,-258.9512473026407,62.80819670817742,-3.722190604235238,106.09726617037329,-46.184647053532544,266.75859262376326,119.87929419403432
426,-10.669128900002383,-258.9072300105101,62.65896028076929,-6.506609336101793,102.07138905055898,-43.47690429792747,266.7114957754796,115.8367688287372
427,-11.322896344821787,-258.87079306066124,62.48490551960597,-9.334775209138682,97.76674148634822,-40.45484061185612,266.6665714439764,111.66157857794524
428,-11.931272303009175,-258.84041094053566,62.286356306399504,-12.160102952394496,93.21168239937448,-37.153152356536005,266.62208163232106,107.41098892780404
429,-12.490934632923784,-258.8142322643366,62.064402266088436,-14.936650395298148,88.43535539109965,-33.60665881151452,266.57611387303007,103.14067122807046
430,-12.999575264835345,-258.7902198522378,61.82090872992573,-17.62007073971433,83.46768790034103,-29.84944599648036,266.52672065372263,98.9038060584424
431,-13.455847612846267,-258.7663057447306,61.55849715175651,-20.168405174032795,78.33939548471511,-25.914145423013345,266.4720670566256,94.75023479719526
432,-13.859281851195547,-258.7405530240021,61.28049542683133,-22.542703383852476,73.08197484417482,-21.831374958288425,266.41057877112655,90.72567091345468
433,-14.210172356684938,-258.71131609787494,60.990858555955455,-24.70747848761358,67.72767064351858,-17.629359900904088,266.3410826715633,86.87098660759001
434,-14.509442661695632,-258.6773913824796,60.69406099065247,-26.631020555091226,62.30940283972511,-13.333742262061843,266.26293264944997,83.22159432948445
435,-14.758494467377464,-258.6381509987621,60.39496271617839,-28.285606826163733,56.86064312914768,-8.967575728659106,266.17611424748424,79.8069453196871
436,-14.95904839760915,-258.5936530830143,60.098651756424886,-29.64765525820234,51.4152313164549,-4.551493515443232,266.08132277353894,76.65016784829696
437,-15.11298481219038,-258.54472355542606,59.810266503229684,-30.697870290150654,46.00712490504776,-0.10402693908852706,265.98001094259996,73.76786612053687
438,-15.22219303070858,-258.4930056608986,59.534802148217736,-31.421425929969008,40.67007813708826,4.357955405741437,265.8744036771897,71.17009738257735
439,-15.28843692144654,-258.44097521676116,59.27690637867838,-31.80822228975181,35.43725023467961,8.818724181555945,265.7674793963077,68.86054038448687
440,-15.313244043459342,-258.3919211271129,59.04067017270892,-31.853238576289097,30.340746803574977,13.263122068371505,265.662918757392,66.83686365382886
441,-15.297824323797053,-258.34989215592486,58.829419894319635,-31.55698953446112,25.41110318127052,17.675995192519295,265.565023171536,65.09129716294551
442,-15.243022659478058,-258.3196120296247,58.64551701967266,-30.926075065125907,20.67672362890139,22.041664986656173,265.47860635451485,63.61140554634577
443,-15.149307967173243,-258.3063656556251,58.490171850119836,-29.973796210001833,16.16329511520641,26.343478742978807,265.408862735303,62.3810542638341
444,-15.016799020968183,-258.31585971544814,58.36327750041664,-28.720796776967042,11.893198400571157,30.563470899639334,265.36121684197457,61.38155137571936
445,-14.845324849950053,-258.3540612125042,58.26327017344829,-27.1956796414308,7.8849418830971025,34.682158569506726,265.34115788358065,60.592937014885365
446,-14.63451467193838,-258.4270177294144,58.18702114487953,-25.435540391315886,4.152645307604077,38.67848465383679,265.3540636307012,59.995381144221206
447,-14.383909714922972,-258.5406631611339,58.129765011804515,-23.48635828218316,0.7056011203589496,42.52991098288435,265.4050173715513,59.570639072082116
448,-14.093087312357682,-258.7006125485137,58.08506776781777,-21.403185454197573,-2.452059169032112,46.21265330266946,265.49862125335835,59.303504857365084
449,-13.76178676454758,-258.91194939771856,58.04483735977247,-19.250080574898377,-5.3215682143358345,49.70204054360949,265.6388088342283,59.183196806066626
450,-13.39002677886695,-259.1790086667689,57.999378629978374,-17.099743183614486,-7.909574103948553,52.97297350990003,265.82865932831777,59.2046083618578
451,-12.978205639486044,-259.50515861045943,57.93749377886187,-15.032819879284336,-10.228023817348342,56.00045357247505,266.07021596042625,59.36936247138424
452,-12.527177225935748,-259.8925849818881,57.846628488459906,-13.136871635664322,-12.293869921595483,58.76015037066565,266.3643110724577,59.686617028284246
453,-12.038298228717375,-260.34208156184224,57.71306262104638,-11.505010744094356,-14.128598943103725,61.22897858182656,266.7104009923372,60.17358132029465
454,-11.513444155324056,-260.85285136727344,57.52214303465012,-10.234234346481406,-15.757587169103253,63.38565671218372,267.10641393577396,60.85571667458357
455,-10.954993878657213,-261.4223230065539,57.25855455521343,-9.423498364358005,-17.209296659778193,65.21122471454005,267.5486141952215,61.76660760744982
456,-10.365784516440819,-262.04598649430875,56.906623622159195,-9.171590756390474,-18.51433087783645,66.68950135929416,268.0314855933995,62.94750228583587
457,-9.749040257368703,-262.7172524719897,56.45064788363391,-9.574876414793202,-19.704375505711287,67.80746625794079,268.5476367567011,64.44653281756948
458,-9.108280192335025,-263.42733828849254,55.87524424490935,-10.724996921117901,-20.811055717129555,68.5555551396696,269.08773030692623,66.31763664146952
459,-8.447211101587449,-264.1651839052954,55.16570736772817,-12.706615225784727,-21.86474633589313,68.92786060770716,269.6404376499231,68.61921004210875
460,-7.769611447994135,-264.9174001891413,54.308370055396836,-15.595296301583373,-22.893375629949354,68.92223451195268,270.1924206729926,71.41253381468614
461,-7.0792126034426825,-265.668251791237,53.290956305123224,-19.455609032913273,-23.921266359205593,68.54029243215365,270.7283412988442,74.76001971951897
462,-6.379582682568805,-266.39967634052454,52.102917335409195,-24.339522585209007,-24.96805850385589,67.78732534875044,271.2308994022294,78.72333463774879
463,-5.6740174112242885,-267.09134099600703,50.73574086581464,-30.285154013835925,-26.047756521224827,66.67212796010486,271.68089903109836,83.36146675521955
464,-4.96544149046665,-267.7207365357572,49.183224364841344,-37.3159052024841,-27.16794011387041,65.20675691243132,272.0573422199373,88.72880372179421
465,-4.256323226702882,-268.2633082566737,47.44170373970517,-45.4400085909478,-28.32917175407602,63.40623517802609,272.33754905400366,94.87329553259379
466,-3.5486048488733632,-268.692622205551,45.510229959264805,-54.65048444879405,-29.524627093848284,61.28822076007403,272.49730220377194,101.83477416494456
467,-2.843650766158659,-268.9805647833019,43.39068751858434,-64.92549911860931,-30.739966279581942,58.87265870786688,272.51101403829716,109.6434978115251
468,-2.1422159122975444,-269.0975735991719,41.087850582096756,-76.22910459702531,-31.953455316872574,56.18143500180021,272.35191469475313,118.318980703448
469,-1.4444362918099,-269.0128976206801,38.60937493447043,-88.51233532463274,-33.136337158933586,53.238049048360615,271.99226011329546,127.86916129296742
470,-0.7498438859667949,-268.69488524496967,35.96572622513329,-101.71463772222016,-34.25344235299603,50.06731813880866,271.4035600550973,138.28995314640585
471,-0.05740801774487579,-268.11130003124305,33.1700471717256,-115.76561076760815,-35.26401928326707,46.69512227092529,270.5568275814908,149.5652149015338
472,0.6343951419607818,-267.2296654879686,30.237968220548158,-130.58704005757593,-36.122754973928316,43.148191492376064,269.42285336299653,161.6671678711996
473,1.3274841196814982,-266.0176422109353,27.187367569233952,-146.0952111648384,-36.780949999529135,39.453930984551356,267.97251021050783,174.5572813716612
474,2.024045127890921,-264.4434423213313,24.03808755262323,-162.20348833485366,-37.1878062927479,35.640272354596576,266.17709490422294,188.18763530043688
475,2.726378228927188,-262.4762871212177,20.8116153483257,-178.8251396662998,-37.29178525092865,31.735534103973954,264.00871534102794,202.50275574429747
476,3.436719831692759,-260.0869138657118,17.53073667118876,-195.87637876688058,-37.041995635984655,27.76827094153706,261.4407309330764,217.4419019041091
477,4.1570461787414485,-257.24813635912,14.219171267395167,-213.2795756183022,-36.389575768855146,23.767091042899228,258.4482528561009,232.94176153566588
478,4.888863924356534,-253.93546176688525,10.90119850653105,-230.9665674991299,-35.28904136453896,19.760422529470016,255.00870820548116,248.93948827907644
479,5.6329950641001,-250.127762879435,7.601280545806661,-248.88197685080056,-33.6995777921438,15.776214888129704,251.10246868077382,265.3759891975797
480,6.389364222100221,-245.80800132328181,4.343689781022836,-266.9864200175224,-31.586262488730924,11.84156702250296,246.71354037677492,282.19934664539704
481,7.156796652533083,-240.96399300583747,1.1521466652525372,-285.25947185436024,-28.92120893799561,7.982280294534792,241.830306744093,299.36823761080007
482,7.932835327041948,-235.58920253206958,-1.950526657160265,-303.7022387332441,-25.684627595384555,4.222341577791419,236.44631192323757,316.8551982214106
483,8.713585210370866,-229.68354870634897,-4.94273210971616,-322.33938816256216,-21.865801220050344,0.5833474930335097,230.56106671714147,334.64957299043687
484,9.493592344616017,-223.25419889934196,-7.804396603453292,-341.2204879508119,-17.46397232483105,-2.9161137245695024,224.1808548225709,352.7599887874532
485,10.265764746947957,-216.31632634105938,-10.517244263812882,-360.42052169649253,-12.489139150783979,-6.2611021186560025,217.31951292277736,371.21620281592527
486,11.02134139580591,-208.8938014285151,-13.065036364140356,-380.0394697797747,-6.96275409538165,-9.440964160126109,209.99915498818066,390.070191686579
487,11.749914691060678,-201.0197859423261,-15.433775556493128,-400.20087482568675,-0.918315249381838,-12.449944030552984,202.25080867041143,409.39637399557944
488,12.439510672387982,-192.73719784974176,-17.611871059570078,-421.04934629659715,5.598162023809481,-15.287742484018603,194.11493020097964,429.2908902385441
489,13.07672992945022,-184.09901449699666,-19.590261345275437,-442.74699865802864,12.527810299271499,-17.959998256245548,185.64176408237353,449.86989968604564
490,13.64695049868866,-175.16838368630386,-21.36249070640443,-465.4688593633406,19.798732241402202,-20.478668206166766,176.89151532322467,471.26689198237284
491,14.134592112089885,-166.01851535558885,-22.92473619908903,-489.39732443790786,27.32600219201293,-22.862284060481468,167.9343050077551,493.6290494753829
492,14.523439024659519,-156.7323312204083,-24.275782066292948,-514.7157785186034,35.01187065342244,-25.13606565869318,158.8498845162061,517.1127325046492
493,14.797016421260665,-147.40185570238538,-25.416939929710825,-541.6015311216834,42.7461944395133,-27.33187285389028,149.7270896528914,541.8781924360546
494,14.93901318914616,-138.12733858959476,-26.351914785594573,-570.2182507707845,50.40711287903446,-29.4879805595173,140.6630231441942,568.0836453109883
495,14.93374172721222,-129.016107895043,-27.086619128944314,-600.7081033017463,57.861986558077064,-31.648663751686982,131.76196220100505,595.8788625630234
496,14.766623541446826,-120.18116001062232,-27.628940245980935,-633.1838204973053,64.96861015148077,-33.863581617377,123.13399681170964,625.3984548005374
497,14.424687728403198,-111.73950318989895,-27.988468614183493,-667.7209404665846,71.57670552319986,-36.186952656790865,114.89341381179848,656.7550405883675
498,13.897068146216712,-103.81027929954766,-28.176198107468284,-704.3504717206671,77.52969595250686,-38.676515576402764,107.15685118445552,690.0325044916792
499,13.175484253198935,-96.51269727902273,-28.204210986847965,-743.052238033748,82.66675720641457,-41.39227446039312,100.04125606093353,725.279556842072
500,12.25469046495229,-89.96381947799964,-28.08536218273875,-783.7491599039571,86.82513601277071,-44.3950312854788,93.66168811431254,762.5038108518637
501,11.132879510277844,-84.27624875805796,-27.832977963583886,-826.3027197109828,89.84272085480906,-47.74471465128015,88.12901719555008,801.6665898889373
502,9.812026385831544,-79.55576976180545,-27.460583643464453,-870.5098407869453,91.56084339691697,-51.49852078532342,83.54756989497808,842.6786682391795
503,8.298160686614636,-75.89900177752007,-26.98167347309035,-916.1013853134501,91.8272808072269,-55.70889136746573,80.01278386253533,885.397132244361
504,6.6015561401576495,-73.39112284907964,-26.40953333032996,-962.7424423754106,90.49941955246251,-60.42136223914337,77.60893085539122,929.6235253942452
505,4.736827343213204,-72.10372512034054,-25.757123428569717,-1010.0345360400287,87.44753016647209,-65.6723272679315,76.40696957959351,975.1034110984707
506,2.7229254117587613,-72.09286007623808,-25.037024258229575,-1057.5198346016969,82.55809082793331,-71.48677209881295,76.46258776149409,1021.5274509934558
507,0.583026701433795,-73.39732968472157,-24.261444737133022,-1104.6873870107538,75.73708646870146,-77.87604266609807,77.81448992693662,1068.5340554945656
508,-1.655688217350576,-76.03727566077681,-23.442287428197215,-1150.9813520169039,66.91320086133018,-84.83572245879724,80.48298329994985,1115.7136177307982
509,-3.9623648334247794,-80.01311411104955,-22.591261946593026,-1195.811120702199,56.0408129391012,-92.34369989746243,84.46890899097433,1162.614292751618
510,-6.302910345582141,-85.30485648596749,-21.72003453569204,-1238.5631648957935,43.102706349085395,-100.358512116828,89.75295905213919,1208.7492316978407
511,-8.64052750778417,-91.87185000544682,-20.840399399667373,-1278.614374054101,28.112403107431817,-108.81805345682086,96.29541199818031,1253.605126669779
512,-10.936336436965375,-99.65296169636004,-19.964455704047193,-1315.3465741745595,11.116037723440447,-117.63873594823887,104.03631016686242,1296.6518684394216
513,-13.150071708555217,-108.56722013691555,-19.10477299390454,-1348.1618576207106,-7.806303512476698,-126.71518533674762,112.89609202214469,1337.3530688539452
514,-15.24084053761421,-118.51491811919044,-18.27452703870741,-1376.498295834437,-28.53984299925848,-135.9205499104182,122.77668137019342,1375.177155691671
515,-17.167927169152637,-129.37916778652786,-17.487587983133288,-1399.8455606961863,-50.935025346272894,-145.1074901823492,133.56302363053223,1409.6087121864102
516,-18.891628283815724,-141.0278875086798,-16.758543558744417,-1417.7599472113245,-74.80812536348839,-154.10990458189275,145.12504702307442,1440.1597082966327
517,-20.3741037350462,-153.31618721253366,-16.102642389271736,-1429.8782727710254,-99.94258079153981,-162.74542935024593,157.32001424437442,1466.3802580512097
518,-21.580226137767532,-166.08910668876246,-15.535646270590963,-1435.9301292771493,-126.09107001262308,-170.81873005737125,169.9952185098027,1487.8685393125024
519,-22.478411852623356,-179.18465006173233,-15.073585532091617,-1435.747986611617,-152.97834567853835,-178.12557784946398,182.99096716996172,1504.279531308511
520,-23.04141471940418,-192.43704938937844,-14.73241782256636,-1429.274691041606,-180.30482575324416,-184.4576754924327,196.143786591459,1515.332262616057
521,-23.24706245619928,-205.6801814146382,-14.52759766540528,-1416.5679705213465,-207.75093285909543,-189.60816606020452,209.28977371586257,1520.8153177960432
522,-23.078914464598615,-218.75105424535894,-14.473571669835543,-1397.8016494018793,-234.982159811679,-193.37772088332395,222.268013112923,1520.5904230705603
523,-22.526819794292095,-231.49327593332248,-14.583221800767133,-1373.2633856516281,-261.6548225576389,-195.581064354058,234.9239741668137,1514.5940177916318
524,-21.58735589460901,-243.76041526596495,-14.867285635682451,-1343.348871243035,-287.4224406610042,-196.0537535458239,247.11280193288852,1502.836815694487
525,-20.264132602787058,-255.41916692178089,-15.333787040206683,-1308.552576243801,-311.942660285845,-194.6589932049176,258.70241745742123,1485.40146344898
526,-18.56795114321445,-266.35223842727265,-15.987512433864646,-1269.4552621804166,-334.8846064789458,-191.29423500827903,269.576348876863,1462.4385069939337
527,-16.516813853331467,-276.4608847858512,-16.829566512418875,-1226.7086304759735,-355.93652225932203,-185.8972879788047,279.6362230627837,1434.1609694264557
528,-14.13578589232585,-285.6670276654714,-17.857037108003485,-1181.0175959060468,-374.8135237231112,-178.45165825387372,288.8038583579285,1400.8379178438452
529,-11.45671464881205,-293.91490873221176,-19.06279233748486,-1133.1207728728557,-391.26527507935816,-168.99084334084696,297.02291116248335,1362.7874420264977
530,-8.517815773562322,-301.1722399638098,-20.435425118217168,-1083.7698270277558,-405.08336643396916,-157.60132877148982,304.2600416842139,1320.3694801800277
531,-5.363136851221517,-307.43082652207823,-21.959351425009054,-1033.7083739774375,-416.1081605314389,-144.4240717951256,310.5055760651348,1273.9789053852387
532,-2.041910893506892,-312.70664941059397,-23.615060130151903,-983.6511023522351,-424.2348627808353,-129.6543044617006,315.7736527860933,1224.0392343795618
533,1.3921876851865185,-317.0394057416945,-25.37950453303203,-934.2637655096112,-429.4185628778793,-113.53954437879375,320.10185081515937,1170.9972447255375
534,4.881871963304622,-320.49151451961717,-27.22661921570995,-886.1446314618747,-431.67799839779155,-96.37576347167096,323.5503059875253,1115.3186962954226
535,8.367144057315759,-323.1466059467136,-29.12794092710947,-839.8079109783824,-431.0978033807214,-78.5017313574996,326.2003311639645,1057.4852572709112
536,11.786257828355346,-325.10752248535834,-31.053308754248523,-795.6696039705836,-427.8290300142193,-60.291618537801945,328.1525649561161,997.9926404757898
537,15.07673200341735,-326.49387000429795,-32.97161656917121,-754.0361162906644,-422.08776989090313,-42.14601372010095,329.5246829968447,937.3498671558477
538,18.176403368262953,-327.4391670325533,-34.85158930849697,-715.0959033610524,-414.1517531960244,-24.481577464790767,330.44871461743986,876.079494964364
539,21.02450961123289,-328.087649223407,-36.66255387739109,-678.91429444982,-404.35486941205073,-7.71961878504771,331.06801617874055,814.7185773434163
540,23.56279081666697,-328.59079417519024,-38.37517542880816,-645.4315449981805,-393.0796307100834,7.726060809298851,331.53395980676504,753.8200654709759
541,25.73659741598027,-329.10363804708,-39.96213072708903,-614.4640599144329,-380.74768630252424,21.46166381180056,332.002402243675,693.9543240016922
542,27.495990454202477,-329.780959309879,-41.398692516542496,-585.7086355388093,-367.8085876574227,33.12580832855219,332.63000235465165,635.710409598352
543,28.796817375532253,-330.7734063692004,-42.66320219121491,-558.7494892966372,-354.72709425224986,42.401412962386296,333.57045742618493,579.6967574896142
544,29.601743527020997,-332.2236451012455,-43.73741225820959,-533.0677891381365,-341.9693910863769,49.02661526017192,334.97072814768245,526.5409362226425
545,29.881216688672808,-334.2626001169947,-44.60668488805603,-508.053361601093,-329.9886569996925,52.8043047013534,336.96732065831617,476.88816399967874
546,29.61433945042114,-337.0058602517812,-45.260038226324255,-483.0182460647997,-319.2104725272045,53.60988955868438,339.68269170930586,431.3983300562726
547,28.789622181411346,-340.55031468823466,-45.69003799522993,-457.2117693309688,-310.01858395908084,51.39697183471488,343.221840132168,390.7413290608709
548,27.405587724777888,-344.97108170862043,-45.892537905035795,-429.8368339125758,-302.74154386488124,46.20067508854493,347.669144787528,355.5905928643499
549,25.471198420305022,-350.318788034141,-45.86627809510631,-400.067140359765,-297.6407266717521,38.13845571849207,353.0855066395472,326.6147898605832
550,23.006077702303052,-356.6172538496002,-45.61235596913712,-367.0650946410515,-294.90017238502264,27.408327281076605,359.5058513717712,304.46775558278614
551,20.040503040247692,-363.86163763469204,-45.133588330302985,-330.0001834526949,-294.6186458207539,14.28453479800881,366.9370497403435,289.7768157014787
552,16.615154115173826,-372.01709626210464,-44.43378763410886,-288.0676315549742,-296.80421787581145,-0.889176389836668,375.35631600217596,283.12975868745497
553,12.780608875483994,-381.01801926056606,-43.51697836681483,-240.50718335972326,-301.3715853331663,-17.708454256427203,384.71014987945625,285.0608017142086
554,8.596589271775196,-390.7679002720899,-42.386582044349694,-186.6218716483566,-308.14225258103824,-35.71907202667084,394.913893059625,296.03595987319875
555,4.130966928295646,-401.1399109730731,-41.04460141576836,-125.79664334226918,-316.8476074766384,-54.429114708504876,405.8519745086026,316.43826633723535
556,-0.541453877157705,-411.9782401856913,-39.49083669634162,-57.516699648702,-327.13483740106,-73.32219953068436,417.3789170148063,346.55329564847955
557,-5.340352876258073,-423.1002514382276,-37.72216959687654,18.61462740314376,-338.575551293685,-91.87129354988889,429.3211683156611,386.5554187052687
558,-10.18148252859497,-434.2994949073246,-35.73195474189408,102.8586962560027,-350.676899033646,-109.5526937369839,441.47980299439456,436.4951796050839
559,-14.978397187042383,-445.34958456242623,-33.50956237613261,195.3253801044244,-362.89491084056573,-125.85975132750853,453.63411608884826,496.28814638526904
560,-19.64428682187435,-456.0089191605866,-31.040120185383557,295.95827610074883,-374.6497166459629,-140.31594925003196,465.54609662164285,565.7055589581735
561,-24.093874489456155,-466.0261877600454,-28.3045045616616,404.521753995987,-385.342248912653,-152.4869762110827,476.9657301403635,644.3670785177271
562,-28.245331505998966,-475.1465583809982,-25.27963160953631,520.5903565798828,-394.37198209594237,-161.99148252166165,487.63703547570844,731.7359278268057
563,-32.02215943837393,-483.1184044495631,-21.939094362379574,643.5410977363832,-401.1552179757318,-168.51025111302073,497.3046943738011,827.1166938885258
564,-35.35498401325657,-489.7003800231792,-18.254183547554153,772.5492059098796,-405.1433899667994,-171.7935723379812,505.72108589662207,929.6560379416832
565,-38.18320325485755,-494.6686140710159,-14.195312990586324,906.5878280061542,-405.8408348670385,-171.6666724300568,512.6534934720997,1038.3465199994175
566,-40.456431542449785,-497.82375937820456,-9.733845288384225,1044.4321420658905,-402.82147245445253,-168.03311203629855,517.8912150405583,1152.033697099809
567,-42.13568467917591,-498.99760698693217,-4.844276922777024,1184.6682322742524,-395.74384679780616,-160.87614149346106,521.2522808157543,1269.4265998208516
568,-43.194260416443825,-498.0589676003782,0.4933052418180121,1325.7069688967413,-384.36402075694593,-150.25806921864748,522.5894743351349,1389.1116363907909
569,-43.61828431839715,-494.9185327663857,6.290637739116278,1465.8030243929243,-368.5458759584012,-136.31776067669915,521.7953656881069,1509.5699244338305
570,-43.40690967638265,-489.5324657341809,12.548756825637712,1603.0790583343871,-348.26845002281283,-119.26642888213884,518.8061040860786,1629.1980113103018
571,-42.57217861856804,-481.9045362243527,19.25576413970883,1735.5550204158,-323.63003407104236,-99.38189901753432,513.6037803969763,1746.3319132414215
572,-41.138567349440486,-472.0867006985669,26.385113776651785,1861.1824405625755,-294.8488488917623,-77.00153309501181,506.2172550606073,1859.2743689617753
573,-39.14225051621402,-460.17812843053264,33.89462110006679,1977.8834731976672,-262.2602118098703,-52.513995127996374,496.7214436447616,1966.325143826335
574,-36.63012623760318,-446.3227670751173,41.72632649420212,2083.5943121403625,-226.31019751387305,-26.3500341310108,485.23514702588335,2065.814112355641
575,-33.65864280454028,-430.7056145461425,49.807256042315366,2176.312376556524,-187.5458904702578,1.02752955500323,471.9175912804163,2156.1366788602822
576,-30.29246188867991,-413.54791021837525,58.05102368993774,2254.146385776837,-146.60243237361905,29.134406248655417,456.9638947510081,2235.7908689905644
577,-26.602985428551445,-395.1014800733056,66.36013653626894,2315.368105843847,-104.18718847285434,57.475785627788866,440.5997049864696,2303.4151525299376
578,-22.666768044568293,-375.6424737729176,74.62881388373472,2358.4641958369602,-61.061483414441646,85.55735660365178,423.07525097967374,2357.8257646083844
579,-18.563835388397,-355.46472272283734,82.74611774482871,2382.186262557881,-18.020473362433126,112.89609854317845,404.65904398474055,2398.0520241220574
580,-14.375930978783368,-334.8729316059533,90.59920978379125,2385.5970166512716,24.128190296139127,139.0305377759181,385.6314406665536,2423.3679671494
581,-10.184718991240025,-314.175895406294,98.07658171010591,2368.11036841305,64.5861989790261,163.53018033216117,366.27826017463735,2433.318576967159
582,-6.069977239398824,-293.6799121436024,105.07113959809843,2329.5234302374097,102.5862076386084,186.00387200945548,346.88462334862703,2427.739028034949
583,-2.1078219620520846,-273.68253922475674,111.48305077803265,2270.038691071158,137.41254269047562,206.10689366457643,327.729157149272,2406.7656586263956
584,1.6309877045991872,-254.4668181517949,117.22228355481965,2190.275057836874,168.4203550785537,223.5466629144594,309.0786799980775,2370.837807833221
585,5.082614303926651,-236.29606802158952,122.21078642975468,2091.2669701709747,195.05265241415054,238.0869742529211,291.18345445078,2320.690146964971
586,8.191525036924071,-219.40932345641676,126.3842667402968,1974.4513378519093,216.8547354060174,249.55076330034976,274.27306421451186,2257.335651039009
587,10.911647212192092,-204.01746889123427,129.69354030699895,1841.642580522959,233.48566425825737,257.8214268366464,258.5529453519081,2182.03984692819
588,13.207258285791657,-190.3001002387765,132.10543477022944,1694.9965318513227,244.7264855576905,262.8427694281114,244.20157879271989,2096.2874042587346
589,15.05358278797234,-178.40312787854876,133.60324042416983,1536.9643815508969,250.48505535624372,264.61768029011284,231.36833426854707,2001.7424780515632
590,16.437079632617113,-168.4371216239814,134.18671390004405,1370.2381565066316,250.7973959616291,263.205669543441,220.1719446370286,1900.2044542937142
591,17.355414823091227,-160.47638791591655,133.87165205904944,1197.689483944495,245.82561918541919,258.71940955132965,210.69958345053303,1793.560886640054
592,17.817126020734232,-154.5587607528168,132.689065630052,1022.3035391030093,235.85253538735128,251.3204337799449,203.0065162302088,1683.7394467719096
593,17.84099643380651,-150.68607975056705,130.6839939832802,847.1101644582449,221.27314507573584,241.21414376709126,197.1162958348463,1572.6606493544987
594,17.455165514331366,-148.82532062090317,127.91401324189366,675.1141656152186,202.583278908227,228.64426718849327,193.0214732205594,1462.1929642738005
595,16.696012575403703,-148.91033517744668,124.44749865803725,509.22674862928136,180.3657141216829,213.8869000924112,190.68479551196535,1354.1117048929482
596,15.606856354981842,-150.84415002984554,120.36170784373128,352.1999717629972,155.27415190529715,197.2442568346203,190.04086272294305,1250.0627949623372
597,14.236518491523665,-154.50176583994028,115.74075363516698,206.56594707947363,128.01549137622624,179.0382434356126,190.99821230614359,1151.5321871771635
598,12.637801588601532,-159.73339269294965,110.67353421424713,74.58234839840433,99.3308808285703,159.60396411863604,193.4417970291473,1059.821359794912
599,10.865932901494423,-166.36805187225252,105.2516839521387,-41.81443347848327,69.97606390325006,139.28326613117179,197.23581666411044,976.028987587628
600,8.977022770085458,-174.21747003577354,99.56760169977213,-141.04739440596637,40.701564676435794,118.41842395249962,202.22685787767233,901.0386023740508
601,7.02658303026882,-183.08018832073677,93.71260452982709,-221.9274573713313,12.23326869576046,97.34606015868492,208.24728987349013,835.5118488071092
602,5.0681452121292105,-192.74580613896129,87.77524501320434,-283.67191637919524,-14.746045603790856,76.39139622790618,215.11885625154727,779.8868103575103
603,3.152011976595372,-202.99927735108386,81.83981982717327,-325.9125464848595,-39.61369051205317,55.86292205966811,222.65639673588282,734.3808231181863
604,1.3241685213902854,-213.62517526403087,75.98508760973901,-348.6934367323748,-61.82207085703507,36.047567366354365,230.67162645278978,698.9971981620018
605,-0.37462605036943514,-224.41184286717584,70.28320514209719,-352.4588850115336,-80.91126254442919,17.20645066827135,238.9768960036855,673.5353204247427
606,-1.9095540435626606,-235.15534638823448,64.79888372377124,-338.0319553228877,-96.51879809286709,-0.4287281135253954,247.38885336634917,657.603666272091
607,-3.2522543462658318,-245.66315379495592,59.588762443103434,-306.5845306177757,-108.38637582709735,-16.65859760064291,255.73192901354602,650.6353663503918
608,-4.3811370057977275,-255.75746515428952,54.70099199072994,-259.59989188523406,-116.3633082749312,-31.31828783911271,263.8415684525452,651.9060199773552
609,-5.281502696089864,-265.27812871466017,50.175021188218736,-198.82901240479308,-120.40663400508672,-44.27884251727064,271.56714145216307,660.5535298050388
610,-5.945477854924359,-274.085085305487,46.04157757700168,-126.24187352019503,-120.57793227422978,-55.447864171969094,278.77446441680905,675.5997615877852
611,-6.371780724236601,-282.0602941579133,42.32283226847162,-43.97518552651148,-117.03699736339377,-64.76940410553654,285.3478815152258,695.9738377742979
612,-6.565336997786794,-289.1091053304912,39.03273714213804,45.72206371027659,-110.03264471473098,-72.22312724040796,291.19186098589256,720.5368430101825
613,-6.5367661396688295,-295.16105728590736,36.17751928405189,140.54380649139145,-99.89102873572696,-77.82280063073317,296.23207525762814,748.1076563607672
614,-6.30176069000317,-300.1700925346939,33.7563136542478,238.18144361202326,-87.00194681962464,-81.61417210396328,300.4159469528839,777.4895362354675
615,-5.88038118305324,-304.1141993374961,31.761910933635196,336.37640911617547,-71.80368003104472,-83.67232143108312,303.7126572645902,807.4969822148278
616,-5.296288930107158,-306.9945028782809,30.181593894612732,432.9695084794218,-54.76697270236708,-84.09857920518398,306.1126283011865,836.9822995527883
617,-4.575938173246835,-308.8338446688639,28.99803296387933,525.9459057150405,-36.378776650613595,-83.01711696759872,307.62650637477066,864.8612133980829
618,-3.747748247886378,-309.6749037167489,28.190210301571135,613.4747781535157,-17.126378594096725,-80.57131511163098,308.28368835587895,890.1368336435618
619,-2.841275474992162,-309.57792653993033,27.734341951037138,693.9428228361841,2.517508010734151,-76.9200123200894,308.1304474720096,911.9212655259234
620,-1.8864034483267746,-308.6181446518617,27.604769430306018,765.9809824861104,22.108170090410876,-72.2337319883253,307.227727457261,929.4541983535644
621,-0.912569078055136,-306.88296684806124,27.774795306114804,828.4839582027506,41.24041134013731,-66.69096808098502,305.6486838947627,942.1178835179498
622,0.0519598278900789,-304.46903887150967,28.217441416154628,880.622285755083,59.5578315546265,-60.474596565507994,303.47605823425414,949.4480284112834
623,0.9807414588867505,-301.47926446872935,28.906113088097925,921.8469668357701,76.75965625136928,-53.76846087434877,300.7994729015342,951.1402776590085
624,1.8497392771777261,-298.01987932764456,29.815157684101948,951.8868590573688,92.60502177846541,-46.75416299190136,297.7127349522476,947.0521180207235
625,2.637813441080866,-294.1976629416506,30.920310869864057,970.7392313436327,106.91473712287977,-39.608077840242174,294.3112308460911,937.2002182134618
626,3.3271159941035404,-290.1173633825602,32.19902883693965,978.654076995469,119.5706520495641,-32.49859915607827,290.6894863805108,921.7533891542386
627,3.903383507616121,-285.87939697937,33.630708917336804,976.1129376185354,130.51285665480393,-25.583620627782167,286.93895425570224,901.021513296821
628,4.356123387352931,-281.57787002639543,35.196804472065395,963.8031207985215,139.73501532304192,-19.008256387319438,283.1460781513842,875.4409345532392
629,4.67869291190916,-277.2989540259952,36.880842758070294,942.5882883789919,147.2781950392317,-12.902808950929506,279.39066772035585,845.5569156696106
630,4.868272844186432,-273.11963053829504,38.668356892888156,913.4764482821628,153.22358229555348,-7.380998810423219,275.7446044724108,812.0038535369284
631,4.925739902992626,-269.1068071223463,40.54674512192278,877.5864006742507,157.6844946615921,-2.5384763739535767,272.2708847860717,775.4839926770603
632,4.855444641033247,-265.31679268738924,42.505072283298794,836.1136698161702,160.79808444538057,1.5483577296577573,269.0229938116232,736.7453925958325
633,4.6649035303775435,-261.7951093334971,44.533829479227684,790.2968985313335,162.7171058950682,4.823195038143418,266.0445932945426,696.5598870992196
634,4.364416235179387,-258.57660869667274,46.62466826967474,741.3855970987387,163.60207765823287,7.250295550972735,263.3694975592488,655.7017262633707
635,3.966620940469362,-255.6858539569233,48.770125073314105,690.6100283649546,163.61412220596225,8.814572583369918,261.0219050525244,614.9275194192013
636,3.4860020799587508,-253.1377240597116,50.96334995437574,639.1538826380447,162.90870677818882,9.521267317401799,259.01684800170835,574.9580060415868
637,2.938365860705072,-250.93819442391447,53.197851809381056,588.130256306612,161.6304490219916,9.395203380727665,257.3608200135615,536.462076823865
638,2.3402996410732406,-249.08524843946512,55.46726944796496,538.5613036485474,159.90908777009207,8.479623381837083,256.0525408547479,500.0433552677131
639,1.7086314651452392,-247.56987617377726,57.76517551795685,491.36178799712894,157.85665822425483,6.834622944247003,255.08381905491748,466.2295362467605
640,1.059905831039946,-246.37712046268808,60.084917949072,447.32662176419194,155.5658538191058,4.535212655474888,254.44047597712884,435.4645671892328
641,0.4098910165077901,-245.48713531843876,62.41950172824715,407.1223594473429,153.1095064764089,1.6690533161407857,254.10329901355402,408.1036541998681
642,-0.2268679916755272,-244.8762266907115,64.76151229199712,371.28249728952505,150.54107455617614,-1.666076359634001,254.0489959430888,384.4109833013931
643,-0.8374386577119926,-244.51785064762555,67.10308044283553,340.20634009138394,147.8959947710599,-5.365008971489236,254.25112680190753,364.5599688046099
644,-1.4108219690281205,-244.38354889391545,69.43588742288986,314.16112095879663,145.19373128280458,-9.318035544438974,254.68099377132972,348.6357784047722
645,-1.9381976916068275,-244.4438062743296,71.75120772360395,293.2870036880498,142.44034221367056,-13.413786627151335,255.30847367667553,336.639838807801
646,-2.4130887734408732,-244.66881952349465,74.03998645123698,277.6045595545597,139.63138043606256,-17.542062572216274,256.1027817439748,328.49599654239734
647,-2.831442706187438,-245.02917082605552,76.29294753636023,267.02428944891403,136.7549508385011,-21.596531353369063,257.033159083777,324.0579953644241
648,-3.1916304919864777,-245.4964034321288,78.50072861179294,261.35775706175644,133.7947590177297,-25.477219174728162,258.0694796270734,323.11793280267614
649,-3.4943665162483475,-246.04349942881313,80.65403781748917,260.3299071616664,130.73300500906709,-29.092728995161725,259.18277468606567,325.4153717816409
650,-3.7425550403552426,-246.64526185716883,82.7438270695772,263.5921626047054,127.55299870069949,-32.36213393737541,260.34567499574723,330.6468063309425
651,-3.9410712460795336,-247.2786049331559,84.76147562066494,270.73592205123487,124.24139951707544,-35.21650546407916,261.53277130063975,338.47521044601433
652,-4.096486736494104,-247.92275739728336,86.69897732159178,281.3061149474433,120.79001040046741,-37.600049514883,262.72089557623434,348.5394335533437
653,-4.216750921869321,-248.5593850755187,88.5491249930202,294.81450887473807,117.19708370624615,-39.47083707206835,263.889325938979,360.4632423586132
654,-4.310840649958018,-249.17263963701657,90.30568554927471,310.7525049532137,113.4681230869103,-40.8011285484071,265.01991919362587,373.8638451164667
655,-4.388390868369785,-249.7491413123781,91.96355970303347,328.6031980459735,109.61618969709616,-41.57730365802206,266.09717573468,388.35976900389363
656,-4.459319213005459,-250.27790393294364,93.51892014620017,347.85251880890837,105.66174230916842,-41.799419693094684,267.10824209054095,403.5779931913929
657,-4.533457235700982,-250.75021098360003,94.969322248403,367.9993132399626,101.6320586808596,-41.480431057786035,268.0428567652222,419.16026871694834
658,-4.620200437619136,-251.15945145281432,96.31378180012209,388.56425171012074,97.56029949333322,-40.64511127023191,268.8932453032091,434.7685811406336
659,-4.728188350990262,-251.50092425657684,97.55281527157119,409.09749318847304,93.48428628082797,-39.32872526520282,269.65397085299026,450.0897332867137
660,-4.865024654276426,-251.7716200395894,98.68843939770493,429.1850613479085,89.44507102897516,-37.57550457793146,270.3217470373632,464.8390434401016
661,-5.037045706309098,-251.96998920105432,99.72412847438946,448.45391739999013,85.48537766011695,-35.43698080118054,270.8952205835112,478.7631695321928
662,-5.24914395073267,-252.0957048810972,100.66472941623562,466.57573992880975,81.64799470011687,-32.97023362040619,271.3747317099648,491.6420826151781
663,-5.504650483304266,-252.14942919160993,101.51633629248923,483.26944487878734,77.97419440945396,-30.236108838404764,271.76206050340824,503.2902238655777
664,-5.805278786829536,-252.13259013170884,102.2861276590935,498.30249945323243,74.50224701833972,-27.29745921587534,272.06016737245363,513.5568890435832
665,-6.15112920314497,-252.0471755067046,102.98217149141395,511.49110218488283,71.2660899104737,-24.217456823927563,272.272935221404,522.325893187015
666,-6.5407511405622305,-251.89554897409906,103.61320387258108,522.699317927027,68.29420115781357,-21.058020109842264,272.4049204223106,529.5145765772819
667,-6.971257498877329,-251.68029223290924,104.18838881064993,531.8372710037457,65.60871525643529,-17.878392250802474,272.46111912646376,535.0722207886124
668,-7.43848359714447,-251.4040763725864,104.71706761395036,538.8585122425548,63.224806774327995,-14.73389993311688,272.4467549512063,538.9779509376879
669,-7.937181213297074,-251.06956442466458,105.20850700932232,543.7566860246042,61.150355369770644,-11.674913824183179,272.367093479608,541.2382069879826
670,-8.461237367697146,-250.67934616236735,105.67165544006284,546.5616316488936,59.385893718201615,-8.74602401754481,272.2272882005487,541.883872876996
671,-9.003907319405592,-250.2359051872952,106.11491663847212,547.3350589364644,57.92482871340362,-5.985435844471711,272.0322614809198,540.9671569356551
672,-9.558051733770837,-249.74161736128946,106.54594869063486,546.165940772467,56.753916217494655,-3.4245838870591108,271.78662294947156,538.5583200992393
673,-10.11636873891005,-249.19877868405035,106.97149548036822,543.1657648602474,55.853960840940104,-1.0879551181245435,271.49462630310893,534.7423492812616
674,-10.671612397009389,-248.60965971432805,107.39725570986833,538.4637829752589,55.20070489819764,1.0068938317640312,271.1601639898692,529.6156714767866
675,-11.216790092342938,-247.97658249125286,107.82779282058438,532.2023881016498,54.76586496418324,2.8491449688320163,270.78679746635987,523.2829991791974
676,-11.745332680363507,-247.3020146680099,108.2664872622902,524.5327378202198,54.51827050196833,4.434375796232787,270.37781888367664,515.854389212339
677,-12.251232946618144,-246.58867445283659,108.71553077344528,515.6107263199684,54.42505697680446,5.7640896775039545,269.9363383735091,507.44258510960174
678,-12.729149794421295,-245.83963920190715,109.17596067299343,505.59338790688247,54.452865809725246,6.845145314150825,269.4653898102613,498.1606980910354
679,-13.174477407865465,-245.05845016953455,109.64773068466738,494.63579268208815,54.5690054273646,7.689110547587987,268.9680470715031,488.12026419627176
680,-13.583380307230017,-244.2492059101929,110.12981363477125,482.88847124217057,54.74253132645225,8.311564426464328,268.44754237147265,477.4296961961812
681,-13.952796692764228,-243.41663712917716,110.62033056814252,470.4953811262405,54.94520815553834,8.731369578133085,267.90737821918,466.19312971337143
682,-14.28041373217395,-242.5661564605388,111.11670038122804,457.59240468056055,55.15232295172957,8.969934638597847,267.3514250011179,454.50964478742316
683,-14.564619406197519,-241.70387773888908,111.61580384839846,444.3063472904216,55.343325517986,9.050484021000436,266.7839970791728,442.47282806687303
684,-14.804436092877477,-240.83660078898896,112.11415580234127,430.7543875381295,55.502279199267825,8.997349745869506,266.2099015432549,430.17062779464544
685,-14.999441234098237,-239.97175953487053,112.60807920692434,417.04391750860896,55.618112743669045,8.8352975261707,265.63445531567334,417.68544441526785
686,-15.149680272332716,-239.11733326146148,113.0938750176185,403.2727026539326,55.684671234757275,8.588897002651969,265.063468150355,405.0943943711109
687,-15.25557668753181,-238.281723020975,113.56798213752631,389.52928651207696,55.700571009269126,8.281944204636606,264.50319112929213,392.4696835858547
688,-15.317843489395484,-237.4735972695733,114.02712239954187,375.8935659069381,55.66886992408073,7.93694306852855,263.96023234079286,379.8790299945865
689,-15.3373999573675,-236.70171261333545,114.46842619753822,362.4374663958506,55.59657034742815,7.574652055643742,263.44144326260056,367.3860806512564
690,-15.315296789266517,-235.97471683652347,114.88953507969525,349.2256548487338,55.49397786939649,7.213701347054089,262.95378076156356,355.0507776265638
691,-15.252652202337629,-235.30094209875983,115.28867842130032,336.31623534189674,55.373943845114745,6.870285577572886,262.5041505467453,342.9296373145495
692,-15.150601011747991,-234.6881963783262,115.66472242707832,323.761385325131,55.25102418470976,6.557936474562332,262.0992385280428,331.0759191698708
693,-15.010258226246533,-234.14356101639345,116.01719121618865,311.6079005987002,55.14058990207694,6.287378954438427,261.74533695292337,319.5396715980536
694,-14.832698062883287,-233.67320163986355,116.34626135008972,299.8976293374039,55.05792659752262,6.066473068518198,261.4481723440964,308.3676540385088
695,-14.618948420765253,-233.282198830006,116.65273249103443,288.6677865775384,55.017360258239194,5.9002425951014885,261.2127419845231,297.6031446074813
696,-14.369999932798672,-232.9744037493389,116.93797767937652,277.9511506485073,55.031445526472574,5.790989032800326,261.04316496963287,287.28565145892156
697,-14.086827965040557,-232.75232270626378,117.20387694678854,267.7761514152107,55.110249793066835,5.738487318565481,260.9425528098173,277.45055273245316
698,-13.770425419738329,-232.6170334557231,117.45273779422037,258.166866394917,55.260762015093924,5.740256871238932,260.9129034079245,268.1286941070787
699,-13.421843804498101,-232.56813495023107,117.68720576799944,249.14294454955623,55.48644919633138,5.791898662136253,260.95502112999804,259.34597434806875
700,-13.042239640031273,-232.60373130294818,117.91016823763827,240.71947895305243,55.78697649803625,5.887486083929681,261.0684647771629,251.12294803488595
701,-12.632922918720158,-232.72044994927052,118.12465457037334,232.90684911222093,56.158099553834546,6.0199946208402535,261.2515246167591,243.47447150710508
702,-12.19540412753752,-232.91349338561383,118.33373608256377,225.71055221087917,56.5917302095531,6.181752950285474,261.5012291801299,236.40941377730448
703,-11.731436417937694,-233.17672334901502,118.54042924670544,219.13104063652628,57.07616987569765,6.3648964151254415,261.81338214036765,229.93044948588084
704,-11.243049871503015,-233.5027757945705,118.74760549764177,213.16358128099083,57.59649810071148,6.5618031291934455,262.18262910590374,224.03394641218316
705,-10.732575449174107,-233.8832044392056,118.95791054510637,207.7981504307819,58.13509792646182,6.7654935814038275,262.6025534926523,218.70995581947798
706,-10.202657029848769,-234.30864990034573,119.17369541116905,203.01937652873224,58.672294255972496,6.969976524498534,263.0657997231516,213.94231003455647
707,-9.656250783070245,-234.76903062023516,119.3969606406967,198.80654158466422,59.18707721640694,7.170526959216184,263.56422096084634,209.70882816011633
708,-9.096611880611677,-235.25375098869435,119.62931446741413,195.13365044748545,59.65787973730979,7.363885809390127,264.0890476398255,205.98162772690014
709,-8.52726926181236,-235.75192145368334,119.87194521094723,191.96957544373967,60.06337744239561,7.548375083809112,264.6310723043584,202.727537405441
710,-7.951989861237658,-236.2525849278666,120.1256077675984,189.27828191923712,60.383279319206395,7.7239266502957555,265.1808456910119,199.90860349497703
711,-7.374734308294291,-236.74494346956462,120.39062371478958,187.0191378518228,60.599079219627626,7.892027001251672,265.7288785633945,197.48268062072353
712,-6.799606501026272,-237.21857912021918,120.66689433172046,185.1473079185355,60.69474086008573,8.055584412518634,266.2658436400356,195.40409485488215
713,-6.230799573361382,-237.6636629775187,120.95392573134012,183.61422942455357,60.65729248967678,8.218728485496136,266.78277208597905,193.62436550452185
714,-5.672540586357423,-238.0711470387716,121.25086508822032,182.3681647055289,60.47731160302345,8.386554940644192,267.27123934545443,192.09297035895605
715,-5.129035828774702,-238.43293397323947,121.55654639666392,181.3548222883119,60.14928478335509,8.564830480285174,267.7235353947099,190.75813844471162
716,-4.604418104029655,-238.74202071702143,121.86954339349481,180.51803733009692,59.67183277731116,8.759673515630837,268.13281478250474,189.56765431063482
717,-4.1026969982144035,-238.99261265784588,122.18822666956913,179.80050060716118,59.04779608671582,8.977226648254467,268.49322232307856,188.4696584679147
718,-3.627712850184484,-239.18020625951766,122.5108219654419,179.14452450357982,58.28418162795737,9.223336137315249,268.7999912492658,187.41342972676338
719,-3.1830948549673237,-239.30163924239056,122.83546722017329,178.49283397793613,57.39197628429372,9.503252307954684,269.049512008728,186.35013669905888
720,-2.772223436519131,-239.35510870189796,123.1602667988279,177.78937030042795,56.385838314951755,9.821363113189976,269.23937138676376,185.23354755857628
721,-2.398196868197305,-239.3401585773311,123.48334206431458,176.98009536347607,55.283682271533905,10.180970965044553,269.36836287731535,184.0206890641332
722,-2.063802171649113,-239.2576385640567,123.80287787238296,176.013784409841,54.10617684294057,10.58412054891644,269.43647000405906,182.67244753363437
723,-1.7714905007303616,-239.10963696131955,124.11716471295506,174.84279492348247,52.87617748967729,11.03148267916253,269.4448247017557,181.15410560991347
724,-1.5233573758961982,-238.89939022078488,124.42463627308467,173.42379915129922,51.61811666974698,11.522296460578396,269.3956431227509,179.4358092035065
725,-1.3211282080237676,-238.63117220545297,124.72390225889244,171.71846738086862,50.35737401302071,12.054369243975756,269.2921414672948,177.49295909325355
726,-1.1661495372727275,-238.3101663786126,125.01377635914938,169.6940888644751,49.11964726449099,12.624131268075464,269.13843463175914,175.30652158473234
727,-1.0593862701469448,-237.9423243025952,125.29329921071081,167.3241173154174,47.93034252919884,13.226739652906712,268.93942058909414,172.86325263543077
728,-1.0014248259838348,-237.53421398533257,125.56175615884692,164.58862831216786,46.81399957479797,13.856224717033747,268.7006535147316,170.15583013293679
729,-0.9924815002308264,-237.09286180385877,125.8186895276005,161.47467673511704,45.79376485919107,14.505670479004305,268.4282087955758,167.18288960628382
730,-1.0324147412708802,-236.62559185831554,126.06390499328286,157.97654346182892,44.8909217317488,15.16742060571381,268.1285431068206,163.9489595256335
731,-1.1207397319068144,-236.13986648642265,126.29747147424222,154.0958619110639,44.12448412340633,15.833300904299028,267.80835254479285,160.46429348596288
732,-1.256643762464556,-235.64313123965138,126.51971380007693,149.8416166839111,43.51085719164726,16.494849662839748,267.474431353941,156.74459802923602
733,-1.4390012098887928,-235.14266702600187,126.73119741962388,145.23000856704144,43.063565960664086,17.1435476565498,267.1335332575929,152.81065670311602
734,-1.6663873365925503,-234.64545155698636,126.9327046419625,140.28418255377468,42.79305107655099,17.77104035163655,266.79223701364646,148.68785318342609
735,-1.9370906010964588,-234.15803185377123,127.12520246799859,135.0338182666425,42.70652940982273,18.369345685030755,266.4568177510061,144.40559884185234
736,-2.2491237059565607,-233.68640945312782,127.30980292195106,129.5145852021633,42.80791635727032,18.93104175578473,266.13312595694595,139.99667296036097
737,-2.6002339883958445,-233.23594003874877,127.48771762860922,123.76746856126711,43.09780626652353,19.449429836416755,265.82647647132063,135.49648684014022
738,-2.9879138051866385,-232.81124930342517,127.66020887165871,117.83797504910822,43.573507358401706,19.91866928414569,265.5415501573481,130.94228625725592
739,-3.4094113566048416,-232.41616677186641,127.82853947870713,111.77523181613503,44.22912773753264,20.33388216208658,265.2823109099282,126.37230991887351
740,-3.8617421296987557,-232.05367907245866,127.99392377766532,105.63099545848195,45.05570940734534,20.69122661930023,265.0519404029172,121.82492450936562
741,-4.3417008820664575,-231.7259037725128,128.15748164766953,99.45859142209981,46.04140753627553,20.987939269984693,264.8527925404914,117.33775927658765
742,-4.8458738186568,-231.4340844114548,128.32019736547068,93.31180699038681,47.17171252289954,21.2223478814968,264.6863689979427,112.94686461716437
743,-5.370650412930098,-231.17860683535622,128.48288459887561,87.24376309903363,48.42971262386355,21.393856543764468,264.5533166000026,108.68591958019842
744,-5.912234330104405,-230.95903642024217,128.6461586103894,81.30579146058072,49.796394920632665,21.50290608797338,264.4534466927898,104.58551253384682
745,-6.466653178603234,-230.77417527124157,128.81041650299932,75.54634393615257,51.2509821017184,21.550912832882272,264.3857761185609,100.67251745097376
746,-7.029767273869888,-230.62213791303756,128.9758260796002,70.00996084925472,52.77130190494724,21.540188785814166,264.3485887822306,96.96958548131693
747,-7.597278112147134,-230.50044327786043,129.1423235243759,64.73632408808753,54.334185137546996,21.473846273868407,264.3395160093865,93.49476784805502
748,-8.164737681902597,-230.4061200534748,129.30961964544244,59.7594194245084,55.915887013957516,21.355689725964247,264.3556330228088,90.26128178006874
749,-8.727559988336454,-230.3358218949812,129.47721390328232,55.10683040609411,57.492525201579866,21.19009707305211,264.3935681270329,87.27742627016123
750,-9.281036210959423,-230.28594873344312,129.64441499605917,50.79918327922215,59.04052661894377,20.981893064391024,264.44962072964887,84.54664905840616
751,-9.820354812850375,-230.25277035387975,129.81036651146698,46.84975853614716,60.53707393075299,20.73621676085357,264.51988414136645,82.06776060766607
752,-10.340627780412271,-230.2325484621277,129.97407616165603,43.26427985013806,61.9605420348728,20.458385561957325,264.60036913438114,79.83528529595162
753,-10.836924081404813,-230.2216535584161,130.13444734142956,40.04088555935564,63.290914730601685,20.15375828259919,264.68712442813694,77.83993494987266
754,-11.304311344673149,-230.21667304519113,130.2903120580624,37.17028185108106,64.51017215892719,19.827599917946266,264.7763505121258,76.06918548058675
755,-11.737906518994475,-230.21450713650017,130.44046455358261,34.63607085299671,65.60264038271333,19.48495078315015,264.8645034592857,74.50793396534327
756,-12.132935734078753,-230.21244943512596,130.58369507797548,32.415241411920846,66.55529548704322,19.130502741813704,264.9483856907633,73.139211176137
757,-12.484802795097625,-230.20824967909164,130.71882322134027,30.47880579213017,67.35801574677109,18.76848530068251,265.025221152972,71.94492336841763
758,-12.789164842407413,-230.2001571994455,130.844730058693,28.792562072255823,68.00377668681574,18.402564423672267,265.0927131675942,70.90659709661955
759,-13.04201291765987,-230.18694488088462,130.96038828311356,27.317959697860516,68.48878517252633,18.035756910862265,265.14908424205794,70.00610177251502
760,-13.239754705010554,-230.16791448405917,131.0648895818916,26.01304433004705,68.81254989931567,17.670363004957704,265.19309808902017,69.22632638398342
761,-13.379296601356764,-230.14288480752376,131.15746865211548,24.83345761645634,68.97788674321787,17.30791950699043,265.22406472047743,68.55178903850334
762,-13.458122380106886,-230.11216438811414,131.2375233262759,23.73346759822189,68.99085843618766,16.949175154973368,265.241829726814,67.96916069502329
763,-13.474365934212958,-230.07651048354018,131.30463023868916,22.667005992487848,68.86064904972768,16.594089391550263,265.24674888946254,67.46768757505096
764,-13.42687587926163,-230.03707614354707,131.35855534347633,21.588689458079198,68.59937489382092,16.241854914725533,265.2396492923144,67.03950026719716
765,-13.31527012179389,-229.99534735090683,131.39925851664393,20.45480312543089,68.22183470450624,15.890943567228831,265.2217782327615,66.67980140696534
766,-13.139978777200712,-229.9530724909684,131.42689162566566,19.224226131377957,67.74520341485275,15.539174228325555,265.1947415683687,66.38692796585319
767,-12.90227398463293,-229.91218668866802,131.4417898891319,17.85928061727551,67.18867537159943,15.183800483238405,265.16043360837966,66.16228854094335
768,-12.60428520471452,-229.87473371243945,131.44445688859034,16.326487596620925,66.5730645157368,14.821614976652775,265.1209610706398,66.01018046634344
769,-12.248998621929797,-229.84278813314955,131.4355439952278,14.597215241403333,65.92037065611366,14.449066556357304,265.0785638160594,65.93749587330532
770,-11.840239495899528,-229.8183802681747,131.415825188879,12.648207436362092,65.25332234508001,14.06238571097991,265.03553505239967,65.95332977549371
771,-11.382636778777714,-229.8034261649002,131.3861684028949,10.461982919462992,64.59490785680173,13.65771353454655,264.9941435581403,66.06850666356611
772,-10.881569916368534,-229.7996645094565,131.34750472883243,8.027098054599747,63.967906318952224,13.231229551179052,264.95656028215257,66.29504487994441
773,-10.343098318516038,-229.80860195399708,131.30079700665246,5.3382693319940175,63.39443119572646,12.77927415665817,264.92479145039886,66.64558019443012
774,-9.773874486718219,-229.83146801300649,131.24700937039597,2.396354986148378,62.89549808456101,12.2984620850795,264.90062004955166,67.13277143132359
775,-9.181042321367666,-229.86918037957088,131.18707917571837,-0.7918015055320304,62.49062810558626,11.785784065663043,264.88555723798027,67.76871151998023
776,-8.572122799015874,-229.92232117262844,131.12189249588775,-4.213659956108245,62.19749697446507,11.238694569687896,264.88080483522094,68.56436679539954
777,-7.95488996659488,-229.99112418827508,131.05226410763615,-7.85139473603613,62.03163821413672,10.655184194941766,264.8872295460986,69.5290657663789
