time,ax,ay,az,gx,gy,gz,accmagnitude,gccmagnitude
0,-3.1121196769495545,-228.85182482826653,-92.13622317751089,50.06757103061523,-1.340731247331515,-14.961197916089743,246.7184623325889,52.22701754169727
1,-2.8230945629885555,-229.08824121812816,-91.99265644341793,50.85260155224734,-1.3000137150286921,-15.087257405933789,246.88568663388367,53.007186594110955
2,-2.5321856376031455,-229.3245961129844,-91.84944432842762,51.62289917140824,-1.2580212606819714,-15.215874768538836,247.05302439869578,53.77365568589993
3,-2.242350552713522,-229.5577905437729,-91.70857774160142,52.37212377344172,-1.2125788180807064,-15.345034771617152,247.21831241907412,54.52004787231661
4,-1.9564492130654294,-229.7849015350971,-91.57189550553089,53.09429301000884,-1.161336974373684,-15.47269702011925,247.37949581793734,55.240363256485
5,-1.6771809175814052,-230.00325892601992,-91.44103638918448,53.78389399405667,-1.1018218869076504,-15.59683574337143,247.53468230283076,55.92909449450775
6,-1.407030111883048,-230.21050848541586,-91.31739825229626,54.4359862581451,-1.031487144610513,-15.71547640841555,247.68218619993894,56.58133157949979
7,-1.1482219531446434,-230.4046591631075,-91.20210593967333,55.046292235266,-0.947766362358323,-15.826727986620122,247.82056084202148,57.19285194160366
8,-0.902688288604216,-230.5841134812073,-91.09598931670926,55.611271177080035,-0.8481258043036234,-15.928810056660764,247.9486188857319,57.7601917244609
9,-0.6720443404518297,-230.74768120486874,-90.99957225492611,56.1281727186698,-0.7301168144865909,-16.020074347351876,248.06544098879644,58.280694552317684
10,-0.45757622779684076,-230.89457734778887,-90.91307266785851,56.59506726595612,-0.5914281883084098,-16.09902076201909,248.17037388084722,58.75253520152522
11,-0.26023922781347236,-231.02440612436877,-90.83641316615699,57.010851810647424,-0.4299388074936141,-16.16430833630452,248.26301919031417,59.17471711971762
12,-0.08066623973651281,-231.1371327408247,-90.76924164464018,57.37523132858009,-0.2437708826118708,-16.214761891834524,248.3432145576887,59.547044352246125
13,0.08081472511490359,-231.23304516161622,-90.71096101923467,57.68867728308293,-0.03134398438914226,-16.24937530125414,248.41100875612577,59.87006982963136
14,0.22415586865409703,-231.3127083530606,-90.66076720186278,57.952365750977656,0.208570325275746,-16.26731228326966,248.46663283033945,60.14502296755426
15,0.34956000921693364,-231.37691390502977,-90.61769405467044,58.16809828686551,0.4767940077138707,-16.267905562029064,248.51046950680126,60.37372012246417
16,0.4574483417243897,-231.42662814529993,-90.58066346271883,58.33820896061947,0.7736896114197288,-16.25065511928232,248.54302310469544,60.55846176292827
17,0.5484275158888471,-231.46294177204607,-90.54853800918647,58.46546124200147,1.0991109328783586,-16.215226159452026,248.56489185226923,60.70192045297628
18,0.6232575404707662,-231.4870236515313,-90.52017334270967,58.55293872339682,1.4523598359289236,-16.161447272319815,248.57674401357312,60.80702404092458
19,0.68282157852458,-231.50008079691065,-90.49446735494004,58.60393407878811,1.8321521116621065,-16.089309110192765,248.57929864955923,60.87683881217054
20,0.7280983014693119,-231.50332571422953,-90.47040367364268,58.62184102411888,2.236595376664804,-15.998963736670884,248.57331120251735,60.914457680481874
21,0.7601371117469662,-231.49795139297828,-90.44708756777756,58.610054201695,2.663181916992867,-15.890724690189828,248.55956345921874,60.92289860495642
22,0.7800362337722095,-231.48511340482474,-90.42377301473941,58.57188171812717,3.1087990576982523,-15.765067738327238,248.53885692620244,60.90501819252712
23,0.7889234430400034,-231.4659180332197,-90.39988028043607,58.51047441012896,3.5697590338487992,-15.62263225585635,248.51200836383998,60.86344476449496
24,0.7879390884377697,-231.44141517311166,-90.37500386975934,58.428774754728664,4.041849462944656,-15.46422310040557,248.47984623877514,60.80053397931621
25,0.7782210591433675,-231.4125948113059,-90.34891120475011,58.329486785549946,4.52040444770599,-15.290812729200104,248.44320710318303,60.718348498401554
26,0.7608913933077084,-231.38038602523778,-90.32153296568731,58.215066661434136,5.000395217028956,-15.103543072841159,248.4029312397381,60.61866137826974
27,0.7370442662902422,-231.34565754109357,-90.29294655559528,58.08773192128251,5.476538219879896,-14.90372640489222,248.35985720137546,60.50298114149876
28,0.7077351543915812,-231.3092190336732,-90.26335433455523,57.949486151611666,5.9434178695995055,-14.69284420609997,248.31481507962877,60.37259504590751
29,0.6739710903195629,-231.27182256712206,-90.23305804647167,57.80215490363191,6.395620733430313,-14.472542867652708,248.26861846321395,60.228626064241205
30,0.6367020824738453,-231.23416382480778,-90.20243054593887,57.64742826137827,6.827877774999189,-14.244625003827057,248.2220551729564,60.07209853909224
31,0.5968139080783345,-231.19688301646818,-90.17188589054163,57.48690545852452,7.235211115269285,-14.01103515535841,248.17587707086304,59.90400736146332
32,0.555122604947149,-231.16056554959448,-90.14184910200872,57.3221372892725,7.613081561445156,-13.773838817988036,248.13078951287542,59.725385767208245
33,0.5123710563882022,-231.12574265870433,-90.11272712250639,57.15466263502582,7.957532868945987,-13.535194086784323,248.08744119290608,59.537367352191794
34,0.46922799410110855,-231.09289217580076,-90.08488243518545,56.98603608758743,8.265328435742298,-13.297315749690362,248.04641509218754,59.34123853962549
35,0.4262894814662105,-231.06243951397545,-90.0586104558186,56.81784425226876,8.534075960958166,-13.062432290903837,248.00822100963055,59.13847834324692
36,0.38408258219999175,-231.03475873670018,-90.03412134233793,56.65170880476579,8.762335570994496,-12.83273685530678,247.97328979381652,58.93078278295124
37,0.34307063813449296,-231.01017334588946,-90.01152657885861,56.48927483738404,8.949707049155402,-12.610333703219954,247.94196906736465,58.72007179466023
38,0.30365945452084186,-230.9889562770007,-89.99083065526622,56.33218360932239,9.096892118243021,-12.397182035247006,247.91452008521614,58.508477078092966
39,0.26620366283304514,-230.9713286708487,-89.97192822607202,56.18202959891921,9.20572823123968,-12.195039327052019,247.89111546486805,58.29831014268603
40,0.23101251393677374,-230.95745730725594,-89.95460710249367,56.04030275107446,9.279191037887992,-12.005406540534615,247.87183780715802,58.09201087122989
41,0.1983543644511117,-230.94745101330022,-89.93855723827515,55.90831799113095,9.321363648839291,-11.82947778011165,247.8566795526551,57.89207820880969
42,0.16845926450464607,-230.9413567194032,-89.92338550605434,55.78713537204184,9.337372036146776,-11.66809706662297,247.8455446227333,57.70098603278017
43,0.14151938813911316,-230.9391559798424,-89.90863556622685,55.67747550551607,9.333287341438737,-11.521724807026187,247.8382523503865,57.52108871824768
44,0.11768745417146555,-230.94076265491034,-89.89381164497911,55.57963600409363,9.315997378318949,-11.390416195304542,247.83454392079338,57.354522161152374
45,0.0970735804636302,-230.94602214352068,-89.87840473865127,55.493415318647706,9.293051043766088,-11.273813194152543,247.83409114632693,57.20310682274737
46,0.0797411265914492,-230.95471218123862,-89.86191970935197,55.41805044351177,9.27248056863558,-11.171150953900222,247.8365070326483,57.068259550666674
47,0.06570207398660388,-230.9665448899033,-89.84390181683122,55.35217440739511,9.262607499972502,-11.081278601709414,247.84135731441967,56.950920448809235
48,0.054912451490151885,-230.98116957548655,-89.82396126890401,55.29379824907879,9.271839012149723,-11.00269341610288,247.8481719763404,56.85149991200915
49,0.04726826467454131,-230.99817576339262,-89.80179436889067,55.24032033550568,9.308461531455606,-10.933586641471031,247.85645576783915,56.769849171603624
50,0.04260231479856946,-231.017096101404,-89.7771999971132,55.1885635816944,9.38043862416379,-10.8718986790169,247.8656969097414,56.70525547254655
51,0.04068218486171857,-231.03740902667514,-89.75009056007872,55.134838648813975,9.495219596048429,-10.815381102600325,247.87537358431075,56.65646057599603
52,0.041209546796969324,-231.05854148943237,-89.72049695108551,55.07502884260958,9.659564349673994,-10.761662835943707,247.8849583191412,56.621698961013294
53,0.04382085132325995,-231.07987247199125,-89.68856729317478,55.00469054459963,9.87938884919551,-10.708317858748867,247.89392087356214,56.59875022419893
54,0.04808942429441417,-231.10073838063684,-89.65455939971483,54.91916190495291,10.159634128979285,-10.652931979250623,247.9017306104157,56.58499907062717
55,0.05352898891425851,-231.12044150745447,-89.61882721113284,54.81367240683574,10.50416024955922,-10.59316650592036,247.90785956219352,56.57749615191085
56,0.05959863748982084,-231.1382626016592,-89.58180196695567,54.68344677529124,10.915665116432091,-10.52681702329807,247.91178743225473,56.5730138399987
57,0.06570931372630576,-231.15347811113168,-89.54396940845398,54.523798379743134,11.395626831264192,-10.451865880500797,247.91300951687018,56.56809267294387
58,0.07123197606760054,-231.16538189759933,-89.50584476768749,54.33020949852936,11.94426742051686,-10.366527442458196,247.91104799156275,56.55907643282721
59,0.0755077511489182,-231.17331041885038,-89.4679476518626,54.098398252815564,12.560535522891794,-10.269285648209218,247.90546637449378,56.54213633157112
60,0.0778604037022772,-231.17666981833779,-89.43077911628541,53.82437433921267,13.242105970521287,-10.158923890587769,247.8958865289845,56.513287267362664
61,0.07761121865826158,-231.17496322645954,-89.39480304671537,53.50448758410893,13.985395063205981,-10.03454753329595,247.88200738119912,56.46840123498879
62,0.07409597624234238,-231.1678167627778,-89.36043326902262,53.1354745323367,14.785591427252918,-9.89559945817754,247.86362445669403,56.403224398362575
63,0.06668331399812391,-231.1550029754107,-89.32802668839847,52.71450853534566,15.636703317355375,-9.741868977204287,247.84064917795084,56.31340477795808
64,0.05479355290923206,-231.1364605495888,-89.29788161880538,52.23925799108003,16.531623775354007,-9.573494374319083,247.81312654884013,56.1945367995976
65,0.037917014695263096,-231.1123090814348,-89.27023962662363,51.707955569077974,17.46221505719249,-9.390959314097985,247.78124951651054,56.04222712041221
66,0.015630948649584295,-231.08285775493746,-89.24528881685724,51.11947868965938,18.4194131829518,-9.195083356367705,247.7453681937456,55.85218343416937
67,-0.012385582426794557,-231.04860704235014,-89.22316659542946,50.47343861310731,19.393352479992153,-8.987006836223264,247.705992421824,55.62032476415407
68,-0.04633921143768281,-231.01024304203722,-89.20396053000923,49.77027269675369,20.373508758533532,-8.768170430383378,247.66378682318378,55.34290856398741
69,-0.08631233179254147,-230.96862461325384,-89.1877068239683,49.01133215140653,21.348858473961027,-8.540289869618173,247.6195583197348,55.01666725294032
70,-0.1322558996469299,-230.92476391773863,-89.17438686373423,48.19895634517774,22.30805009739138,-8.305326467688612,247.57423684924998,54.638945021888546
71,-0.18398531634190918,-230.87980129532724,-89.16392309480902,47.33652459140278,23.23958314588614,-8.065454361043344,247.52885059093308,54.207825131271456
72,-0.24117983331388218,-230.83497563805673,-89.15617591892499,46.428477478908974,24.13199004645829,-7.823025522255507,247.48449738895687,53.72223857663562
73,-0.30338583400531,-230.7915916165058,-89.15094322268044,45.48030204115087,24.97401619618913,-7.580533678593118,247.4423142123899,53.18204680503426
74,-0.3700241245730904,-230.75098519090992,-89.14796365584715,44.4984781175075,25.754794068284138,-7.340578208353201,247.40344639015728,52.58809379967251
75,-0.44040114369273514,-230.71448872880205,-89.1469242275668,43.49038667837756,26.464007809512587,-7.105828899018983,247.36901805915983,51.942225833295424
76,-0.5137238560209799,-230.6833967740291,-89.14747239180593,42.46418414664669,27.092045376580224,-6.878992173572002,247.34010485871497,51.24728003224509
77,-0.5891179955716522,-230.6589331920701,-89.14923242662603,41.428649411577,27.63013586433826,-6.662779080322403,247.31770946798244,50.507045221410536
78,-0.6656492021016064,-230.64222018652484,-89.15182539317561,40.39301202103738,28.070470298432642,-6.459875018506498,247.30274017617108,49.72620012070625
79,-0.742346405954622,-230.63424960026703,-89.15489135092707,39.366770847584476,28.406304768343578,-6.272910850856225,247.29599237556903,48.910234757747546
80,-0.818226578310439,-230.63585694620082,-89.15811204194526,38.3595123936645,28.632045314548396,-6.1044348045088554,247.29813272616153,48.06536099607716
81,-0.8923197031130288,-230.64769869695922,-89.16123210475457,37.38073698167102,28.743314426001742,-5.956884467316912,247.30968576215298,47.19841749843727
82,-0.9636926025672903,-230.6702334561543,-89.16407704176216,36.43969957176472,28.736999336185978,-5.8325582605057384,247.3310228574064,46.31677342731211
83,-1.031470226261292,-230.7037076561573,-89.16656655615988,35.54527008438947,28.611282504767644,-5.7335859694093765,247.36235363605553,45.42823389372337
84,-1.0948533657334674,-230.74814630318886,-89.16872237988063,34.70581608749283,28.365654716611658,-5.661898220050831,247.40371999537095,44.54094874911712
85,-1.1531323704575516,-230.80334907335478,-89.17067020695023,33.92910871244911,28.000911142605965,-5.619195191316374,247.45499289964383,43.66332491197209
86,-1.2056969390203753,-230.86889188610942,-89.17263574557064,33.22225080892525,27.519130569525284,-5.606915297561451,247.5158720930626,42.80394115713304
87,-1.2520422109599647,-230.94413398016528,-89.17493523555532,32.59162476429184,26.92363791650139,-5.62620496394311,247.58588890654164,41.971463303180336
88,-1.291771319990226,-231.02823041198084,-89.17796111457888,32.0428562670441,26.218950167093578,-5.6778908466217075,247.6644123527171,41.17455714506939
89,-1.3245945314389056,-231.12014971402797,-89.18216385125531,31.58078973634791,25.410705970487363,-5.762455881952352,247.75065864742393,40.42179639716231
90,-1.3503251793413884,-231.21869617641713,-89.18803123787804,31.209471220280435,24.505579417186677,-5.880020428943637,247.84370413436588,39.72156337607978
91,-1.3688728190454862,-231.32253589613848,-89.19606661820534,30.932135196277166,23.5111788969704,-6.030329587382186,247.94250135342216,39.08194111330129
92,-1.3802342511943284,-231.43022546850736,-89.20676755972976,30.751192669775566,22.43593250378583,-6.212747581319075,248.04589775165638,38.510596874300646
93,-1.384483246210226,-231.54024207994487,-89.22060624133472,30.66821899024577,21.288962125743417,-6.426259873003922,248.15265634293618,38.01465842735061
94,-1.3817598177535766,-231.6510138549391,-89.23801228751583,30.683940700756512,20.079949044785675,-6.66948338146217,248.26147751736727,37.6005856278754
95,-1.37225979854851,-231.76094959624334,-89.25935817264383,30.79822146547816,18.81899439866797,-6.940684842926469,248.37102125216,37.27404082210171
96,-1.3562253740491619,-231.8684674522323,-89.28494697030493,31.010047731380475,17.51647807088368,-7.237807011228576,248.47992921900808,37.03976217698167
97,-1.333937140153507,-231.97202241846898,-89.31500224426863,31.31751535699718,16.182919437087197,-7.558502062589541,248.58684663719296,36.90144436005087
98,-1.3057080760173772,-232.07013280949084,-89.34966014561435,31.717819048669707,14.828842995926719,-7.900171244667691,248.69044402830147,36.86163113642768
99,-1.2718795203588944,-232.16140585568365,-89.38896412427049,32.20724708755554,13.464651366076836,-8.260009538274565,248.78943916568193,36.92162450685393
100,-1.2328188943459584,-232.2445623882953,-89.43286292215097,32.7811844224276,12.100507534747955,-8.635053908987222,248.88261942205375,37.08141496664334
101,-1.188918649264978,-232.31846025116235,-89.48121252860136,33.43412759781005,10.746227673973682,-9.022233572329462,248.9688644175441,37.339637226117596
102,-1.140595784949337,-232.38211576242423,-89.53378247022185,34.1597150583953,9.411185367661892,-9.418420540057186,249.0471684630246,37.69355521452452
103,-1.0882912698384481,-232.43472234453105,-89.59026625555855,34.950776075420904,8.104227758380958,-9.820478604037152,249.11666190305192,38.139079387765904
104,-1.03246879308896,-232.47566535805444,-89.65029519617974,35.79940090758874,6.833603920891495,-10.225308936765078,249.17663017010452,38.67081832738639
105,-0.9736125157894575,-232.50453223969035,-89.71345438664575,36.69703387938515,5.606905635626908,-10.629890677446642,249.22652926505955,39.28216538862211
106,-0.9122238165960661,-232.52111731565117,-89.77929945566507,37.634589848922694,4.431020599330151,-11.031315211654029,249.26599657101178,39.96541972952524
107,-0.8488172924810672,-232.52542107035492,-89.8473727684203,38.6025930566022,3.312097952679067,-11.42681331951135,249.2948563133474,40.711939443830396
108,-0.783916337787191,-232.51764398340745,-89.91721797895404,39.591335660378704,2.255525844915474,-11.813774915452973,249.31311936751732,41.512322791212945
109,-0.7180485061497878,-232.49817517293144,-89.98839216219216,40.591051540393806,1.2659206063836055,-12.189761628860085,249.32097735007068,42.35661180469963
110,-0.6517407141127134,-232.46757608140967,-90.0604751775072,41.59209944672268,0.3471269691055752,-12.55251289213798,249.31879107806526,43.23451106867309
111,-0.5855142997604356,-232.42655949108934,-90.13307633906452,42.5851485151677,-0.4977713257217506,-12.899946524998658,249.30707368287375,44.135613443608825
112,-0.5198800064520249,-232.37596439069875,-90.2058387446864,43.56135873269511,-1.2664312849216708,-13.230155088472914,249.28646898530485,45.04962412814889
113,-0.4553330328239624,-232.31672764693587,-90.27844164696262,44.51254911267994,-1.9572216827460873,-13.541399518843422,249.25772615583134,45.96657471179375
114,-0.392348303673693,-232.2498539154264,-90.35060109782314,45.431347059026486,-2.569186486869737,-13.83210167895113,249.22167207943195,46.87701968353068
115,-0.33137607653356344,-232.17638549997884,-90.42206898870401,46.31131351016484,-3.102002129747506,-14.100837452562855,249.17918306167425,47.77220906620961
116,-0.27283795405004296,-232.0973737599836,-90.49263074582672,47.14703977953123,-3.555930288814859,-14.346331857237619,249.13115746117887,48.64423226312457
117,-0.2171233679221868,-232.0138532152146,-90.56210225337117,47.93421339858349,-3.9317679215398083,-14.567457362118772,249.07849052726874,49.48612967927835
118,-0.1645866576249904,-231.92681890077375,-90.63032677222832,48.669651637868604,-4.230796252018397,-14.76323618729363,249.02205223597562,50.29197012996929
119,-0.11554495920612112,-231.8372069924892,-90.69717252072354,49.351302664441,-4.45473026013534,-14.93284687434745,248.96266838377295,51.05689341058817
120,-0.07027717748675873,-231.7458784128497,-90.76253131753009,49.97821538117977,-4.605669989732361,-15.075634893105228,248.90110481227572,51.77711856820024
121,-0.029024280564692643,-231.65360512514212,-90.82631848890459,50.550479780977334,-4.686054658240308,-15.19112652439379,248.8380545638986,52.44991928624189
122,0.008008994651390816,-231.56105908751607,-90.88847412019084,51.06914014661178,-4.698620127952794,-15.279044793975148,248.77412797221953,53.07356838641203
123,0.04065117491839665,-231.46880416122383,-90.94896549442142,51.53608378622552,-4.646359844665003,-15.339325892856733,248.7098459074634,53.64725392460204
124,0.06876019540864169,-231.377291392844,-91.00779017549542,51.95390840568782,-4.53248895049465,-15.372134324316212,248.64563637604573,54.170969898406376
125,0.09221914802092658,-231.28685795158393,-91.06497891504495,52.32577178096501,-4.360411003500539,-15.377874957793393,248.58183444302043,54.645385282995775
126,0.11093215261105502,-231.1977297632879,-91.12059764154587,52.65522805666353,-4.133686600899594,-15.3572002634395,248.51868525134068,55.0716959249342
127,0.12482088779663604,-231.11002769114873,-91.17474820454609,52.94605561551887,-3.8560031883855137,-15.311011300116236,248.45634988298832,55.45146462096332
128,0.1338223159094369,-231.02377693229732,-91.22756805824778,53.20208188681062,-3.5311454375054026,-15.240451542793165,248.3949138238257,55.78645534606117
129,0.1378880271680678,-230.9389190539923,-91.27922943188783,53.4270105933245,-3.1629657801624846,-15.146893277036625,248.3343976969305,56.078467952617686
130,0.13698538062445753,-230.85532585178228,-91.32993862488033,53.62425675859948,-2.755354980469633,-15.03191691834522,248.2747697366257,56.32917967800662
131,0.13110030783348664,-230.77281410378367,-91.37993588600123,53.79679436306769,-2.3122129743883697,-14.897284121295032,248.21595930883882,56.539999486760074
132,0.12024136259879793,-230.69116033873004,-91.42949596061796,53.94702093312763,-1.8374206022196213,-14.744905901584627,248.15787068663744,56.71194070722793
133,0.10444439551307048,-230.6101148654447,-91.47892892449502,54.07664263599758,-1.334813251084149,-14.576807249973015,248.10039624072542,56.84551667655315
134,0.08377712780919679,-230.52941448619234,-91.52858053518213,54.18658267246693,-0.8081576890675163,-14.39508990969516,248.04342822605688,56.940663228272925
135,0.05834290596991858,-230.44879351057094,-91.57883121989917,54.27691493511164,-0.26113335825098966,-14.201895082885791,247.98686848642262,56.99669086024829
136,0.028283031112034913,-230.36799287781534,-91.6300930367869,54.34682405160632,0.30268094947059504,-13.999367754005213,247.93063565792735,57.01226831404035
137,-0.0062227345590053235,-230.28676740692487,-91.6828043207429,54.39459208863944,0.8798146788356321,-13.78962404864117,247.87466978715676,56.98543811424123
138,-0.04495760113756833,-230.20489144343858,-91.737422027574,54.41761140939619,1.4669076373944419,-13.574722657181725,247.81893462275525,56.91366344683729
139,-0.08767094936981845,-230.12216338091343,-91.79441193820604,54.41242252468205,2.0607075269654738,-13.35664096973297,247.7634180874229,56.79390470857327
140,-0.1340828793285711,-230.03840961302546,-91.85423693962747,54.37477526696705,2.658064242076561,-13.137256268412825,247.70813152916742,56.62272317420483
141,-0.1838895142109166,-229.9534884468257,-91.91734365916804,54.29971119184741,3.2559226609593224,-12.918332079091082,247.65310834832982,56.39640845139501
142,-0.23676832345715604,-229.86729445140298,-91.98414785325457,54.18166472194426,3.8513158412184123,-12.701509533976282,247.59840258958596,56.11112566590595
143,-0.29238265669580776,-229.77976359696277,-92.05501911208292,54.01458020648314,4.4413605198440225,-12.488303324217041,247.54408803547875,55.76307765852518
144,-0.35038475480218534,-229.6908792647686,-92.13026550416848,53.7920418176559,5.0232566235342215,-12.280101541668785,247.4902581054554,55.3486769329547
145,-0.41041677833310347,-229.6006787863001,-92.21011862609451,53.50741305374031,5.594292161333562,-12.078168419576853,247.43702641398318,54.86472169112934
146,-0.47210981851531386,-229.50925975831123,-92.29471922549126,53.15398254253513,6.151854430654047,-11.88364870300495,247.38452735020172,54.30857001682948
147,-0.5350813100996351,-229.41678516516714,-92.38410341632796,52.72511279816967,6.693447942413703,-11.697572207223008,247.33291578803758,53.6783061122945
148,-0.5989316271563896,-229.32348637585034,-92.47818971237152,52.214388547754474,7.216718904083747,-11.52085717187201,247.28236514716286,52.97289245997117
149,-0.6632408217353588,-229.2296633031191,-92.57676755948434,51.615761202698664,7.719485558222595,-11.35431129705941,247.2330633989192,52.192301873890614
150,-0.7275664267710995,-229.13568136981283,-92.67948841590227,50.923686019892344,8.19977320483814,-11.198629738522719,247.18520707948767,51.337623618197874
151,-0.7914430382508211,-229.0419654211253,-92.78586042739384,50.1332485101558,8.655852332846514,-11.05438973645958,247.138993828507,50.41113811060917
152,-0.8543841216571567,-228.94899128144772,-92.89524733714825,49.24027675523013,9.086277917555677,-10.922041936884312,247.09461433763607,49.41635523940211
153,-0.9158862495597738,-228.8572761021902,-93.00687168192862,48.24143658487969,9.489927593064838,-10.801898844891527,247.05224478865028,48.358012096839495
154,-0.9754358033414358,-228.7673688150682,-93.11982185815974,47.13430717009994,9.866036092057373,-10.694121218994226,247.01204084081886,47.24202708978413
155,-1.0325180095948754,-228.67984187885156,-93.23306244153402,45.91743560999426,10.214223081465331,-10.598703573437797,246.97413403307917,46.07540902527973
156,-1.0866279545372892,-228.5952852172196,-93.34544714851287,44.59037054190238,10.534511351352705,-10.515460289284094,246.93863119607352,44.86612189453117
157,-1.137282932820796,-228.5143029054678,-93.45573393542055,43.15367656005609,10.827332337314656,-10.444014069919723,246.90561719198053,43.622908566053056
158,-1.184035245609365,-228.43751276926062,-93.562601941692,41.608933011394264,11.093516325255438,-10.38378851514425,246.87516101388397,42.35507918493979
159,-1.2264844883657202,-228.36554856436706,-93.66467031436865,39.95872219911478,11.334265504688284,-10.33400642260391,246.8473249462139,41.07227244062173
160,-1.2642884978822626,-228.2990638568461,-93.76051927491261,38.20661288681816,11.551109265956217,-10.29369514868293,246.82217610647882,39.78419974993867
161,-1.2971723663144668,-228.23873628050222,-93.84871388539524,36.35714515538969,11.745842604219998,-10.261700055518162,246.79979932049167,38.5003836704884
162,-1.3249351315981246,-228.1852707008868,-93.92783074475017,34.41582217612855,11.92044995396196,-10.23670673093796,246.78031006466125,37.22990247382865
163,-1.3474538731527055,-228.1394000212073,-93.99648743135421,32.38911344296943,12.077017985467416,-10.217272232577274,246.76386624353924,35.98115276144702
164,-1.3646850339050758,-228.10188276271066,-94.05337412295738,30.284472542028194,12.217641663889827,-10.201865034417384,246.7506777914302,34.761641278646806
165,-1.376662868012356,-228.07349688051733,-94.09728659544164,28.11037065709803,12.344328138221146,-10.188912664016232,246.74101330201233,33.57781565145712
166,-1.3834949639297014,-228.0550294225204,-94.12715974028433,25.87634472287849,12.458902877330438,-10.176855297455655,246.73520300022446,32.43494167181593
167,-1.3853549019739297,-228.04726169220416,-94.14210078167045,23.593056507817916,12.562922089565996,-10.164202949582887,246.7336374341319,31.337032123922214
168,-1.382472386631863,-228.05094965362957,-94.14142140016888,21.27235610282752,12.657595011827269,-10.149593469825621,246.73676134602553,30.286829200974406
169,-1.3751215896299003,-228.06679947086045,-94.12466786342917,18.92734056763716,12.743719160900268,-10.131848386657735,246.7450622851864,29.285839537263563
170,-1.3636087445976643,-228.09543837315485,-94.09164797917853,16.57239616710103,12.821631027923942,-10.110023730435342,246.75905369407656,28.334417991565523
171,-1.3482600864971712,-228.13738157444445,-94.0424533039902,14.22321111318566,12.891173912818244,-10.08345324463928,246.77925255190289,27.431893818069497
172,-1.3294110232607903,-228.1929967142905,-93.97747476735636,11.896745456631244,12.951683678357023,-10.05178179809703,246.80615223800635,26.57673106897743
173,-1.3073970885959445,-228.2624679978884,-93.8974099106666,9.611146082279737,13.00199225826297,-10.014987304227434,246.8401919482119,25.766714267884403
174,-1.2825469171397321,-228.3457626383269,-93.80326037585563,7.385597698279298,13.040447913040902,-9.973390039189065,246.8817245551679,24.999150645073684
175,-1.2551773002526787,-228.44260223278505,-93.69631903524211,5.240104989505015,13.064950627061473,-9.92764890861231,246.9309851186516,24.271081332623726
176,-1.2255902946086268,-228.55244136885824,-93.57814702778987,3.195206267241359,13.073000768148342,-9.878744880863382,246.9880622760388,23.579495500742045
177,-1.1940722689460366,-228.6744551836028,-93.45054173658312,1.271624491895271,13.061759170025534,-9.827952413206567,247.05287450625184,22.921543046140847
178,-1.160894627620384,-228.8075369665127,-93.31549733343667,-0.5101330368699102,13.028117039746567,-9.776800197439055,247.12515289967516,22.294742694854023
179,-1.1263157777458246,-228.95030634332022,-93.17515995753043,-2.1302102581646767,12.968774406645949,-9.727022915574416,247.2044317183153,21.69718289946722
180,-1.090583804778529,-229.1011281072241,-93.03177982808997,-3.569853466677522,12.880326100586677,-9.680505913254349,247.29004768110943,21.12771251850371
181,-1.0539393592856483,-229.25814133367084,-92.88766248744237,-4.811855999805567,12.759354351696313,-9.639224800299784,247.38114846986664,20.58611707443237
182,-1.0166184050833513,-229.4192980303805,-92.74512092123067,-5.840973902130142,12.60252692331862,-9.605182055184622,247.47671042463963,20.07327480677731
183,-0.9788546289991794,-229.58241024708173,-92.6064297004714,-6.644291039470949,12.40669919159593,-9.580342823607628,247.57556486662727,19.591285364654336
184,-0.9408814082519795,-229.74520425671,-92.47378181774201,-7.211514829071881,12.169017856447992,-9.566572277150696,247.67643201831527,19.143563390082235
185,-0.9029333041020682,-229.90538008845695,-92.34924871074344,-7.535187865560996,11.88702315441809,-9.565577063611782,247.77796111485435,18.7348897610697
186,-0.8652470987890096,-230.06067436948996,-92.23474401986999,-7.610805906688365,11.558745688353289,-9.57885340522071,247.87877501888337,18.37141488534946
187,-0.828062347832991,-230.20892415689966,-92.1319917238843,-7.436838464740442,11.182793442172313,-9.607644178123293,247.97751742968413,18.060610875464583
188,-0.7916212668879666,-230.34812924993292,-92.04249926637011,-7.014654072178822,10.75842436208771,-9.652906830669902,248.07290058517853,17.811172272414407
189,-0.7561675968594952,-230.47651042909447,-91.96753603547877,-6.348357612688329,10.285600164887631,-9.715293358633618,248.16375121902686,17.63286779735847
190,-0.7219440047009615,-230.59256124128453,-91.90811714282158,-5.444551508645799,9.765017793526674,-9.79514285908979,248.24905253849812,17.536348054065886
191,-0.6891876624142796,-230.69509131930357,-91.86499206443253,-4.312035790411683,9.198116080296137,-9.892486507998742,248.32798018855507,17.532915943424573
192,-0.6581239251028805,-230.78325966065054,-91.83863754250066,-2.9614640915374513,8.587056518990693,-10.007064221462864,248.3999305125906,17.634267688146878
193,-0.6289584235464863,-230.85659668962612,-91.82925419272526,-1.4049735065500102,7.934678422288269,-10.13835183296462,248.46453980980957,17.852212841170747
194,-0.6018682220736545,-230.91501433554325,-91.83676637750824,0.344193848335401,7.244430054869111,-10.285597328920392,248.5216937138408,18.198381570763583
195,-0.5769928001565163,-230.95880387603168,-91.86082500572095,2.272060683826498,6.520278546399701,-10.447864401012978,248.57152633453416,18.683926972591188
196,-0.554425486681016,-230.9886218805953,-91.90081301396926,4.364260582046662,5.766602464796337,-10.624081177734269,248.61440938246113,19.319229258265615
197,-0.5342057572109802,-231.00546509663658,-91.95585340410958,6.606347286366662,4.988071810910124,-10.813091518492934,248.65093200773947,20.113607593443692
198,-0.5163126402421361,-231.01063543877504,-92.0248199216258,8.984057022523858,4.189520815534576,-11.013705843066887,248.68187245582678,21.075044345511028
199,-0.5006594161876183,-231.00569636458553,-92.10635083565496,11.483516719529007,3.375819248366084,-11.224748295179745,248.70816289503776,22.209925759174123
200,-0.48708983032812103,-230.99242192165656,-92.1988667679982,14.09139424636634,2.5517480149246365,-11.445097222911933,248.7308489526622,23.52280272191526
201,-0.4753761552574338,-230.972739738453,-92.30059386840726,16.79498997303421,1.721884674927685,-11.673716508959728,248.75104561460822,25.01617528347422
202,-0.4652195491238677,-230.94866926950723,-92.40959356197722,19.582271888902074,0.8905041893960551,-11.909676053280377,248.76989115242657,26.690304777940362
203,-0.4562531343381792,-230.92225672271533,-92.52379949391936,22.44185900679685,0.0614996892950785,-12.152160512946288,248.7885006299669,28.543057555146124
204,-0.44804799892390845,-230.89550833285747,-92.64106132811818,25.362959774213746,-0.7616726402415748,-12.400466169304302,248.80792040645437,30.569784367101015
205,-0.4401219840228749,-230.87032398119638,-92.75919403320985,28.335273707003445,-1.5760213350247863,-12.65398653088916,248.82908498934756,32.76323938599053
206,-0.4319508393576093,-230.84843342704318,-92.87603049189286,31.348865485865854,-2.3790179084763095,-12.912187959728941,248.85277754328075,35.1135426584913
207,-0.42298120924380883,-230.83133741717668,-92.98947486901861,34.39402133456279,-3.168564660505575,-13.174577161442059,248.8795952131929,37.608189500493125
208,-0.4126449341660163,-230.8202556790178,-93.09755421619877,37.461097647329396,-3.94293254761713,-13.440662771250603,248.9099201939046,40.23210988380704
209,-0.4003742212166908,-230.81608348755805,-93.1984661438765,40.540371564465666,-4.700671181115139,-13.709913505563254,248.9438973158568,42.96778024378003
210,-0.38561725381154155,-230.8193582481784,-93.29062083571715,43.621902495361155,-5.440494586913352,-13.981715462716076,248.9814188502047,45.79538929752104
211,-0.3678537582042879,-230.83023724262912,-93.37267607765908,46.69541240705897,-6.16114780836011,-14.2553311717167,249.02211710822158,48.693058316906026
212,-0.34660999406890103,-230.84848719571733,-93.44356431373512,49.75019100800495,-6.861260625493464,-14.529862882432917,249.06536507922374,51.63711476032741
213,-0.321472646923181,-230.873485702371,-93.50251108138515,52.775029843179915,-7.539195479876129,-14.804222308979027,249.11028490247907,54.60241623628446
214,-0.2921011399778367,-230.90423401653194,-93.54904459281511,55.75818699695972,-8.192897077073386,-15.077108552673074,249.15576362216163,57.562719609859734
215,-0.2582378914064744,-230.93938036716546,-93.58299673002468,58.68738189048255,-8.819751096196807,-15.346995266263828,249.20047554909053,60.491087961589194
216,-0.21971601397347398,-230.97725280049343,-93.60449623256889,61.54981788619312,-9.416458985886171,-15.612127347533272,249.24291058943535,63.36032639039855
217,-0.1764639551033599,-231.01590042678856,-93.61395528029428,64.33222929259334,-9.97893497715394,-15.870526694594826,249.28140794549424,66.14343655483935
218,-0.12850670553574112,-231.05314173431958,-93.6120509450537,67.02094894239991,-10.50223023739217,-16.12000596211213,249.3141944932634,68.81407944796409
219,-0.07596348742119804,-231.08661827220166,-93.59970304709678,69.60199269270703,-10.980487639943444,-16.358188872630045,249.33942682811903,71.3470361185361
220,-0.019042144685536045,-231.11385160303462,-93.57804977124071,72.06115776797773,-11.406929085861776,-16.582535353193474,249.3552355291826,73.71865668133208
221,0.04196936779745246,-231.1323011631954,-93.54842208104955,74.38413256725148,-11.77387581686288,-16.790369456048158,249.3597698289394,75.90728872594875
222,0.10671398898718212,-231.13942067508455,-93.51231772487034,76.55661608421761,-12.072800779377706,-16.97890771781149,249.3512407871597,77.89367686622236
223,0.1747786539679468,-231.13271108448998,-93.4713755449123,78.5644452140634,-12.294410919682516,-17.14528551120577,249.32796134033154,79.66132551506982
224,0.24570899697568466,-231.1097685998542,-93.42735077559956,80.39372789896791,-12.428756433645733,-17.28657921296035,249.28838214760407,81.19681704762273
225,0.31902496748938125,-231.0683271108877,-93.38209193389588,82.03097944912273,-12.46536359483091,-17.399822634997896,249.23112277307789,82.49007751103902
226,0.39423650956704637,-231.00629484807214,-93.33751975574906,83.46325874270889,-12.393387901295176,-17.482016997749138,249.15499823025894,83.5345822114559
227,0.4708583891449736,-230.92178553636583,-93.29560846075073,84.67830064054043,-12.201784833408661,-17.53013463293461,249.05904121218558,84.32749410606637
228,0.5484232532664929,-230.8131445711045,-93.25836945917642,85.66464103544331,-11.879496280833262,-17.541117524285184,248.94252052089027,84.8697290965777
229,0.6264920196955053,-230.6789709718777,-93.22783747133144,86.41173150026604,-11.415651410195697,-17.51187267573757,248.80495636578289,85.16594402608104
230,0.7046607361599784,-230.51813605432585,-93.20605893185119,86.91004135202472,-10.799781208512757,-17.439267050731022,248.64613333437313,85.2244452440981
231,0.7825631650675271,-230.3297999043042,-93.1950825032181,87.15114594293357,-10.02204602541632,-17.320125355808006,248.46611195499324,85.05701783633795
232,0.859868560708198,-230.1134268365148,-93.19695145231184,87.12780102675285,-9.073475042832657,-17.15123418130897,248.26523983672652,84.6786779113271
233,0.9362743835403325,-229.8688009887692,-93.2136974398542,86.83400406474797,-7.946215688867263,-16.929355950227613,248.0441632691827,84.1073526310164
234,1.0114940180144822,-229.5960429401195,-93.24733491271138,86.26504423746594,-6.633789715343543,-16.651255801690667,247.8038397900051,83.3634948938708
235,1.0852399501655552,-229.29562772846475,-93.29985488979992,85.41754363340013,-5.131351233635773,-16.313743995029913,247.54555160883837,82.46964166555878
236,1.157203326469166,-228.9684039855496,-93.37321666707034,84.28949253070415,-3.435940702001956,-15.913735684249584,247.2709190752871,81.44992684460772
237,1.2270312535163066,-228.61561329313417,-93.46933597730396,82.88028177761873,-1.5467278479324065,-15.448328999349268,246.98191282238497,80.32956113610557
238,1.294303453339219,-228.23890844824578,-93.59006848318802,81.19073489359137,0.5347641323987297,-14.914901333988139,246.68086296953297,79.13429254041924
239,1.358509922543507,-227.84036909602216,-93.73718808694005,79.22314160903036,2.804461021062437,-14.311222652230425,246.37046379158318,77.88986165913192
240,1.4190311599591439,-227.42251300701628,-93.9123602427768,76.98129321446449,5.255574498336822,-13.635583542038047,246.05377236388495,76.62146609867696
241,1.4751224341215183,-226.9883010660669,-94.1171111334652,74.47051848298489,7.878480920765162,-12.886934669589836,245.7341997592977,75.35324792648849
242,1.5259034595295178,-226.5411338490639,-94.35279419214702,71.69771730813703,10.660648611111998,-12.065033229809927,245.4154934359566,74.10781757268839
243,1.5703546639587784,-226.08483755173296,-94.62055598067072,68.67138780988131,13.586619392453978,-11.170591001863533,245.1017095553419,72.90582694858509
244,1.6073209183570039,-225.62363703748125,-94.92130372692088,65.40164167579029,16.63804909021441,-10.205417814588454,244.79717408554768,71.76560398511907
245,1.6355232295530706,-225.16211394542663,-95.25567667073719,61.90020195927874,19.793810702429795,-9.172553702260238,244.50643164823435,70.70286026200637
246,1.65357856631291,-224.70514816441906,-95.62402267695943,58.18037734490687,23.030162916073177,-8.076382823283698,244.23418114220323,69.7304827365768
247,1.6600277345174408,-224.25784147415598,-96.02638051838169,54.257006811734996,26.3209855859936,-6.922722319375209,243.985197232209,68.8584195294142
248,1.6533709858273558,-223.82542274089647,-96.46246723429492,50.14636847902261,29.63808264525738,-5.718879696998789,243.76423695189445,68.09366803190588
249,1.632110765882539,-223.41313476518457,-96.93166942110751,45.866046136417296,32.95155166513662,-4.473673000034677,243.57593111148103,67.44037116042318
250,1.5948006646330757,-223.02610372237686,-97.43303727263765,41.434746704367534,36.23021791933834,-3.1974089861667143,243.42466095701803,66.90002450395357
251,1.5400992757738525,-222.66919306579254,-97.96528041823196,36.87206198827695,39.442129270810895,-1.9018156976953349,243.31442146307526,66.47179366354078
252,1.4668273815145219,-222.34684478901582,-98.52676482935951,32.198168934574745,42.55510634297983,-0.5999272414027346,243.24867365987515,66.15293749296103
253,1.3740266835658081,-222.06291219909784,-99.11551021589064,27.433464348209192,45.537340043080434,0.6940797350280177,243.23018959616346,65.93932924844279
254,1.2610181557534315,-221.8204899061942,-99.72918760743921,22.59813268676598,48.358025417500954,1.9650965702281133,243.260895064028,65.82606371428567
255,1.1274579295080638,-221.62174836586613,-100.36511739571041,17.71164906303747,50.98801713508408,3.197337107442166,243.34171693098278,65.80813415088677
256,0.9733884445941662,-221.4677815443673,-101.02026884856402,12.792223971927463,53.40048802514664,4.374631792613083,243.4724433415761,65.8811586246502
257,0.7992824876237852,-221.35847670019368,-101.69126263208358,7.856201460950441,55.57156861838562,5.480755886005151,243.6516056390615,66.04213129428267
258,0.6060777562142903,-221.2924147995711,-102.37437805013114,2.9174281805166604,57.480943110057005,6.499785474635554,243.87639048105822,66.29017087457822
259,0.39519970672519383,-221.2668089111811,-103.06556670298161,-2.0133836736801074,59.11237607042452,7.41647416259062,244.14258953846445,66.62723603515941
260,0.1685706626687823,-221.27748630037468,-103.76047425454443,-6.929271975040851,60.45414496037135,8.216642412986229,244.44459267138234,67.05877621321171
261,-0.07139644136919565,-221.31891803599467,-104.45447197849371,-11.827588664920237,61.49935629381772,8.887570469054898,244.77542872462308,67.59428661041366
262,-0.32182064264282206,-221.38429788571682,-105.14269965960649,-16.7104818158163,62.24612810105494,9.418384651659437,245.1268561886486,68.24773839167507
263,-0.5793919394810269,-221.465670220393,-105.82012124304929,-21.58526780991665,62.697627916008194,9.80042575174873,245.48950402399225,69.03785952249814
264,-0.840425849031522,-221.55410458608424,-106.48159436761756,-26.464670177899812,62.861963348478454,10.02758734496982,245.85306096416866,69.9882481574996
265,-1.1009319113145712,-221.63991254380133,-107.12195457767538,-31.366907643155386,62.75193072906519,10.096611282262373,246.20650959602858,71.12730851759015
266,-1.3566939048193447,-221.71290045854673,-107.73611450110378,-36.31562075741965,62.38463547769285,10.00732754069311,246.5383995558513,72.48800792734778
267,-1.6033590867403424,-221.76265034882928,-108.31917744620552,-41.33963354863495,61.78100482261328,9.76282629212655,246.83715239429853,74.10746212800123
268,-1.8365335074956135,-221.77881980224885,-108.86656354745196,-46.47255324250605,60.965218492567026,9.36955164303391,247.09138909388287,76.02636322013511
269,-2.051880407056343,-221.75145130405798,-109.37414480819766,-51.75221687087173,59.96408555261416,8.837309025203139,247.29026986882678,78.2882699849268
270,-2.24521888021511,-221.67128104070883,-109.83838352432576,-57.21999808024379,58.80639557581771,8.179181495789456,247.4238348316496,80.93878358499072
271,-2.4126203805922826,-221.53003724086685,-110.25646718241906,-62.91999053712102,57.522270104408896,7.411353919414322,247.4833335261356,84.02463278301421
272,-2.5505011430348037,-221.3207182866714,-110.62643237305429,-68.89808607104673,56.142536393466976,6.552847787255025,247.4615312535545,87.5926921659177
273,-2.655709072604013,-221.03784109009263,-110.94727056633035,-75.20096642056701,54.69814045833872,5.625172992347504,247.3529805015006,91.68895502281792
274,-2.7256039027358394,-220.67765063939856,-111.21900954626469,-81.87502769461605,53.219611193670424,4.651906094831218,247.15424658078533,96.35748030360386
275,-2.758129401437551,-220.23828231487323,-111.44276558354277,-88.96525713169929,51.73658241401471,3.658207409899144,246.86407777010464,101.63933136475336
276,-2.751876169453545,-219.719869605545,-111.62076280836679,-96.5140830653722,50.277375541911525,2.67029151788707,246.48351180653836,107.57152372721004
277,-2.7061332992712126,-219.12459119504098,-111.75631767429527,-104.56022145028983,48.86864261533173,1.714867378910853,246.0159123913013,114.18600015686253
278,-2.6209270442474883,-218.45665306351452,-111.85378789220242,-113.13754559673367,47.53506734798547,0.8185650399361594,245.46693154760865,121.50865379462515
279,-2.4970447704501275,-217.72220341484584,-111.91848665190088,-122.27400919078777,46.299120949352705,0.007365950088666904,244.84439624786438,129.55842307235508
280,-2.3360427663657655,-216.92918091007417,-111.95656417483045,-131.99065536138255,45.1808689156501,-0.6939467857447916,244.1581206679186,138.3464847779744
281,-2.140236858395391,-216.08709962960717,-111.9748596701217,-142.30074573612043,44.19782464027402,-1.262303196537893,243.4196485172202,147.875572997817
282,-1.912675197881507,-215.2067770421367,-111.98072778891847,-153.20904265845917,43.3648452113368,-1.6768131188014959,242.64193290315498,158.13945122651532
283,-1.6570931140917367,-214.30001380154349,-111.98184483848313,-164.71127491439094,42.694064130326055,-1.919173942583962,241.83896398414072,169.12256255328592
284,-1.377850605846088,-213.3792363796519,-111.98600134397229,-176.79381259242902,42.194855046146586,-1.974011332477683,241.02535721848295,180.79987866874433
285,-1.079853808622353,-212.45711536694358,-112.00088891254136,-189.43357041390843,41.87382019874838,-1.8291476287610535,240.21591726547578,193.136962840555
286,-0.7684624944145978,-211.5461736403861,-112.0338904556098,-202.5981515013791,41.73479735830368,-1.4757951735771202,239.4251943155588,206.09025546275487
287,-0.44938619413071046,-210.65839933606546,-112.0918832208765,-216.2462356477706,41.778879796059904,-0.908673875622034,238.66705046104403,219.6075838243991
288,-0.1285717884637468,-209.80487853086186,-112.18106346140026,-230.32820817732693,42.004445260685806,-0.1260539318344152,237.95425339447277,233.62889080436003
289,0.1879145574597357,-208.9954616913202,-112.30679997675217,-244.78701772439982,42.40719195330745,0.870274111406006,237.29811322606224,248.08717050455226
290,0.494008298905219,-208.23847636608764,-112.47352159167919,-259.55924378327563,42.980181883704844,2.075098736528738,236.70817579406616,262.9095924073288
291,0.7837674973807727,-207.54049646817805,-112.6846413453683,-274.57634772238487,43.713894462026005,3.479952194484859,236.19198287847738,278.0187894370394
292,1.0514911835560834,-206.9061760394106,-112.94251801453693,-289.7660742181338,44.59629539078494,5.073335847759498,235.75490654197068,293.33427935867155
293,1.2918324662144156,-206.3381527442576,-113.24845365814423,-305.0539640432726,45.61292749892062,6.841000797950714,235.40006156591994,308.77398348855843
294,1.4999038793874484,-205.8370235305547,-113.60272419285526,-320.36493431325755,46.74703079432515,8.766277925543232,235.1282966710099,324.2558021512598
295,1.6713726746629833,-205.4013919412355,-114.00463867466173,-335.62487915818144,47.97969858059227,10.83045084120552,234.93826197543936,339.69920319742795
296,1.8025440803207944,-205.02798353541692,-114.45262206349457,-350.7622427145707,49.2900750872235,13.013164522067408,234.8265470578978,355.0267786046443
297,1.8904309250163298,-204.71182292677062,-114.94431588722075,-365.70951745760823,50.655597927156165,15.292861578576582,234.78788124093123,370.16572490879236
298,1.9328084069128821,-204.44646331264252,-115.47669151371844,-380.4046241301215,52.052286053027004,17.647237181185808,234.81538556226747,385.0492059176645
299,1.9282531194195112,-204.22425729567465,-116.04617160680156,-394.7921345835722,53.45507093020362,20.053702749091617,234.9008645336212,399.61756059587924
300,1.8761656957313644,-204.03665645191037,-116.64875635736884,-408.82430529609,54.83816557391369,22.489847727377157,235.03512512522855,413.81932478884477
301,1.7767766796191617,-203.8745265722591,-117.28015173892591,-422.4618966924224,56.17546314121981,24.933888360804577,235.20831029148877,427.61204213904676
302,1.6311355760086836,-203.7284658408809,-117.93589715807344,-435.6747612202453,57.440954203276604,27.365092478412073,235.410234717739,440.96284675221716
303,1.4410834756552642,-203.58911431323494,-118.61148962288507,-448.44219103741386,58.60914992836515,29.764169964820976,235.6307113143765,453.84880754339514
304,1.2092100835017383,-203.44744462279786,-119.3025011834786,-460.75302372597497,59.655497395228295,32.11361968111023,235.8598581755016,466.2570313591162
305,0.9387963584496382,-203.29502553076824,-120.00468610920002,-472.605511265906,60.55677324800908,34.39802490378299,236.0883770484936,478.1845285472744
306,0.6337443162919708,-203.1242515650451,-120.71407422904522,-484.0069632866053,61.291442926955085,36.604290727428655,236.30779576380422,489.63785035334166
307,0.2984958665463479,-202.9285336149026,-121.42704720414791,-494.97318030179156,61.8399746962757,38.721818302758344,236.51066865158774,500.6325122967479
308,-0.06205719254229269,-202.70244701708694,-122.14039524692642,-505.52769636866253,62.18510047853442,40.7426123100108,236.6907307904562,511.1922216571752
309,-0.4426697619066251,-202.4418353250401,-122.85135286701089,-515.7008536496005,62.3120188563263,42.66131972193175,236.84300389988567,521.347930602482
310,-0.8378443793803176,-202.143869478511,-123.55761347847086,-525.5287339671557,62.20853923728404,44.47519963523716,236.96385363630577,531.1367395458574
311,-1.241934461036782,-201.80706341985027,-124.25732401362984,-535.051974853407,61.8651697989975,46.18402566233902,237.0509998604105,540.6006782018839
312,-1.6492480457480303,-201.4312483158593,-124.9490619098672,-544.3144999115265,61.27515512630829,47.78992403064975,237.10348301758236,549.7853945804769
313,-2.054150370567672,-201.01750844533308,-125.6317978296418,-553.3621954924367,60.434472099661235,49.2971521121345,237.12159104696832,558.738784732663
314,-2.4511635268764995,-200.56808257338122,-126.30484818914009,-562.2415675695129,59.341794266377136,50.71182356297012,237.10675224099677,567.5095982302184
315,-2.8350612488695397,-200.08623539201085,-126.96782200534585,-570.9984139825443,57.998435387993474,52.041587558781714,237.06140033222127,576.1460558114779
316,-3.2009567202218014,-199.57610444130543,-127.6205666409657,-579.6765475613298,56.40828208477699,53.2952707735112,236.98881881162094,584.6945160074374
317,-3.5443812746626615,-199.04252872558317,-128.26311659937377,-588.316604693501,54.57772376026679,54.48249181337325,236.89297191804042,593.1982265789954
318,-3.861352099963904,-198.4908657611238,-128.8956486128736,-596.9549714515355,52.51558575354642,55.613258824706044,236.77832968464676,601.696194083748
319,-4.148427529959772,-197.92680387903704,-129.51844514281916,-605.62285538725,50.233069411047275,56.69756195677413,236.6496938926437,610.2222008420907
320,-4.402749052726561,-197.35617629549725,-130.13186744712948,-614.3455256928305,47.743700798524834,57.74497325164051,236.51203099520873,618.8039931627975
321,-4.6220695536263285,-196.78478285178494,-130.73633876460508,-623.141738020172,45.06328814323708,58.76426730145335,236.37031722192447,627.4626583141403
322,-4.804767532836123,-196.21822444417924,-131.33233781102257,-632.0233534318553,42.209886667455855,59.76307655505792,236.2294001232111,636.2122009433908
323,-4.949847277385379,-195.66175404279258,-131.92040247534894,-640.9951542793734,39.203768064480144,60.747595264681685,236.09387969026713,645.0593229643134
324,-5.056925333923659,-195.12014700773446,-132.5011432151455,-650.0548535610521,36.06739036156004,61.72234546525835,235.96801096232352,654.003404604545
325,-5.126204014170895,-194.59759238051393,-133.0752650830562,-659.1932884959991,32.82536226691279,62.690016871349265,235.85562884626452,663.0366783045822
326,-5.158432971965212,-194.0976060699772,-133.64359650518801,-668.3947835611973,29.50439431726223,63.651390148706106,235.76009477727973,672.144581390089
327,-5.154860212446692,-193.62296629841717,-134.20712192430867,-677.6376631938255,26.133227287724228,64.60534983720875,235.68426381561122,681.3062680374959
328,-5.117174353218486,-193.1756711898735,-134.7670144116485,-686.8948901901955,22.742526514846666,65.54898950906629,235.6304698043633,690.4952564766413
329,-5.047440462372015,-192.75691791798184,-135.32466364488465,-696.1348030375167,19.364729221534436,66.477807767889,235.6005254340483,699.680184151655
330,-4.948032118492003,-192.36710244303637,-135.88169450188872,-705.3219242399196,16.033830966361208,67.38598962494333,235.5957336579317,708.8256419653724
331,-4.821562387878603,-192.00583861564257,-136.43997193766725,-714.4178120115167,12.785097429150055,68.26676380131265,235.6169069288824,717.8930586589458
332,-4.670816315869829,-191.67199529010014,-137.00158862322036,-723.3819291027194,9.654689298220672,69.1128227681325,235.6643910762049,726.8416074502829
333,-4.498687416443812,-191.36375000366115,-137.56883298639056,-732.1725045444018,6.679191231201305,69.91678902394199,235.73809123694195,735.6291088343056
334,-4.3081205121272514,-191.07865763471736,-138.1441369549786,-740.7473664423774,3.895040671741091,70.67170836350502,235.8374981097059,744.2129056466209
335,-4.102063002295938,-190.81373213880002,-138.73000488004334,-749.064726614178,1.3378585226989212,71.37154880179577,235.96171382741153,752.5506890885623
336,-3.883426132714678,-190.5655389394574,-139.32892746368944,-757.0839010198117,-0.9583089998824864,72.01168243599939,236.10947770848162,760.601257584508
337,-3.6550571577643054,-190.33029491228467,-139.94328647370452,-764.765953766574,-2.9618200253619342,72.58932694959013,236.27919278441036,768.3251942512783
338,-3.4197225465789867,-190.10397228181296,-140.5752571613435,-772.0742569226303,-4.644312859573976,73.1039238349482,236.46895416698996,775.6854533578484
339,-3.180101651463889,-189.882402273243,-141.2267154837017,-778.9749631821369,-5.981595293441201,73.55743188579189,236.6765800357425,782.6478511708353
340,-2.9387895936474377,-189.661374163673,-141.8991566048941,-785.4373931723758,-6.954508824714399,73.95451715095643,236.89964549124053,789.1814616085167
341,-2.6983076373154358,-189.43672561911603,-142.59362991982084,-791.4343434284766,-7.54972565110022,74.30262427379374,237.13551898821066,795.2589217174317
342,-2.4611190809796417,-189.20442096187327,-143.31069420135657,-796.9423243833824,-7.760435632083489,74.61191879375832,237.3814007099136,800.8566557494884
343,-2.229648620658857,-188.96061519175126,-144.0503946652594,-801.9417398406316,-7.586882900453413,74.89509534362891,237.63436213784937,805.9550292732937
344,-2.0063030929316246,-188.70170293815877,-144.812262116576,-806.4170201921049,-7.036717201514193,75.16705249699757,237.89138620397813,810.5384461745482
345,-1.7934914137706834,-188.4243527773134,-145.59533315689023,-810.3567212331268,-6.125132768332372,75.44444104098771,238.14940772368374,814.5954016814226
346,-1.5936413870199861,-188.1255283284579,-146.39818968804485,-813.7535991726404,-4.874776825998001,75.74509839089576,238.40535414797935,818.118504000561
347,-1.4092108769964886,-187.80249819344624,-147.2190153863999,-816.6046707357025,-3.315419827342039,76.08738745154464,238.65618685063112,821.1044761018996
348,-1.2426906994108509,-187.4528371750564,-148.055666211856,-818.9112652816736,-1.4833895761177232,76.48946319587455,238.89894308690114,823.5541477560963
349,-1.096596685691788,-187.0744213666335,-148.9057513690773,-820.6790735023961,0.5792188786565375,76.96849428959645,239.13077849121532,825.4724459467183
350,-0.973448921981244,-186.66541967333293,-149.7667206136152,-821.9181943597305,2.8255363727456206,77.53986992354567,239.34900964152186,826.8683890539468
351,-0.8757371467770904,-186.2242841314591,-150.63595348198123,-822.6431785455728,5.205085638672997,78.21642332007639,239.55115588471648,827.7550867857262
352,-0.8058724990886833,-185.74974108095356,-151.51084589714418,-822.8730632609163,7.665081572012428,79.00770297090146,239.73497930717966,828.149744063308
353,-0.7661270459410641,-185.24078478355034,-152.38888965736965,-822.631389962269,10.151819382333526,79.9193205555593,239.8985214208248,828.0736634043142
354,-0.7585636945294425,-184.6966743871126,-153.26774064985267,-821.946194212903,12.612097806074297,80.95240089120453,240.04013481799487,827.5522371125569
355,-0.7849601315553749,-184.11693429049495,-154.1452723102187,-820.8499549963987,14.994620128234285,82.10315448315824,240.1585078306584,826.614917918048
356,-0.846731209439399,-183.5013572256419,-155.0196118062822,-819.3794898355058,17.251314115461017,83.36258760488379,240.2526802698236,825.2951547105224
357,-0.9448546195632963,-182.85000897229975,-155.88915754928976,-817.5757819481897,19.33851372307143,84.71635869393108,240.3220487260537,823.6302788968002
358,-1.0798047385424896,-182.1632335570548,-156.75257791607746,-815.4837267039044,21.21795094766146,86.14478364428383,240.3663606773137,821.6613270263698
359,-1.2514992289025397,-181.44165786231918,-157.60879249712772,-813.151787000822,22.857515446517382,87.6229867634941,240.385697622556,819.4327869536872
360,-1.4592623367052966,-180.68619457939644,-158.45693859289756,-810.6315508288161,24.2317521024682,89.12118911080636,240.3804483700606,816.9922579675481
361,-1.701807892174213,-179.89804236681422,-159.296326786055,-807.9771889004035,25.32208164498151,90.60512189362237,240.35127426383528,814.3900197190492
362,-1.9772438981176264,-179.0786820649444,-160.12639005777217,-805.2448153279142,26.116745318414786,92.03654975842574,240.2990685296978,811.6785098822469
363,-2.2830994435292205,-178.229867986586,-160.9466310666464,-802.4917593355985,26.610489707137045,93.3738872621343,240.2249121328494,808.9117156369516
364,-2.6163736090713843,-177.3536136294651,-161.75657186624636,-799.7757603175208,26.804020568884678,94.57289150518083,240.13002854007598,806.1444885782045
365,-2.973605044945211,-176.45217154086265,-162.5557095564763,-797.1541015690083,26.70326374996823,95.58741467278111,240.0157395310428,803.4317958543983
366,-3.350959977439096,-175.52800746842593,-163.34348038096545,-794.682699258126,26.31847655704965,96.37020176158397,239.88342382960602,800.8279217210987
367,-3.7443355519829784,-174.58376939950674,-164.1192339294407,-792.415162626192,25.663254736875803,96.87372061299061,239.73448008026617,798.3856332306381
368,-4.149474677397595,-173.62225257694755,-164.88221853602516,-790.4018396156227,24.753479441282444,97.05101304747933,239.5702956460672,796.1553220646035
369,-4.562087889328671,-172.64636187073322,-165.63157856354746,-788.6888601824451,23.60624636220265,96.85655712766952,239.39222261830713,794.1841326358963
370,-4.977977168089998,-171.65907282009738,-166.36636383732866,-787.3171884106149,22.23881648294968,96.24713140309247,239.20156205758082,792.5150855214149
371,-5.393156149293114,-170.66339231767586,-167.08555097933697,-786.3216945674315,20.66762497367682,95.18267251024734,238.99955684938908,791.1862054206536
372,-5.803960876876194,-169.66231954577114,-167.78807586026292,-785.73025926926,18.90738153826321,93.62711762793617,238.7873928941126,790.2296640046815
373,-6.2071453368207195,-168.65880762825958,-168.47287587640307,-785.5629237325782,16.970291624167782,91.54922275306508,238.56620786455048,789.6709499560152
374,-6.5999565820963255,-167.6557265461987,-169.13894020953398,-785.8311025951645,14.865422988040498,88.92334637534819,238.3371064278742,789.5280811047845
375,-6.980185302103067,-166.65582800142323,-169.7853655749783,-786.536878930245,12.598236027653579,85.73018598260141,238.1011804698743,789.8108767746716
376,-7.346189105963796,-165.66171297141022,-170.41141431217645,-787.6724045240186,10.170289215789529,81.95745227406681,237.85953246058892,790.5203119858446
377,-7.696887457508239,-164.6758027255497,-171.0165713243149,-789.2194317078934,7.579123411986397,77.6004634438706,237.61329990620732,791.6479785322089
378,-8.031728984563298,-163.7003141028856,-171.60059658763765,-791.1490055112442,4.818321505978777,72.66263983486908,237.36367905021578,793.175680671782
379,-8.350633603823674,-162.73723973753482,-172.16357068427303,-793.4213462701448,1.8777334548589766,67.15587799395404,237.1119464794674,795.0751949020306
380,-8.653913373346006,-161.78833349632694,-172.70593176177223,-795.9859528106674,-1.25614823641471,61.1007829371714,236.85947771996734,797.3082237598271
381,-8.942177130734141,-160.8551007755295,-173.22850318233728,-798.7819545516214,-4.59968106444697,54.5267384591509,236.60776212571605,799.8265724151447
382,-9.216224794803868,-159.93879285690147,-173.7325117276018,-801.7387368196986,-8.171453813115315,47.471797800257725,236.3584135031301,802.5725734924508
383,-9.47693766216358,-159.04040455373232,-174.21959650944063,-804.776856746713,-11.991578552057943,39.982381089411824,236.11317613734485,805.4797794497728
384,-9.725171071984123,-158.1606749179966,-174.69180871860453,-807.8092568835748,-16.080915825675504,32.112771718245206,235.8739262264158,808.473932501377
385,-9.961655491999618,-157.3000916257718,-175.15160214458976,-810.7427701765714,-20.460255177600352,23.924410898897758,235.64266913647342,811.4742094825901
386,-10.186911479816844,-156.45890047806236,-175.60181424526638,-813.4798940357472,-25.14947175650141,15.484997578974516,235.4215333063402,814.394723966851
387,-10.401183078868582,-155.63712189559578,-176.04563764274593,-815.9207944386065,-30.166677088288875,6.867409009265412,235.21276197162817,817.146251826307
388,-10.604392944564038,-154.83457610657072,-176.4865823503447,-817.9654852552051,-35.52737825247722,-1.8515349404692993,235.01870404330955,819.6381311190527
389,-10.796120894364325,-154.0509178759323,-176.92842975025877,-819.5161149962576,-41.243655186223066,-10.59243350855052,234.84180540643248,821.7802744110264
390,-10.975605816600986,-153.28568023907775,-177.3751802240203,-820.479284250083,-47.32336157553947,-19.274756446644435,234.68460161273757,823.4852226926424
391,-11.141769229000245,-152.5383251029414,-177.83099709586457,-820.7683129050981,-53.76935188434228,-27.818343817163246,234.54971242536877,824.6701657069913
392,-11.293257533026653,-151.8082972461275,-178.3001496818766,-820.3053768667119,-60.57873664420928,-36.14490955186462,234.4398378787395,825.2588538897369
393,-11.428499318901027,-151.0950776334174,-178.78695739741602,-819.0234385073705,-67.74217107748318,-44.17950276935418,234.35775447553192,825.18333150803
394,-11.54577387403073,-150.3982321782424,-179.29573530132075,-816.8679020903026,-75.24318860410727,-51.851881789727344,234.30630911341999,824.3854276499671
395,-11.643287170469838,-149.71745285172398,-179.83073989496788,-813.7979337395211,-83.05759977525048,-59.09775918131385,234.28840768564507,822.8179503399923
396,-11.71925192804357,-149.05258889611608,-180.39611319303958,-809.7873951242893,-91.15298668644994,-65.8598818930439,234.3069952935297,820.4455390666047
397,-11.77196874116074,-148.40366655467372,-180.99582332411322,-804.825351856251,-99.48833066116153,-72.08891809909377,234.36502565959495,817.2451431698526
398,-11.79990556104645,-147.77089614934593,-181.63360089150345,-798.9161329160631,-108.01381512762985,-77.74413103188505,234.46541837505734,813.206108866866
399,-11.801772964700737,-147.15466568246697,-182.31287140451818,-792.078936839116,-116.67084521626903,-82.7938289329714,234.61100367982363,808.329876620139
400,-11.776592693120685,-146.55552060143694,-183.036684824506,-784.3470031622433,-125.39232071698821,-87.21558868158282,234.80445533743753,802.6293122682878
401,-11.723757048324194,-145.97413003731137,-183.80764360029423,-775.7663915054462,-134.10319032992996,-90.99625845903088,235.04821285230236,796.127717613565
402,-11.643077016705524,-145.41124068397392,-184.62783066801637,-766.3944323135936,-142.72130351904227,-94.13175202915956,235.3443949059867,788.8575857604621
403,-11.534817511177515,-144.86762043101692,-185.49873894117502,-756.2979293260212,-151.15856262107687,-96.62665387330162,235.6947065483497,780.8591801310193
404,-11.39971892560109,-144.34399474545648,-186.421203963369,-745.5512019672649,-159.32236298622578,-98.49366032642745,236.10034338543176,772.1790215086769
405,-11.239005219143143,-143.84097941837402,-187.39534178130197,-734.2340556365016,-167.11729360709813,-99.7528866673021,236.56189674662588,762.8683643157264
406,-11.054379848270205,-143.35901351158205,-188.4204947570852,-722.4297608623863,-174.44705576206894,-100.43107334696478,237.0792645241061,752.9817332070363
407,-10.848011777993824,-142.89829617865564,-189.4951887632988,-710.2231112591824,-181.2165436145543,-100.56072567408805,237.65157289205777,742.5755768190744
408,-10.622514181055836,-142.45873070007863,-190.6171056046528,-697.6986179763521,-187.33401950136292,-100.17921997695545,238.2771142371604,731.7070801123366
409,-10.380918059723696,-142.03987880782088,-191.78307429786057,-684.9388867039046,-192.71330877597262,-99.32790563721743,238.95330627687218,720.4331622883886
410,-10.126642073444483,-141.64092821375863,-192.98908400788534,-672.0232127424109,-197.2759353261389,-98.05122699702164,239.67667653027434,708.8096745938003
411,-9.863458799922011,-141.26067596293527,-194.23032019972533,-659.0264195177363,-200.9531197535746,-96.39588278100464,240.44287508553825,696.8908012137978
412,-9.595456910525431,-140.8975295633921,-195.50122418548997,-646.017955122344,-203.68756776970378,-94.41003419554076,241.24671705839353,684.7286561744357
413,-9.326998435812191,-140.54952679445424,-196.79557493854463,-633.0612492940198,-205.434986190034,-92.14256703565012,242.08225443008345,672.3730591813522
414,-9.062670318775632,-140.21437384156587,-198.10659097033044,-620.2133200096589,-206.1652770564545,-89.64240853575552,242.94287532506735,659.8714638238137
415,-8.807229569944717,-139.8895001471978,-199.42704930230468,-607.5246059601088,-205.8633755802477,-86.95789667309867,243.82142741566665,647.2690035387944
416,-8.56554136592632,-139.57212728902857,-200.74941804548533,-595.0389904578781,-204.52971335702833,-84.13619818888742,244.71036106781145,634.6086154271906
417,-8.342509384724625,-139.25934845485767,-202.0659986778143,-582.7939753058481,-202.1803034175133,-81.2227714938167,245.60188704175553,621.9312003236587
418,-8.142997759000805,-138.9482147341494,-203.3690737670826,-570.8209603545123,-198.84645736719597,-78.26087155608671,246.48814306044434,609.2757795648743
419,-7.971744519787444,-138.63582441575608,-204.6510557270235,-559.1455855237156,-194.5741568559188,-75.29109559665095,247.36136340889962,596.6796141509305
420,-7.833267425320194,-138.31941164381104,-205.90463223043616,-547.788096174378,-189.42311184786664,-72.35097075646449,248.21404587440927,584.1782596352215
421,-7.731764450729344,-137.99643105487456,-207.12290409093978,-536.7636991944179,-183.46554648519742,-69.47458755965718,249.0391106873688,571.8055393459316
422,-7.671012511327142,-137.66463536319782,-208.29951189579944,-526.0828856266459,-176.78475945160565,-66.69228548628526,249.83004674736196,559.59342889385
423,-7.654268742700607,-137.3221432410651,-209.42874867250052,-515.7517058545309,-169.47350927724773,-64.03039872017659,250.58104148563075,547.5718559189041
424,-7.684178664143871,-136.9674952384113,-210.50565738101855,-505.77199473560944,-161.63227559326845,-61.51107070728693,251.28709219047067,535.7684300096271
425,-7.762694959216046,-136.599695939451,-211.52611354292011,-496.14155550436783,-153.36744466101274,-59.15214535457649,251.94409811880575,524.2081275605603
426,-7.891009755010041,-136.21824111271127,-212.48689414324443,-486.85432104808825,-144.7894617603112,-56.967140567172834,252.54893368567053,512.9129634902171
427,-8.069502453975257,-135.8231292549527,-213.38573372115198,-477.90051738959164,-136.0109851685717,-54.96530660572016,253.09950316781828,501.90168473548624
428,-8.297704531102472,-135.4148575809813,-214.2213675584373,-469.26685545503534,-127.14506799641893,-53.15176787699567,253.59477685324114,491.1895183662701
429,-8.574282317875259,-134.99440311177054,-214.99356065260397,-460.9367731414314,-118.3033865549598,-51.527742806999,254.03480786048272,480.78800018159797
430,-8.89703856203665,-134.56319004551565,-215.70312023997332,-452.8907414093088,-109.59452819409773,-50.09083289394216,254.4207283623201,470.70489910620705
431,-9.262933263089684,-134.12304501219919,-216.35188934777187,-445.1066377930671,-101.12234798892807,-48.83536919202303,254.7547239299773,460.9442408130144
432,-9.668123817579115,-133.6761420137062,-216.94271921692044,-437.5601808146985,-92.98440213513827,-47.75280241030986,255.03998512453109,451.5064230983477
433,-10.10802395365893,-133.2249388002316,-217.47941908131799,-430.22541118092215,-85.2704662510795,-46.83212151479108,255.28063597058141,442.388407386342
434,-10.577380413979903,-132.7721062248266,-217.9666823479453,-423.0752011782603,-78.06114889016742,-46.06028523676666,255.48163929512913,433.5839661354967
435,-11.07036587301623,-132.32045191952696,-218.40998876767787,-416.081772317662,-71.42661425560229,-45.422651342801366,255.6486792537938,425.08396481547516
436,-11.580686154195591,-131.87283960116324,-218.81548302778396,-409.21720253360394,-65.42543280812625,-44.90339005374185,255.7880220417729,416.87665895566425
437,-12.101699526445438,-131.43210552516592,-219.18983135964993,-402.4539074235015,-60.10358328174754,-44.48587064383956,255.9063568676443,408.94799070875047
438,-12.626545746707594,-131.00097402227289,-219.5400589529746,-395.76508425320674,-55.493633691104584,-44.153013806097825,256.01062049188965,401.2818744075618
439,-13.148282458426086,-130.5819744827349,-219.87337200486874,-389.1251117861901,-51.61413152063264,-43.887606424373146,256.1078097285975,393.86046564217736
440,-13.660026414164568,-130.17736234367055,-220.19696918927886,-382.5099026036415,-48.46923384716634,-43.67257946506263,256.2047872124449,386.6644125524785
441,-14.155096775602328,-129.78904650413767,-220.5178483206136,-375.8972070696496,-46.04860616142146,-43.491253336696545,256.3080864964543,379.67309085984147
442,-14.627157572528418,-129.41852529909974,-220.8426148686912,-369.2668695535009,-44.32761381868236,-43.32755783811684,256.42372313714657,372.8648257105574
443,-15.070356309104296,-129.06683288287283,-221.17729942652292,-362.6010383607836,-43.267822451325436,-43.16623536410513,256.5570186461698,366.2171040869893
444,-15.479455608916522,-128.73449758630193,-221.52719095618917,-355.88433143967,-42.817813818360904,-42.99303616851859,256.7124437862026,359.70678179301154
445,-15.849954637470397,-128.42151339021123,-221.896691576086,-349.1039604477543,-42.91431222009296,-42.79491321276714,256.8934865406277,353.31028901845514
446,-16.178196910922196,-128.12732505874274,-222.28919703348868,-342.24981605556485,-43.48360467801504,-42.56022159206028,257.1025483716801,347.0038381383711
447,-16.461461111104196,-127.850826804999,-222.707005300177,-335.3145172449867,-44.44322656767716,-42.27892392775386,257.34087056545553,340.7636365491884
448,-16.698031696251952,-127.59037377128,-223.1512543469384,-328.2934268687101,-45.703874237348174,-41.94279876181189,257.60849097659434,334.56610604661097
449,-16.88724637081933,-127.3438051813208,-223.62188919112964,-321.1846351878252,-47.1714979538821,-41.54564449531269,257.90423045292346,328.3881088752625
450,-17.02951783219587,-127.1084777613068,-224.11765770152715,-313.98891285970126,-48.74952236167565,-41.0834676512972,258.22570758071697,322.20717955115384
451,-17.12632764887637,-126.88130791918742,-224.63613439057906,-306.70963501194024,-50.34113716597038,-40.55464201888663,258.56938014340784,316.0017610273696
452,-17.180190669706377,-126.65882124445594,-225.1737714648529,-299.352678416583,-51.851597535782744,-39.9600249059766,258.9306117927597,309.7514435612877
453,-17.194589115636063,-126.43720814983529,-225.7259764007547,-291.92629406979233,-53.19047161526987,-39.30301812571213,259.3037626084521,303.43720444176137
454,-17.173876578392065,-126.21238483276849,-226.2872148830608,-284.4409574851657,-54.273771772031154,-38.58956401850322,259.6823021034041,297.04164636190563
455,-17.123153540761752,-125.9800590425574,-226.8511370920927,-276.90919873357495,-55.02590731774949,-37.82807031973663,260.0589427483482,290.54923175636344
456,-17.048117584388113,-125.73580030847235,-227.4107244288023,-269.34541388014577,-55.38140000927857,-37.02926169122107,260.4257915103764,283.94651015366605
457,-16.954892936253696,-125.47511432377325,-227.95845315460818,-261.76565913746754,-55.28631013202884,-36.205959955236246,260.7745164979117,277.2223358136722
458,-16.849845241580386,-125.19352116080532,-228.486471106149,-254.18742880658334,-54.699330516677534,-35.372799167996284,261.0965256088724,270.3680737344924
459,-16.739388370292144,-124.88663698521734,-228.98678343944746,-246.6294178554743,-53.59251814046585,-34.54588526274305,261.3831539594807,263.37779341522133
460,-16.629790663708103,-124.55025896507938,-229.4514431223632,-239.11126966023926,-51.95164725118226,-33.74241276513214,261.6258567180051,256.24845122370004
461,-16.526988257113377,-124.18045309086185,-229.87274163618463,-231.653308757819,-49.77618313344615,-32.98025291114872,261.816403766347,248.98006328892302
462,-16.43641286781244,-123.7736445441032,-230.24339520672157,-224.27625710314445,-47.078890515782994,-32.27752843664566,261.94707243766055,241.57587084565205
463,-16.362840683971687,-123.3267099943461,-230.5567220493561,-217.00093008573702,-43.88510405339577,-31.652190434454532,262.01083455491437,234.04249836223443
464,-16.31026784013817,-122.83707077951361,-230.80680666077205,-209.84790558768697,-40.231699344412554,-31.121611994041835,262.0015342078149,226.39010143291108
465,-16.281816597976906,-122.30278543068843,-230.98864798708723,-202.83715626372617,-36.16581093071906,-30.70221183567874,261.91405309149457,218.63249675605377
466,-16.279674881829962,-121.72263948734467,-231.09828908599994,-195.98763301519793,-31.74334863409198,-30.409118833166854,261.7444605936028,210.78726161097052
467,-16.30507029356562,-121.09622997097519,-231.13292648428506,-189.3167874803476,-27.027365840770862,-30.25588519858249,261.49014596839123,202.8757864798971
468,-16.358278234995677,-120.42404122281347,-231.09099772168028,-182.8400241284552,-22.086333663238268,-30.254252267553706,261.14992979231033,194.92326300820338
469,-16.438662478552622,-119.70750815805216,-230.9722455490651,-176.5700783880562,-16.992373902904045,-30.41396859052278,260.7241514903923,186.9585908429961
470,-16.544745569377238,-118.94906250289091,-230.77775702204707,-170.51632561542633,-11.819501822947927,-30.742655981343987,260.2147292308271,179.01419079715237
471,-16.674305704361114,-118.1521573893912,-230.50997554185525,-164.68403564099688,-6.64192706654108,-31.24571597745189,259.62518817178886,171.12571755412878
472,-16.824495986566827,-117.32126585636024,-230.1726839649762,-159.07359797035994,-1.5324575067598412,-31.926267411070896,258.96065312506227,163.33167188511504
473,-16.991981129480582,-116.46184938368619,-229.7709573362366,-153.6797522824497,3.4389539630300026,-32.785105842423384,258.22780228403366,155.67291921026973
474,-17.17308596373302,-115.58029361166577,-229.31108464714902,-148.4908665574763,8.206486169439355,-33.82067746702984,257.4347798219403,148.19212750545833
475,-17.363949729692145,-114.68380988001354,-228.80046031235,-143.48831006507612,12.70952485043173,-35.02906330300566,256.591066947972,140.9331423628575
476,-17.56068022843124,-113.78030307577005,-228.24744767186897,-138.64596989489212,16.893521292214285,-36.403973110789245,255.70731327402126,133.94031987902284
477,-17.75950235041477,-112.8782082948577,-227.66121839513235,-133.9299574424245,20.71063006590153,-37.93675160340278,254.79513266285267,127.25783854468993
478,-17.95689611972275,-111.98630076668428,-227.0515727919258,-129.29854553788783,24.12013142585109,-39.61640127292145,253.8668696345282,120.92900939441648
479,-18.149720042671223,-111.11348519076535,-226.42874666823698,-124.70236853921733,27.088652027509152,-41.42962620321377,252.93534376345153,114.99559982865011
480,-18.335316169210937,-110.26857194556241,-225.80321073448548,-120.08490783114874,29.590203496152842,-43.360899720611144,252.01358044210744,109.49718172223177
481,-18.5115938817504,-109.46004843420268,-225.1854688233969,-115.38327488972693,31.60606221029275,-45.392556321473414,251.11453699541113,104.47050986666326
482,-18.67709010776447,-108.69585409466706,-224.58586119266096,-110.52929417794711,33.12451585282298,-47.50490584612157,250.2508332945722,99.94893341990604
483,-18.831004481908124,-107.98316738984018,-224.0143787914743,-105.4508789393314,34.140503142812044,-49.676365919836265,249.43449561755256,95.96184125844961
484,-18.97320895992687,-107.32821251728403,-223.48049351254863,-100.0736843241154,34.65517289673379,-51.883607491023334,248.67672154513915,92.53414182366761
485,-19.104232443067847,-106.73609273513706,-222.99300823820238,-94.32301387128192,34.675387352966744,-54.10170800967385,247.9876723005234,89.68577889612698
486,-19.225221974880622,-106.21065614780134,-222.55992907889592,-88.12594681976125,34.21319269186554,-56.30430757196321,247.37629729121537,87.43128638771442
487,-19.337882899785857,-105.75439855816403,-222.18836074063745,-81.41364482472271,33.28527707821126,-58.46376524208463,246.85019382458333,85.77938744059396
488,-19.444401019920925,-105.36840657274979,-221.88442457733936,-74.12378751827748,31.912433568397816,-60.551315518004614,246.41550316227094,84.73264568691785
489,-19.54735029873906,-105.05234255306307,-221.65319766099645,-66.20307746549638,30.119042067746214,-62.53722807245496,246.076842332632,84.28717936300872
490,-19.649590004891383,-104.80447130708436,-221.49867013839204,-57.6097471199962,27.932581291456582,-64.39097689170887,245.83726946326263,84.43245195031663
491,-19.754155298895498,-104.62172675757866,-221.42371730637169,-48.31599397343919,25.383178384992355,-66.08142715101602,245.69827894648387,85.1511557992698
492,-19.864145112194695,-104.49981540633212,-221.43008241687858,-38.31026551971289,22.50320054027057,-67.57704908690846,245.6598217594927,86.41920723869163
493,-19.982610770867016,-104.43335233935659,-221.51836631015897,-27.599312956397775,19.32688974989366,-68.84616742061831,245.72034585516369,88.20587237923954
494,-20.11244823794571,-104.41602467692124,-221.6880204456638,-16.209931715482796,15.89003895964798,-69.85725249320085,245.87685156517142,90.47404173193932
495,-20.256296186778123,-104.44077658241227,-221.93734062407387,-4.190308134919056,12.229705448463374,-70.57925543582346,246.12495722745675,93.18066875810663
496,-20.41644147113975,-104.50000920946593,-222.263459678622,8.389104668231084,8.383955358781634,-70.98198493455814,246.4589707822633,96.27738280512085
497,-20.59473306115564,-104.58578848780199,-222.66233864817488,21.43525168379048,4.391631954822782,-71.03651814224533,246.8719639598847,99.71128110077638
498,-20.792505331067666,-104.69005361547543,-223.12875726420324,34.83274070111921,0.2921394462702448,-70.71563376022682,247.35584685361036,103.42589817860487
499,-21.010511748644806,-104.80481957031202,-223.65630579585402,48.44475059040779,-3.8747658122055304,-69.99425192936219,247.9014419740254,107.36234474080858
500,-21.248870357208357,-104.9223677587284,-224.23738134537902,62.11460745073731,-8.069184112123631,-68.84986388382883,248.49855820066668,111.46060167597092
501,-21.507022714744608,-105.03541992292882,-224.86319257411068,75.66802983521262,-12.251286858506418,-67.26293462817101,249.13606629853942,115.66094848063247
502,-21.783707964879866,-105.1372914793262,-225.52377742425352,88.91601869951597,-16.381540113733855,-65.21726409570014,249.80197864328662,119.90549810308849
503,-22.076953401222454,-105.22202140629605,-226.20803844944416,101.65834095553471,-20.42093820446837,-62.700295848746585,250.48353621763113,124.1398015922212
504,-22.384082392449294,-105.2844765028855,-226.90379983404947,113.68752900144754,-24.331246356421545,-59.70336670183655,251.16730571760763,128.31447560829733
505,-22.701740080005003,-105.32042829745001,-227.59788926158322,124.79329392095735,-28.07525007489191,-56.22189502003254,251.83928893042295,132.38679430888052
506,-23.025936886715577,-105.32660124457085,-228.27624667981195,134.76722882810796,-31.617008658581096,-52.2555093593828,252.4850456574586,136.3221757725678
507,-23.352109438662673,-105.30069127218118,-228.92406077652618,143.40766264973155,-34.922110714307244,-47.80812225183491,253.08983047876055,140.09548409964643
508,-23.675197915442393,-105.24135428081571,-229.5259326966776,150.52451479981144,-37.95793053324399,-42.88795608529584,253.63874266871525,143.69206389977845
509,-23.98973819885846,-105.1481648717584,-230.06606536885297,155.94399854038167,-40.693885314367385,-37.507529015567975,254.11688774589166,147.10842579704274
510,-24.289966643886444,-105.02154653245219,-230.52847595117774,159.51302557608003,-43.10169415316965,-31.683608530896272,254.50954871325717,150.35251074294234
511,-24.569934927316034,-104.86267593745742,-230.897228428733,161.10317627682636,-45.155640272542676,-25.437138673352283,254.80236517884376,153.44347735395644
512,-24.82363223720089,-104.67336591873443,-231.15668326973065,160.61411807328213,-46.83283812332877,-18.793144263211378,254.98151921239457,156.4109794630207
513,-25.045112025486844,-104.45593364835683,-231.2917611904323,157.9763777808861,-48.113506761436874,-11.78061235386375,255.0339277537557,159.29392920550436
514,-25.228620606479062,-104.21306208938631,-231.28821830349446,153.15340020308165,-48.98125027151428,-4.432348434736057,254.94744223114904,162.13877222969344
515,-25.368724951244367,-103.9476633268631,-231.1329299056323,146.14285326523026,-49.4233447108847,3.215196515545832,254.7110562703451,164.99733342366338
516,-25.460437043322152,-103.66275177824267,-230.81417949763377,136.97716674502595,-49.43102875865646,11.122131714523457,254.31512152768155,167.92432081299273
517,-25.499332180459437,-103.36133358519216,-230.32194807351453,125.7233149521681,-48.99979183027265,19.245366885955416,253.75156958032522,170.97459881611067
518,-25.48165873299361,-103.04631604859135,-229.64819648559765,112.48187154400223,-48.12964908659212,27.53888691908925,253.01413480851085,174.20035720918847
519,-25.404437141717576,-102.7204382918087,-228.78713151487597,97.3853763474103,-46.82538811165049,35.95405904269485,252.098570176542,177.64830768640303
520,-25.265546330443673,-102.38622197873448,-227.73544497014828,80.59606057649512,-45.096767923145194,44.43997044042638,251.00284572675474,181.35703642378948
521,-25.063796150899112,-102.04593934107571,-226.49251516272912,62.302980700174366,-42.958648500972764,52.9437954098842,249.72731903864133,185.3546308395003
522,-24.798984865953027,-101.70159513936994,-225.06056140581657,42.71861566873662,-40.43102925386484,61.41119318293327,248.27486787820186,189.6566847223972
523,-24.471940936465447,-101.35491924064662,-223.44474431894378,22.074990119986584,-37.53897848538398,69.78673931881599,246.650977250741,194.26477035727152
524,-24.084548516903094,-101.00736686614626,-221.65320711624366,0.6193989985385022,-34.312442939312554,78.01439402011088,244.86377541091207,199.16544983799972
525,-23.639756146870248,-100.66012407370047,-219.69705537109138,-21.390173795223948,-30.785936055240448,86.03800915817949,242.92401569272718,204.329879220268
526,-23.14156817175857,-100.31411671352055,-217.59027490935443,-43.689830818413064,-26.9981141928633,93.80187245549433,240.84500324698135,209.7140363239906
527,-22.595018397062923,-99.97002196807131,-215.34958950267662,-66.01460036393077,-22.991260152966646,101.2512830397897,238.64246793834337,215.25957421131397
528,-22.006125423431502,-99.62828258031678,-212.99426185194645,-88.10319523135227,-18.81070145288456,108.33314834817308,236.33438667944884,220.89526807378027
529,-21.381829216661735,-99.28912476175027,-210.54584288164236,-109.70253937182173,-14.504196072301362,114.99658866883739,233.94076021091183,226.53898677097948
530,-20.729908798092943,-98.9525812619338,-208.02787554314372,-130.5719130736629,-10.121320165158702,121.19353287776858,231.48335060209823,232.10008731327562
531,-20.05888119611112,-98.61852098131972,-205.4655600340076,-150.48658132348794,-5.712890077817612,126.87928761426303,228.9853863334033,237.4821074898603
532,-19.377881647016014,-98.28668577983441,-202.88538744634812,-169.2407963620454,-1.3304447441812342,132.01306248137254,226.4712415534394,242.58562292152104
533,-18.696524596723773,-97.95673388014632,-200.3147484172287,-186.6501024902941,2.9741954532996964,136.55843549555965,223.96609508677892,247.31114053029495
534,-18.02474485015112,-97.62828777869771,-197.78152271384772,-202.5529145460688,7.1492899445341145,140.48374507334734,221.49557348314409,251.5619174741743
535,-17.37261867057688,-97.30098332956636,-195.31365534526435,-216.81138551261014,11.14346987256957,143.76239661900163,219.08538153827104,255.2466177574693
536,-16.750165812202553,-96.974516080604,-192.9387251307294,-229.31161811586387,14.905984514697083,146.37307333870478,216.76092381287864,258.28174297092716
537,-16.167135163601394,-96.64868109244617,-190.68351267740974,-239.96330623581818,18.38693665440102,148.29984304869564,214.54692174892293,260.59379547282447
538,-15.632778605909506,-96.32340306983815,-188.573576057108,-248.69891272705524,21.537546757143154,149.53215637481233,212.46703255071344,262.12115022918823
539,-15.155619653162155,-95.99875439527999,-186.63284366084432,-255.47250080318116,24.310484601171417,150.0647373212399,210.54347751154646,262.8156254149398
540,-14.743225308398095,-95.67495959309767,-184.88323443456193,-260.25833742515425,26.660299300464683,149.89737446186803,208.79668864497276,262.64375220489615
541,-14.40199108051727,-95.35238602931945,-183.34431576101747,-263.04938015804396,28.543966071401996,149.03462890213106,207.2449832077889,261.5877509548294
542,-14.136949862626887,-95.03152220562176,-182.03300845374392,-263.8557445457479,29.921552943021688,147.48548193783247,205.90427574861073,259.6462234662322
543,-13.951615055705101,-94.71294645554119,-180.96334652340053,-262.7032283454388,30.75699503468499,145.26294927202773,204.78783636033626,256.8345686544071
544,-13.8478668431227,-94.39728979004295,-180.14629669241657,-259.631944116491,31.018949721200507,142.383688948163,203.90610178322976,253.18512247729055
545,-13.82588797628059,-94.08519694619226,-179.58963952354537,-254.69508587850598,30.681694302421096,138.86762737208014,203.26654325705462,248.74701498052085
546,-13.884152095881262,-93.77728957395293,-179.29791102086241,-247.95783237977344,29.726019711359513,134.73762324996116,202.8735921382064,243.58573120817783
547,-14.019463997911675,-93.47413526613612,-179.27240105368227,-239.49637179591915,28.140069927471394,130.01918399772714,202.7286217982227,237.7823613327145
548,-14.227048003757556,-93.17622593396725,-179.51120322175393,-229.39702167566253,25.920077113419996,124.74024337894579,202.8299825360942,231.43252969756804
549,-14.500678240608153,-92.88396870269077,-180.00930997577206,-217.7554129799119,23.070946516435562,118.9310024750997,203.1730852545565,224.6450015080547
550,-14.832843381446079,-92.59769176834622,-180.75874688655912,-204.67570590237656,19.606652082509036,112.62382841262766,203.7505293171424,217.53997722140363
551,-15.214938071065724,-92.31766638556421,-181.7487407156155,-190.26980515595014,15.550412818515408,105.85319706740562,204.552270077853,210.24709566766313
552,-15.637473503142303,-92.04414443625721,-182.96591704958513,-174.65654165016028,10.934630680122531,98.65565852408992,205.56582179270117,202.9031759321052
553,-16.090300031309116,-91.77740903494175,-184.3945242613935,-157.96078563191605,5.800582745108266,91.06979906765902,206.7764916294537,195.64973495381966
554,-16.56283508297335,-91.51783356784149,-186.01668110309708,-140.31245495887563,0.19787318609845986,83.13617229041965,208.16764005675768,188.63032405804736
555,-17.044290070985127,-91.26594279520334,-187.8126454023821,-121.84538417274412,-5.816336716643644,74.89717492934221,209.72096225239713,181.9877354032782
556,-17.523890703444373,-91.02246864236595,-189.76110145505498,-102.69602829642764,-12.178290951759895,66.39684959754703,211.41678484393472,175.8611400896528
557,-17.9910861764983,-90.78839339068857,-191.83946384809744,-83.00199079927376,-18.818755642220477,57.68060510035596,213.2343724975984,170.38323301228948
558,-18.435744025278062,-90.56497414289497,-194.0241953542256,-62.90038644386331,-25.664248120240398,48.794853732743235,215.1522393547567,165.6774729329205
559,-18.848328596102142,-90.35374443582113,-196.29113604588113,-42.52607338412279,-32.6383352766064,39.786572399939125,217.14846079920045,161.85551596686477
560,-19.220061940604456,-90.15649145496708,-198.61584006418065,-22.009810757151584,-39.662960295933814,30.702799943970522,219.20098154661255,159.01494296425452
561,-19.543066335733,-89.97521024668885,-200.97391584680378,-1.4764138913679834,-46.65976054139978,21.59008682856953,221.2879167379121,157.23737345930792
562,-19.810487693305397,-89.81203927384622,-203.34136515631704,18.957014354465702,-53.551343799334056,12.493915754479767,223.38784352143566,156.5870408701263
563,-20.016599028901144,-89.66918404347061,-205.69491582752354,39.18270243126572,-60.2624948345098,3.4581131122031135,225.48008118157603,157.1098787219489
564,-20.156883092223797,-89.54883670345016,-208.01234269727064,59.103620364388036,-66.72128902638171,-5.4757285417091035,227.54495790373815,158.83314118804532
565,-20.228093320083545,-89.45309909855348,-210.27277081395482,78.63464366412144,-72.86009481209683,-14.268797615814881,229.56406174366285,161.765557570492
566,-20.22829247640982,-89.38391500826191,-212.45695487540422,97.70345453816735,-78.61645195018446,-22.88556258973935,231.5204725136026,165.89800078895948
567,-20.156868656450513,-89.34301485429141,-214.54752888682646,116.25118115991364,-83.93381831353746,-31.294207553992003,233.398970367677,171.20463338626251
568,-20.01452867731694,-89.33187382128872,-216.52922019576766,134.2327859774565,-88.762183770697,-39.466990447139835,235.18621609407404,177.64447942633632
569,-19.80326915030363,-89.35168257268018,-218.38902236204171,151.61721714011816,-93.05855512238003,-47.380511659431136,236.8708976962325,185.16335613783127
570,-19.526325684615816,-89.40332876705945,-220.1163218413167,168.387334291705,-96.78732016813235,-55.01588229425185,238.44383791795178,193.69608526492587
571,-19.18810079853195,-89.4873873635409,-221.70297434195263,184.5396133463962,-99.92050086119833,-62.358784067408386,239.89805806544322,203.16889150374232
572,-18.794071418422078,-89.60411798437734,-223.1433280813178,200.08362709595602,-102.43790456528586,-69.39941697698612,241.2287948367604,213.50188542138355
573,-18.350677517319223,-89.75346797383341,-224.43419298572795,215.04129244304016,-104.32717882312697,-76.13233614492914,242.4334687182956,224.6115226606965
574,-17.86519445275365,-89.9350800108514,-225.57475696084802,229.44587319896297,-105.5837698895072,-82.55618472951934,243.51160458438193,236.41293189564055
575,-17.345592540948854,-90.1483033330672,-226.56645251608214,243.34073132068568,-106.21078033331978,-88.67333453579059,244.46470728237446,248.8220122894646
576,-16.800387880301102,-90.3922081154919,-227.41277912589587,256.77782960395814,-106.21871809144062,-94.4894491701168,245.2960971531507,261.75721752219437
577,-16.2384882912519,-90.66560336683769,-228.11908862167925,269.8160043941782,-105.6251296861501,-100.01298609372697,246.0107125086507,275.14096700825314
578,-15.66903777924667,-90.96705952564906,-228.69234242346695,282.5190458837254,-104.45411415210992,-105.25465413863729,246.61488776999272,288.90065371093397
579,-15.101262484502387,-91.29493730814421,-229.14085029663838,294.95364313070735,-102.7357209010283,-110.226842720413,247.11611689388133,302.9692488828355
580,-14.544320764898366,-91.64742400357638,-229.47400042325265,307.1872675950735,-100.50524304675275,-114.94303878845052,247.5228116668442,317.2855333360716
581,-14.007159859411779,-92.02257734204419,-229.7019899851617,319.286079406949,-97.80242615951504,-119.41724778360316,247.8440634990555,331.7940086850864
582,-13.498381431306736,-92.41837558144695,-229.83556437508062,331.3129424068379,-94.6706196264119,-123.66343538031659,248.0894158040722,346.44455747364935
583,-13.026118053788766,-92.8327710755461,-229.8857717894148,343.32562663269135,-91.1559027147122,-127.69500712810787,248.26865227529174,361.1919269058509
584,-12.597922327895287,-93.26374376005137,-229.8637384384324,355.37526185070294,-87.30621952205088,-131.52434273267824,248.3916046498307,375.99510778172055
585,-12.220669929320557,-93.70935091554848,-229.7804679909338,367.5050860471293,-83.17055619559711,-135.1624002224155,248.46798201399423,390.8166706426814
586,-11.900477530744954,-94.16777006524826,-229.64666720355922,379.7495121731625,-78.79819033477354,-138.6184025645661,248.50722234112766,405.6221083047872
587,-11.64263613719808,-94.63733260818938,-229.47259808162403,392.1335178287124,-74.23803664981735,-141.89961577606383,248.5183657376409,420.3792208076653
588,-11.451559849412464,-95.11654656969048,-229.26795556510322,404.67234749629597,-69.53810507064718,-145.01122381613922,248.50994789995184,435.05756710753997
589,-11.330749543161339,-95.60410769292844,-229.0417688004764,417.371505508918,-64.74507815252299,-147.9563020171085,248.48991172594356,449.62799810669054
590,-11.28277051042017,-96.09889910255438,-228.80232358345546,430.22700957306404,-59.9040047351444,-150.73588747096997,248.46553495612227,464.0622775728978
591,-11.309242748287945,-96.59998092279284,-228.55710347357856,443.2258688114739,-55.058097559535526,-153.34914114110802,248.44337207065857,478.3327907576878
592,-11.410842386583022,-97.10657229371033,-228.31274733038978,456.34674668387294,-50.248615031974126,-155.79359207329261,248.4292092955618,492.41233492875165
593,-11.587312891883723,-97.61802885559783,-228.07502151367692,469.5607677628177,-45.51480223258962,-158.06544909597173,248.42803226717038,506.2739817907897
594,-11.837485218078058,-98.13381874647187,-227.8488055394929,482.8324282469988,-40.89386376405276,-160.15996059467253,248.44400641512982,519.8909992890952
595,-12.159306820748046,-98.65349955714386,-227.63809041236448,496.1205732009905,-36.420940937156004,-162.0717992743903,248.48047030825194,533.2368198593489
596,-12.549880169145407,-99.17669780144021,-227.4459891003738,509.37940827201453,-32.129067814186115,-163.7954469812192,248.5399421075261,546.2850435666421
597,-13.005511885341058,-99.70309157995193,-227.27475865355166,522.5595189672531,-28.049084535178498,-165.325554855686,248.624138962429,559.0094668808667
598,-13.52177381431716,-100.23239645590503,-227.12583322142808,535.6088752972281,-24.209491918040932,-166.65725611825616,248.73400868912674,571.3841299555752
599,-14.093577119311535,-100.76435428620512,-226.99986671626274,548.4738030864614,-20.6362382871613,-167.78641223283745,248.86977246020652,583.3833765730654
600,-14.715259841215527,-101.29872494491457,-226.8967832849688,561.0999058008681,-17.352437440552677,-168.70977772877956,249.0309767243053,594.9819216021747
601,-15.380687267410135,-101.83528148174906,-226.8158333259368,573.4329233515642,-14.378024967214461,-169.42507444519333,249.21655235057108,606.1549218269731
602,-16.08336306635368,-102.37381007923356,-226.75565259559036,585.4195183403692,-11.729367917741062,-169.9309723280559,249.42487905753646,616.8780486034822
603,-16.816547699316995,-102.91411686792605,-226.71432198223985,597.0079867221741,-9.418849254990072,-170.22698097158636,249.65385340090717,627.127566009574
604,-17.573379442757656,-103.45604378270475,-226.68942588072704,608.1488990738746,-7.454452953639716,-170.31326338189214,249.90095888594476,636.8804260746804
605,-18.34699282646575,-103.99949489048336,-226.67810794751222,618.7956893523533,-5.839377849155469,-170.19039016696019,250.1633371924499,646.1144019878082
606,-19.130629686872936,-104.5444730681279,-226.6771242945925,628.9052176019875,-4.571708547371405,-169.85905756214558,250.43786005678737,654.8082882120086
607,-19.91773931385099,-105.09112496582307,-226.68289549056752,638.4383383065498,-3.644170396837233,-169.31979554626162,250.72120184743298,662.9421999210185
608,-20.702065951641757,-105.63979036872948,-226.69155960715298,647.3605042685501,-3.0439932354253525,-168.57269238335127,251.00991304967323,670.4980004599182
609,-21.47772365812909,-106.1910508094351,-226.69902873900733,655.6424260572671,-2.7529056225480404,-167.6171594004143,251.30049466147383,677.4598737405961
610,-22.239259775764513,-106.74577184238747,-226.70105090215054,663.2607905983775,-2.747277478375963,-166.45175527259653,251.58947294284562,683.8150401375141
611,-22.981708738071955,-107.30513378762554,-226.69327806591923,670.199022808864,-2.998424223399677,-165.0740832622308,251.87347312538867,689.5545930511886
612,-23.700637481505886,-107.87064682784509,-226.67133957985587,676.448055482139,-3.4730794712496182,-163.48076844340292,252.14928976410818,694.6744130632691
613,-24.392182431692156,-108.44414787237567,-226.63091887549842,682.0070584375504,-4.134036070809366,-161.66751563938445,252.41395072427594,699.1761011042365
614,-25.053076336860865,-109.02777828527891,-226.5678303825628,686.8840703441471,-4.940946963389149,-159.62924331424864,252.66477154612272,703.0678634558989
615,-25.68066187399151,-109.62394305443286,-226.47809312233025,691.0964760202489,-5.851268198823095,-157.36028455832937,252.8993970452785,706.3652802121666
616,-26.272888636132492,-110.23525300295633,-226.3579973157292,694.6712774064272,-6.8213170100148215,-154.85464387754863,253.11582733845142,709.0918940783782
617,-26.82829105193554,-110.86445220758792,-226.20416055005882,697.6451160177888,-7.807408788271979,-152.10629772798617,253.31242603908234,711.2795663007616
618,-27.345946648730955,-111.51433306926374,-226.01357064652345,700.064016553515,-8.767029069606263,-149.10952731845887,253.48790924890938,712.9685590653219
619,-27.825416219045188,-112.18764168187496,-225.78361333534127,701.982833843198,-9.659991256239634,-145.85927353793315,253.64131517800354,714.2073171298705
620,-28.266669370556535,-112.88697638244014,-225.51208401968844,703.4643974644825,-10.449528589032369,-142.35150520299717,253.7719556102275,715.0519346288387
621,-28.67000029887807,-113.61468267857046,-225.197184128613,704.5783600989957,-11.1032702537181,-138.5835924834394,253.87935182490017,715.5653057118353
622,-29.03593915121913,-114.37274814261056,-224.8375037138416,705.3997677539734,-11.594056357185524,-134.55467693971545,253.9631588646999,715.8159706122441
623,-29.365163950752653,-115.16270125530872,-224.4319929021234,706.007383367707,-11.900554365631189,-130.26602813981862,254.02308303724286,715.8766828867318
624,-29.658416948219017,-115.98551838749974,-223.97992538286076,706.481810404774,-12.007649690855114,-125.72137490438351,254.0587980220503,715.8227393687104
625,-29.916427827851503,-116.84154298451847,-223.48085717252417,706.9034788763475,-11.90659453531796,-120.92719776317185,254.06986479701737,715.7301310180696
626,-30.13984477756844,-117.73042058159835,-222.93458353129012,707.3505705234854,-11.59491101927053,-115.89296895330654,254.05565991586582,715.6735881750775
627,-30.329173476252567,-118.65105263823455,-222.3410963514137,707.8969699280897,-11.076056438221906,-110.63132757924005,254.01531576994034,715.724605042533
628,-30.484723980987006,-119.60157148516369,-221.70054381307574,708.610332053897,-10.35886991453769,-105.15818034354376,253.9476756678235,715.9495334990734
629,-30.606566357085395,-120.57933812598907,-221.01319366330088,709.5503537019296,-9.456830418242431,-99.49272226375696,253.8512660051925,716.4078350395214
630,-30.694497230142183,-121.58096437930813,-220.27940107881213,710.7673275900967,-8.387165646681428,-93.65737648040168,253.72428745683186,717.1505725869847
631,-30.748020621842212,-122.6023608630268,-219.49958184659906,712.3010449677217,-7.169858850348828,-87.67765686857348,253.5646270215474,718.2192126526205
632,-30.766346978170166,-123.63881241688422,-218.67419183388185,714.1800975398553,-5.826605586336567,-81.58196094300067,253.36989300147533,719.6447943456224
633,-30.74841399166724,-124.68508251306432,-217.80371457064513,716.421613184273,-4.379773953859354,-75.40130305169502,253.1374756044662,721.4475061703972
634,-30.69293171406443,-125.73554791373849,-216.88865996492794,719.0314430888598,-2.8514198741434567,-69.16899898283327,252.86463654898304,723.6366950196746
635,-30.59845279760927,-126.78436431185163,-215.92957811861024,722.0048007419884,-1.2624036424121061,-62.92031296373228,252.54863134381512,726.2113145945747
636,-30.46346677835526,-127.82566293489714,-214.9270923688493,725.3273358287762,0.36835408631498756,-56.69207680992496,252.18686737141473,729.1608029056462
637,-30.286515389509855,-128.85377701189717,-213.88195491737852,728.9766087838141,2.0244487206304798,-50.52228892215127,251.77709939883565,732.4663608701911
638,-30.066324227646238,-129.86349556890136,-212.7951269877,732.9239149829824,3.692383518518472,-44.449698161703104,251.31766191753496,736.1025868252772
639,-29.801944904067586,-130.85034038468453,-211.66788371798057,737.1363920509045,5.361770969544258,-38.51337464671822,250.8077351803984,740.039405772914
640,-29.492901238220686,-131.81086031478128,-210.5019422644132,741.5793304358615,7.0253483606284615,-32.75226668864335,250.2476393489986,744.2442182958281
641,-29.139333157047236,-132.7429356598708,-209.29961017953812,746.2185971259663,8.678820507336631,-27.204741142818598,249.63914911358856,748.6841832155986
642,-28.74213269022289,-133.6460838278325,-208.06395022297156,751.0230758684461,10.320548477580465,-21.908104062980854,248.98581966116302,753.328540960544
643,-28.30306754937237,-134.5217562816932,-206.7989571480263,755.9670252065333,11.951106372167713,-16.898100001904165,248.29331377395857,758.1508819893522
644,-27.824888883472177,-135.3736157788548,-205.50974126844866,761.0322586424923,13.572729146336172,-12.208391348435379,247.56971879967702,763.1312670530363
645,-27.311420583363642,-136.20778228442757,-204.20271260971,766.210059235324,15.188673560056717,-7.870023189654535,246.82584114381694,768.2581135191546
646,-26.767627830107685,-137.03303574930192,-202.88575840429772,771.5027529414704,16.802512335242156,-3.9108836795866773,246.07546499955265,773.5297734035172
647,-26.19966252940327,-137.86096419276814,-201.56840573158462,776.92487927451,18.41737931467745,-0.3551740073638187,245.3355613877934,778.9557424128566
648,-25.614882997214686,-138.7060461765772,-200.26196012541374,782.5039126152789,20.03518170687283,2.777095088266571,244.6264331451896,784.5574534195758
649,-25.02184484804455,-139.585657743233,-198.97960997679172,788.2805014832684,21.655795115822023,5.470562409595723,243.9717812516525,790.3686211262481
650,-24.430259593605385,-140.51999516828513,-197.73648582045988,794.3082056455058,23.27625854479904,7.714914346956218,243.39867804205545,796.4351166358949
651,-23.850917221309906,-141.53190638201687,-196.54966345357153,800.6527218734586,24.889990117326835,9.505208090006668,242.93743366532152,802.814361046527
652,-23.2955692377692,-142.64662554698063,-195.43810050968568,807.3905984816889,26.486049572751234,10.84211001739341,242.62134377843643,809.5742360691629
653,-22.7767693791959,-143.89140693930642,-194.42249764056209,814.607446692987,28.0484798147684,11.732043425170971,242.48630887013536,816.7915172032225
654,-22.307670293973608,-145.29505595493825,-193.52507767617422,822.3956637718976,29.555765533684227,12.187243838372215,242.5703186375709,824.5498415335986
655,-21.901775986232636,-146.887356850763,-192.76927873543013,830.851689418933,30.980450476553898,12.225723849230915,242.91279829991498,832.9372283390234
656,-21.5726518388824,-148.69839901048533,-192.17935997002664,840.0728240810461,32.28895474316457,11.871152340310191,243.5538175821511,842.04317733477
657,-21.33359668304267,-150.75780645273102,-191.77992130338205,850.1536467165175,33.44162867758563,11.152654627758107,244.53316744900414,851.9553776187814
658,-21.197284395306333,-153.09387910536174,-191.5953411380766,861.1820810723576,34.39307061749277,10.104540207400687,245.88931453300953,862.7560712054398
659,-21.17538535900973,-155.73265876779936,-191.64913852887292,873.2351740264912,35.092722929133494,8.765963463621063,247.65824833458714,874.5181288049212
660,-21.2781802443203,-158.69693717057046,-191.96326875338835,886.3746666059984,35.485745874284525,7.180520314541577,249.87224130923894,887.3009118726513
661,-21.514179532501057,-162.00522775291714,-192.55736362846835,900.6424569740072,35.514153533176746,5.395780967266544,252.55854668878075,901.1460130006797
662,-21.88976193496809,-165.6707265646877,-193.44793045006344,916.0560737571757,35.11818169365605,3.4627565374194496,255.7380633114728,916.0729852544181
663,-22.408843617474158,-169.70029094940747,-194.64752621244182,932.6042959758234,34.23784545918274,1.4352959989145662,259.4240009157122,932.0751885237897
664,-23.072588511686913,-174.0934672442083,-196.16392684915627,950.243070478971,32.81463514395694,-0.6305897809053342,263.6205832801279,949.1158953459985
665,-23.879168584707053,-178.8416005880806,-197.99931452607117,968.891887041671,30.793293315550496,-2.6774782869668385,268.3218301895076,967.124807888252
666,-24.823582043268736,-183.92706114243936,-200.1495091984911,988.4307737243615,28.12361378420105,-4.647358163393537,273.51046230020273,985.9951404737037
667,-25.897536998362966,-189.32262167183623,-202.60327332129776,1008.6980704996477,24.762204716746517,-6.48251926143993,279.15697530412234,1005.5814179962485
668,-27.08940785425788,-194.9910214386292,-205.3417204452467,1029.489128301169,20.674162280558843,-8.12650131043683,285.218931032727,1025.6981305786387
669,-28.38427134288546,-200.88475057371406,-208.33785927193242,1050.5560646745791,15.834607369769648,-9.525090199368114,291.64051304673603,1046.119369987754
670,-29.76402845532743,-206.9460874255021,-211.55630453054653,1071.6086870655313,10.230044902511413,-10.627349469660581,298.3523927275537,1066.5795545382316
671,-31.20761735987435,-213.10741887173316,-214.9531847523307,1092.3166710871828,3.859511846901797,-11.386673845853734,305.2719488976637,1086.775327067362
672,-32.69132067998878,-219.29187003676142,-218.47627453166464,1112.3130541966354,-3.264514153076376,-11.761850803796783,312.30387934386374,1106.36868534474
673,-34.18916821698575,-225.41426483421074,-222.06537498491934,1131.1990751114204,-11.115469156104062,-11.718114665899915,319.34123584921315,1124.9913760123022
674,-35.67343330605137,-231.38243172825585,-225.6529607100748,1148.5503557925188,-19.65234049613173,-11.228175208812047,326.26690499650323,1142.2505516109509
675,-37.11521746140061,-237.09885973880284,-229.16510455929992,1163.9243856746984,-28.819605182788635,-10.273199425861138,332.95554481679056,1157.735655200493
676,-38.485113825333805,-242.46269793906256,-232.5226829304081,1176.8692272444828,-38.547484653485675,-8.843721456181267,339.27597225388223,1171.0264587126976
677,-39.753935286511236,-247.37207773016908,-235.64285408775729,1186.9333190777384,-48.75252916123958,-6.940452468409206,345.0939785810514,1181.7021404908696
678,-40.8934881350225,-251.7267214619934,-238.44079055520731,1193.6762088446083,-59.33854202659334,-4.574960025636937,350.27552988384184,1189.3512462074534
679,-41.87736702894518,-255.4307838999496,-240.83163466272183,1196.6800065217126,-70.19784931904009,-1.7701854626641296,354.69028837578276,1193.582337396329
680,-42.68174230554994,-258.3958548491442,-242.7326348786561,1195.5613083797018,-81.2129133254123,1.4392318059202103,358.21536857907455,1194.0350943557505
681,-43.28610692276902,-260.54403234579195,-244.0654102343996,1189.9833053039392,-92.25827748848842,5.006852343662637,360.7392210779765,1190.3916051274866
682,-43.67394818359991,-261.81095727979306,-244.7582808253841,1179.667753835131,-103.20281598381978,8.87458331889853,362.16551637299295,1182.3875387037372
683,-43.83330935641802,-262.1486839728406,-244.74859361635973,1164.4064543689358,-113.91224357005575,12.97309566929073,362.41688340244474,1169.8228678514076
684,-43.75720893780482,-261.5282495077115,-243.9849644630953,1144.071849246693,-124.25182306472597,17.2225285481842,361.4383433364579,1152.5717759616048
685,-43.44389139919835,-259.94180007063903,-242.4293496901268,1118.6263276207508,-134.08919198204762,21.533491543401286,359.20027162232924,1130.5913568063263
686,-42.89689328290866,-257.40413742949016,-240.05885437293185,1088.1298100221447,-143.29721957248887,25.80836751419167,355.70072223758126,1103.9287021722064
687,-42.124921903423534,-253.9535641814788,-236.86718086398815,1052.7451907601671,-151.7568022655574,29.94290927353587,350.9669594081377,1072.7259773786393
688,-41.141558864813256,-249.65193273598732,-232.86562225634867,1012.7412476707811,-159.35950849136648,33.82811148855482,345.0560649043522,1037.2231155634968
689,-39.96481449033213,-244.5838393376262,-228.08351458212337,968.4926916374415,-166.0099902437802,37.35232574570017,338.0545243659641,997.7578232854819
690,-38.61656938469368,-238.85494876776767,-222.5680817205242,920.4771245675486,-171.6280857047833,40.40357337365059,330.0767439789988,954.7626838626119
691,-37.12194382359719,-232.58948409474885,-216.38363921054042,869.2688003164299,-176.15054413425764,42.87199942125255,321.26250702843623,908.7592670200494
692,-35.508634038500084,-225.92696408435364,-209.61016469176806,815.5292278457898,-179.53231334660705,44.65240403220683,311.7734431372725,860.3492936809027
693,-33.8062478287963,-219.0183136020059,-202.3412875285816,759.9948041442368,-181.74734489856752,45.646785429474654,301.7886439981572,810.2030482689846
694,-32.04566235069814,-212.02150558799264,-194.68179102839113,703.4618003833333,-182.7888939758192,45.76683145484043,291.499610569626,759.0453624475095
695,-30.258416586228357,-205.09691473488564,-186.74475122289354,646.7691375921878,-182.6693173254643,44.936301931706886,281.1047522378436,707.639602691465
696,-28.476141683820465,-198.40257242820357,-178.64845277605014,590.7794738505918,-181.4193981017729,43.0932487162976,270.8036755828549,656.7701745188355
697,-26.730025360919644,-192.08951093004362,-170.51322492404927,536.3591844292918,-179.0872460351767,40.19202138147387,260.79149982084635,607.2241082139697
698,-25.05030257036045,-186.29737407780198,-162.4583309280659,484.3578512564164,-175.73683233317604,36.20500340212405,251.25342093118002,559.7723156614728
699,-23.46576384868883,-181.15045378062618,-154.59902706692313,435.58788940312576,-171.4462218000711,31.124018415179357,242.3597209737081,515.1511066734113
700,-22.00327507978275,-176.75428780534747,-147.0438852864056,390.80492656139364,-166.3055627389227,24.961342100673313,234.26138681245573,474.04452784248934
701,-20.687307433980987,-173.1929261264629,-139.89245001655058,350.68951873796374,-160.41489185060286,17.750255939628293,227.0864663114489,437.06804138415936
702,-19.53948304588312,-170.52694201457015,-133.2332763156943,315.8307355411343,-153.88180923397383,9.545086756309802,220.93725233850236,404.7540014670797
703,-18.578149005664276,-168.79223169648233,-127.14237479661593,286.71208616314664,-146.81907857715237,0.42069089369997853,215.8883473463762,377.53931712940306
704,-17.81799770373852,-167.9996144206858,-121.6820698300133,263.70018589649965,-139.34220882653577,-9.528637360283819,211.98562533745363,355.75561795041995
705,-17.269754193440292,-168.13521460550325,-116.9002621595511,247.03648376291844,-131.5670742822455,-20.190829484464913,209.24607507058283,339.62216249970544
706,-16.93995055270451,-169.16158079581479,-112.83007574852341,236.83228364442417,-123.60762875363851,-31.4382504764897,207.65847975110077,329.2416504819072
707,-16.830803567906997,-171.01947342150794,-109.48986125767279,233.06719313923574,-115.57376568216888,-43.13039961767926,207.1848649893635,324.5990185686885
708,-16.94020628403993,-173.630235337526,-106.88352435900028,235.59102693112095,-107.56937051913506,-55.11703299148765,207.762628670441,325.5632192917759
709,-17.26183705260387,-176.89864584522147,-105.00114524285107,244.12907807964908,-99.6906051245228,-67.24161950728245,209.30725317643316,331.8919035555128
710,-17.785382540967223,-180.71615000693473,-103.8198553149636,258.2905568503836,-92.02445750494071,-79.34502879275234,211.7154914883414,343.2388499458214
711,-18.496864501918168,-184.96435002137687,-103.30493746881467,277.5798891973538,-84.64758435542299,-91.26933987733982,214.86891331538456,359.16390684343276
712,-19.3790546257858,-189.51864368700868,-103.41111687014312,301.41047257143214,-77.62546832522673,-102.86165439330861,218.63769492135538,379.1451370191885
713,-20.411958093705714,-194.251896245427,-104.08400942509711,329.1204114478886,-71.01190556150766,-113.97779730343996,222.88453639528748,402.59278333885584
714,-21.57334486265168,-199.038036094584,-105.26169465678826,359.98970351024747,-64.84883038851018,-124.48579211494592,227.4685926539156,428.8646158562922
715,-22.839308143183825,-203.75547185312286,-106.87637842685486,393.2583222262792,-59.16647190681455,-134.26900616178065,232.24930936735237,457.2821820727653
716,-24.184831374534557,-208.29023764818896,-108.85610888447363,428.14464216774957,-53.98382206087803,-143.22887435490694,237.09006197631658,487.1474671678883
717,-25.584347416730143,-212.5387848466278,-111.12650654635819,463.8636766080199,-49.309378030111205,-151.2871257168733,241.86150472696986,517.7594787791293
718,-27.01227605883088,-216.4103515553083,-113.61246718658055,499.6446375680445,-45.14210632145726,-158.38745453460194,246.4445472297525,548.4302974014881
719,-28.443528167598846,-219.82885605490438,-116.23979517064674,534.7473810335175,-41.472564408448854,-164.4965955870985,250.73288877365022,578.5001735384362
720,-29.853967064455944,-222.73427674848023,-118.93672583748625,568.4773598353281,-38.28411017585309,-169.60477950634044,254.63505569517577,607.3513017932119
721,-31.220820150273184,-225.08349881314737,-121.63529890266199,600.1987704711788,-35.55413061942862,-173.72555942894164,258.07590432080207,634.41995703865
722,-32.52303625545256,-226.85062598910883,-124.27255049457727,629.3456461914387,-33.25522875087523,-176.8950139588407,260.9975708078346,659.2067369900578
723,-33.74158632795668,-228.02677412926806,-126.79149891178419,655.4307161441315,-31.356319884160328,-179.17034486552873,263.35986877049214,681.2847181572981
724,-34.85970656204318,-228.61938043274577,-129.14190798149681,678.0519188243327,-29.82360316490909,-180.627901755657,265.1401549095766,700.3053977773352
725,-35.86308385765881,-228.6510778169778,-131.28082140555463,696.8965270834763,-28.62138900306406,-181.36068081566575,266.33270092587503,716.0023623636848
726,-36.7399838217672,-228.15819679585078,-133.17287100149687,711.742910800195,-27.712776141584882,-181.47536081361193,266.94762576073913,728.1926930186052
727,-37.4813216857179,-227.18896680163064,-134.7903705906982,722.4600305616254,-27.060182482832154,-181.08895641342858,267.0094547616145,736.7761869281119
728,-38.08067670711584,-225.8014947019658,-136.11321485848345,729.0048189476797,-26.625741477017748,-180.32518542455753,266.55538110123666,741.7325407622963
729,-38.53425097668807,-224.06160031428178,-137.12860830531326,731.4176620341339,-26.371581521524114,-179.31066145517656,265.63330945249356,743.116701454507
730,-38.84077422184276,-222.04058726198636,-137.83065303677088,729.8162391445775,-26.260010340072704,-178.17103497966417,264.2997625874486,741.0526392527776
731,-39.00135734650474,-219.8130228759914,-138.21982546094495,724.3880110233057,-26.253630387466234,-177.02721245670773,262.61772846696823,735.7258339295894
732,-39.01929912096782,-217.45459346137315,-138.3023711420586,715.381664261098,-26.315415075459953,-175.99178343919382,260.6545189942869,727.3747859537167
733,-38.89985247796062,-215.04009180669348,-138.0896445388646,703.0978234340936,-26.408778493355168,-175.16577881537538,258.47970270489407,716.2818703721648
734,-38.64995889483361,-212.64158315174004,-137.59741676625043,687.8793337787248,-26.49767224108116,-174.63586956913014,256.16316321936415,702.7638437096979
735,-38.27796092843757,-210.32678470414498,-136.8451705587375,670.101398711871,-26.546740842961373,-174.47209584368966,253.77332421540163,687.1622957662879
736,-37.793303904010656,-208.15768279189606,-135.85539790653033,650.1618304137459,-26.521561318585455,-174.72619234271377,251.375570758562,669.8343112184311
737,-37.20623793881088,-206.18940134734336,-134.6529127868665,628.4716398558545,-26.388983181125766,-175.4305500625469,249.03088668023554,651.143572428127
738,-36.52753070814401,-204.4693260804918,-133.26418917370805,605.4461565377261,-26.11757372148875,-176.5978277220069,246.79471872207745,631.452096460805
739,-35.76819949745244,-203.03648076253555,-131.7167330490314,581.4968292061694,-25.67816174687813,-178.2212004996035,244.71607062264872,611.1127575660688
740,-34.93926834949139,-201.92114567611267,-130.03849630781897,557.0238186179392,-25.04446265654781,-180.27521004039156,242.836824287742,590.4627030803392
741,-34.05155303590881,-201.14470347095136,-128.2573399240286,532.4094539859344,-24.19375984343647,-182.71715920625206,241.19128053140773,569.8177280633955
742,-33.11547368969342,-200.71969421518781,-126.40055313687036,508.0125884014334,-23.107612010968037,-185.48897859212465,239.80590830847646,549.4676344715486
743,-32.140892633192735,-200.65005903674898,-124.49443451004608,484.16385739686586,-21.772552543892953,-188.51948005974168,238.6992885536196,529.6725666489508
744,-31.136973549350348,-200.93155001277768,-122.56393950016371,461.1618203411099,-20.180744881530526,-191.72690568541864,237.8822364127841,510.66028796405436
745,-30.112057899827477,-201.55228267543177,-120.63239769067356,439.2699468706787,-18.330556535027295,-195.02167826826386,237.35808369021376,492.6243439019563
746,-29.07355540971791,-202.49340681879693,-118.72130114060577,418.7143993672594,-16.22701406442086,-198.30926112981481,237.12310190683095,475.72304411465126
747,-28.027847270353874,-203.7298715395587,-116.85016337631671,399.68255640826754,-13.882102404831464,-201.49303943781658,237.16704573343026,460.07918858106905
748,-26.98020305110959,-205.23126172218096,-115.0364464100289,382.32222000337237,-11.314874836950512,-204.4771419736609,237.47379675627286,445.7804599923669
749,-25.934714730722348,-206.96268522406135,-113.29555083904867,366.7414503947737,-8.551344847777557,-207.16913069908733,238.02208829353629,432.88040493649237
750,-24.89425337981196,-208.88569237202313,-111.64086169702868,353.0089754207228,-5.6241381131124175,-209.48249532807912,238.78629293739868,421.3999296744036
751,-23.860455500339775,-210.95921161252474,-110.0838404911682,341.1551259445098,-2.5718917800457186,-211.33890085400094,239.73725533133515,411.3292413027359
752,-22.833746529119914,-213.14048693489886,-108.63415199469244,331.1732535666291,0.5616009083208121,-212.6701468063498,240.84315320028156,402.63017066184193
753,-21.8134083053206,-215.38600380962484,-107.29981308997058,323.0215908821284,3.7284899202087347,-213.41980693912018,242.07036974917165,395.2388182859487
754,-20.797695308200176,-217.65239084123584,-106.08735045440805,316.62551735396795,6.878186757326332,-213.54452625042688,243.38436032052184,389.06846810531266
755,-19.7840013023848,-219.89728435302217,-105.00195430547117,311.88019507490117,9.95886179518394,-213.0149583598254,244.75049595661972,384.01271496787797
756,-18.769074048064883,-222.08014307738333,-104.0476168537424,308.6535380284234,12.919065605099105,-211.81633066051378,246.13486665847432,379.94875124384436
757,-17.749271591116557,-224.16300036080693,-103.227246462289,306.78947602327884,15.709405407846788,-209.94862828174368,247.5050279720441,376.7407553400138
758,-16.720850082275085,-226.1111419376016,-102.54275152537414,306.11147093597054,18.2841966031965,-207.42639211033764,248.83067610061548,374.2433221710021
759,-15.680270551162355,-227.8936983287618,-101.99509142520682,306.42623928694155,20.603002210642085,-204.27813229187026,250.08423886287625,372.3048742003162
760,-14.624510607301849,-229.48414223934222,-101.58429523953518,307.5276323807418,22.63197149768573,-200.54536761925783,251.24137229085548,370.7709929765718
761,-13.551366468241373,-230.86068300182637,-101.3094518271504,309.20062363447823,24.344894228148934,-196.2813130303844,252.28135537761528,369.4876157476834
762,-12.459730932043943,-232.0065521258075,-101.16867726766432,311.22535208085355,25.723899337322546,-191.54925120123886,253.18737832086404,368.3040493450955
763,-11.349833944166571,-232.91017622939574,-101.1590672117097,313.38117063521685,26.759745951842895,-186.42063843252612,253.94672238328545,367.07576280000615
764,-10.223434218383757,-233.565235940591,-101.27664240526138,315.4506466784631,27.451679047043584,-180.9730080088876,254.55083207159538,365.6669293485893
765,-9.083952763893677,-233.9706117843209,-101.51629548038596,317.223460319918,27.8068495592817,-175.2877445130639,254.99528272729214,363.95269608610465
766,-7.936541868467668,-234.13022065816895,-101.87174625301296,318.5001426066826,27.83932715853133,-169.44780914093886,255.27964892028606,361.82116474691884
767,-6.788085862751186,-234.05274919502688,-102.33551167298613,319.0955929430436,27.568761001257958,-163.53549822062024,255.40728134093354,359.17507001866176
768,-5.647132754997625,-233.75129290839118,-102.8988956768077,318.84231348744726,27.018767733949804,-157.630314669764,255.38500216493355,355.933143277797
