time,ax,ay,az,gx,gy,gz,accmagnitude,gccmagnitude
0,13.02044746386055,-250.39200303668258,-49.07010246562905,-10.789436184915584,64.02948893258478,-1.911287695242201,255.47880048754288,64.79045561818593
1,12.8284137272006,-250.70127149574725,-49.30439253445893,-11.366652473954302,63.55903910344057,-2.149813346531298,255.8191861671115,64.49461591080629
2,12.635737389132892,-250.99107286781918,-49.53087706022333,-11.967867381209174,63.099015374160196,-2.3896429917505713,256.1391882104102,64.21596711821748
3,12.44548394204201,-251.2581216368438,-49.747015841693646,-12.586404073231336,62.65257943927519,-2.6277986384760306,256.43525532200107,63.95589028850535
4,12.260588384541375,-251.49942621073492,-49.9504407789682,-13.216094663850626,62.22264654113538,-2.861368227749136,256.7041503336853,63.71569483122498
5,12.08377673793817,-251.71235958429187,-50.13901237474013,-13.851473227691345,61.81183584608094,-3.0875669724735744,256.9430262729397,63.496622419438
6,11.91749745407521,-251.89472456518587,-50.31086674366084,-14.487926095586724,61.422431023727626,-3.3037939803846017,257.14949563763605,63.299847843142686
7,11.763864785566815,-252.04481200873903,-50.464451929158,-15.121791843676672,61.05635272535986,-3.5076823043393413,257.3216912302811,63.12647622415734
8,11.624615316981881,-252.16145058724206,-50.598553157891175,-15.750405984584386,60.715143908442876,-3.697140689786917,257.45831711383465,62.97753600191134
9,11.501078151803677,-252.2440466157526,-50.71230722526233,-16.372088544885983,60.39996809133703,-3.870385604426984,257.5586883309794,62.853967207363944
10,11.394158755324252,-252.29261244625167,-50.80520654549614,-16.98607622155288,60.11161985974729,-4.025962630149325,257.6227580657886,62.756604890071586
11,11.304336051523935,-252.30778193472807,-50.87709361625195,-17.592404289683632,59.85054646990919,-4.162756931284201,257.6511309448368,62.68615819755146
12,11.231671979165297,-252.29081156425056,-50.92814686695949,-18.191746562451243,59.61687924528486,-4.2799932221271995,257.64506127693824,62.64318644630976
13,11.175832361302515,-252.24356613410436,-50.95885914113312,-18.785224261793168,59.41047352944432,-4.377226352419871,257.6064353892757,62.628074381936685
14,11.13611766828137,-252.16848853234026,-50.97001032081418,-19.374196465055107,59.230956048288206,-4.45432420516417,257.53773784821146,62.64100946105504
15,11.111502041964295,-252.06855382055923,-50.96263572458675,-19.96004567164644,59.07777847040388,-4.511444963687427,257.4420020602836,62.68196417692841
16,11.100678815591516,-251.947208479782,-50.93799190998531,-20.54397185771542,58.950275630711374,-4.549010917344953,257.3227463439625,62.75068606539212
17,11.10211078413403,-251.80829617364293,-50.89752144710863,-21.12680714036415,58.84772632037367,-4.567680874507094,257.18389704040516,62.84669710104048
18,11.114083677690662,-251.655971903522,-50.84281806451782,-21.70886098132307,58.769413891168576,-4.568323006823892,257.02970070701787,62.96930291595418
19,11.134761547982496,-251.49460701441055,-50.7755932166704,-22.289802982113855,58.714683388993876,-4.551989598531019,256.8646279438716,63.11761092477688
20,11.16224290767945,-251.32868802543805,-50.6976446421774,-22.868587103828254,58.682991728559244,-4.519894724562607,256.6932718109472,63.29055530701173
21,11.194616366875778,-251.16271254230875,-50.61082707279109,-23.44341795772712,58.67394767561803,-4.4733953502859585,256.520243977976,63.48692608984227
22,11.230014243991151,-251.00108557862677,-50.51702503730568,-24.011757027891527,58.6873390786602,-4.413975775818208,256.3500717511792,63.7053993540861
23,11.266662329229007,-250.84801957856533,-50.418127681279664,-24.570364633048516,58.723145706216634,-4.343234783729777,256.1870990555654,63.944565776827616
24,11.302923849506222,-250.70744120648888,-50.316005720235886,-25.11537230093887,58.78153700167628,-4.262874339053132,256.03539424930057,64.20295521501426
25,11.33733598019817,-250.58290724681055,-50.21249103024078,-25.642379974273112,58.862854947273455,-4.174688305040084,255.89866702299273,64.47905573074668
26,11.368638036181338,-250.47753069531416,-50.109359622547714,-26.146572846392825,58.96758295643184,-4.080549470184616,255.78019549053394,64.7713262399381
27,11.395791351628237,-250.39391694970317,-50.008318432223476,-26.622853299640393,59.096302220092305,-3.982393315359741,255.68276342294408,65.07820267080838
28,11.417991255278796,-250.33410979935522,-49.910995525634135,-27.065984071649595,59.24963722120562,-3.8821973880963427,255.6086072467907,65.39809803633986
29,11.434671389562876,-250.29954786350666,-49.81893249491712,-27.4707392081187,59.42819230982597,-3.7819557674531645,255.55937319590697,65.72939716667715
30,11.445500388902987,-250.29103347862508,-49.733577278389625,-27.832059566155756,59.6324814316426,-3.6836487055215077,255.53608621194385,66.07044711385592
31,11.45037103544432,-250.30871680275695,-49.656275410234635,-28.145209704459226,59.86285340459211,-3.589208007067501,255.5391328918928,66.41954453195423
32,11.449382412849689,-250.35209766628867,-49.588257912472166,-28.405932967036087,60.119415552742666,-3.5004790799802903,255.5682606049305,66.77492167487829
33,11.442816067757303,-250.42004672227478,-49.53062504258237,-28.610601382554464,60.40195897736549,-3.4191809252677072,255.6225941711072,67.13473297384738
34,11.431107674894028,-250.51084624232396,-49.484326755938106,-28.756356641226574,60.70988915934164,-3.346865651802326,255.70067066944458,67.49704434723866
35,11.414816102464938,-250.62224976545772,-49.45014223267641,-28.841237933031593,61.04216582172228,-3.2848793640649254,255.80049214667667,67.85982736448177
36,11.39459186918686,-250.7515587750227,-49.428661467387876,-28.86429192381476,61.3972559559664,-3.2343264418576276,255.91959512058125,68.22096009325612
37,11.371146635414474,-250.8957136288854,-49.42027168049051,-28.825659727316214,61.77310360870189,-3.1960392683592302,256.05513478135236,68.5782359350966
38,11.34522478617704,-251.05139509677173,-49.42515046960577,-28.726635572013745,62.16711944752713,-3.1705553312813772,256.20398075738893,68.92938108210417
39,11.317577753005848,-251.21513207285577,-49.44326649404511,-28.569692130085414,62.576192286008876,-3.1581033351172265,256.3628203131015,69.2720804946186
40,11.2889416519683,-251.38341046477078,-49.474387444793486,-28.358468266821372,62.996723664784,-3.1585995884696776,256.5282640927821,69.60401157055153
41,11.260018830955467,-251.55277817155064,-49.51809431942808,-28.097716321443265,63.424685305847696,-3.171655517679996,256.69694930501015,69.92288402239964
42,11.231463691224688,-251.7199415484138,-49.57380049122666,-27.793207963898073,63.85569790358072,-3.1965966811339643,256.8656356179886,70.2264840201473
43,11.203872678603975,-251.88184960227858,-49.640773655792685,-27.45160012427388,64.28512847762957,-3.2324930716945564,257.0312897782969,70.51272053057507
44,11.177777896888665,-252.03576309294237,-49.71815867869362,-27.0802652112507,64.7082025442105,-3.2781998150101526,257.1911558503805,70.77967199627905
45,11.153643596294732,-252.17930664513122,-49.80499982729265,-26.6870924075285,65.12012669788811,-3.3324066708869458,257.3428089584503,71.02563188163101
46,11.131864846507465,-252.3105029628041,-49.900261645981345,-26.280268878105115,65.5162167842817,-3.3936940868165903,257.4841915173225,71.24915195255006
47,11.112767864935334,-252.42778928398403,-50.002848449806514,-25.868051128437322,65.8920266301935,-3.460592984582955,257.6136320935315,71.44908235858658
48,11.096611532588472,-252.53001720417376,-50.111622858551556,-25.458537617949897,66.24347224252267,-3.5316450452345896,257.72984808000683,71.62460768373148
49,11.083589490276674,-252.6164378033265,-50.22542399022673,-25.059454170906605,66.56694646133231,-3.6054600723936385,257.83193417374184,71.77527817332013
50,11.07383198345159,-252.68667460014436,-50.34308595744694,-24.677963593667997,66.85941924084622,-3.680767126878335,257.9193392035163,71.90103530513016
51,11.067406592202964,-252.74068724208317,-50.46345715664197,-24.320509872807037,67.11851903805771,-3.7564565642645786,257.99183419083136,72.0022306838321
52,11.064317305954582,-252.77872904010016,-50.585420470805325,-23.992705136916925,67.34259124605943,-3.8316108314437085,258.0494746632466,72.07963688859967
53,11.064501917228075,-252.80130150031087,-50.70791401826626,-23.69926427873799,67.53073029912689,-3.905522791691269,258.09256021169494,72.1344485185738
54,11.067828121340996,-252.8091088786348,-50.82995169503319,-23.443988156271768,67.68278308403838,-3.9777013362890576,258.12159410676276,72.1682714619969
55,11.074088947197845,-252.80301543780558,-50.95064259479214,-23.229792194483363,67.79932262498428,-4.047864993733976,258.1372454290404,72.18309850549639
56,11.082998333769057,-252.78400751736618,-51.06920836119072,-23.058773528246054,67.88159257465423,-4.115925057699003,258.14031561180985,72.1812698208129
57,11.094187841551369,-252.75316181139107,-51.18499749742606,-22.93230694568122,67.93142468421195,-4.181960332787422,258.13171059083237,72.16541754676811
58,11.107205532300886,-252.71162048685272,-51.29749560497095,-22.85115804368731,67.95113295891538,-4.246185902104206,258.11241899750945,72.13839451930178
59,11.121517856576114,-252.66057307011422,-51.40633054706863,-22.81560131741683,67.94338947797935,-4.308918379939874,258.08349613589286,72.10318810502154
60,11.13651496351414,-252.60124444957594,-51.51127175779622,-22.825531368524814,67.9110877765723,-4.370539999274711,258.04605294549884,72.0628210138308
61,11.151519341565002,-252.53488789788366,-51.612223347977476,-22.880556872373678,67.85720021658732,-4.431463651064982,258.00124878590975,72.02024185100301
62,11.165797347469649,-252.46278170838673,-51.709211169623565,-22.980069116096246,67.78463590016969,-4.4921006410113495,257.9502866693128,71.97820893800954
63,11.178573100876859,-252.38622789924815,-51.802364481832505,-23.123279504912176,67.69610544120206,-4.552832460270989,257.8944095253316,71.9391715194638
64,11.189044300086227,-252.30655147081129,-51.891893298409414,-23.3092231705304,67.5939983893336,-4.6139873342251265,257.83489620642416,71.90515286403735
65,11.196399563566736,-252.2250988409777,-51.97806291441878,-23.536728515207226,67.48027837013937,-4.675821800641387,257.77305616419505,71.87763995624118
66,11.199836862075589,-252.1432342226848,-52.06116748334993,-23.804355088950913,67.35640007955138,-4.738507134369348,257.71022193658706,71.8574844419962
67,11.198582547144362,-252.06233278694006,-52.14150474253647,-24.11030459729947,67.22325115989197,-4.802120102139905,257.647738706248,71.8448192329609
68,11.191910488177916,-251.98376953725906,-52.21935392785072,-24.45231208205102,67.08112075722826,-4.866637300915171,257.5869502599164,71.83899476009945
69,11.1791609315622,-251.9089030575607,-52.29495852481859,-24.827526410875027,66.9296953317791,-4.9319322136905,257.5291808357514,71.8385384057808
70,11.159758851252965,-251.8390537961392,-52.3685148439724,-25.232391054999923,66.76808115856706,-4.997774120645326,257.47571271143767,71.84114018761838
71,11.133231661205333,-251.77547729228968,-52.44016664496285,-25.66253741115956,66.59485193137834,-5.063828130762642,257.4277599675066,71.84366722041044
72,11.099226085554294,-251.7193335693718,-52.51000533395993,-26.112703160622527,66.40811892588096,-5.1296558344671315,257.38643951885143,71.84220864544731
73,11.057523746701893,-251.67165456431422,-52.578074723136545,-26.57668700953035,66.20562026909509,-5.194716403552736,257.3527410244182,71.83215147137861
74,11.008054820861462,-251.63331180004502,-52.64437900272053,-27.047348657163656,65.98482506963698,-5.258368349605208,257.3274975392244,71.80828621208717
75,10.950909085284476,-251.6049865920935,-52.70889243006911,-27.516659389184653,65.74304759532082,-5.319872540301577,257.31135882637415,71.76493956964558
76,10.886343791130715,-251.5871450154032,-52.77156925625689,-27.975804833186054,65.47756641326319,-5.37839739385965,257.30476919081497,71.69612991646282
77,10.814787889034456,-251.58001960965612,-52.832352555600764,-28.415337623400386,65.18574345187935,-5.433027347833859,257.3079514868772,71.59574012307897
78,10.736842187241134,-251.58359926023783,-52.89118087008504,-28.825374333589888,64.86513830368187,-5.482775665213289,257.320898473942,71.45770144449783
79,10.653275146489849,-251.59762786839843,-52.94799189120943,-29.1958282735268,64.51361376462339,-5.526602397745358,257.3433719571204,71.27618179239042
80,10.565014255541373,-251.6216115483517,-53.00272274909318,-29.516667766640165,64.12942958521502,-5.563437939500821,257.37490937403754,71.04577183998951
81,10.473133157971372,-251.654833476454,-53.05530687374896,-29.778188428739586,63.711322590263705,-5.592212145056736,257.41483697978475,70.76166299788657
82,10.378834774136969,-251.6963753144051,-53.105667842915445,-29.97128774816833,63.25857249333785,-5.611888506734453,257.4622886777074,70.4198121962849
83,10.28343064301552,-251.74514422037691,-53.15371108542358,-30.08773083667639,62.77105366941054,-5.62150242901583,257.51622972436354,70.01708941018791
84,10.188316803213556,-251.79990462317932,-53.199314690074004,-30.120397427043518,62.24927375775042,-5.620202242059982,257.57548477444243,69.5514048474728
85,10.09494682017682,-251.85931398203917,-53.242320814942325,-30.06350181581585,61.694400259612856,-5.607291273482169,257.638769837639,69.02181361923908
86,10.004802883518797,-251.9219615895587,-53.28252923993132,-29.9127791876185,61.10827630948132,-5.582269048693005,257.70472757908453,68.42859643267761
87,9.919366015196692,-251.98640912175333,-53.319694373240836,-29.665633335159054,60.49342657682247,-5.544869521822435,257.7719650056032,67.77331529845713
88,9.840086279634704,-252.05123127557627,-53.353526465531104,-29.32124210337036,59.853053864670834,-5.495094157095124,257.8390921053409,67.05884343494336
89,9.768353599682843,-252.11505469184064,-53.38369701382683,-28.880618008604152,59.191026496188435,-5.433237678480144,257.90475970082804,66.2893685848821
90,9.705469537331734,-252.1765935344213,-53.409847631376856,-28.346622509458967,58.5118560939911,-5.359904396815506,257.96769479072054,65.47036894596286
91,9.65262029517783,-252.23468047839177,-53.43160130645422,-27.723933368903836,57.82066491274926,-5.276013263015132,258.0267319511671,64.60856092187336
92,9.610851247642316,-252.28829226913055,-53.448575057623145,-27.018965494105057,57.12314153541077,-5.1827902321128505,258.08083978568425,63.7118179949149
93,9.581043490586246,-252.33656934578065,-53.4603933297723,-26.23974670937891,56.425483560036795,-5.081747146975121,258.1291418110119,62.789060330090344
94,9.563893121461577,-252.378829266281,-53.46670173603915,-25.395751270065123,55.7343259822342,-4.974647113741355,258.1709314661154,61.85011539413991
95,9.559894082991706,-252.41457387144018,-53.46718074446959,-24.497695568594107,55.05665440425135,-4.863457197248332,258.2056811305915,60.90555098304097
96,9.569325295306117,-252.4434903500536,-53.46155878385751,-23.55730218112338,54.39970299731076,-4.75029016575784,258.23304522966464,59.96648350140382
97,9.59224247474269,-252.46544663842258,-53.449624323494554,-22.58703976326934,53.77083822614321,-4.637337877718832,258.2528577745517,59.04436587489809
98,9.628474653807313,-252.48048183442413,-53.43123685543684,-21.599846979688827,53.17743055830872,-4.526799616457147,258.26512499337065,58.15076081525482
99,9.677625174288194,-252.48879245287978,-53.40633710524138,-20.60884851737716,52.62671756454807,-4.420809132693339,258.2700139259685,57.29710610730037
100,9.73907690465397,-252.49071541260457,-53.37495690670684,-19.627070471486146,52.12566283713806,-4.321364269404788,258.2678379407078,56.49447910943954
101,9.812001553557428,-252.48670867289678,-53.33722894880704,-18.667161469645315,51.68081588563395,-4.230262796610075,258.2590401144639,55.75336781724321
102,9.89537308347775,-252.4773304088287,-53.29339618390387,-17.741125349435897,51.29817847211154,-4.149047534623782,258.2441753053102,55.08345570326495
103,9.987985277693735,-252.46321749914637,-53.24382020741591,-16.860071309363565,50.98308262118502,-4.078963106351727,258.22389153462825,54.493427133367
104,10.088473407625502,-252.44506396205966,-53.18898748877748,-16.033988077655767,50.74008483135618,-4.020925841741172,258.1989110650561,53.990799472912315
105,10.195339683335773,-252.4235999282375,-53.12951213072882,-15.271549319717268,50.57288000431725,-3.9755075399436577,258.17001146309383,53.58178704400016
106,10.306981873300316,-252.39957179626862,-53.06613403319516,-14.579957678558895,50.484237461423355,-3.942933035294376,258.13800702018364,53.27120085380873
107,10.421724279487476,-252.37372423564213,-52.99971190161964,-13.964834076951197,50.47596021542953,-3.9230908504735553,258.10373103520806,53.062386459201065
108,10.537850150354526,-252.3467845476204,-52.931211173695885,-13.430157020373064,50.54886750901678,-3.915555652724535,258.0680194376976,52.95720056083664
109,10.653634580187719,-252.31944958706998,-52.86168732383263,-12.978253738004932,50.702799672439895,-3.919620721224488,258.0316960082805,52.956025160939646
110,10.767377042745874,-252.2923751586161,-52.792265064793014,-12.609841457831033,50.93664369404422,-3.9343381720913553,257.99555918436755,53.05781658283787
111,10.877432993721182,-252.26616767038507,-52.724113900595505,-12.324113471310197,51.248377515392896,-3.958564320371579,257.96037030776773,53.26018541609564
112,10.982244346555479,-252.24137782761053,-52.658420568462496,-12.118861494487277,51.63513085055767,-3.9910073724119304,257.9268432001603,53.5595025062793
113,11.080368863398528,-252.21849612653386,-52.596359243747806,-11.990623722236524,52.09326017857192,-4.030274711004208,257.8956350081238,53.95102545016261
114,11.170508456611328,-252.1979497691068,-52.53906081281986,-11.934847328891077,52.61843540844275,-4.074917377741551,257.8673382080769,54.429039748471624
115,11.25153609405266,-252.1801004122091,-52.487582774983245,-11.946055193745604,53.20573556493437,-4.12346991709669,257.8424734988278,54.987008906876994
116,11.322520594033977,-252.16524204105204,-52.44288126316242,-12.018009146780443,53.84975071410315,-4.174484418736113,257.82148315661107,55.61772837756801
117,11.3827482241086,-252.15359834250398,-52.40578631263646,-12.143865416667913,54.54468723867262,-4.226558264107139,257.8047244226842,56.31347912465272
118,11.43173977892129,-252.14531927147254,-52.376981011854696,-12.316321311072276,55.28447345974168,-4.278355657102236,257.79246269315564,57.06617746381313
119,11.469261814047185,-252.14047696879166,-52.35698471963831,-12.527754605990763,56.062862509841175,-4.3286234421497545,257.7848646446388,57.867518431705555
120,11.495331035335893,-252.1390616687232,-52.34614025295757,-12.770358146247764,56.87352940717954,-4.37620198251495,257.7819918559481,58.70911027592706
121,11.510211402399728,-252.14097859453568,-52.34460486559526,-13.036271698955005,57.71015957690722,-4.420032020349557,257.7837958465905,59.58259787282188
122,11.514404047107389,-252.14604697003944,-52.35234491491948,-13.317711513679297,58.566526630874314,-4.459158506444809,257.7901156193435,60.479773121485074
123,11.508630424071397,-252.15400210888419,-52.36913428220557,-13.607095985250155,59.43655797485029,-4.492732401701178,257.800678679454,61.39267069622817
124,11.493809217619349,-252.16450111445218,-52.39455676652914,-13.8971640397748,60.31438762130044,-4.520011437082199,257.81510611811984,62.31364796635314
125,11.471027604953624,-252.17713217727365,-52.42801271703392,-14.18108199413389,61.194396270433316,-4.540360775643225,257.8329218247849,63.235448364891376
126,11.441507664848993,-252.19142697688346,-52.46873008521892,-14.452535013974748,62.0712391571034,-4.5532544228853675,257.8535654140385,64.1512479834099
127,11.406569049600915,-252.2068753814233,-52.51577992921227,-14.705800883921453,62.93986239109281,-4.558278058682249,257.8764081307442,65.0546857583306
128,11.367589418580682,-252.2229414842573,-52.5680962414951,-14.935806176176696,63.79550874633854,-4.555133727996958,257.90077083174225,65.93987840297285
129,11.325964418965818,-252.23908002015614,-52.62449978694246,-15.138167336384791,64.6337142668242,-4.543646553196955,257.92594312201544,66.8014222191041
130,11.283069061556741,-252.25475241511532,-52.683725398715936,-15.30922093618385,65.45029767186513,-4.523773310449405,257.9512028850025,67.63438490778869
131,11.240222130511341,-252.26944210491894,-52.744451915520514,-15.446047848502573,66.24134521129267,-4.495612321394066,257.9758357571214,68.43429122765959
132,11.198654854550131,-252.28266909154138,-52.80533374434114,-15.546495266277448,67.00319410792424,-4.4594136785704,257.999154365136,69.19710659490633
133,11.159484597482795,-252.29400376375517,-52.86503298186347,-15.609198588851962,67.73241782226032,-4.415588447686214,258.02051717061414,69.91922237102546
134,11.123693921919633,-252.30307978021756,-52.92225112284395,-15.63360277396186,68.42581599936766,-4.364715258760633,258.03934654465485,70.59744567841165
135,11.092115090344919,-252.3096055460028,-52.97575952702605,-15.61998036736103,69.08041119204056,-4.3075426292393155,258.05514545099004,71.22899530415118
136,11.065419883071975,-252.31337377103242,-53.02442791648411,-15.569441543552266,69.69345350866516,-4.2449854406701295,258.06751208561,71.8115038915964
137,11.044114496793712,-252.31426878476307,-53.0672502182258,-15.483930460431274,70.26243345351247,-4.1781142118948695,258.07615200569853,72.34302549592242
138,11.028539199528945,-252.3122714611452,-53.103367079901616,-15.366202253396384,70.78510256763894,-4.108136169718208,258.0808874548122,72.82204690980292
139,11.01887235032921,-252.30746159231822,-53.132084400353314,-15.21977606402854,71.25950103852318,-4.036367601723876,258.0816635763229,73.24750096306688
140,11.015138384587459,-252.3000173692088,-53.152887262699316,-15.048861359050765,71.68399111058179,-3.9641975931790947,258.0785510405801,73.61878010401192
141,11.017219436816049,-252.2902114495077,-53.165448762871804,-14.85825703885018,72.05729479259541,-3.8930440067923944,258.07174446243056,73.93574878006852
142,11.024870349588017,-252.27840306814034,-53.16963340817308,-14.653225046398148,72.3785340185715,-3.8243034056663445,258.06155600119695,74.19875333382043
143,11.037736782986983,-252.265025842512,-53.16549501239695,-14.43934204926244,72.64727114378397,-3.7592974231255853,258.04840377754374,74.40862828736263
144,11.055375944104588,-252.25057133368685,-53.15326929070492,-14.222334125199351,72.86354750312908,-3.6992187158737155,258.03279518906174,74.56669801083977
145,11.077279153176088,-252.23556893276876,-53.13336158819583,-14.007900254566241,73.02791773188157,-3.6450800060369133,258.0153057368109,74.67477287485549
146,11.10289515577238,-252.22056305848037,-53.106330314004786,-13.80153093946416,73.14147762325005,-3.597669773634642,257.99655439690076,74.73513908525601
147,11.131652880169826,-252.20608885715413,-53.07286670970973,-13.608328599709273,73.20588344973524,-3.557517895159932,257.9771767736825,74.75054151735388
148,11.162982285643258,-252.19264766257302,-53.03377160248348,-13.43283670695184,73.22336092281742,-3.52487396831707,257.95779733696884,74.72415906517382
149,11.196332049381937,-252.1806835521327,-52.989929813549985,-13.278884971439956,73.19670234790543,-3.4997002683857983,257.9390021301756,74.65957236034228
150,11.2311830485214,-252.17056243647897,-52.94228293874335,-13.149458099767365,73.12925104562333,-3.4816802957626707,257.92131345180513,74.56072416600423
151,11.267056858188432,-252.16255509030947,-52.89180132214828,-13.04659529428913,73.02487268344626,-3.4702427576315786,257.9051680154452,74.43187318144645
152,11.303518802552526,-252.15682526166108,-52.839456187403165,-12.971326445816999,72.88791370639056,-3.4645996709142652,257.8908998715026,74.27754227549005
153,11.340175509992612,-252.1534235587993,-52.7861929833124,-12.923648900881515,72.72314753682353,-3.463796181911498,257.8787289824589,74.10246227925269
154,11.376667451233207,-252.15228737491745,-52.73290699084911,-12.902546098800812,72.53570963488622,-3.4667687693248936,257.8687559365618,73.91151246625968
155,11.412657500796392,-252.15324673819322,-52.68042220503857,-12.906046706900552,72.33102284356883,-3.472407832279698,257.8609629398759,73.70965875677986
156,11.447817032008993,-252.15603560128497,-52.629474520430406,-12.931320485082683,72.11471460553071,-3.479620355629007,257.85522088645325,73.50189046623058
157,11.481811330980333,-252.16030767097857,-52.580700217586084,-12.97480519430473,71.89252756317649,-3.4873884394706613,257.8513019085103,73.2931560362699
158,11.514286123356854,-252.1656555114407,-52.5346304862766,-13.032357538441948,71.67022475361115,-3.4948199593813976,257.8488963969341,73.088297679692
159,11.544856742092305,-252.17163144303763,-52.49169215504022,-13.099420465992152,71.453490211543,-3.5011884211235524,257.8476331497066,72.89198438267248
160,11.573101019461717,-252.1777687228842,-52.4522140347686,-13.171199187484612,71.24782550491537,-3.5059601025184794,257.8471010975381,72.70864246160829
161,11.598556493537455,-252.18360159733353,-52.41643755637626,-13.242838897199327,71.05844275682341,-3.508807707498758,257.8468709889202,72.54238305560524
162,11.620722071648679,-252.18868305570214,-52.38452992682878,-13.30959815233444,70.89015516210542,-3.509610797354103,257.84651553812296,72.39692659328294
163,11.639063963814506,-252.1925995075469,-52.35659796782502,-13.367012790556295,70.74726685347879,-3.5084440355774484,257.84562689631815,72.27552528326468
164,11.65302554018334,-252.19498211444687,-52.33270109623555,-13.411045898595665,70.63346503394608,-3.5055547551141695,257.84383085478214,72.18088581439476
165,11.662040733562458,-252.19551500206993,-52.31286239172114,-13.438219661091141,70.55171828820086,-3.5013316383151025,257.84079776862274,72.11509544420332
166,11.665550552302525,-252.19394088885832,-52.297077170233976,-13.445725082398605,70.50418562261322,-3.4962665266043906,257.83625058530134,72.07955525751785
167,11.663022082640639,-252.19006468545186,-52.285318796619066,-13.431505777819424,70.49214087804964,-3.490911645147124,257.8299704341837,72.07492445670923
168,11.653969105103778,-252.1837553989967,-52.27754163555001,-13.394312414897366,70.5159167104224,-3.4858348647298465,257.82180003977993,72.1010791301812
169,11.637973258118556,-252.1749464107877,-52.273681210582915,-13.333725051871918,70.57487148912989,-3.4815759466882317,257.8116449865513,72.15708820227718
170,11.614704565930445,-252.16363403662984,-52.273651963335645,-13.25014167038593,70.66738141399871,-3.478606853643137,257.79947276711204,72.24120840173404
171,11.583940046272913,-252.14987422626024,-52.277343460996676,-13.144732727855365,70.7908590311402,-3.4772989987068925,257.78530958248166,72.35089925106202
172,11.545579069589726,-252.13377724285237,-52.28461628739713,-13.019363577227216,70.94179820363503,-3.4778997015008923,257.7692349268264,72.48285834941095
173,11.499654274863927,-252.1155001869522,-52.29529896026731,-12.876488960366617,71.11584450867537,-3.4805192191160215,257.75137404245544,72.63307660499903
174,11.446337193798485,-252.09523737893142,-52.30918700975663,-12.719026132624508,71.30788903384212,-3.485128723775725,257.7318884534534,72.79691253009186
175,11.385938230298777,-252.07320896026965,-52.32604492657675,-12.550215101362758,71.51218267765401,-3.491568694247986,257.7109650634737,72.96918418894595
176,11.318901193066292,-252.04964854395936,-52.34561115275776,-12.373475618820121,71.72246738548588,-3.4995664552816192,257.688804681735,73.14427688069472
177,11.245793089808675,-252.02479112103853,-52.36760576635095,-12.192270798318926,71.93212033658453,-3.5087610289730775,257.66561112828276,73.31626419469488
178,11.167290264749319,-251.9988625142559,-52.391740103832994,-12.009986544005196,72.1343069552752,-3.5187330385817135,257.64158208520985,73.47903974116853
179,11.084162133164282,-251.97207143238637,-52.41772727082795,-11.829834512682728,72.3221387009681,-3.5290371488623844,257.61690257423464,73.62645663864838
180,10.997253747399975,-251.94460475572868,-52.445292289971896,-11.654784179620146,72.4888318229987,-3.5392344766608796,257.5917414827846,73.75247170451276
181,10.907468288185362,-251.91662626078266,-52.47418061023106,-11.487526876466271,72.62786355967341,-3.548922588856293,257.56625113411224,73.85129119192806
182,10.815750378336102,-251.88827868082157,-52.50416397021882,-11.330471594528925,72.73312251447021,-3.5577611111489036,257.54056963726805,73.91751476994219
183,10.723070867813076,-251.8596887772979,-52.53504312418139,-11.18576921933726,72.79905007763918,-3.565491540207816,257.51482562984904,73.946274198834
184,10.630413410037116,-251.8309748855332,-52.566647509917814,-11.055359120889152,72.8207697671887,-3.571950489136304,257.48914492189647,73.93336282789667
185,10.53876277135326,-251.8022561794792,-52.59883239466451,-10.941030095238611,72.7942012923869,-3.57707621099694,257.46365841243426,73.8753517261998
186,10.449094505578262,-251.7736627276306,-52.63147429358718,-10.844486768854903,72.7161560815663,-3.5809087757343687,257.43851051999394,73.76968806521303
187,10.362365492930827,-251.74534534439303,-52.66446547295138,-10.767412685808019,72.58441108767656,-3.5835846917140732,257.413867298534,73.61477143594335
188,10.279504913820356,-251.71748431372924,-52.697708164273145,-10.711522151114158,72.39775805765188,-3.5853270602866725,257.3899234443768,73.41000424930976
189,10.201405440761594,-251.6902962776687,-52.73110888404785,-10.678594234959599,72.15602625791259,-3.586432541057237,257.36690757077037,73.15581333773042
190,10.128914652880043,-251.66403888527913,-52.76457312450107,-10.670483987827993,71.86007787191785,-3.587256481451727,257.3450854043084,72.85364131063085
191,10.06282676762232,-251.6390130539123,-52.7980006496484,-10.689107813980092,71.51177674924996,-3.5881975035815397,257.3247608040472,72.5059079339679
192,10.003874702202014,-251.615562756572,-52.83128160202339,-10.736402065778854,71.11393263724494,-3.589682653467889,257.3062745549007,72.11594355262702
193,9.952722316890377,-251.59407212420496,-52.864293555989725,-10.814256179104845,70.67022423142275,-3.592153958549796,257.2900007440899,71.68789811375233
194,9.909956605956715,-251.57495956588386,-52.89689956270887,-10.924423934614126,70.18510519069912,-3.5960569606684745,257.2763404242505,71.22663050725681
195,9.876079689046042,-251.55866878942965,-52.92894715492908,-11.068418505318794,69.66369764396858,-3.6018315183638294,257.2657124313268,70.73758364480236
196,9.851500691310365,-251.54565702143265,-52.960268275732076,-11.247398591635344,69.11167771391253,-3.6099049291467016,257.2585416424204,70.22665095022882
197,9.836527837530497,-251.5363811440975,-52.9906801922915,-11.46205390074147,68.53515727031558,-3.6206872326002904,257.25524539840313,69.70003975877987
198,9.831361158742208,-251.53128268577467,-53.019987556577306,-11.712498328232483,67.94056557446848,-3.6345684225938766,257.2562190552114,69.16413657500794
199,9.836086095593268,-251.53077259783436,-53.04798574164201,-11.998178434061645,67.33453379458972,-3.651917210557582,257.2618216129993,68.62537833456408
200,9.850668142191802,-251.53521664950293,-53.07446543258878,-12.317803349922402,66.72378468578862,-3.673080905483292,257.27236223792175,68.09013290912101
201,9.87494869238334,-251.5449221937148,-53.09921835516285,-12.669300426586815,66.11502912551353,-3.6983858457796677,257.28808839616323,67.56459121262031
202,9.908642430921528,-251.56012696109542,-53.122044075273536,-13.049799036358836,65.51487068488416,-3.7281376012490903,257.3091762440714,67.05467245318812
203,9.951336786342612,-251.58099030642745,-53.14275788238949,-13.455643188153875,64.9297189417247,-3.762619916376164,257.33572371397975,66.56594330008552
204,10.002493991435609,-251.60758697817676,-53.161199689352536,-13.882432098971856,64.3657117380413,-3.802091216917304,257.3677463736337,66.10355095962797
205,10.061456183299311,-251.63990317712185,-53.17724360899283,-14.325086635492786,63.82864603916358,-3.8467775975665974,257.4051757784522,65.67216938303375
206,10.12745378524468,-251.67783455409773,-53.19080756956975,-14.77793853545561,63.32391652391943,-3.8968616403062093,257.4478598530383,65.27595712206991
207,10.199617190992534,-251.7211858539835,-53.20186217656297,-15.234838429549688,62.856460625457274,-3.9524671379449083,257.49556485295415,64.91852478695691
208,10.276991548440963,-251.76967202787537,-53.21043801706737,-15.689277895754552,62.430708550277586,-4.013640638284688,257.54797855827087,64.60290973473802
209,10.358554256991761,-251.82292071303468,-53.2166306151964,-16.13452024702781,62.050536918773005,-4.080331458602441,257.6047144213783,64.33155563596222
210,10.443234658191633,-251.88047598770248,-53.22060221273606,-16.5637347059139,61.71922513655099,-4.152372282300925,257.66531638648854,64.10629501894773
211,10.52993527370178,-251.94180325793107,-53.22257953597349,-16.97012916208376,61.43941434929482,-4.229462590519482,257.72926404160364,63.92833373371641
212,10.617553813644987,-252.00629508170258,-53.22284687113645,-17.347077721336056,61.2130696877979,-4.311157041823166,257.795977741422,63.79823733286341
213,10.70500508626093,-252.07327773448296,-53.2217341861054,-17.688240455149828,61.04144730700115,-4.396860542289672,257.86482342180244,63.715920410925754
214,10.791241913328923,-252.14201838017613,-53.219600588061155,-17.987673868956787,60.92506832598041,-4.4858311841611584,257.9351169991358,63.68064077648276
215,10.875274185402054,-252.2117328572974,-53.216813904894934,-18.239931461225712,60.863702056799134,-4.577191554299136,258.00612849482525,63.69100078861478
216,10.956185289432552,-252.28159434004888,-53.21372758194702,-18.440154299278763,60.85636077843153,-4.669948257708741,258.07708635570316,63.744958176780735
217,11.0331453250947,-252.35074336476353,-53.21065648230808,-18.584151821016842,60.90130776341846,-4.763018978262417,258.14718275503753,63.83984818846509
218,11.105420749836952,-252.41829972307283,-53.20785355859039,-18.668473151472202,60.99607940411991,-4.855266033765095,258.2155807561036,63.97241809053825
219,11.172380283628357,-252.4833764549219,-53.20548954743727,-18.69046917723449,61.13752133037255,-4.945535126233324,258.2814240028818,64.1388741139343
220,11.233497038627897,-252.5450957316591,-53.203637653006055,-18.64834552118341,61.32183762946148,-5.0326977636781365,258.3438491358797,64.33494014694692
221,11.288346948961232,-252.60260595522223,-53.20226465579765,-18.54120645495315,61.54465184301422,-5.115695576340324,258.4020005720568,64.55592702178477
222,11.336603717624723,-252.6550990764378,-53.20122921009421,-18.369089689033178,61.80107830962223,-5.193584475902675,258.45504683953874,64.79681109117594
223,11.378030714428197,-252.70182706202183,-53.200287469591004,-18.132991853192678,62.085802518954594,-5.265576401216916,258.50219746762275,65.05232082905518
224,11.412470535336537,-252.74211659078023,-53.19910566970649,-17.83488425262503,62.393169298857785,-5.331076355349933,258.5427194879096,65.31703025937144
225,11.439833188003433,-252.77538134801287,-53.1972788890265,-17.477718093678284,62.71727772612191,-5.389712585463653,258.5759528129858,65.58545796299362
226,11.460084013374555,-252.80113166358004,-53.1943549157096,-17.06541779870721,63.05208150692603,-5.441358048377963,258.6013240728871,65.85217010437543
227,11.47323245766243,-252.81898165117516,-53.18986195156176,-16.602860316800847,63.39149318036721,-5.486141705979428,258.61835885234274,66.1118853339265
228,11.479322688615891,-252.82865434606984,-53.18333874989576,-16.095837585442123,63.72948994663501,-5.524448687687243,258.6266925689307,66.35957866803068
229,11.47842681777192,-252.82998547315037,-53.17436566963069,-15.550998654542063,64.06021835566442,-5.556908913557803,258.6260803281336,66.59058070005042
230,11.470641156309387,-252.8229263209311,-53.162595070162325,-14.975767664938791,64.37809463799691,-5.584374358514458,258.6164059102721,66.80066792579389
231,11.456085551873064,-252.8075457975014,-53.147779503785635,-14.37823417219792,64.67789719923819,-5.607885738985737,258.59768964257006,66.98613973340294
232,11.434905524151603,-252.7840312895346,-53.12979622380699,-13.767013504770386,64.95484777018933,-5.628630001138728,258.57009446321547,67.14387782724124
233,11.407276705460275,-252.75268763589168,-53.10866653983224,-13.151077049945544,65.20467791202778,-5.647890541396985,258.5339291758828,67.27138456679751
234,11.373410988438467,-252.7139334514769,-53.084568597555865,-12.539555384082664,65.42367804955472,-5.666992535027482,258.4896478250297,67.36679787749645
235,11.333563719585278,-252.66829418027453,-53.05784241348969,-11.941520516026277,65.60872702280324,-5.687246028357207,258.4378443128545,67.42888195535016
236,11.288041220411783,-252.6163915645337,-53.02898649339456,-11.365756542977154,65.75730133724231,-5.7098895067689055,258.3792417810539,67.45699477893703
237,11.237207918473679,-252.55892961771264,-52.99864599156288,-10.820530161446209,65.8674647285438,-5.736036452189231,258.3146768023329,67.45103519881975
238,11.181492461706442,-252.49667758323932,-52.967593012796605,-10.313373431831076,65.9378400902754,-5.766626991599409,258.24507894925995,67.41137382558152
239,11.121392291125918,-252.43045063566817,-52.93670023255295,-9.850890915966827,65.96756699251937,-5.8023862265679025,258.17144669881594,67.33877289872173
240,11.057476192018806,-252.36108918328753,-52.90690941394822,-9.438601900793193,65.95624876994509,-5.843790350126141,258.0948208159027,67.23430070453995
241,10.990384401913406,-252.2894376564534,-52.87919661008229,-9.080826100543986,65.90389340670826,-5.891041275292448,258.01625642957316,67.09924592826098
242,10.920825998827487,-252.21632378053502,-52.85453596120661,-8.780618283807607,65.81085226343967,-5.944050220545168,257.9367951594171,66.93503669920193
243,10.84957346681582,-252.14253955256063,-52.83386407709327,-8.53975400487078,65.67776026587663,-6.002430494676751,257.8574388894456,66.74316823625396
244,10.777454447839098,-252.06882526892565,-52.818046874709154,-8.358765293602586,65.50548066788065,-6.065499587341794,257.7791268931903,66.52514210194076
245,10.705340747979372,-251.9958577959197,-52.80785026168308,-8.23702199902384,65.29505694814468,-6.132290579542557,257.7027177671697,66.28241916598452
246,10.634134745062786,-251.9242438447416,-52.80391537048651,-8.172851717641223,65.047673773832,-6.201572757263086,257.62897707382604,66.01638743818685
247,10.564753493008478,-251.85451846292088,-52.80673853499958,-8.163689121949906,64.76462829543013,-6.271881048297237,257.5585709596987,65.72834499395277
248,10.49811102423808,-251.78714844508087,-52.81665606300238,-8.20624425206693,64.44731240176175,-6.34155350535573,257.4920654974028,65.41949738340537
249,10.435099553421125,-251.72254000642837,-52.83383392525079,-8.296678997381319,64.09720599582474,-6.408775641285426,257.4299311699223,65.0909682446201
250,10.37657042005958,-251.66104986352772,-52.85826244276643,-8.430781431869567,63.71588082065969,-6.471630131027159,257.37255171784926,64.74382131230163
251,10.323315652636882,-251.6029987074333,-52.88975581210285,-8.60412866158322,63.305013833122494,-6.528150300113578,257.320236365466,64.37909158252583
252,10.276050993721704,-251.54868579194616,-52.92795604060624,-8.812230248434325,62.86640857718509,-6.576375872789691,257.27323412733216,63.997823034808235
253,10.235401077452199,-251.4984030230462,-52.972340763158336,-9.050646028729568,62.40202243155213,-6.614409534493366,257.23174853996034,63.60110999730168
254,10.201887206869412,-251.4524467396319,-53.02223449062376,-9.315074212428295,61.91399699744132,-6.640472876508723,257.1959509765798,63.19013895708776
255,10.175917932331924,-251.41112552830015,-53.07682299701125,-9.601407962077475,61.40468832423229,-6.652960234542666,257.1659908731038,62.766227424037496
256,10.15778249631175,-251.37476293962993,-53.13517070377747,-9.90576106911536,60.876693292093776,-6.65048889182909,257.14200173060794,62.33085647530694
257,10.147647187677343,-251.34369470540219,-53.19624101343714,-10.22446565367347,60.332868431124695,-6.631944175885957,257.12410249194005,61.88569394250189
258,10.145554638850546,-251.3182607464799,-53.25891953892869,-10.554046766771753,59.77633785166047,-6.596518158345856,257.1123945618511,61.432605896107574
259,10.151426016756657,-251.29879269304172,-53.32204008154492,-10.891180177103532,59.210487806962,-6.543740933170345,257.10695513917386,60.973655105312005
260,10.16506590772396,-251.28559776059606,-53.38441310383046,-11.232640402398175,58.638946596715854,-6.473503736400248,257.107827621225,60.511086379310214
261,10.186169548057121,-251.27893982898752,-53.44485634575518,-11.575246252499426,58.065549806219344,-6.386073406848239,257.11500981912013,60.04729989917271
262,10.214331973572738,-251.27901873204473,-53.502227046434946,-11.915810944087415,57.494292008915075,-6.282097814750458,257.1284408383699,59.58481460373206
263,10.249058666178797,-251.28594912746476,-53.55545490359921,-12.251103419752342,56.92926691297256,-6.1626019078197425,257.14798776453677,59.126224307877536
264,10.289777331278756,-251.29974064508238,-53.603574538096154,-12.577826961225592,56.37459852562097,-6.028973999338933,257.1734335408573,58.67414954981617
265,10.335850509757472,-251.3202810836108,-53.64575596121928,-12.89262038772949,55.83436632792641,-5.882941892560094,257.20446744116833,58.231188259461085
266,10.386588781968031,-251.34732423728508,-53.6813313711363,-13.192085676051388,55.31252776454453,-5.726538404355932,257.2406793229795,57.79986823869254
267,10.441264332491622,-251.38048358949578,-53.70981652389185,-13.472843324849837,54.812841547945695,-5.562055862784792,257.2815584926574,57.38260410782079
268,10.49912462744418,-251.41923265355692,-53.73092504513524,-13.731613207750216,54.338795262507745,-5.391989329457749,257.32649759364705,56.981660732616994
269,10.559405960271429,-251.462912156939,-53.74457446726868,-13.965314639208456,53.8935404340495,-5.218968748871418,257.37480144734945,56.599124188602126
270,10.621346642621049,-251.51074357282596,-53.75088342783646,-14.171175985322913,53.47983761122741,-5.0456809717239155,257.42570023784384,56.236880192498134
271,10.68419957746687,-251.5618477833653,-53.75016020114638,-14.346842424610857,53.10001322568062,-4.874783603836125,257.4783658812204,55.89659896815842
272,10.747243830382827,-251.61526704436065,-53.74288344717258,-14.490470892223533,52.75592926618838,-4.708813839835422,257.53192996283104,55.57972508674768
273,10.809794727090079,-251.66998809210378,-53.729676662685236,-14.600803559240125,52.448966299040535,-4.5500966904099425,257.58550142465157,55.2874711028608
274,10.871212105046016,-251.7249643764318,-53.71127818540032,-14.677214633849198,52.18002014388014,-4.400658010916091,257.6381824041158,55.02081465379489
275,10.930906654161895,-251.7791360496354,-53.68850862493794,-14.71972903387993,51.949512439642746,-4.262148196604068,257.6890812737536,54.780499722861094
276,10.988344628846491,-251.83144721096144,-53.66223733728218,-14.729015034599444,51.75741517481899,-4.135782172334366,257.7373227428565,54.567043593999706
277,11.04305139016652,-251.8808605767795,-53.633349273189545,-14.706355955378069,51.603288852055286,-4.02230037713032,257.7820554858147,54.38075138472898
278,11.094614209545524,-251.92637005059294,-53.602713414754355,-14.653607912682679,51.48633333025838,-3.9219539774385606,257.82245803273594,54.22173985454048
279,11.142684711345852,-251.967011811343,-53.57115402410764,-14.57315128975465,51.40544968253059,-3.8345158029483555,257.85774379620193,54.08997151183064
280,11.186981404797116,-252.00187475760126,-53.539425897520985,-14.467842764522373,51.35931077154883,-3.759316739903232,257.88716631554536,53.985299044608965
281,11.227292854023188,-252.03011140944085,-53.50819466262948,-14.34097275588696,51.346437753968324,-3.6953056697631763,257.9100260267212,53.90751896730162
282,11.2634818828248,-252.05095047147003,-53.47802289000103,-14.196230541409212,51.365279391735186,-3.641129552586193,257.925679900927,53.85643226827351
283,11.295490686048604,-252.06371204549606,-53.449362439730606,-14.037676709785956,51.414290842606746,-3.595228987600141,257.93355498939866,53.831908870782414
284,11.32334602927522,-252.0678259664363,-53.42255303658188,-13.86972052542455,51.49200850872448,-3.5559436278593273,257.9331662929677,53.83395196529352
285,11.347163210554339,-252.0628530685905,-53.39782658683726,-13.697098385976336,51.597117570940085,-3.521621237868582,257.9241386068797,53.86275780906237
286,11.367147314569227,-252.04850852264553,-53.37531630146123,-13.524848806366832,51.72850907762651,-3.490723963396596,257.90623124520977,53.91876647701306
287,11.383590474200668,-252.02468580222978,-53.35506937446211,-13.358279168175123,51.885323907953776,-3.4619255356688825,257.87936392568656,54.002699303665814
288,11.39686426400974,-251.99147938836145,-53.33706179946032,-13.202919775712022,52.06698156989893,-3.4341937141088454,257.84364163891684,54.115579368189245
289,11.407406884598217,-251.94920403354737,-53.32121384947487,-13.06446155705607,52.27319259158805,-3.4068533235558265,257.79937605686047,54.25873233001272
290,11.415705333909067,-251.89840831895975,-53.307404798437496,-12.948675074713398,52.503954190333424,-3.3796266766941736,257.7471009841457,54.43376620140872
291,11.42227319957038,-251.8398803868692,-53.29548566832223,-12.86131038191271,52.759529901620894,-3.352649783314841,257.687579563607,54.64253018012746
292,11.427625020040368,-251.77464411685278,-53.285289145157584,-12.807979573931922,53.0404148078208,-3.326464331347702,257.6218014129101,54.887054300191885
293,11.432248386443256,-251.7039446018158,-53.27663627414362,-12.794026357640583,53.34728875080397,-3.3019868667197527,257.5509685484576,55.16947313008629
294,11.436575166026199,-251.62922256285586,-53.26934004133099,-12.824389153894087,53.68096026532688,-3.2804578541879725,257.4764698285275,55.491937749508935
295,11.440953490474513,-251.55207829973105,-53.26320638340068,-12.903465658682862,54.0423038523933,-3.263374323493731,257.39984468394346,55.8565205543057
296,11.445622412433318,-251.47422673346807,-53.25803345935719,-13.034987079070605,54.43219273342051,-3.2524105145698683,257.32273791389605,56.26511709719214
297,11.450691194561342,-251.39744579944542,-53.253610106017405,-13.22190944223074,54.851428653810885,-3.2493312503851426,257.2468480309291,56.71934844698215
298,11.456124908769914,-251.32352079595807,-53.24971425603972,-13.466327790009258,55.30066990357471,-3.255902674824441,257.1738719358493,57.220466797142436
299,11.461737464063967,-251.25418739901303,-53.246111825490615,-13.76941713939143,55.7803586150102,-3.273804588236665,257.1054487265271,57.76926650111009
300,11.467192598289108,-251.19107604133504,-53.242556378877296,-14.131402105067844,56.290648565035205,-3.3045480441998367,257.0431053653575,58.36600240675411
301,11.472012973953074,-251.1356602542496,-53.238789841220544,-14.551555191222203,56.83133508564464,-3.3494012656805863,256.988206806364,59.010317270545535
302,11.475597294858872,-251.08921138861672,-53.23454456206603,-15.028222035633963,57.40178921623074,-3.4093263553173014,256.9419129995515,59.7011801121884
303,11.477245077463044,-251.05276184595894,-53.229547043668994,-15.55887034671893,58.00089886798744,-3.484928692635238,256.90514489850506,60.4368375753951
304,11.476188189197499,-251.0270785110305,-53.223523573406595,-16.140157904630335,58.62702040920084,-3.5764202684555673,256.87856112870855,61.21478058560261
305,11.471627594064936,-251.01264746624202,-53.216207784095005,-16.76801385597768,59.27794451679437,-3.6835974792512456,256.86254630321775,62.03172865778117
306,11.462773158167566,-251.00967034069504,-53.2073497937217,-17.437726767862692,59.95088013928618,-3.805833168609488,256.8572111590571,62.88363392314101
307,11.448884021230803,-251.01807188821388,-53.1967262147528,-18.144032671482584,60.64245986717012,-3.9420821139577398,256.86240385708834,63.76570625796871
308,11.429307000430796,-251.03751769876436,-53.18415020116735,-18.88119670715058,61.348768998770026,-4.090898842406155,256.8777310874462,64.67245994992363
309,11.403510770075403,-251.06744042050468,-53.16948085156498,-19.643083072845567,62.06539932566134,-4.250466631864675,256.90258715193085,65.59778138706132
310,11.371114053490123,-251.10707254536302,-53.15263150801681,-20.42320987951547,62.78752728974465,-4.418636714259926,256.9361889467132,66.53501651066316
311,11.331906607365605,-251.15548365879843,-53.13357655381645,-21.214788152893266,63.51001472279767,-4.592976903218353,256.97761465841177,67.47707625810905
312,11.285862280257373,-251.2116200024908,-53.112356181389856,-22.010747177299123,64.22752891497433,-4.770828981930759,257.02584393233144,68.41655781889048
313,11.233143858741487,-251.274344184378,-53.089078470868905,-22.80375101706363,64.93467743237719,-4.949374121716998,257.07979725180365,69.34587913176671
314,11.17409976315516,-251.3424729166077,-53.063918202971664,-23.58621283476666,65.62615210930657,-5.125705359347807,257.13837234711826,70.2574236364858
315,11.109252962127641,-251.4148108830871,-53.03711211295301,-24.35031432451049,66.29687603248306,-5.296905802503839,257.2004757412512,71.14369183953436
316,11.039282833525055,-251.49017930805437,-53.00895060407059,-25.08803729883098,66.9421470216146,-5.460130800752496,257.26504807779196,71.99745573302955
317,10.965001142348775,-251.56743843646134,-52.97976617402927,-25.791213544922186,67.5577710351912,-5.612691822703744,257.3310825671993,72.81191159260257
318,10.887323753433552,-251.64550377170337,-52.94991897279703,-26.451597878995116,68.1401791643918,-5.752139272391983,257.3976365591427,73.58082637450948
319,10.80723999312601,-251.72335642554495,-52.91978007038772,-27.06096806925884,68.68652250864196,-5.876341104100531,257.4638367906599,74.2986729894322
320,10.725781571235435,-251.8000483104582,-52.889713267794875,-27.611253858972155,69.19474022626963,-5.983554001989574,257.52887927843375,74.96075010549383
321,10.643992640169325,-251.8747031629396,-52.86005667187865,-28.09469542581984,69.66359731311618,-6.072484112373797,257.5920251418058,75.56328264843425
322,10.562902028657993,-251.94651449352185,-52.83110564931997,-28.504029091701508,70.09269009302916,-6.142334774719624,257.652593806619,76.10349968928756
323,10.483498146845887,-252.01474150195796,-52.803098950675576,-28.83269505682906,70.4824189760337,-6.192839299377405,257.70995499754036,76.57968693492442
324,10.406706684618118,-252.0787038778656,-52.776209608833476,-29.075058756564076,70.83392973138385,-6.224277537505329,257.76352075674146,76.99121164664224
325,10.333371074844093,-252.13777637149764,-52.75054170343845,-29.226634686508007,71.14902625248403,-6.237475747070366,257.81273858045887,77.33851859187769
326,10.26423571599207,-252.19138408054053,-52.7261334160962,-29.284299833283242,71.4300593954317,-6.233790004265174,257.85708668909444,77.62309663630919
327,10.199932049485904,-252.2389994316832,-52.70296616255521,-29.246483690676747,71.6797977420212,-6.215074052100716,257.89607235147616,77.84741681330505
328,10.140967688746738,-252.2801417387013,-52.6809790802417,-29.11332333757017,71.9012868707284,-6.183632986033827,257.929233987915,78.01484406052727
329,10.087718837475364,-252.31438000261642,-52.660087802959914,-28.886774735665227,72.09770382006322,-6.142164587852114,257.9561474941463,78.12952605391506
330,10.040426178991632,-252.34133932590078,-52.6402062702847,-28.57067440838887,72.2722130046126,-6.093690476638912,257.9764368992592,78.19626345241268
331,9.999194299906424,-252.3607109557202,-52.62127027169139,-28.170748164761225,72.42782913640193,-6.0414795535017065,257.98978910539574,78.22036625795343
332,9.96399460316246,-252.37226558564203,-52.60326145547811,-27.69456512416983,72.56729186918936,-5.988966441247774,257.9959720801659,78.20750085409122
333,9.934671580158371,-252.3758691881205,-52.58623057486254,-27.151436123323112,72.69295591717906,-5.939667714944239,257.9948555273318,78.16353166924233
334,9.910952192613003,-252.37150032706973,-52.57031876550818,-26.5522562198462,72.80669930334587,-5.897098664775305,257.98643274414616,78.09436056008654
335,9.89245795391203,-252.35926756961774,-52.55577566597274,-25.909292107426566,72.90985129549313,-5.864693153703112,257.97084204749723,78.005766320822
336,9.87871917563486,-252.33942529044376,-52.542973248952755,-25.235917193204877,73.00314066728313,-5.845728876333734,257.9483858392493,77.90324651055873
337,9.869190796828716,-252.3123859675265,-52.532414345458385,-24.546299780843317,73.0866642778368,-5.84326002914395,257.9195452129235,77.7918641152402
338,9.863269181903233,-252.27872716953726,-52.52473499659273,-23.855052821131252,73.15987559295775,-5.860059057444405,257.8849881339412,77.67610223808045
339,9.860309219031086,-252.23919186337102,-52.52069995345499,-23.176856464913186,73.22159259097053,-5.898568687021408,257.8455696815579,77.55973073164469
340,9.859641031769875,-252.19468126485225,-52.521190892097344,-22.52606671040534,73.27002438688685,-5.960864823287322,257.80232347279195,77.44568915359659
341,9.860585698409764,-252.14624002042484,-52.52718723420959,-21.916324587329196,73.30281576806989,-6.048630146023831,257.7564440110339,77.3359904992626
342,9.862469540238113,-252.09503395823046,-52.53973986120748,-21.36018066588353,73.31710860653212,-6.163137482002367,257.70926023056825,77.23164985180962
343,9.864636734458546,-252.04232099438482,-52.55993847824388,-20.86874944863446,73.3096187608204,-6.305241482740576,257.66220095148896,77.1326414718641
344,9.866460220216165,-251.9894160733946,-52.58887391330161,-20.451407501201682,73.27672656811775,-6.475376923494067,257.6167533628066,77.03788696007233
345,9.867351089094255,-251.9376513002294,-52.62759716398786,-20.115547855628247,73.214578360804,-6.673562126136042,257.57441604099677,76.94527597068574
346,9.866766776752925,-251.8883326644999,-52.6770774327753,-19.8664010572325,73.11919571082295,-6.899406510801961,257.536648341567,76.85171958122542
347,9.86421827926493,-251.84269492971777,-52.73816164963725,-19.70693024344534,72.98658845207484,-7.152121916620554,257.5048182189092,76.75323497009977
348,9.859276353383892,-251.80185640841836,-52.811538029228664,-19.637804186841148,72.81286707721162,-7.4305379075970635,257.4801506734534,76.64505869276434
349,9.851576430853184,-251.7667755343052,-52.897705960417916,-19.657448729190566,72.59434991471726,-7.73312167200879,257.4636791522158,76.52178470609039
350,9.84082196450695,-251.73821133635582,-52.99695387939478,-19.762173723780577,72.32766059961114,-8.058003300165852,257.456202288829,76.37752244126648
351,9.826786133461813,-251.71668999939402,-53.10934581188028,-19.94636953600848,72.0098117999471,-8.403007214368802,257.45824826257643,76.20606971835507
352,9.809312099231551,-251.70247957386442,-53.23471629850956,-20.20276433536539,71.63827198604172,-8.765690365383325,257.4700487528948,76.0010951678422
353,9.788312136730632,-251.69557453849336,-53.3726727710965,-20.522730949606245,71.21101319088979,-9.143387516320393,257.4915239896961,75.7563250580924
354,9.763765898755556,-251.69569133111992,-53.52260422734938,-20.896630139482614,70.72653905136302,-9.533263499170348,257.522279776716,75.46572990936657
355,9.735717856484756,-251.70227522657052,-53.68369510857891,-21.314175971046424,70.18389369471096,-9.932371758627982,257.56161664691706,75.12370681504642
356,9.704273676984585,-251.71451819320836,-53.854943402265256,-21.76480858413318,69.58265300752676,-10.337717856334317,257.60855058963665,74.72525380307664
357,9.669595075120784,-251.73138672564414,-54.03518206133904,-22.238060002167693,68.92290037420011,-10.74632601134953,257.66184417267357,74.26613275568829
358,9.631892663095472,-251.75165820551365,-54.22310286937893,-22.723899503198112,68.20518913503388,-11.155306302460342,257.7200464514382,73.74301737866243
359,9.591416582118773,-251.7739640902279,-54.41728193743338,-23.213046305637533,67.43049393306342,-11.56191988962177,257.78153983040113,73.15362258914209
360,9.548445129821099,-251.796838082291,-54.616206140114635,-23.697238940346672,66.60015293577305,-11.963639514248648,257.8445919392203,72.49681164962894
361,9.503271994941503,-251.8187672785691,-54.81830000031653,-24.1694528896379,65.71580269938023,-12.358202611417562,257.9074104949164,71.77267758512714
362,9.45619295949158,-251.8382441356096,-55.02195275459208,-24.62406105395792,64.77930720494945,-12.74365462142121,257.9681990201609,70.98259599431408
363,9.407493030499744,-251.85381702046908,-55.22554547836627,-25.056935324408908,63.79268239543715,-13.11838050226994,258.02521125833744,70.12924736379368
364,9.357434931296977,-251.86413724345897,-55.42747815081217,-25.465491692096965,62.758017506215396,-13.481122958585555,258.0768022479788,69.21660841088071
365,9.30624970810968,-251.86800077539687,-55.62619634215806,-25.84868536264774,61.677394702535324,-13.830986449284417,258.12147426769803,68.24991366414892
366,9.254129946659932,-251.86438322934043,-55.82021681230813,-26.206965527406307,60.55280899120782,-14.167426584482074,258.157916135009,67.23559011884574
367,9.201225865379367,-251.85246707793928,-56.00815086320925,-26.542201036155536,59.3860909719109,-14.490225076550832,258.18503461752516,66.18116903009127
368,9.14764444702847,-251.8316605506278,-56.18872404656951,-26.857587816105905,58.17883566577313,-14.799450969718558,258.2019771182426,65.09517955295287
369,9.09345178647315,-251.80160823581502,-56.360790988803394,-27.15754669318846,56.93234132249134,-15.095409427015102,258.20814539618306,63.9870290336312
370,9.038678882631793,-251.76219393548308,-56.523344631685596,-27.447617089161493,55.64756262135375,-15.378579943014337,258.20320070970723,62.86687446083781
371,8.98333110505438,-251.71353659340684,-56.67551986394528,-27.73434889637018,54.32508287960542,-15.649546544009599,258.18706118298815,61.7454890885319
372,8.927401513141472,-251.65598016742635,-56.81659207960126,-28.02519236850792,52.96510960531483,-15.908923299284027,258.15989236300123,60.63412761352537
373,8.870888088594803,-251.5900783105549,-56.94597155512089,-28.328384254167393,51.5674968754955,-16.157279113056692,258.12209200077837,59.54439245496459
374,8.813814678587018,-251.51657475841623,-57.063194746003894,-28.65282743026115,50.131796626232166,-16.3950660893294,258.07427015756963,58.48810257638776
375,8.75625500029751,-251.4363803611163,-57.167913709214446,-29.00796075644762,48.657339205344364,-16.622555668670117,258.0172257829134,57.47716501513053
376,8.698358508054849,-251.3505476802685,-57.25988484012525,-29.403615730877306,47.143341680009435,-16.83978625929699,257.95192087082205,56.52344804672268
377,8.640376384426679,-251.26024395395032,-57.338957962405345,-29.84985688736381,45.58904059237886,-17.046525327483483,257.87945313238833,55.63865395769652
378,8.582685502676126,-251.16672304463842,-57.40506659146427,-30.356803882297726,43.99384428894978,-17.24224800050511,257.80102787652714,54.83418898522805
379,8.525808076233705,-251.0712968449278,-57.4582199878685,-30.934434917535903,42.35749876141064,-17.426133277561558,257.71792960301104,54.12102827195405
380,8.470424934898682,-250.97530661053514,-57.49849742103767,-31.59237335732518,40.680260198685964,-17.597078006118767,257.6314937697688,53.50957464091053
381,8.417380810484072,-250.88009476396942,-57.52604481851571,-32.33966176250242,38.96306717855227,-17.753727889063253,257.54307922757476,53.00951140887003
382,8.367680474743524,-250.7869777325692,-57.54107370913157,-33.184529656165466,37.20770562893513,-17.894523950620897,257.454041789316,52.62965105586435
383,8.32247503899778,-250.6972202961363,-57.54386216816666,-34.13416276020684,35.416960340869764,-18.01776212986393,257.365709284608,52.37778308464027
384,8.2830383842189,-250.6120117944674,-57.534757339642574,-35.19448195366502,33.59474779685448,-18.121663047768678,257.2793583233267,52.26052558919218
385,8.250734648939156,-250.53244447614935,-57.51417897915477,-36.369939808156296,31.746226130914092,-18.204448583305087,257.19619293472846,52.283185713428715
386,8.22697874843538,-250.45949424302063,-57.48262335854705,-37.6633415151201,29.877878841482733,-18.264421752007873,257.1173252459889,52.44963423389682
387,8.213192597726506,-250.39400398193442,-57.44066688079961,-39.07569571472651,27.997569262663642,-18.300046512070054,257.04375833867675,52.76219903263361
388,8.21075976348496,-250.3366695810993,-57.388968812425944,-40.606099514477194,26.11456288384049,-18.310024470734856,256.9763713534451,53.22158151142969
389,8.220980773383218,-250.28802870621473,-57.328272527681364,-42.25166109102924,24.239514706097673,-18.293365907513586,256.91590687936036,53.826799373853085
390,8.245030656916601,-250.2484525330098,-57.25940461488094,-44.00746281236342,22.384419184799842,-18.24945291420977,256.86296075582504,54.575158865107966
391,8.283919802378016,-250.21814081687123,-57.18327127265618,-45.86656772261673,20.56252096734929,-18.17809266033123,256.81797459693155,55.4622594541559
392,8.338458945038054,-250.1971207414805,-57.10085166937152,-47.8200721973862,18.788185508711738,-18.079558825467146,256.78123145206854,56.48203379757817
393,8.409228982220759,-250.18524984555026,-57.01318828635479,-49.85720717629134,17.07672970331387,-17.954619189920034,256.7528549481568,57.62682532608214
394,8.496556314633875,-250.1822231060266,-56.92137463127791,-51.96548931369181,15.444213983338505,-17.80454735445587,256.73281212241653,58.88750478495654
395,8.600494519776786,-250.18758410274603,-56.8265409872196,-54.130921682796355,13.907198971248432,-17.631116676781538,256.7209200674804,60.25362563362976
396,8.720813301935614,-250.20074006914868,-56.72983896526645,-56.33824159571681,12.482471665822231,-17.436574873477337,256.71685641670103,61.71361659892671
397,8.856995732489935,-250.2209804324849,-56.6324255868288,-58.57121095967539,11.186748029559674,-17.22359842348682,256.720173489944,63.25500806493207
398,9.008244673055335,-250.24749816761076,-56.53544757165592,-60.81294261036913,10.036360394929657,-16.995226938068903,256.7303156284843,64.86468747823308
399,9.173498867904371,-250.2794130352977,-56.44002651913777,-63.04625445598452,9.046939068100182,-16.75477897032324,256.74663898670224,66.52917767838646
400,9.351458537764566,-250.3157956299783,-56.347245666572,-65.2540421760239,8.233097805373149,-16.505752197392017,256.768432881055,68.23493115804939
401,9.540619584069855,-250.35569114835317,-56.25813878295012,-67.41966062233685,7.6081325182274115,-16.251712343046247,256.79494172970925,69.96863271276911
402,9.739314915638404,-250.39814190989222,-56.17368152356797,-69.52730376806512,7.183741727700405,-15.996176426048061,256.82538665829014,71.71750259108622
403,9.94576102316159,-250.44220788300422,-56.09478532743729,-71.56237280094471,6.969776111569836,-15.74249676007594,256.8589859932904,73.46959188706026
404,10.158107700475915,-250.4869847153586,-56.02229374102114,-73.51182161546097,6.97402325160325,-15.493752494283198,256.8949740463441,75.21406141266365
405,10.374488636688431,-250.5316189541957,-55.9569809101213,-75.36446860553242,7.202032671289919,-15.25265533631343,256.93261773192387,76.94143475251478
406,10.593070443906042,-250.57532026854145,-55.89955193335091,-77.11126364680042,7.656985527787267,-15.021475452747673,256.9712306617414,78.64381599524808
407,10.812097650547614,-250.6173705715067,-55.8506448399538,-78.74549992264687,8.339612696394907,-14.80199241698691,257.0101844524234,80.31506317636759
408,11.029931457347725,-250.65712995463068,-55.81083410407232,-80.26296201660443,9.248164183094902,-14.5954744991933,257.04891703666317,81.95090996206427
409,11.245080692782356,-250.69403928461298,-55.780635762113995,-81.66200438232123,10.378431659128989,-14.402687632112766,257.0869377666587,83.54903046116634
410,11.456224261354508,-250.7276192967829,-55.760514240402266,-82.94355767151872,11.723824440825833,-14.223933173708991,257.1238291285322,85.10904504100031
411,11.66222513824988,-250.75746616909754,-55.750890776440194,-84.11106417546759,13.27549753559674,-14.059111334702635,257.159245018405,86.63246838152028
412,11.862136389259453,-250.78324384820996,-55.75215281074562,-85.1703474384848,15.022528554208831,-13.90780512128722,257.1929057230368,88.12260437238206
413,12.055199799762953,-250.80467373646002,-55.764663161869066,-86.12942438037348,16.95213848236287,-13.769378139555746,257.22458996116126,89.5843953180402
414,12.24083766492889,-250.82152270583595,-55.78876748166968,-86.99827038632507,19.049949669476476,-13.643078810612689,257.2541246200518,91.02423467512351
415,12.41863827858479,-250.83359074514303,-55.82479858063507,-87.78854832039195,21.300273057043935,-13.528143490045101,257.2813731713,92.4497527703074
416,12.588335736263554,-250.8406997476727,-55.87307668192984,-88.51331130568424,23.68641568373252,-13.423891558453878,257.30622404971274,93.86958365465492
417,12.749784895711464,-250.8426848792128,-55.933905349166466,-89.18668703144327,26.190998904315975,-13.329806572610241,257.3285803734474,95.29311906843193
418,12.902932725746057,-250.83938959078154,-56.00756350852097,-89.82354924739002,28.796277637771052,-13.245598886279012,257.34835218462405,96.73025336453432
419,13.047787717229008,-250.83066471913781,-56.094294472593916,-90.43918067478329,31.484451404998868,-13.171246643777156,257.3654519135728,98.19112185498503
420,13.184389351509058,-250.81637140292347,-56.194293163792956,-91.04893095967368,34.23795888953564,-13.107013588718841,257.37979315359996,99.68583454580086
421,13.312779682293767,-250.79638692207416,-56.307692900805094,-91.66787340057498,37.0397490562502,-13.05344361113511,257.3912922691703,101.22420744496777
422,13.432978830755934,-250.77061215969695,-56.43455312014854,-92.31046496522714,39.873523189058204,-13.011333362653136,257.39987195289683,102.81549444919497
423,13.544965668040081,-250.73897922190022,-56.57484916704088,-92.99021564350551,42.72394326579888,-12.98168561993683,257.4054656113195,104.46812422399086
424,13.648664335109709,-250.70145786802323,-56.72846484948783,-93.71937534599014,45.57680276938729,-12.96564730244936,257.4080214489379,106.18944834354677
425,13.743936722984843,-250.65805980936932,-56.895187975245605,-94.5086487715109,48.41915652235003,-12.964437000500004,257.4075053874869,107.98550878253609
426,13.830580671782561,-250.60884050448863,-57.074708712040426,-95.3669500360241,51.23940679274052,-12.979267419866693,257.40390241232274,109.8608339844291
427,13.908333393244732,-250.55389860352398,-57.26662036774075,-96.30120865353405,54.02734405855777,-13.011268258495978,257.397216382382,111.81827267745362
428,13.976879427303468,-250.49337351195328,-57.47042208880743,-97.31623650897204,56.774142523556485,-13.061414720213152,257.38746861796443,113.8588733126675
429,14.035862273624995,-250.42744159561101,-57.68552298795323,-98.41466213693789,59.47231263838664,-13.130466202148742,257.37469562454925,115.98181480210384
430,14.084898670766595,-250.35631137459785,-57.9112472468441,-99.59693464438604,62.115615250514196,-13.218918744587107,257.35894613971686,118.1843916817338
431,14.123594380520492,-250.28021778672783,-58.14683977310081,-100.86139581261489,64.69894422067988,-13.326973653686727,257.3402774316273,120.46205442654802
432,14.151560390022109,-250.199415424652,-58.39147213170023,-102.20441589494163,67.21818598354996,-13.45452331580255,257.3187506408142,122.8085036769155
433,14.16842872439751,-250.11417070069768,-58.6442488017464,-103.62058656961105,69.6700652882702,-13.601153683525736,257.2944250962763,125.21583556986468
434,14.173867482082821,-250.02475315995213,-58.904214219061124,-105.1029632127195,72.0519861863398,-13.766161416604309,257.2673519122553,127.67473402077951
435,14.167595092207629,-249.9314264954536,-59.17036133896348,-106.64334777360338,74.3618764413729,-13.948582454455005,257.23756757960274,130.17470449983455
436,14.149394008385249,-249.83444004173617,-59.44164247524965,-108.23260275075916,76.59804219637817,-14.147228047471657,257.2050884978594,132.70434248547554
437,14.119124061794745,-249.73402153745783,-59.71698294359163,-109.86098589986683,78.75903814797249,-14.360723993831403,257.1699073557428,135.251628302241
438,14.076735569094906,-249.6303717883867,-59.99529760328332,-111.51849439863398,80.84355675498055,-14.587548927743804,257.13199200568806,137.80423853970385
439,14.022282140787407,-249.52366165226684,-60.2755098570802,-113.19520653649681,82.85033826058373,-14.826067904008118,257.0912871434238,140.34986298830435
440,13.95593303384517,-249.41403159526536,-60.55657223894431,-114.88160896257003,84.77810166180936,-15.074558213353727,257.0477188328576,142.87651538719024
441,13.877984828537292,-249.30159393269884,-60.8374875865803,-116.56889830110099,86.62549532250415,-15.331225359876347,257.00120175072834,145.37282646710224
442,13.78887213936929,-249.18643775106497,-61.11732998215855,-118.24924745134935,88.39106479987441,-15.5942083838696,256.9516489541363,147.82830876746118
443,13.68917697192525,-249.0686364343578,-61.395264964383145,-119.91602890158183,90.07323481227056,-15.861575082174502,256.8989839719517,150.23358439901
444,13.579636218525188,-248.94825766867464,-61.67056870868647,-121.56398963736238,91.67030229118606,-16.131309005552165,256.84315501173813,152.5805691689693
445,13.461146693000009,-248.8253757041703,-61.942645819151686,-123.18937442776276,93.18043813137261,-16.401291264474974,256.7841509628163,154.86260903563186
446,13.334767126586284,-248.70008547818585,-62.211045170350125,-124.78999614319616,94.6016963587239,-16.669281042801956,256.7220186574654,157.07456734509444
447,13.201716738399565,-248.57251798419867,-62.475473033385796,-126.36525305850276,95.93203068086773,-16.932899224896904,256.65688060013184,159.2128633573274
448,13.06337030434816,-248.44285605470446,-62.73580256169192,-127.91609373113398,97.16931952562646,-17.189619637910507,256.58895214105615,161.27546397045137
449,12.921249947069215,-248.3113495396791,-62.99207859232623,-129.4449301704355,98.3114015079025,-17.436772075053096,256.51855687446897,163.2618313027155
450,12.77701402253369,-248.1783287170756,-63.244516727303775,-130.95550004509434,99.35612359267024,-17.671560520613514,256.4461389091442,165.1728291035624
451,12.632443406406232,-248.044214668729,-63.49349593520701,-132.45267913740747,100.3014038600021,-17.891098937660942,256.3722706220012,167.010591163199
452,12.489425194359983,-247.90952534046016,-63.73954447506539,-133.94224652177206,101.1453096830131,-18.092465754640305,256.29765461394743,168.77835526980158
453,12.34993342385024,-247.7748761916179,-63.98331964216165,-135.4306070564573,101.88615048139255,-18.272776921782423,256.22311891780487,170.48026697606994
454,12.216006052699969,-247.64097478619033,-64.22558243635484,-136.92447844143402,102.52258237521387,-18.429276129165743,256.14960506800367,172.12115846338278
455,12.089717258653703,-247.5086092616875,-64.46716858969245,-138.43055285040745,103.05372044135895,-18.55943946612238,256.0781492780868,173.7063089915035
456,11.973144269475947,-247.3786310684896,-64.70895750820094,-139.95514551649558,103.47925318298051,-18.66109050010494,256.00985744716525,175.24119459505044
457,11.868328371775233,-247.2519325187095,-64.95184081911377,-141.50384427647973,103.79955343212653,-18.73252055831868,255.94587491236805,176.7312356546776
458,11.777230332171646,-247.1294196269669,-65.19669252303801,-143.08117481927184,104.01578024288744,-18.77260798690995,255.8873519149614,178.18155165012422
459,11.701681067233235,-247.01198075811854,-65.4443430940268,-144.69029633288537,104.12996725267274,-18.78092943691926,255.83540589294412,179.5967328004633
460,11.64332897098226,-246.9004518401896,-65.69555995328653,-146.33274160453618,104.14509415668508,-18.757855942783245,255.79108199172552,180.98063839737614
461,11.60358583454152,-246.79557918251933,-65.95103637549683,-148.00821455228248,104.06513893252239,-18.704626860069297,255.75531338282752,182.33623132481512
462,11.583573763590755,-246.6979810592044,-66.21139006826077,-149.71445666711278,103.89510898317647,-18.623395622954675,255.7288829052723,183.66545737534543
463,11.584075896696566,-246.60810917586895,-66.47717150291915,-151.44719184252352,103.64104945647004,-18.51724263173175,255.71238722247705,184.96917645403806
464,11.605493988943905,-246.52621106683466,-66.74888076477082,-153.20015650836163,103.31002694318732,-18.390152210909932,255.70620429434624,186.2471507168883
465,11.647815983382499,-246.4522944748943,-67.02699052838425,-154.96521892303264,102.91008695086072,-18.246952385508912,255.71046467185016,187.49809238919863
466,11.710596491727664,-246.38609486650813,-67.31197201670408,-156.73258811125226,102.45018427914917,-18.09321815381302,255.72502701317669,188.7197717676729
467,11.792952562868052,-246.32704740643055,-67.60432052053956,-158.49110954406365,101.9400867069624,-17.935140880487456,255.74945828252217,189.9091839478742
468,11.893576207643472,-246.2742649281279,-67.90457708835707,-160.22864142826896,101.39025398403699,-17.779368203416116,255.7830192592112,191.06277110628918
469,12.010764016424385,-246.2265236324985,-68.21334325583437,-161.93250230705476,100.81169559345287,-17.632820246524943,255.82465618771758,192.17669536430336
470,12.142463069902629,-246.18225832300257,-68.5312863370392,-163.58997724677886,100.2158117650242,-17.502488851082614,255.87299959673587,193.24715489486692
471,12.286331341688529,-246.13956883621333,-68.85913406824557,-165.1888660075045,99.61422266467976,-17.395227000123914,255.92637147699995,194.270732797158
472,12.439810020098072,-246.096238913983,-69.19765911344727,-166.71805259147976,99.01859074590159,-17.31753574474953,255.98280205180774,195.24476475664312
473,12.600204740184589,-246.04976814986415,-69.54765548467606,-168.16807226984096,98.4404412472595,-17.275355914355988,256.04005719078856,196.16770852978834
474,12.764772601430659,-245.99741695942936,-69.909909712465,-169.5316505376305,97.89098597051795,-17.273871817033832,256.09567706881376,197.03949677220805
475,12.930811849830377,-245.93626385951853,-70.28516948894338,-170.8041889702339,97.3809557464541,-17.31733398816162,256.14702599924004,197.86185511881067
476,13.095751021612728,-245.86327368820778,-70.67411178698039,-171.98417552312296,96.92044714388476,-17.4089076635526,256.191352538941,198.63856950185263
477,13.257234153445427,-245.77537473020897,-71.07731160461157,-173.07350077740216,96.51878866381067,-17.55055285748735,256.2258580749439,199.37568973801186
478,13.413198465002875,-245.66954205584022,-71.49521194489073,-174.0776661507301,96.18443059328894,-17.74294065055915,256.2477713109549,200.08165957815424
479,13.561940852035821,-245.54288381113128,-71.92809568620771,-175.00587446835326,95.92486076087219,-17.985408613666337,256.2544255318625,200.76736604729035
480,13.702169737594785,-245.39272682691364,-72.37606056006277,-175.87099719965735,95.74654582489809,-18.27595639667644,256.2433353357766,201.44610282612337
481,13.833039414171814,-245.21669783685468,-72.83899912072873,-176.68941627415512,95.65489493677346,-18.611280657474474,256.2122696638873,202.13344402617898
482,13.954164942744017,-245.01279678560434,-73.31658591270228,-177.48074217240898,95.65424029543634,-18.98684695002457,256.1593182792331,202.84702671165113
483,14.065616802576889,-244.7794590629601,-73.80827386016605,-178.26741434756173,95.74782777055462,-19.396995029570103,256.0829491932458,203.60624352223962
484,14.167895605154355,-244.51560395189654,-74.31330131233462,-179.07419502381995,95.93781065544866,-19.8350732073862,255.98205486478042,204.43185089938706
485,14.261888145554103,-244.2206671311732,-74.83071030939186,-179.92757271285674,96.2252406456887,-20.293596803628734,255.85598533039536,205.34550338780943
486,14.34880681696797,-243.89461571528884,-75.35937562602466,-180.85509681984658,96.6100520093355,-20.764425382693506,255.70456679122267,206.3692296303627
487,14.430114974138482,-243.53794497869657,-75.89804317323625,-181.88466882215255,97.09103713436886,-21.23895332494154,255.52810456447386,207.52487019944647
488,14.507441237882682,-243.15165657635458,-76.44537548195898,-183.04381807502955,97.66581368047035,-21.708308359370406,255.327369712927,208.8335005215914
489,14.58248605778324,-242.7372188342752,-77.00000123024081,-184.35899087645996,98.33078502172515,-22.163552859517225,255.10356918323419,210.31486326120717
490,14.65692417118254,-242.2965106106805,-77.56056513028184,-185.85487986599568,99.08109638555642,-22.595882864409973,254.85829999205185,211.98683342794226
491,14.732306924702831,-241.8317512098584,-78.12577411609897,-187.55381736098127,99.91058918122523,-22.996819799863932,254.59348883894754,213.86493639599797
492,14.809968686041856,-241.34541967176332,-78.69443582722634,-189.47525132775846,100.81175575156317,-23.358389666814112,254.31131935432694,215.9619345231698
493,14.890941657765282,-240.840167352051,-79.26548589529973,-191.635316952559,101.77569647338825,-23.67328412037514,254.01414990937445,218.28749281746138
494,14.97588320406174,-240.31872801960728,-79.83800142982659,-194.04651087519838,102.79208100414583,-23.934997702064123,253.7044254695647,220.8479288396616
495,15.065019239129922,-239.7838296862344,-80.41119924590205,-196.71746970357003,103.84911569703502,-24.13793589949698,253.38458728387025,223.64604742317383
496,15.15810632630564,-239.23811199665428,-80.98441858004153,-199.652849931213,104.93351989904485,-24.277489860536132,253.05698416204666,226.68105734070903
497,15.25441408603017,-238.6840523152938,-81.55708905832475,-202.85330313536988,106.03051502991903,-24.35007530827179,252.72378869945868,229.9485650025805
498,15.352728539531771,-238.12390289397788,-82.12868544095709,-206.31553839444396,107.1238319546693,-24.353135146977163,252.38692128133064,233.44063960949018
499,15.451376185524534,-237.55964095582854,-82.69867135872597,-210.03246298802256,108.19574403414458,-24.28510711967148,252.04798434947068,237.14594457356182
500,15.548267813510565,-236.99293324100054,-83.26643511806544,-213.99339215471636,109.22713496017417,-24.145359498480126,251.70820936932876,241.04993084164676
501,15.640960252740594,-236.42511636186953,-83.83122171805849,-218.1843184989358,110.19761140212664,-23.934099102024533,251.368419045382,245.13508827884715
502,15.72673356506843,-235.8571940052557,-84.39206629788208,-222.58823127912385,111.08566997496467,-23.652256955129978,251.02900734819286,249.3812509762721
503,15.802680768874687,-235.28985147965875,-84.94773500111468,-227.1854752558634,111.86892583309006,-23.301357641039544,250.68993963013526,253.7659511197481
504,15.865807033671246,-234.72348728582367,-85.49667937369709,-231.95413819408722,112.52440659486186,-22.883378817319265,250.350774361869,258.2648141853451
505,15.913135262483003,-234.15826030009958,-86.03700968411243,-236.87045579207572,113.02891097473854,-22.400607472442367,250.01070674646328,262.85198627487335
506,15.941814969506783,-233.59414993461868,-86.56649099855012,-241.909223130999,113.35942711813061,-21.855499359707483,249.66863279079286,267.50058301318666
507,15.94923141323202,-233.03102553966465,-87.08256372891958,-247.04420304846008,113.49360165008596,-21.250547774311976,249.32323067384496,272.1831491144444
508,15.933112131232551,-232.46872060932515,-87.58238804613481,-252.24852424614022,113.41024711273498,-20.58816754565133,248.97305482005945,276.87211869450334
509,15.891628236245364,-231.90710715018304,-88.06290938055486,-257.49506518261046,113.08987293489665,-19.870599862866925,248.61663717855157,281.5402684845952
510,15.823487865983935,-231.3461658254479,-88.52094059095968,-262.7568233093816,112.51522343924368,-19.099843346070834,248.25258989071068,286.161158796912
511,15.728018968624351,-230.78604813138415,-88.95325552392589,-268.0072723124038,111.67180563611615,-18.277616551328745,247.8797038211735,290.70955977578694
512,15.6052382888076,-230.22712784584536,-89.35668859106418,-273.2207121400861,110.5483895713825,-17.405356681792668,247.49703828649737,295.16186254197765
513,15.455903185719894,-229.67004015385606,-89.7282354090892,-278.37261733385185,109.1374646342824,-16.48425844394972,247.1039985250308,299.496475850286
514,15.281542938535537,-229.11570796667255,-90.06515014118013,-283.4399883501484,107.43563634186087,-15.515355583251326,246.70039868790167,303.6942085889525
515,15.084466641294409,-228.5653558463078,-90.36503570111692,-288.40170824829374,105.44394963461652,-14.499645650409871,246.2865091697663,307.7386368821356
516,14.867745733915534,-228.02051256916832,-90.6259233861878,-293.2389036715463,103.16812675480824,-13.438256108894405,245.86308787453655,311.6164520756352
517,14.635170529881458,-227.48300366968346,-90.84633890875492,-297.9353050159284,100.61871061349858,-12.332647206897551,245.43139552272748,315.3177830954711
518,14.391181488624138,-226.95493528174705,-91.02535237446224,-302.47759657801123,97.81110842380627,-11.18484438035411,244.99319538299892,318.8364841303106
519,14.140777146870121,-226.43867035709405,-91.16261067424075,-306.8557437060141,94.76553513883233,-9.99769061734937,244.5507380001997,322.1703766227434
520,13.889401419276137,-225.9367981040059,-91.25835207618022,-311.06328108278916,91.50686109366588,-8.775107401001609,244.10673181124994,325.32143338191423
521,13.642813423584878,-225.45209736891047,-91.3134043147853,-315.0975450501016,88.06437193830457,-7.522351578500612,243.664301015661,328.2958925877744
522,13.406943204042605,-224.98749459291218,-91.32916874116277,-318.95983401021584,84.47145035813949,-6.246254632114523,243.22693246418837,331.10429085566346
523,13.187736906654427,-224.54601682515215,-91.30759373345653,-322.6554842896887,80.7651879587786,-4.9554301899651705,242.7984134314876,333.76140723549366
524,12.990995304378593,-224.13074013914635,-91.25114048622308,-326.1938533480169,76.98593277899171,-3.6604351877409713,242.38276199639537,336.2861132846921
525,12.82221015866474,-223.74473382048728,-91.1627437201287,-329.58820641110873,73.17677446854059,-2.373870039650814,241.9841515870341,338.7011271767948
526,12.686403566928018,-223.39100093167528,-91.04576910157469,-332.85550551292147,69.38296643438969,-1.1104037723629172,241.60683122041937,341.03267155635734
527,12.587975868302248,-223.0724162786152,-90.90396844083942,-336.0161014992338,65.65128297462846,0.11328845202872972,241.25504310407598,343.3100356739691
528,12.530567672940439,-222.79166330529074,-90.7414331056594,-339.09333061300003,62.029309891983154,1.278685631808283,240.93293948970006,345.5650430990538
529,12.516941210881367,-222.5511718347939,-90.56254554053832,-342.11301893751636,58.56466937150577,2.3656861832782097,240.64450079875164,347.8314280757271
530,12.548885626564902,-222.35305864984218,-90.37192829135626,-345.10290081144916,55.3041838825531,3.352981737843858,240.39345688527834,350.1441268836069
531,12.627150110699219,-222.19907261418933,-90.17438951663675,-348.09196103595167,52.29298902291556,4.218538987972247,240.18321282732887,352.5384949675328
532,12.751407792771877,-222.090545477105,-89.97486377012166,-351.10971443069826,49.57361067966228,4.940184354700979,240.01677999149965,355.0494651038193
533,12.920252119525818,-222.02834880408147,-89.77834704238421,-354.18543949638956,47.18502669041502,5.496280759216424,239.8967124803751,357.7106657367108
534,13.131226153482933,-222.01285677978325,-89.58982565937418,-357.34738567724554,45.16173675154611,5.866479734251815,239.8250485880066,360.553521808176
535,13.38088399330597,-222.04391409414387,-89.4141994833862,-360.6219763312635,43.532866535906614,6.032525952467154,239.8032566437728,363.6063632419054
536,13.664882389334934,-222.12080789143948,-89.25620074752361,-364.0330320950114,42.32133306438013,5.979085484445347,239.83218467777198,366.8935688579256
537,13.978099532148153,-222.24224298418278,-89.12031063144953,-367.6010415649706,41.543098563417956,5.69456415685808,239.91201377097985,370.43477563170785
538,14.314776852155683,-222.40632032091213,-89.01067627750079,-371.3425075899461,41.20653948318984,5.171878588554513,240.04221583254832,374.2441843882675
539,14.668678515420188,-222.61051990548208,-88.93103136201286,-375.26939747517997,41.31195612551488,4.409140104504795,240.2215177470806,378.3299927568558
540,15.033262275544145,-222.85169053520934,-88.88462363370714,-379.38872369693536,41.851246446050666,3.4102110564683796,240.44787495946935,382.6939841811807
541,15.401854637381684,-223.12604939659715,-88.87415300249411,-383.7022781219109,42.80776498361388,2.1850945403435604,240.7184581987126,387.33129780914334
542,15.76782312795283,-223.42919459529233,-88.90172368202808,-388.2065370213071,44.15638444705987,0.7501226345307277,241.02965703029864,392.230398010226
543,16.124739017619955,-223.75613326758503,-88.96881343041574,-392.89274616418965,45.86377324506907,-0.872084508344387,241.37710339011394,397.37325392772334
544,16.466525052502785,-224.101327281273,-89.076262117165,-397.7471850927108,47.88889727228766,-2.6529062040392635,241.7557174378534,402.73572900417383
545,16.787584405817764,-224.458757897003,-89.22428077960932,-402.75159814056303,50.183748687744846,-4.558260537895894,242.15977719790587,408.2881685834403
546,17.082908826092307,-224.8220102329238,-89.41248108992512,-407.88376835634045,52.694298195193625,-6.549387277917168,242.5830126342684,413.99616186053
547,17.34816558059169,-225.18437791596722,-89.6399238611228,-413.11820094659095,55.361660176078466,-8.583853292574931,243.01872402163775,419.8214441803197
548,17.579764062265383,-225.5389877510674,-89.90518416526963,-418.42687645169076,58.12345163016519,-10.616747388644667,243.45992366685513,425.722898180024
549,17.774903767348565,-225.87894338607504,-90.20643005926938,-423.7800310964115,60.91531622803474,-12.602020669669766,243.89949909105664,431.6576080105168
550,17.931605784079352,-226.19748564133798,-90.54151168597708,-429.1469223263993,63.67257425486966,-14.493919121363268,244.3303945163493,437.58191962735833
551,18.048730008662567,-226.48816544019914,-90.90805722189846,-434.4965407091331,66.33194859859951,-16.248447946059738,244.74580578914737,443.4524612721903
552,18.12598006445142,-226.74502338640892,-91.30357153202519,-439.7982343491083,68.8333073339792,-17.82480330209842,245.13938187394993,449.22708114007315
553,18.163897428409864,-226.9627683600972,-91.72553266894714,-445.0222182604997,71.12135616158943,-19.186707325711325,245.50542419281464,454.8656636055922
554,18.16384568982085,-227.13694632280843,-92.17148095057203,-450.1399487645825,73.14721006846904,-20.303586693928978,245.83907379480917,460.3307915403669
555,18.12798528430072,-227.26408993868375,-92.63909559824245,-455.12435223008225,74.8697737787531,-21.15154311265948,246.1364758451553,465.58823074810056
556,18.059238529165746,-227.3418396765817,-93.1262548818729,-459.94990840692634,76.25686526339558,-21.714075442008653,246.3949112967316,470.60722365233295
557,17.961244364776196,-227.36902788010892,-93.63107717752715,-464.59260055316713,77.28602606921342,-21.982527127731462,246.61288687849168,475.3605926371235
558,17.83830182842956,-227.34571905125085,-94.15194192591828,-469.02975611965957,77.94497658733225,-21.956248470803622,246.79017672054988,479.8246675928834
559,17.69530083489731,-227.27320229997278,-94.68749098364367,-473.2398113061937,78.23169312744076,-21.642480022316324,246.9278119586525,483.9790655647459
560,17.537638286124825,-227.15393523319256,-95.23661235606696,-477.2020391650074,78.15410552746224,-21.05597965478455,247.0280182395377,487.80636140597636
561,17.37111708847624,-226.99144188200958,-95.79840984375171,-480.8962837842448,77.72943712587777,-20.218429945656634,247.09410465452078,491.2916960628806
562,17.201825691939437,-226.7901700302435,-96.37216346098953,-484.30274279461077,76.98323118532078,-19.157672716436533,247.13031066690726,494.4223732292123
563,17.03599658660145,-226.5553152692464,-96.95728615100252,-487.4018374412971,75.94812730708237,-17.906822667492843,247.14161970262123,497.18749548566115
564,16.879843816082175,-226.29262033970332,-97.55328204445792,-490.1742037182731,74.66246622099798,-16.503311669395725,247.133549208889,499.5776873312504
565,16.73938170285942,-226.0081590071007,-98.15971029441437,-492.60082907206896,73.16881011481767,-14.987909978317589,247.11192729636272,501.5849441434475
566,16.62022920656491,-225.70811396078793,-98.77615657029065,-494.66334651097907,71.51246752571586,-13.403761627583055,247.08266570443064,503.2026327741531
567,16.527406325325988,-225.398558064555,-99.402211937178,-496.3444818542946,69.74010656935897,-11.795459948713633,247.0515379003359,504.4256517240358
568,16.46513058663921,-225.08524777097537,-100.03745663117198,-497.6286316208029,67.8985282042541,-10.208177019868707,247.02396989044584,505.25073825057177
569,16.436623050944387,-224.7734367388938,-100.6814448763009,-498.5025311036631,66.033652901659,-8.686849166898199,247.00485016635267,505.6768890671892
570,16.443934445585395,-224.46771672227334,-101.33368687220869,-498.955957756755,64.18975059345085,-7.275410777316703,246.99836439861227,505.7058439700721
571,16.487802812604713,-224.1718915474824,-101.99362533680102,-498.98240731555427,62.40891708119275,-6.016061915381254,247.00785991587765,505.342571153434
572,16.567553914569412,-223.8888883120567,-102.66060592973699,-498.5796809937518,60.73077325146633,-4.948552488632146,247.0357442622631,504.59569117739284
573,16.681054349106592,-223.62070782216378,-103.3338428247156,-497.75033143098074,59.192340135602564,-4.109467313544989,247.08342091421324,503.4777834800422
574,16.824725004800648,-223.3684140131371,-104.01238219190078,-496.5019306000412,57.82802646328252,-3.5315020296262967,247.15126363512937,502.00553298818335
575,16.99361940173441,-223.13216010128366,-104.6950672317815,-494.8471412495237,56.66965802402403,-3.242728598544371,247.23862929774148,500.19969170650944
576,17.181567809987246,-222.9112478282696,-105.38050867008688,-492.80359131363593,55.746480241241166,-3.2658598770898655,247.34390762806217,498.08484804071674
577,17.381384058044112,-222.70421538388334,-106.06706440288573,-490.39356564402607,55.08507565119181,-3.617533991429265,247.46460528403387,495.68901266246655
578,17.585127934440337,-222.5089491391343,-106.75283149938629,-487.64354023977666,54.7091543722997,-4.307649454121794,247.59746081911385,493.04304262914906
579,17.78441238838014,-222.32281390850892,-107.43565319647949,-484.5835908402872,54.6391960309324,-5.338789759866921,247.73858622382167,490.17993492931976
580,17.970741680251024,-222.14279602044826,-108.11314281599344,-481.24671109679736,54.891944147428525,-6.705780373857022,247.88362982559246,487.134027126337
581,18.135864525812753,-221.96565308912437,-108.78272555838099,-477.66807670689343,55.47977682014543,-8.395420776346224,248.02795439085259,483.94014712090365
582,18.272125280431606,-221.78806413833152,-109.44169779752772,-473.88429182909425,56.40999838346482,-10.386429413520908,248.16682337601682,480.63275676546243
583,18.372796229576675,-221.6067736868246,-110.08730185411798,-469.9326531029897,57.68411293609608,-12.649630667748655,248.29558748240044,477.24513501195827
584,18.43237489203718,-221.41872363215973,-110.7168124294056,-465.85046427275654,59.297149947689256,-15.148401415561166,248.4098631142292,473.8086447502528
585,18.44683185773871,-221.22116739696935,-111.32762927150127,-461.67442986879973,61.2371134515617,-17.839381538019655,248.50569428665904,470.352122573306
586,18.413797150869524,-221.01176196760596,-111.91736959881557,-457.44014884648976,63.48462023425029,-20.673438877240805,248.57969028388948,466.90142177107197
587,18.332676377996194,-220.78863516301325,-112.48395356060891,-453.1817185168463,66.01278097366183,-23.596865516520516,248.6291330331138,463.47912618079926
588,18.20469169726477,-220.5504275134811,-113.02567666555458,-448.93144681145986,68.78736381037297,-26.55276983049236,248.65205057090444,460.1044376062132
589,18.032846521133443,-220.29631017687484,-113.54126464070778,-444.71965920245606,71.76726392746879,-29.48261833660747,248.64725580127973,456.79322478490354
590,17.82181646708116,-220.0259820618326,-114.02990836172518,-440.57457780921635,74.90528584769557,-32.32787350321414,248.6143525620416,453.55820975438456
591,17.577772147946256,-219.73965053130598,-114.49127879931179,-436.5222457513726,78.149227270824,-35.0316684738344,248.55371336127124,450.40925937710205
592,17.3081418879013,-219.43800059575108,-114.92552377419246,-432.5864696028509,81.44323451122594,-37.54045706371113,248.46643463243302,447.3537457580239
593,17.021324461368817,-219.1221573466761,-115.3332493995778,-428.78875568942703,84.72938071079032,-39.80557723154372,248.35427583226485,444.3969382665858
594,16.72636361091586,-218.793645598797,-115.71548947025347,-425.1482204178994,87.9494003536628,-41.78466834289594,248.21958827194575,441.5423904985821
595,16.43259749778851,-218.45434950141714,-116.07366594869708,-421.6814597317827,91.04649894518661,-43.44288676657527,248.06523851398128,438.79228696398314
596,16.149297378652726,-218.1064735409188,-116.4095433406862,-418.40236796908545,93.96714683310576,-44.7538708516236,247.89452985706112,436.1477168004499
597,15.885310521266538,-217.75250511683814,-116.72517941458537,-415.32190242080065,96.66276244445936,-45.700415694142265,247.7111241877647,433.6088464950303
598,15.648722415598977,-217.39517783566242,-117.02287462277246,-412.44779735682215,99.09119345284374,-46.274830753209926,247.5189654806707,431.1749715761342
599,15.446552590101698,-217.03743390825917,-117.30512272617526,-409.78424012875456,101.21791482901011,-46.478968882376805,247.32220554055354,428.84443881636184
600,15.284496892899751,-216.68238364573475,-117.57456522932834,-407.3315312517508,103.01688015692702,-46.32393225426406,247.12513216026477,426.6144448401332
601,15.166727047994671,-216.33326002967783,-117.83395193004768,-405.0857586278719,104.47098601804234,-45.82947701731617,246.9320995579761,424.48073239589166
602,15.095755666675092,-215.9933666211233,-118.08610894446701,-403.03852174733197,105.57213647790638,-45.023152569270344,246.74746060047008,422.43721963492277
603,15.072371765929606,-215.66601765354542,-118.33391408622494,-401.1767436228273,106.32092247530645,-43.93922189341006,246.57549995590904,420.47560820901094
604,15.095648483861295,-215.35447007333087,-118.58027790143586,-399.4826058462162,106.72595555206136,-42.617416037769615,246.42036720446464,418.58502102338866
605,15.163021443228129,-215.0618485250913,-118.82812750764437,-397.9336356270567,106.80291389403536,-41.1015787506983,246.28600930071684,416.7517191759577
606,15.27043336830066,-214.79106566788636,-119.08038992877675,-396.50296367859227,106.57336966946056,-39.43825720026002,246.17610262322927,414.95894030734735
607,15.412538169425583,-214.54474148818184,-119.33997187551485,-395.1597595696543,106.0634705042966,-37.675292444222556,246.09398594823685,413.18688875336755
608,15.582955648117203,-214.32512615913092,-119.60973380227513,-393.8698382153134,105.30254624842999,-35.86045959993593,246.0425967544868,411.41289371078994
609,15.774566129963308,-214.13403127336966,-119.89245733319146,-392.5964190729978,104.32170703269053,-34.04020285862473,246.0244140011537,409.6117373020847
610,15.97983276505655,-213.9727739030451,-120.19080634253537,-391.30100942414515,103.1524917660527,-32.25850464865926,246.0414106655275,407.75614153854247
611,16.19113807466019,-213.84213702785848,-120.50728270854843,-389.94437524792545,101.82561868611874,-30.55592138387211,246.09501879417556,405.8173924108867
612,16.401120600678627,-213.74234858770976,-120.84417796366596,-388.48755751984606,100.369881533323,-28.96881041338102,246.18610872715004,403.7660706579631
613,16.602997233701505,-213.67307990210895,-121.2035219339185,-386.89288808395196,98.81122602904375,-27.52876401719762,246.3149827234209,401.5728519388799
614,16.79085705972942,-213.63346256353094,-121.58702924913061,-385.12495753198556,97.17203130619748,-26.262256489117366,246.48138167914163,399.2093341101585
615,16.959913534706455,-213.62212131720474,-121.99604449651963,-383.1514879640891,95.47061004439706,-25.190499694276568,246.68450223460573,396.648846345087
616,17.106703537671283,-213.63721916694183,-122.4314868567878,-380.94406636588127,93.72093019778414,-24.329491734928165,246.92302060032736,393.86719437108036
617,17.22922427622513,-213.67651026534415,-122.89379530576255,-378.4786998599464,91.93255136165287,-23.690233781495785,247.19511912794104,390.8432985838055
618,17.32700193267868,-213.73739608438422,-123.38287591684899,-375.736162518161,90.11076055980774,-23.27908310141118,247.49851203241067,387.5596875957108
619,17.401089149155972,-213.81698072738655,-123.89805353298696,-372.70211495302397,88.25688574109039,-23.098206763287116,247.83046759239355,384.002819168908
620,17.453991780437754,-213.9121218935891,-124.43803104488192,-369.36699245262605,86.36876072503352,-23.146100529783077,248.18782545307096,380.16321345509107
621,17.489528655809785,-214.01947498867003,-125.00086040775744,-365.725674291587,84.44131283616304,-23.418140442365427,248.5670092048772,376.0353993617668
622,17.512631286953624,-214.135529269182,-125.58392991210088,-361.77696453453893,82.46724370284483,-23.90713951424393,248.96403605419326,371.6176921130996
623,17.529093394763194,-214.25663657337176,-126.18397183501922,-357.522930889356,80.43777389716561,-24.60388781850822,249.3745268726015,366.91183626111376
624,17.54528254644709,-214.37903473102196,-126.79709350827083,-352.96816043997904,78.3434224056661,-25.497660357179633,249.79372087881916,361.92256084574467
625,17.567827839520056,-214.49886880588568,-127.41883330483822,-348.1189974083708,76.17479189145533,-26.576682718910643,250.2164994693404,356.6571000178969
626,17.60329837059716,-214.61221382917233,-128.04424131089326,-342.9828275593999,73.92333048691603,-27.828548901221517,250.63742331984503,351.1247323210569
627,17.65788728224265,-214.7151026898722,-128.6679826934749,-337.5674665956901,71.58204103361966,-29.240588303518223,251.05078598279002,345.33638519608536
628,17.737115562619937,-214.8035623511376,-129.28446016069864,-331.8806967785502,69.14610996516386,-30.80017997342999,251.4506858972993,339.30433919150835
629,17.84556846619154,-214.8736605963187,-129.88795059379981,-325.92997866491197,66.61343095373248,-32.49501240264501,251.8311171180303,333.04205060169033
630,17.986675493675367,-214.92156426590827,-130.47275002087417,-319.7223455742378,63.985003141510774,-34.31328725950748,252.18607739143891,326.5640941517286
631,18.162542541478416,-214.9436086317048,-131.03332068102668,-313.2644698245454,61.26518978185151,-36.24386595286072,252.5096906957431,319.88621135143217
632,18.37384232263351,-214.93637626068735,-131.56443401668983,-306.56287424561407,58.46182952229184,-38.27635914252412,252.7963401229205,313.02543727743307
633,18.61976652409402,-214.8967825171084,-132.06130392856474,-299.624251538004,55.586198547893105,-40.40116126441064,253.04080602665928,306.0002700760556
634,18.89804037845102,-214.8221638631991,-132.51970538734975,-292.45584826813575,52.652827018112625,-42.60943456244951,253.23840371981234,298.8308438440912
635,19.204997520461532,-214.71036448435243,-132.93607449725442,-285.06586941195,49.67917782294367,-44.89304958106399,253.38511479081015,291.5390664862432
636,19.535710487115065,-214.55981654023321,-133.30758738421258,-277.46386261625236,46.68520005844033,-47.24449110690247,253.4777064040598,284.1486889694521
637,19.884170246451962,-214.3696094467999,-133.63221671545503,-269.66104772881727,43.69277411309883,-49.65673984505358,253.51383363286266,276.68528014950135
638,20.243506615298486,-214.1395438561989,-133.90876597833076,-261.67056551288766,40.72506989881199,-52.12314067817525,253.4921206530726,269.1760909220216
639,20.60624008158104,-213.87016635180657,-134.1368826644729,-253.50762868931656,37.80584424221802,-54.637268406965134,253.41221732665747,261.6498017109176
640,20.96455432874753,-213.56278147882904,-134.31705221070325,-245.189567786449,34.958707238048376,-57.19280149625995,253.2748284607676,254.13615740942836
641,21.310577906023173,-213.219438816403,-134.45057499166523,-236.73577350009654,32.20638992018624,-59.7834133854809,253.08171408095953,246.66550347513365
642,21.636663246581538,-212.84289433859618,-134.53952880882818,-228.16754631845015,29.570046621725275,-62.40268918568485,252.83566038859706,239.26824580310446
643,21.935651646277222,-212.43654701157695,-134.5867191014231,-219.50787260738173,27.06862482030219,-65.044073082191,252.54042239785406,231.97426481574743
644,22.20111373286297,-212.0043531683702,-134.5956186128217,-210.781153151735,24.71833309755193,-67.70084863498877,252.2006403851286,224.81231994252363
645,22.427556192804513,-211.55072262336742,-134.570297782217,-202.01291396299706,22.53223397001939,-70.36615065592709,251.82173331934564,217.80948306700583
646,22.610587006289897,-211.08040172925544,-134.51534688493584,-193.22952886698468,20.519982625870846,-73.03300378895307,251.40977346369183,210.99063760962312
647,22.74703323373417,-210.5983495590333,-134.43579079832725,-184.45797860309207,18.687725031918163,-75.69437972390278,250.9713472270709,204.37807350497565
648,22.8350075407288,-210.10961401006423,-134.33699706150526,-175.725662509874,17.038159741550267,-78.34326248010956,250.5134079294788,197.99119822172614
649,22.873922046881045,-209.61921481443224,-134.22457768313546,-167.06026770679,15.570757620238101,-80.97270966073509,250.04312640063299,191.8463716694689
650,22.864450576611404,-209.13204013874238,-134.10428513281715,-158.48968864365602,14.282123447926441,-83.57589719302489,249.56774529656695,185.95686004856387
651,22.808442840727125,-208.65276257563534,-133.9819033083072,-150.04197852153735,13.166473939756068,-86.14613597111465,249.09444270326253,180.33289197082698
652,22.708796345285883,-208.18577884176796,-133.86313507772303,-141.74530478957476,12.21619909760119,-88.67685103185784,248.63021000507575,174.98179081444204
653,22.56929373116204,-207.7351755286279,-133.75348913880927,-133.62787504101107,11.422468678853594,-91.16151722162486,248.18174815251365,169.90815138701777
654,22.39441464677303,-207.30472103177638,-133.65817009255417,-125.71779842058187,10.775843339964554,-93.59354931406538,247.75538536469963,165.11402744629493
655,22.189132097053168,-206.89788152738544,-133.58197639783245,-118.04285190709447,10.266850792594347,-95.9661486743793,247.3570179029237,160.5990999006902
656,21.95870350714658,-206.51785673111522,-133.52921097197282,-110.63013037624182,9.886490926100413,-98.27211235209127,246.99207383344128,156.3608031886721
657,21.708466520377552,-206.16762931342336,-133.50360858171675,-103.50557282851825,9.626639811504905,-100.50361359168454,246.66549776752586,152.394398052977
658,21.44364887120341,-205.85002048239508,-133.50828303076887,-96.69337240715062,9.480330141310343,-102.65196504556411,246.38175273246523,148.6929906992196
659,21.16920060528528,-205.56774367305798,-133.54569578875189,-90.2152924747391,9.441894381429377,-104.70737748365502,246.14483400490866,145.24750916092637
660,20.889655534731666,-205.323448671924,-133.61764632667644,-84.08992305890041,9.506966290477518,-106.65872761596434,245.95828919089564,142.0466560353112
661,20.609027206906188,-205.11974974887042,-133.7252831543721,-78.33192013120753,9.67234614282601,-108.4933489424431,245.8252390502169,139.0768618108502
662,20.33074290177333,-204.95923321179185,-133.86913355527233,-72.95127412581415,9.935744543296128,-110.19685957689099,245.74839441326907,136.32226486960798
663,20.057617260837485,-204.8444420410427,-134.04914938622113,-67.95265434696667,10.29542855600946,-111.75304096618135,245.73006591198347,133.76474359098646
664,19.791865067400003,-204.77783771403347,-134.2647659049164,-63.334873292271226,10.749801319772361,-113.14378127361505,245.77216490542438,131.38402347697297
665,19.535150458458794,-204.7617417211156,-134.51497007555392,-59.090510058329656,11.296951795913543,-114.34909657325615,245.87619552092968,129.1578781807957
666,19.288667508378914,-204.79826125760235,-134.79837402504182,-55.205725107292515,11.934214298293934,-115.34724151182213,246.04323878336933,127.06243779660551
667,19.053244795082716,-204.88920483008215,-135.1132885087144,-51.66028971974044,12.65777749665612,-116.11491840962373,246.2739302295122,125.0726107364189
668,18.829464519498707,-205.0359938934027,-135.45779087562207,-48.42784253836218,13.462379240909772,-116.62758964610894,246.56843236148137,123.1626170716694
669,18.61778546172483,-205.23957629551288,-135.82978248961737,-45.47637323923699,14.34111678331885,-116.85989257772303,246.92640316493495,121.30662173262384
670,18.418658897358192,-205.50034659164658,-136.2270318982946,-42.76892052689189,15.285392337499786,-116.7861496097083,247.3469620405537,119.47944625401128
671,18.232627560644698,-205.8180774696588,-136.6472019279733,-40.264459586312306,16.285002401572275,-116.38095935956055,247.82865492686383,117.6573290157165
672,18.06039954645459,-206.1918657251181,-137.08786090054346,-37.91894404418092,17.328366967588757,-115.61984928046046,248.36942097829478,115.81869738341793
673,17.90289143581961,-206.62009548305895,-137.54648001390893,-35.6864601704273,18.402882696495357,-114.4799665851723,248.96656375583876,113.94491167118858
674,17.7612377181837,-207.10042068828284,-138.02042040409498,-33.52044669510289,19.495373482776788,-112.94078325925133,249.61673036670055,112.02094074221897
675,17.636766478557,-207.62976820651545,-138.50691435804134,-31.374932100714197,20.592603696274185,-110.984792273319,250.31590217948826,110.03593217560007
676,17.530943974141596,-208.20436206332414,-139.00304549776456,-29.205742411280323,21.68181462420608,-108.59817517901881,251.05940045879106,107.98364572947665
677,17.445292951636855,-208.8197683247262,-139.5057325772857,-26.97163613521619,22.75124358588952,-105.77142509583268,251.8419094685571,105.8627264998933
678,17.381291335513698,-209.47095897065321,-140.0117209973248,-24.63532881445521,23.790587707996448,-102.49991253647713,252.6575184499179,103.67680275173898
679,17.340259232245582,-210.15239200890673,-140.51758539913735,-22.164377201821317,24.79138001971498,-98.78438362886662,253.4997826206416,101.43440203775609
680,17.32324297840619,-210.8581042166187,-141.01974578859443,-19.531901936987747,25.7472538232769,-94.63138060478015,254.36180215223752,99.14868735426265
681,17.330905183501578,-211.58181245323462,-141.51449854609115,-16.717136945119467,26.654081469273674,-90.05357317111527,255.23631709375678,96.83702242219432
682,17.363429411569225,-212.31701956665333,-141.998062397397,-13.705802633158662,27.509984718961373,-85.06998744134492,256.11581552095265,94.5203816874906
683,17.420447341607733,-213.05712145257598,-142.46663798026316,-10.49030738095448,28.315224749572778,-79.70611764410184,256.99265176544515,92.2226264553239
684,17.500994950139564,-213.79551259652763,-142.91647810767697,-7.069787227541936,29.071989554012358,-73.99390575885742,257.8591712684272,89.96967382711117
685,17.603502442870695,-214.52568815236188,-143.34396439673938,-3.449996821978625,29.784103984651516,-67.97157584706342,258.7078382855856,87.78858958433833
686,17.72582031291589,-215.24134110353467,-143.74568495823644,0.35693422483098175,30.45669206424356,-61.68331287893791,259.5313623870882,85.70663936659793
687,17.86528113209094,-215.9364532695159,-144.11850770115427,4.332866074479875,31.095822007634574,-55.17877989611356,260.3228196276692,83.7503340891128
688,18.01879380450562,-216.60537894389364,-144.45964469258388,8.454122709173696,31.708161975045996,-48.51247221991427,261.0757646024212,81.94450564462471
689,18.182964449851262,-217.24291991998408,-144.76670481285998,12.6920656567242,32.30066973859179,-41.742913219885146,261.784330425329,80.31144795541907
690,18.354236131827378,-217.84439065893497,-145.03773416459657,17.01375937149448,32.88033320378466,-34.93170313830434,262.4433147789557,78.87015682865855
691,18.529038360607807,-218.40567241261084,-145.27124555582483,21.382720468293588,33.453972129775856,-28.142440651931544,263.04825117883314,77.63569996971175
692,18.70393664837503,-218.9232552842973,-145.46623926058732,25.759741461159408,34.02810533642938,-21.439545605454914,263.59546517764335,76.6187454499839
693,18.87577245044626,-219.39426757233355,-145.62221712625808,30.103776750131562,34.60888270891202,-14.887019321765262,264.08211545586266,75.82527193397277
694,19.041784669962503,-219.81649230414038,-145.73919136665424,34.37287527948725,35.20207753981903,-8.547184594475283,264.5062198596131,75.25647635939538
695,19.1997054783132,-220.1883715529379,-145.81768848417778,38.52514156077066,35.81313200039499,-2.479449878259126,264.8666666263486,74.90888482872006
696,19.34782531494127,-220.50899980872967,-145.85874795407545,42.51970511432344,36.447246346869235,3.2608590362245597,265.1632113064917,74.77466128375606
697,19.485024382692554,-220.7781081777703,-145.86391473376815,46.317677587635494,37.10950024093444,8.62356105978169,265.39646017433125,74.84209720850596
698,19.610770537029005,-220.9960413640144,-145.83522444319848,49.88307616761654,37.804991948919195,13.564543453451751,265.5678411477132,75.09625491993992
699,19.725085924480744,-221.16372924597366,-145.77518024937973,53.18369093795988,38.53897848027796,18.04652271944538,265.67956341125745,75.51972765995977
700,19.82848685949511,-221.28265455011524,-145.68672101865107,56.19187275241485,39.31699780271135,22.03962626514629,265.7345671311378,76.09347260731644
701,19.9219031137242,-221.3548177758198,-145.57318096169837,58.88521781334978,40.144954064348134,25.521785833041683,265.7364648480589,76.79766903613202
702,20.006583827294055,-221.38270017046088,-145.43824150444468,61.24712631554767,41.02914872874743,28.478940205872224,265.6894761875407,77.61255367992888
703,20.083997393094673,-221.36922513591696,-145.28587632367,63.26721558454732,41.97624448006457,30.90505009000136,265.5983572930202,78.51918877955863
704,20.155731903331816,-221.3177179864892,-145.12029051946516,64.94157281048662,42.99315405895868,32.801932664759015,265.46832595504316,79.50012466070329
705,20.223401429080962,-221.23186361531847,-144.94585502867562,66.27283804747555,44.086852260542955,34.178927557002126,265.30498307438614,80.5399271620903
706,20.288562040860725,-221.1156615021373,-144.7670377150319,67.27011389420177,45.264115864389034,35.052410228245954,265.11423106803335,81.62555004062547
707,20.35264047581421,-220.97337762351012,-144.5883329031074,67.94870383147027,46.531203174442936,35.44517287573477,264.90219003521986,82.74654308467774
708,20.41687779067482,-220.80949311288896,-144.41419114600282,68.32968669158448,47.893491976678916,35.38569662282122,264.67511270308324,83.89509778453498
709,20.482289915001513,-220.62864981128524,-144.24895061038774,68.43934049846037,49.355101586329965,34.90734155217191,264.4392991551729,85.06594367920884
710,20.549646355971365,-220.43559301869405,-144.09677081580477,68.30843497251733,50.91853023125466,34.047482610294004,264.2010120771576,86.25611910223957
711,20.619467306174553,-220.23511181282467,-143.96156890469217,67.97141783161538,52.584341896650706,32.84661937411148,263.96639291301864,87.46464869605005
712,20.692038306363,-220.03197741223022,-143.8469583203547,67.46552485095528,54.35093573777513,31.347486099981683,263.74137916388514,88.69216548636145
713,20.767440737949862,-219.83088035264015,-143.75618967878034,66.82984685321001,56.21442593951646,29.594185468612945,263.5316231816802,89.94051685843945
714,20.845595880879625,-219.6363675917661,-143.6920936863013,66.10438809031743,58.16865124383295,27.631365154584973,263.3424130881302,91.2123915549089
715,20.926319854079118,-219.45278074395424,-143.65702632542644,65.32914966201528,60.20532271968601,25.503450970164646,263.17859669000467,92.51099926247251
716,21.009386103844825,-219.28419630355907,-143.65281735118097,64.54326848397866,62.31430717346159,23.253944220464874,263.04450937810174,93.83982595315261
717,21.094591152979007,-219.13436812808612,-143.68072421422218,63.78423694243025,64.48403289445972,20.924784896628637,262.94390703001335,95.20247758926197
718,21.181818468137546,-219.00667198308875,-143.7413943754577,63.087221467642266,66.7019946801258,18.555777577658365,262.8799049522215,96.60261324331412
719,21.27109502357791,-218.90405187026016,-143.8348392417672,62.48449101210891,68.95532673432568,16.184074137590482,262.8549239573322,98.0439576499527
720,21.362635495752198,-218.82896826858098,-143.96042262819498,62.004959862329564,71.23140603562794,13.843706493053462,262.87064486321356,99.53037427511556
721,21.45686974331382,-218.7833492926477,-144.1168659284151,61.6738437813595,73.51844635980756,11.56516335293085,262.92797309097267,101.06597441003092
722,21.55445020283522,-218.76854694380597,-144.3022711815666,61.512424139960665,75.80604502069049,9.375007256998604,263.0270155555061,102.6552362166197
723,21.656237200856527,-218.7853017226811,-144.5141620050049,61.53791142187246,78.0856503730318,7.295532194213434,263.1670724096521,104.30311004871027
724,21.763261952757446,-218.83371938876525,-144.74954100586908,61.76339751214932,80.35092720237463,5.344467277596474,263.3466460487196,106.01509206946068
725,21.876668909084973,-218.91326326654482,-145.0049609563189,62.197885717464445,82.598007631604,3.5347371676843724,263.5634688953733,107.79725575987305
726,21.997640820249952,-219.0227642910534,-145.27660594707177,62.84638834947496,84.82562503918531,1.874293878370822,263.8145500337167,109.65623842855899
727,22.127311314775422,-219.16044937831953,-145.5603781677908,63.710083361871135,87.03513591930272,0.36603628269349686,264.0962392247608,111.59918553589789
728,22.26667094901948,-219.32398718375023,-145.85198601883909,64.78652335311092,89.23043873769942,-0.9921674587965044,264.40430568754743,113.63365866949324
729,22.416473576255918,-219.51054920992524,-146.14702982942302,66.06989181133535,91.41779986386969,-2.2073432155540664,264.7340284910399,115.76751353374966
730,22.577150354573575,-219.7168836321239,-146.44108229627076,67.55130254151763,93.60559561232026,-3.2911547674119235,265.0802953965756,118.00875318227506
731,22.748738520165954,-219.939398980814,-146.72976159530035,69.21913857856943,95.80397763053459,-4.2595304604658315,265.4377072319419,120.36535987937599
732,22.93083102828399,-220.17425472348924,-147.00879573252863,71.05942638817235,98.02446752720874,-5.132182279986437,265.8006850396402,122.84510718161917
733,23.12255142529635,-220.41745569444075,-147.2740770472625,73.05623982897912,100.2794865176987,-5.932033296456685,266.1635772042934,125.45535259658757
734,23.32255625392756,-220.66494727889102,-147.52170609184037,75.19212655320128,102.58182719144489,-6.684573816231959,266.5207637255971,128.2028107969922
735,23.529065292982377,-220.91270838357363,-147.748024713654,77.44854772239913,104.9440770428357,-7.41716877578863,266.86675506804073,131.09330791183797
736,23.739918114040076,-221.15683954709485,-147.94963913993402,79.80632038580117,107.37800673322418,-8.158339303501531,267.19628366495436,134.1315187565305
737,23.952653742799242,-221.393643996797,-148.12343490983696,82.24605072645262,109.89393971879747,-8.937040396048541,267.50438695856263,137.32069077045898
738,24.164608656674414,-221.61969999857308,-148.26658612226262,84.74854583003906,112.50012338766409,-9.781954518990306,267.7864815137254,140.66236065420682
739,24.373027068936352,-221.83192345876142,-148.37656138511605,87.29519203194594,115.20212465950353,-10.720817713186523,268.0384280928756,144.15607203080046
740,24.57517659028227,-222.0276203505826,-148.45112819230496,89.86828961665852,118.00227466499197,-11.77979074086044,268.2565876477515,147.79910478121366
741,24.76846207660543,-222.20452899819998,-148.48835658078502,92.45133684478726,120.89918742292889,-12.982883510548076,268.4378680576325,151.58622898958356
742,24.950530912950118,-222.3608524411534,-148.48662216226649,95.02926073542396,123.88737640083014,-14.351437215232698,268.5797612240471,155.50949859635637
743,25.11936410535504,-222.49528105366267,-148.4446082910152,97.58859703673666,126.95699066560844,-15.903665964054726,268.6803700151251,159.55810162803792
744,25.273349088935237,-222.60700541622217,-148.36130744127917,100.11762637471176,130.09368921062764,-17.65425852775233,268.73842472919483,163.7182847805188
745,25.411331848969002,-222.69571915263398,-148.23602261989456,102.60647671185512,133.27866805640494,-19.614041080458655,268.7532890962133,167.9733696105966
746,25.532647637082256,-222.76161107644776,-148.06837024560872,105.0472033531962,136.48884972580615,-21.78970315746436,268.72495603389467,172.30387512099054
747,25.637131086844324,-222.80534579055887,-147.85828600278393,107.433856635825,139.69723847920397,-24.18359102566091,268.6540334030076,176.68775681634648
748,25.725107706286344,-222.82803221849494,-147.60603479183982,109.76254430895202,142.8734372356612,-26.79357481137687,268.54172018665304,181.1007654103297
749,25.79736946361818,-222.8311804815883,-147.3122252281942,112.03149089390648,145.98431371879894,-29.612997505345348,268.3897739975853,185.51691971486932
750,25.855137538474672,-222.8166487132315,-146.9778282426236,114.24109075795654,148.99479477409648,-32.63071478202236,268.200471335817,189.9090787647626
751,25.900015377368227,-222.78658236134913,-146.60419831012294,116.3939462672448,151.86876014028852,-35.83123396128315,267.97656225920207,194.2495893491111
752,25.933935033582703,-222.74334905272465,-146.19309491067685,118.49487819202479,154.57000150170865,-39.194958217476874,267.7212210397015,198.51097840102562
753,25.959099438431785,-222.68947218366267,-145.74670118276651,120.5508931204345,157.06321034466055,-42.698538453348796,267.437994065161,202.6666562514694
754,25.977922800928912,-222.6275660863252,-145.26763642234232,122.57109210509759,159.314959227573,-46.31533053179014,267.1307457687542,206.69159687400116
755,25.99297082419673,-222.5602748885414,-144.7589591651823,124.56650585932269,161.29464496595332,-50.01595037997145,266.80360275659416,210.56296436457617
756,26.00690190462255,-222.4902161331106,-144.22415814039294,126.54984409757233,162.9753676454958,-53.768914441575646,266.46089568097517,214.26065979237057
757,26.022409988274138,-222.4199291371761,-143.66712932653152,128.5351497160657,164.3347247922908,-57.541348552584815,266.1070979729297,217.76776787637613
758,26.042169355219293,-222.3518272873251,-143.09213844577616,130.53735234508378,165.35550432501208,-61.29974489691529,265.7467604556025,221.07088782985107
759,26.06878134934947,-222.28815315592584,-142.50376925652444,132.57172050417952,166.02626268209306,-65.01074437063215,265.38444112839585,224.16033699435732
760,26.104723023959124,-222.23093546341516,-141.90685884711579,134.65321728422555,166.3417759079493,-68.64192034587776,265.0246299694652,227.03021979183984
761,26.1522978413944,-222.18194737924284,-141.30642182631027,136.79577113409223,166.30335191420414,-72.16253940615347,264.6716693718516,229.67835840762908
762,26.213588860141865,-222.14266632214685,-140.70756587550028,139.01148066006903,165.91899218633753,-75.54427530653152,264.3296717071934,232.10608584010703
763,26.290415134190454,-222.11423619700705,-140.11540145616257,141.3097797404025,165.20339163095517,-78.76185452087891,264.00243635169727,234.31790680691114
764,26.384292350108097,-222.0974338618677,-139.5349483758878,143.69659584152998,164.177766856565,-81.79361542633222,263.6933691972315,236.32103759954705
765,26.496399193163352,-222.09264247972575,-138.97104142935405,146.173539417879,162.86950661797877,-84.62196825127373,263.4054081725496,238.1248423063912
766,26.62755153195601,-222.0998349641895,-138.4282368186292,148.73716542877764,161.3116438063577,-87.23374881876008,263.14095854919384,239.74018983845073
767,26.778186845610396,-222.11857054385828,-137.91072102845126,151.37834950358746,159.54215611595404,-89.6204649476962,262.90184167054707,241.17876362417528
768,26.948360993754847,-222.1480064738391,-137.42222443685014,154.08182104195842,157.60311150342494,-91.77843911716539,262.6892601990272,242.45236266798653
769,27.13775844052657,-222.1869255970263,-136.9659427186973,156.82589264963477,155.53968319235594,-93.70885411791002,262.5037821835417,243.57223705082373
770,27.345715613753576,-222.23377934727236,-136.54446936756545,159.58241858523482,153.39906552551653,-95.41771022289518,262.34534532153435,244.54850108986793
771,27.571255371340996,-222.28674496812565,-136.159742149768,162.3170041498743,151.22932539290932,-96.91570353377834,262.2132816628423,245.38966266360032
772,27.813128797308767,-222.34379497267477,-135.81300530610184,164.9894748168281,149.0782243967797,-98.21803556563295,262.10636166750083,246.1022986365589
