time,ax,ay,az,gx,gy,gz,accmagnitude,gccmagnitude
0,26.92940280422232,-272.3621309661063,-1.829213126853692,-29.482826306165897,63.506145727411756,3.117672270875254,273.691908372156,69.83093891928611
1,26.097015223552535,-272.2912027211175,-1.8691757721123905,-29.26007257214687,64.4446977502774,2.8813341738179474,273.55274929353493,70.67089124743167
2,25.273022829753856,-272.20839761096823,-1.916365554154831,-28.97716594377988,65.35765928496913,2.637492255640792,273.40265856234674,71.47163037921719
3,24.46564977483267,-272.1146355879101,-1.970104343039504,-28.62898324350715,66.23567201888709,2.385086844544042,273.2432474413839,72.22241541847237
4,23.682701151832394,-272.0108302910526,-2.029659366245005,-28.211418479900487,67.06982160809207,2.1232963754439473,273.0760870642657,72.91323118903509
5,22.931382388732885,-271.8978674457101,-2.0942580202191223,-27.721610368995016,67.85182443063958,1.8516050148222847,272.9026718384446,73.5350451728267
6,22.218143045898923,-271.7765877941557,-2.163103490005931,-27.158133903379618,68.57419269449895,1.5698574701874637,272.7243892857145,74.08002938825953
7,21.54854886163633,-271.6477743851917,-2.235390326427505,-26.521147213143554,69.23037464804027,1.2782979557364507,272.5424964666891,74.54174089468019
8,20.927184012591464,-271.51214414646205,-2.3103187374783616,-25.81248929634575,69.81486842410916,0.9775911762021819,272.35810307646017,74.91525816921099
9,20.357584277991464,-271.37034415987205,-2.387106285509435,-25.035728578432323,70.32330888490075,0.6688242572876159,272.1721616856171,75.19727331671737
10,19.842200938726798,-271.2229536023225,-2.464995934006092,-24.196165486653545,70.75252727618837,0.35348966175303864,271.985466069689,75.38614191610264
11,19.38239453772412,-271.0704924654522,-2.5432599030152536,-23.300793423303777,71.10058396497115,0.033450129715763735,271.798658668964,75.4818933169187
12,18.97845691491949,-270.91343770955876,-2.6211995224484035,-22.35822164476534,71.36677505822543,-0.28911250467863303,271.61224771853693,75.48620444247831
13,18.62965923789091,-270.75224656431567,-2.6981420961762606,-21.378561437901762,71.551614129346,-0.6117621389319453,271.4266336085664,75.40233983236502
14,18.334323210899004,-270.5873855970996,-2.773436478469558,-20.373274901033653,71.65679048788824,-0.9318839434237491,271.2421429138105,75.23506008865824
15,18.089912347620505,-270.41936325736765,-2.846449402882294,-19.354984682856745,71.68510543130095,-1.2467674499297265,271.05906760004405,74.99050043677711
16,17.893140122929957,-270.2487630980459,-2.9165644891997125,-18.337243678319147,71.64038789205165,-1.5536939720342304,270.87770639781616,74.67602109391947
17,17.740091897393995,-270.07627486364635,-2.983185311972706,-17.33426563151093,71.52739106292127,-1.850025233366577,270.69840531887775,74.30003168533734
18,17.626357617721474,-269.90272101668063,-3.0457431025386037,-16.3606200841047,71.35167202692956,-2.13329025736379,270.5215946680175,73.87179289867004
19,17.54717230354717,-269.7290767733399,-3.1037088013363094,-15.430897403905828,71.11945701331786,-2.4012678046092555,270.3478203903015,73.40119957460176
20,17.49756114872264,-269.5564820944259,-3.1566084638305054,-14.559351395585145,70.83749546101349,-2.6520618910005522,270.17776794505465,72.89855022488068
21,17.4724857201403,-269.38624431998574,-3.204040546971295,-13.759528333486552,70.51290651400824,-2.8841681580246803,270.0122771077955,72.37430850962394
22,17.46698736447749,-269.219830431818,-3.245693360932102,-13.043892486115148,70.15302190629527,-3.096529122173579,269.85234636358746,71.83886260520151
23,17.476323692386824,-269.0588484315098,-3.2813609233864423,-12.423459526407276,69.76522937669706,-3.2885766258469293,269.6991260340396,71.30228867838849
24,17.496093943918577,-268.9050179794788,-3.310955660088357,-11.907450484094984,69.35682069723954,-3.4602601076632302,269.5538999275931,70.77412473966065
25,17.522349024258663,-268.76013107212526,-3.3345169684295843,-11.502979639995367,68.93484811719506,-3.6120595671806446,269.41805593552834,70.26316090699477
26,17.551681973285962,-268.6260041101751,-3.352215488762236,-11.214789537686402,68.50599266721977,-3.744982342536429,269.29304658211845,69.77725164916522
27,17.581294875824117,-268.5044233811494,-3.3643535943235032,-11.045044966373348,68.07644744625998,-3.860543090762458,269.1803412394716,69.32315500242498
28,17.60903914422941,-268.39708672958807,-3.3713627061643408,-10.993195611507936,67.65181867855085,-3.9607266802469563,269.08137254577207,68.90640307202233
29,17.63342770258599,-268.3055447327437,-3.3737975196915846,-11.05591448909369,67.23704684449882,-4.047934117082139,268.9974802313522,68.53120727341856
30,17.653619366031023,-268.23114479887414,-3.3723264364472216,-11.227116547724652,66.83634947346017,-4.124912187360132,268.9298557856382,68.200400692366
31,17.669377178560215,-268.17498125676997,-3.3677168515751488,-11.498059041359767,66.45318624329681,-4.194668181313067,268.8794911495048,67.91541865614545
32,17.681003607314064,-268.1378538300344,-3.3608136914525777,-11.857522536184453,66.0902459360381,-4.2603717692579295,268.84713401019354,67.67631717380897
33,17.689256464052598,-268.12023608070893,-3.3525098451505495,-12.292068861441651,65.74945369180638,-4.325246747410214,268.83325152217026,67.48182745676029
34,17.695250273445076,-268.12225468294764,-3.3437079936749146,-12.78637005560066,65.43199606627962,-4.392455942508853,268.83800360656596,67.32944345330482
35,17.70034837985362,-268.1436798374912,-3.3352747619641305,-13.3236003590131,65.13836078595786,-4.464983028128328,268.8612264740758,67.2155383655606
36,17.706051201293562,-268.18392673991445,-3.3279897950791377,-13.88588137520514,64.8683878854587,-4.54551532283707,268.9024266334372,67.13550551355225
37,17.713885661133762,-268.24206779222686,-3.322493878839445,-14.45476846979062,64.62132908362054,-4.636331808386225,268.960785404449,67.08391862856976
38,17.725300160206892,-268.31685515139424,-3.3192412038508143,-15.01176430025235,64.3959127105524,-4.73920063584229,269.0351738151912,67.05470659965059
39,17.741568896442587,-268.40675298231486,-3.318461005647839,-15.53884335306414,64.1904120814863,-4.85529025945575,269.1241774982527,67.04133775034
40,17.763709098796348,-268.50997825491436,-3.3201329785201814,-16.01896993326145,64.00271574445635,-4.985098021255869,269.2261306586041,67.03700878055821
41,17.792414464569582,-268.6245482859281,-3.3239791780654104,-16.43659154167636,63.830398337104164,-5.128399485476006,269.3391575446493,67.03483348213508
42,17.828007256284845,-268.74833277707296,-3.329472941272447,-16.77809010427158,63.670790782883806,-5.284221096929447,269.46121938570167,67.02802620028643
43,17.87041015232669,-268.8791079592445,-3.3358632626758147,-17.03217503395051,63.52104829307009,-5.450837880235311,269.5901645679964,67.0100748587474
44,17.91913757206409,-269.01461060921105,-3.3422117529565583,-17.19020447489308,63.37821430301661,-5.625797018716027,269.7237799111389,66.97489838142593
45,17.973305201790982,-269.15259012000286,-3.347439005602481,-17.246424087256095,63.23927826972909,-5.805967293674776,269.85984125384823,66.91698368677149
46,18.03165586837912,-269.29085736645385,-3.3503774922693164,-17.198116041715643,63.101225316345854,-5.987613457412268,269.99616206063655,66.83149811113604
47,18.092599622866324,-269.4273296309554,-3.3498284107557867,-17.04565408448508,62.961076023876835,-6.166493594084908,270.1306392404159,66.71437398301163
48,18.154265799564797,-269.5600711703785,-3.344619970867163,-16.79246320355663,62.81591514034794,-6.337976442909178,270.26129565114246,66.56236289270464
49,18.21456488073492,-269.6873290520025,-3.333664538155851,-16.444884471917884,62.662908494887105,-6.497174637235088,270.3863187907498,66.37305785481865
50,18.271258223921222,-269.807563734666,-3.3160120587562765,-16.011947594702175,62.49930803074683,-6.63908892092729,270.50409501609465,66.14488229199674
51,18.32203394326853,-269.9194736528406,-3.2908973278136906,-15.505056593936239,62.32244592547883,-6.758757640020571,270.61323841142735,65.87704624659885
52,18.364587149107034,-270.0220129583037,-3.2577788910229444,-14.937598655403786,62.129720516730984,-6.851405209492748,270.7126133080809,65.56947297286385
53,18.3967021848942,-270.11440181962587,-3.2163676282548734,-14.3244919550833,61.91857882307541,-6.9125830108779525,270.8013496598569,65.22270258814078
54,18.416333767709837,-270.19612933522046,-3.1666434141255726,-13.681693551493815,61.68650170415346,-6.938296550405038,270.8788510842409,64.83778217206572
55,18.421683583270394,-270.2669498619295,-3.1088588634842202,-13.025691144528862,61.43099714438691,-6.925113772465414,270.9447961056756,64.41615210628676
56,18.41126915919991,-270.3268739378318,-3.0435301664156755,-12.373001552820591,61.14960499776774,-6.870250946691553,270.9991335427033,63.95953657681843
57,18.383982524156192,-270.37615481813623,-2.971416247424165,-11.739694660245632,60.83991408526489,-6.7716342019182125,271.0420728833149,63.46984345854548
58,18.33913689936125,-270.4152711492932,-2.8934885894041122,-11.140956203723755,60.499590866167225,-6.62793636359041,271.07407006465075,62.94907664036505
59,18.276500300594844,-270.44490581106146,-2.810894719523132,-10.590698281711017,60.12641815150011,-6.438590162383937,271.0958086291255,62.39926260879251
60,18.196315448275822,-270.46592070461054,-2.7249184462423326,-10.101224036587274,59.718342127386265,-6.203780042156244,271.1081760124849,61.82239253352658
61,18.099305751450693,-270.47932732109064,-2.636939564002027,-9.682952263389325,59.27352600598919,-5.924415657765492,271.1122347941761,61.22038086968813
62,17.986667285600312,-270.48625319166456,-2.548395087773133,-9.344207448088985,58.79040873280235,-5.602090715352229,271.1091890078475,60.595041312516805
63,17.86004669103804,-270.48790464865937,-2.4607433029143566,-9.091079807503057,58.26776719163413,-5.239031064213005,271.10034592862786,59.94808055296498
64,17.721504981971428,-270.4855266213745,-2.375431184143555,-8.927357920382565,57.704780191858184,-4.838035856920856,271.0870740429006,59.28110960108686
65,17.57346757354267,-270.4803604225568,-2.293865251837225,-8.854533826576272,57.10109223952959,-4.402415117879875,271.07075815451395,58.59567156256878
66,17.41866147141922,-270.47360067270165,-2.217385776944865,-8.871877615982786,56.45687475798763,-3.9359262498438796,271.0527528146816,57.893283806420875
67,17.26004140577919,-270.4663527141177,-2.1472442656085264,-8.976575991501946,55.77288210377797,-3.4427110062695307,271.03433552663387,57.175491560196065
68,17.10070747854712,-270.45959213814456,-2.0845841500693716,-9.16392724507227,55.05049952788643,-2.927233456912111,271.01666150318437,56.443929242878795
69,16.94381742688703,-270.4541283424697,-2.030424568988384,-9.427583492355414,54.29178027119269,-2.3942186701990202,271.0007220857772,55.70038541375759
70,16.792496855863458,-270.4505741854706,-1.985647121393249,-9.759829774683574,53.4994692629489,-1.848591359340876,270.9873091001283,54.946867086297864
71,16.64975082645546,-270.4493236698367,-1.950985493774108,-10.151888741973403,52.677011317795895,-1.2954135998117913,270.9769872907323,54.18565924030236
72,16.518380035854364,-270.4505391888916,-1.9270177791674017,-10.594239169068231,51.828542215948474,-0.7398208584450091,270.9700765674881,53.419375594192324
73,16.400904492812117,-270.4541493380924,-1.9141611095751416,-11.076936624324786,50.95886156904342,-0.18695592366146246,270.966645244826,52.65099705616201
74,16.29949711678028,-270.4598577276323,-1.9126680156780835,-11.589925186596144,50.07338689929358,0.358099160425517,270.96651485694764,51.88389474064267
75,16.215929171150936,-270.4671626217781,-1.922623849534627,-12.123330083036995,49.178088879578524,0.890392479264093,270.969276490546,51.12183498929465
76,16.151528938661308,-270.47538653300495,-1.943944711719124,-12.667722400043035,48.27940822267262,1.4051717665672265,270.9743178492885,50.36896448891644
77,16.1071545470154,-270.48371416190247,-1.9763755496716104,-13.214348602694482,47.384155300276085,1.8979524964735772,270.9808594990728,49.62977437997452
78,16.08318132702569,-270.49123646870993,-2.019488347845839,-13.755319534644938,46.49939417404804,2.364582754518539,270.98799810864847,48.90904319246807
79,16.079503570212925,-270.4969983623495,-2.0726805965285515,-14.283755801109526,45.632313231937175,2.8013029919696733,270.994754171399,48.21175943149891
80,16.095550123200923,-270.50004752120503,-2.1351745375393953,-14.793888673997948,44.7900850213524,3.2047988105826173,271.00012169871303,47.54302555316507
81,16.130312928589948,-270.4994820989018,-2.206018037286616,-15.281117500267328,43.9797182577605,3.572245105552968,271.00311759706284,46.907945884354454
82,16.182387351981813,-270.494495406421,-2.2840882503513535,-15.742025809963875,43.20790545039683,3.901340171567454,271.0028287653066,46.311501749186775
83,16.250022901741715,-270.4844160452502,-2.3680993589826835,-16.174358979726843,42.48087006923076,4.1903286937909625,270.9984553193663,45.75841763762027
84,16.331182747590294,-270.46874232232403,-2.4566154770567614,-16.576966667425374,41.80421754767131,4.438012882319352,270.9893486936887,45.253022650142
85,16.423610222220137,-270.44717001926665,-2.5480693204856757,-16.94971355985794,41.1827946382929,4.643751418210087,270.9750435924005,44.79911173906951
86,16.524900187442032,-270.41961271311504,-2.6407866275276892,-17.29336245270361,40.620561792485454,4.807446452458182,270.9552828627987,44.399811591310055
87,16.632572801287647,-270.3862139581539,-2.7330157010684597,-17.609434376461802,40.12048332923905,4.929519659948839,270.93003444822546,44.05745640121713
88,16.74414695659532,-270.3473508747207,-2.822960961230006,-17.90005133118007,39.68444001265471,5.010879178432838,270.8994997909225,43.77347906783024
89,16.85721057961301,-270.3036291162618,-2.9088191941010035,-18.16776803358246,39.31316802507992,5.052879927733735,270.8641134716686,43.54832320357476
90,16.96948512727248,-270.2558697305963,-2.988817303205584,-18.415399662931275,39.00622710011618,5.057280083909845,270.82453442578594,43.381380538322375
91,17.0788819957294,-270.20508892516904,-3.0612506307529403,-18.645852576441243,38.7619988824777,5.026196277652797,270.78162959233754,43.27095679430057
92,17.183549073964265,-270.1524720291188,-3.124521092873765,-18.86196405459407,38.577714686357936,4.962059472800352,270.7364511680086,43.214267031369616
93,17.281906246943866,-270.09934294982645,-3.1771743934143624,-19.06635535452264,38.449510093722694,4.867572675800927,270.6902086751732,43.207459180093394
94,17.372669226179585,-270.04713018206286,-3.2179354421919713,-19.261300165451246,38.3725026438746,4.745670872465466,270.6442368465125,43.2456625370848
95,17.454861647764943,-269.997330024496,-3.2457408175569786,-19.448608685520043,38.34088847512462,4.599483030100054,270.59995995639065,43.3230569131969
96,17.527815919036772,-269.9514671727223,-3.2597668302463623,-19.62952659197515,38.348054166285046,4.432295654953711,270.55885277453086,43.43295813009793
97,17.59116382745315,-269.9110524389835,-3.2594517435514425,-19.8046484850293,38.38670087336612,4.247517229919137,270.52239793376754,43.56791653019747
98,17.644818420954334,-269.8775372756002,-3.244511098554976,-19.973846925457977,38.44897883138631,4.048642888790564,270.49203947036574,43.719826825404084
99,17.688948982424655,-269.85226528647445,-3.214945646021227,-20.13622048633445,38.526631228605176,3.8392188745752414,270.46913283376534,43.88004960701176
100,17.72395092869121,-269.83642192078054,-3.1710417694248627,-20.290066384420204,38.61114710795658,3.6228065057268886,270.45489267989916,44.03954648620588
101,17.75041226155054,-269.8309846719163,-3.1133644739148862,-20.432884280569162,38.693922866553976,3.402945381880951,270.45034087973386,44.189031267917045
102,17.769078007474576,-269.83667691617217,-3.0427432487465813,-20.561417238739736,38.76643102503932,3.1831154697779063,270.4562579741328,44.31913852666529
103,17.780814000144517,-269.85392872932084,-2.960251484010276,-20.67173363625673,38.820393769039775,2.966697740898403,270.47314150669155,44.420609056756305
104,17.78657131556903,-269.8828475383753,-2.8671804709009945,-20.759350382058322,38.847957837687105,2.756933311182467,270.5011741850268,44.48448958516686
105,17.78735259871419,-269.92320045670516,-2.765009144694716,-20.819393832796123,38.84186659226727,2.556881490736062,270.5402038082363,44.502342055479325
106,17.784181414422896,-269.97440898774425,-2.655370610485915,-20.846791302396348,38.79562433195375,2.369377636063911,270.5897357269231,44.46645582834735
107,17.778075539972725,-270.03555589120657,-2.540016232492401,-20.83648384828017,38.70364731080395,2.196992107786639,270.6489376941213,44.370054729882504
108,17.770024683754382,-270.10540357166593,-2.420777826810863,-20.783650238349964,38.56139584023319,2.0419919219924987,270.71665650093854,44.20749045069745
109,17.76097253382174,-270.1824232138147,-2.2995284166382843,-20.683932240691153,38.36548247594723,1.9063067926633546,270.7914456167587,43.974414362156686
110,17.75180256759519,-270.26483377102215,-2.178142111536155,-20.533652093055295,38.113752415671264,1.791501158991264,270.8716029061741,43.667921023685345
111,17.743326870478153,-270.35064965137326,-2.0584538088259663,-20.330013887466052,37.80533361703284,1.6987534840017025,270.95521722135834,43.286658156723554
112,17.736277273165623,-270.4377355173508,-1.9422194413975133,-20.071281636082798,37.44065556076389,1.6288436448136452,271.0402222452259,42.830899468655716
113,17.731298295856856,-270.52386609860633,-1.8310774790780926,-19.756928091154414,37.02143684079016,1.5821486750762044,271.12445545679464,42.302578321978
114,17.728941642762557,-270.6067884938682,-1.7265124892804673,-19.38774997997399,36.55064274197165,1.5586465604631308,271.20571968573296,41.705281761766365
115,17.7296623396505,-270.6842843275229,-1.6298217969165247,-18.965946992962888,36.03241467292898,1.5579273455277922,271.28184463813204,41.04420574586372
116,17.733816967772842,-270.75422940633945,-1.5420865492426514,-18.495163374436668,35.471973855735975,1.5792105792993412,271.3507460812184,40.326073526120254
117,17.741664618441575,-270.814649046838,-1.4641486599487632,-17.980492124164574,34.87550216969861,1.6213681359346848,271.4104809120387,39.5590200309194
118,17.753371044759938,-270.8637677899362,-1.3965950523692259,-17.428442520025268,34.250003594092036,1.6829516471959012,271.4592968714399,38.752445833537955
119,17.769016115126956,-270.90005267099394,-1.3397502971377044,-16.846871910680363,33.60315026348654,1.7622240581337856,271.49567609013036,37.91684482932773
120,17.788604290746363,-270.92224957153985,-1.2936782255412458,-16.24488263642802,32.94311758102633,1.85719501666429,271.518371983614,37.06361000630287
121,17.812077572884213,-270.92941245320566,-1.258192513349297,-15.632684770715011,32.278412960485426,1.9656598386111452,271.52643926497063,36.20482164159275
122,17.83933017153103,-270.92092544532835,-1.232875649611087,-15.021425418584677,31.61770254039827,2.0852416759529557,271.5192569985532,35.35302198402724
123,17.87022398835006,-270.8965178241571,-1.2171051784076221,-14.422985784230441,30.969639735105726,2.213436345086765,271.4965446696916,34.52098019535252
124,17.904603877454797,-270.85627192855,-1.2100856586997004,-13.84974819985411,30.34269894846951,2.347659104302264,271.45837124001474,33.72145122648831
125,17.94231156534514,-270.80062406888544,-1.2108844699563197,-13.314336664695613,29.7450173722776,2.485292520937847,271.40515716092773,32.96693250678675
126,17.98319711309919,-270.7303585304897,-1.2184694704894472,-12.829335919672253,29.184247625993677,2.6237344391360193,271.33766936013865,32.26942278134835
127,18.027126957480125,-270.64659481779074,-1.231746639344769,-12.406995443440048,28.66742402011009,2.760444946987982,271.2570092708896,31.640187985884143
128,18.073987933481536,-270.55076829380624,-1.2495961714639046,-12.058925887251016,28.200845292812783,2.892991153727798,271.16459400825323,31.089539520312588
129,18.12368722683433,-270.44460436920457,-1.270905948117053,-11.795796378042759,27.789976619453846,3.019088551652232,271.06213083624414,30.626630543426796
130,18.176148788629565,-270.33008646208003,-1.2946017397187837,-11.627041857655286,27.439373421517804,3.1366377856568293,270.95158517828867,30.259275898466548
131,18.231307217132386,-270.2094181255215,-1.3196738226922624,-11.560590152836383,27.152628993020983,3.243755784832725,270.8351426323595,29.99380097407006
132,18.28910040966953,-270.0849799794178,-1.3451998881225542,-11.602618584456376,26.93234727698752,3.33880038576314,270.7151657109765,29.834924190579166
133,18.34946238701327,-269.9592822835599,-1.3703641979952395,-11.757349308017464,26.780141336349516,3.4203877483105214,270.59414623244203,29.78567684912145
134,18.412317547284957,-269.8349140848526,-1.394472900985814,-12.026891000354516,26.6966572574201,3.487402005497535,270.4746543747996,29.8473628241945
135,18.47757721210055,-269.7144898866721,-1.416965282934876,-12.411132072790336,26.681622530842187,3.5389967048702298,270.35928539262824,30.01955919747701
136,18.54513881742803,-269.6005947686212,-1.4374205927756392,-12.907687791605033,26.733917495664898,3.574587730739771,270.2506049430917,30.30015766999704
137,18.614887659915663,-269.49572880999017,-1.455560052952828,-13.511901144648325,26.851668202260345,3.593837611720237,270.1510938632445,30.685445595523273
138,18.686700801579754,-269.40225152194375,-1.4712437655432857,-14.21689541181362,27.032358905863656,3.596631462617519,270.0630930714518,31.170224720131475
139,18.760452510766438,-269.32232688222234,-1.4844624251185212,-15.013675243453028,27.272962161631032,3.5830452676127296,269.9887491391857,31.747965062061215
140,18.83602044639481,-269.2578696691034,-1.4953240078519463,-15.891272481611717,27.57008401289791,3.5533077181107204,269.9299611710435,32.41099068434417
141,18.913291695433497,-269.2104941287184,-1.5040359139864987,-16.836932803464524,27.9201209914471,3.507757307542677,269.8883299624803,33.150693327111824
142,18.99216773044848,-269.1814663830588,-1.5108833675090285,-17.83633940788345,28.319424667459543,3.4467968114350414,269.8651107766679,33.957769031555394
143,19.072567333245,-269.1716622208487,-1.5162051662080953,-18.873870270715997,28.764468519312107,3.37084760761579,269.86117131750495,34.8224721411194
144,19.154426610904935,-269.18153205571156,-1.5203681207134558,-19.932885717432292,29.252011167036834,3.2803064730522586,269.87695662627414,35.73488047519213
145,19.237695533412147,-269.21107498391655,-1.5237417337127743,-20.99604292654897,29.779249618534212,3.175507486392431,269.91246280109226,36.68516496575649
146,19.32233091015455,-269.2598239515045,-1.526674762683491,-22.04563335792047,30.343956070907627,3.0566914628379838,269.96722155185654,37.6638565281315
147,19.4082862039675,-269.3268438817193,-1.5294751580914876,-23.063938075346535,30.94459193936309,2.9239849973814667,270.0402974788065,38.662102409231125
148,19.495498892105395,-269.4107441390432,-1.532394502494335,-24.03359468501736,31.580393197168373,2.777390758087902,270.1302995093959,39.67190386140334
149,19.583876180379136,-269.5097059232275,-1.5356176771637207,-24.937968321193424,32.25142192684656,2.6167901790054207,270.2354071510989,40.686326930967745
150,19.67327982834103,-269.62152417972493,-1.5392581931906582,-25.76151792166667,32.958580290804996,2.441959119504414,270.3534112067468,41.69967857472405
151,19.76351079506194,-269.74366260475836,-1.5433594186067292,-26.490148068546233,33.703584863630894,2.2525963371330713,270.48176758701845,42.707641229975614
152,19.854294475184275,-269.87331958147894,-1.5479016955457048,-27.111536063507174,34.48890122783333,2.048363772659739,270.6176621162184,43.70736026973219
153,19.945267405724234,-270.0075024836894,-1.552815002615511,-27.615423829267808,35.3176406958142,1.8289367477589324,270.7580838331972,44.69748038800956
154,20.035966317378783,-270.14310756028397,-1.5579963964534924,-27.99386481366522,36.19342281631736,1.5940613435687847,270.8999040622678,45.67812883143402
155,20.125820208933238,-270.27700239530094,-1.563331018679184,-28.24141733083253,37.12020886098835,1.343615577982514,271.03995829322287,46.650845467611525
156,20.214145829374047,-270.4061077696312,-1.5687150329782473,-28.35527759073472,38.10211272846999,1.0776706116980335,271.1751277161962,47.618461868592114
157,20.300146666901444,-270.5274758250783,-1.5740785279556775,-28.335347870736886,39.14319662133789,0.7965481037394506,271.3024173080612,48.584933763465884
158,20.382915304148746,-270.63836183740545,-1.5794062714301385,-28.184237692094353,40.247259396383576,0.5008699709404287,271.4190277531415,49.55513322096825
159,20.461438828459364,-270.73628752658425,-1.5847543030647147,-27.907198306348516,41.41762561256972,0.1915971399647893,271.52241908922394,50.53460859766172
160,20.534606943070735,-270.81909451099267,-1.590260729633371,-27.511993101639984,42.6569429959113,-0.12994561180027894,271.6103646467882,51.52932149576347
161,20.60122257371442,-270.884987188824,-1.5961496907507053,-27.00870854289033,43.96699536385959,-0.4620609637075057,271.6809945409116,52.54537063659916
162,20.660015115552426,-270.93256498917555,-1.6027281688944242,-26.409511834472216,45.348537106512104,-0.8026879350349017,271.7328286659498,53.58871265295309
163,20.709656922022745,-270.96084449511,-1.6103760097090056,-25.72836261083089,46.80115421146391,-1.1494288365297196,271.7647997424331,54.664889390041054
164,20.74878401812731,-270.969272273046,-1.6195301349850795,-24.980686708823846,48.32315564869342,-1.4995937424176486,271.7762673308676,55.778770522852156
165,20.776022141529925,-270.9577292944847,-1.6306644049529886,-24.183020562963474,49.91149785042424,-1.8502608348478882,271.76702379126203,56.93431935133248
166,20.790018948983416,-270.92652767735694,-1.6442668270676395,-23.35263497670503,51.56174418590725,-2.1983499232548724,271.7372929908483,58.134388677847596
167,20.789482544153703,-270.87640022267624,-1.660815767771007,-22.507146819013393,53.268060782454384,-2.5407055887379406,271.68772226168306,59.38055269769878
168,20.773225513456826,-270.80848297187174,-1.6807565497895427,-21.664126522307797,55.02324961341526,-2.874185864837181,271.61936778858075,60.6729796995087
169,20.74021267584225,-270.7242908185569,-1.704479443546287,-20.84070839460951,56.81881913637807,-3.195752199761415,271.533673343713,62.01034893906354
170,20.689610049581027,-270.62568611372143,-1.7322997482223546,-20.053210257682846,58.64509166975098,-3.5025566389548377,271.4324421368625,63.38981334649203
171,20.62083224312522,-270.5148402653893,-1.76444050193595,-19.316769203471765,60.49134524900322,-3.792022631770622,271.3178015896978,64.80700802846023
172,20.53358550113272,-270.39418861220787,-1.8010183292520292,-18.645001270910093,62.34598635239718,-4.061916494867245,271.19216112135325,66.25610321620667
173,20.427903823658138,-270.2663792864675,-1.842032923363101,-18.049694104667672,64.19674897144799,-4.310407290052452,271.05816348011575,67.72989951079039
174,20.30417590486523,-270.1342171837747,-1.8873606123503852,-17.54054251469731,66.03091490203207,-4.536113614290881,270.9186305795615,69.2199626551351
175,20.16316119952753,-270.00060437987406,-1.9367523914906726,-17.124936714920377,67.83554952143044,-4.738136401906733,270.77650506163855,70.71679416062918
176,20.005994194035722,-269.8684784100398,-1.9898367473707694,-16.807811558553684,69.59774666817434,-4.916077169576568,270.634788942687,72.21003287677011
177,19.834176701991325,-269.74074984546314,-2.046127535319876,-16.59156244031501,71.30487584989547,-5.0700412161355075,270.4964807749021,73.68868138835171
178,19.64955848948202,-269.6202405613333,-2.1050370021195928,-16.476030263613985,72.94482506862003,-5.200625312431859,270.3645127526406,75.14135030955005
179,19.454306747571643,-269.509623927146,-2.1658936768869794,-16.45855468280746,74.5062329635089,-5.308889627171031,270.24168904194545,76.5565131653863
180,19.250865049029482,-269.41136787976023,-2.2279643405027065,-16.534092260132056,75.97870450537515,-5.3963141845487055,270.13062634489205,77.92276448665353
181,19.041902624582345,-269.32768160942504,-2.2904788240356098,-16.695394423937262,77.35300503232565,-5.464741001708735,270.03369748747446,79.22907391759597
182,18.83025510366993,-269.26046655471066,-2.3526561299449735,-16.933239058415584,78.62122801366168,-5.516304025965617,269.95297880065226,80.4650295291196
183,18.618858214657457,-269.21127259715166,-2.4137303039368034,-17.23670885589596,79.77693261957685,-5.553349881079231,269.89020227728565,81.62106411326693
184,18.410676251757643,-269.18126066284805,-2.472974511150326,-17.593508851119164,80.81524798439774,-5.578353077112159,269.84671381976705,82.68865895010416
185,18.20862736164611,-269.1711731942759,-2.529721853839556,-17.99031466575713,81.73294195138429,-5.593829620005112,269.82343916040844,83.660520311918
186,18.01550789319799,-269.1813139787337,-2.583381687023429,-18.413142047111204,82.52845296820595,-5.602252844451559,269.82085906870014,84.53072470833631
187,17.833918197655617,-269.21153856086215,-2.633450648611758,-18.8477275561195,83.20188455728554,-5.6059748762581245,269.83899520953855,85.29482952458285
188,17.666192365607234,-269.2612560538697,-2.679518327828219,-19.279909944648942,83.75496244610137,-5.607156539246276,269.8774076134899,85.94994633867411
189,17.514334471531324,-269.3294427741125,-2.7212682731607685,-19.69600190606353,84.19095517036428,-5.607707845857585,269.9352043405388,86.49477499484153
190,17.37996399690188,-269.41466780351914,-2.7584755864976525,-20.08314240000903,84.51455988999741,-5.609240507131048,270.0110636080368,86.92959757415318
191,17.26427312934286,-269.5151302397799,-2.791002455864912,-20.429620469973244,84.73175629852724,-5.613033224400321,270.1032683106162,87.25623271640009
192,17.16799834451926,-269.62870741207473,-2.8187926879543834,-20.72516221751788,84.8496327849223,-5.620009933005344,270.20975235847976,87.4779521970865
193,17.091407895726853,-269.7530127076984,-2.8418658387386575,-20.961173315541366,84.87619026797302,-5.630730688784124,270.3281575799183,87.5993630881044
194,17.034305698363937,-269.88546100433354,-2.860311140147689,-21.130930255393107,84.82013014539125,-5.645394531163811,270.45589921498987,87.62626004791943
195,16.99605093429931,-270.02333923877507,-2.8742812010424417,-21.22971464408213,84.69063338415941,-5.6638534127543805,270.5902374940227,87.56545316243106
196,16.97559176502996,-270.1638794961997,-2.8839854071296434,-21.25488644629886,84.49713782841485,-5.685636132792693,270.7283525918433,87.42457724101793
197,16.971510920876693,-270.3043321382433,-2.889682982231695,-21.20589407907633,84.24912033721719,-5.709981127234869,270.86742034504834,87.21188858149718
198,16.98208060440002,-270.44203674858153,-2.891675739414154,-21.084221535754168,83.95588954002926,-5.735876929788018,271.00468635919714,86.9360550489077
199,17.005324021830383,-270.5744889180717,-2.8903006377136005,-20.893274991201444,83.62639405511594,-5.762109093489461,271.13753636753614,86.60594502077988
200,17.039080843185243,-270.699401049096,-2.8859224010992808,-20.63821339579871,83.26905012072807,-5.787312301866376,271.263560859683,86.23042042097323
201,17.08107394115173,-270.8147554187684,-2.878926600820531,-20.32572927411368,82.89159172617087,-5.810026267515825,271.3806120626021,85.81813864101126
202,17.128974878566495,-270.9188477512097,-2.869713595801723,-19.963787326311728,82.50094542409938,-5.82875383423209,271.4868513734754,85.37736756887476
203,17.1804658541779,-271.0103196298062,-2.8586935179899795,-19.561329627849286,82.1031310690265,-5.8420195209644366,271.58078543619223,84.9158172685596
204,17.23329622981536,-271.0881783826497,-2.8462822347375494,-19.127957359580016,81.70318883558303,-5.8484266091340675,271.66128937662836,84.44049119185391
205,17.285332365167804,-271.15180370325027,-2.832898076882614,-18.67360003393185,81.30513208734399,-5.846710791901024,271.72761637558807,83.9575592123342
206,17.334600197376478,-271.2009411752509,-2.8189590870672343,-18.208183904888365,80.91192506310266,-5.835788388119211,271.77939370967033,83.47225427128289
207,17.379320608248683,-271.23568379981964,-2.8048805465555366,-17.741311424930117,80.52548400340834,-5.814797197585921,271.81660636093585,82.98879404714708
208,17.41793792284646,-271.2564432794346,-2.791072566193491,-17.281963108141472,80.14670025422782,-5.783128260922661,271.83956997354676,82.51032878691623
209,17.449141907703748,-271.2639131073516,-2.7779375888535114,-16.83823197738501,79.77548391218077,-5.74044710031371,271.8488952349998,82.03891614685833
210,17.471883596426935,-271.2590255991998,-2.7658677160332554,-16.417099032409883,79.41082651532444,-5.686703458292572,271.84544584476646,81.57552342382506
211,17.485385310811544,-271.2429050520437,-2.7552417917107506,-16.024256102440926,79.05088102089343,-5.622129112729331,271.8302922837869,81.12005685594161
212,17.48914533374533,-271.216819264423,-2.7464221328638505,-15.663980336005705,78.69305688543048,-5.547223992786511,271.80466365047914,80.67141682108756
213,17.48293770806614,-271.18213162083316,-2.73975072478845,-15.339062638976129,78.33412760922387,-5.462731483327171,271.76989979823236,80.22757692342478
214,17.466807514166806,-271.140255727079,-2.7355446678071553,-15.050790593936561,77.97034774737618,-5.369604413074426,271.7274057830539,79.78568424438193
215,17.441061752776804,-271.09261414631555,-2.7340906769698683,-14.79898467276352,77.59757617565914,-5.268963730145702,271.6786101777123,79.34217747606907
216,17.406255725769242,-271.04060224495186,-2.735638451608795,-14.58208486769048,77.21140234766068,-5.162052241479231,271.62492825185274,78.89291926368465
217,17.363174667840855,-270.98555769868295,-2.740392783119831,-14.397283280852866,76.80727241476552,-5.0501859968721226,271.56773054891136,78.43333889083482
218,17.31281041714229,-270.9287359168525,-2.7485044592145793,-14.240696793110258,76.38061240273316,-4.9347059252746375,271.50831710189067,77.95858145764252
219,17.256333153420446,-270.87129144672724,-2.7600603280212948,-14.107572724001786,75.92694607058374,-4.8169321790039445,271.44789735141353,77.46365985745219
220,17.195058612123447,-270.8142652005291,-2.775073141315871,-13.992519398037487,75.44200549180715,-4.698123283550227,271.38757563698886,76.94360602878032
221,17.130411584558423,-270.7585770627624,-2.793471922166138,-13.889752677593354,74.92183271598049,-4.579441622618195,271.3283418729391,76.39361805733111
222,17.063886859306887,-270.7050231224717,-2.815093703108845,-13.793348775603613,74.36287110505188,-4.461926098187833,271.27106672943455,75.80919974216667
223,16.997009000897204,-270.6542765069694,-2.839677642219926,-13.697493179750984,73.76204514855533,-4.346472131461179,271.2165003875352,75.18628930976438
224,16.931292439628113,-270.6068906452307,-2.8668626255912137,-13.596715594602488,73.11682778549348,-4.233818610156754,271.1652737950847,74.52137415808936
225,16.868203258260376,-270.5633038145729,-2.8961893293951637,-13.486101631780624,72.42529451363417,-4.124540992233274,271.1179013687958,73.81158890128772
226,16.809123904885976,-270.5238440138251,-2.9271073579160167,-13.361473501260457,71.68616385511686,-4.019049580708431,271.07478426267687,73.05479456975003
227,16.755321928039088,-270.48873347945704,-2.9589876653105813,-13.219533921329859,70.89882408465456,-3.9175919983712943,271.0362135808849,72.24963756453577
228,16.707923707835757,-270.4580924417865,-2.9911401355444793,-13.057969538174829,70.06334654299395,-3.8202590873799935,271.00237317891106,71.39558782332281
229,16.667893981369385,-270.4319419991432,-3.022835950875648,-12.875512074309075,69.18048634585081,-3.72699376660096,270.9733419603334,70.49295655559138
230,16.636021706728805,-270.41020626721826,-3.0533341487894465,-12.6719571262701,68.25167175131581,-3.637602678493661,270.94909583417046,69.54289471745604
231,16.61291250387413,-270.392714151806,-3.081911426450428,-12.448142056467798,67.27898371978603,-3.5517706178605124,270.9295096641645,68.54737398304096
232,16.59898757781582,-270.37920109989614,-3.1078937430327898,-12.205885811184093,66.26512723705183,-3.469077696491194,270.9143595213193,67.5091522853014
233,16.59448866443941,-270.36931105646636,-3.1306877248983973,-11.947894692141732,65.21339584973474,-3.3890189915337503,270.9033253951718,66.43172610994121
234,16.59948814625609,-270.3625987585189,-3.1498095766102527,-11.677639045283694,64.12763068232502,-3.3110261279170303,270.895994396923,65.31927171762233
235,16.61390313764218,-270.3585325397894,-3.16490935191289,-11.399206536778522,63.01217499026529,-3.234489938925661,270.8918645117734,64.17657737479196
236,16.63751214081264,-270.3564979696939,-3.1757889719049914,-11.117138240060452,61.871825029419355,-3.1587831124203722,270.8903491048595,63.008968489104674
237,16.669972837556735,-270.35580280706085,-3.1824129876826106,-10.836254141020444,60.71177770586206,-3.0832816269972136,270.89078255052993,61.822227291465616
238,16.710839630533293,-270.35568381469864,-3.1849115361047344,-10.561474744375536,59.53757519009765,-3.0073838412635876,270.892427432638,60.62250844104045
239,16.75957968848602,-270.3553158965174,-3.183575257979731,-10.297645109089277,58.3550465329461,-2.930526300700716,270.8944836973535,59.41625172858218
240,16.815586605258936,-270.35382377664996,-3.1788422866097856,-10.049366886670065,57.17024638189466,-2.8521956213956643,270.8960999316886,58.21009299740563
241,16.878191358503678,-270.3502960982074,-3.171277818431314,-9.820842985872654,55.989391171042335,-2.7719361613788887,270.89638664927435,57.01077452554624
242,16.946670819197795,-270.3438015249483,-3.16154717435356,-9.615738584302308,54.818793538233564,-2.6893535823402512,270.89443121971874,55.825056347384475
243,17.020254374680906,-270.3334063457279,-3.1503835810651686,-9.437061497767068,53.66479606544617,-2.6041148050795213,270.8893140244915,54.65963021542405
244,17.098129271374447,-270.3181932287018,-3.1385521590575096,-9.287064428611087,52.53370568194455,-2.5159452069475567,270.88012557904653,53.52103805337582
245,17.179445222537915,-270.29728099610446,-3.126811852421543,-9.16717129770645,51.43173022144143,-2.4246241391086625,270.86598458610973,52.41559682807882
246,17.263318806322857,-270.269845424346,-3.115877265100103,-9.077929621445746,50.3649186379681,-2.3299799256461386,270.8460570220686,51.349331709076246
247,17.348838218714395,-270.2351410548511,-3.106382484075437,-9.018990573985503,49.339106123095554,-2.2318854271863824,270.8195763440251,50.32791903395377
248,17.4350689636144,-270.1925238362108,-3.098848885355579,-8.989117812567342,48.35986472383739,-2.130254998141077,270.78586474076656,49.35663982758354
249,17.52106097019529,-270.14147414821167,-3.093658633574748,-8.98622525390668,47.432459119290144,-2.0250432635811046,270.7443550717403,48.44034350593326
250,17.605857396819815,-270.0816194694814,-3.0910351723908804,-9.007442814159841,46.56180625897673,-1.9162456742923408,270.69461282971713,47.58342022079348
251,17.688505059240473,-270.0127557632906,-3.0910315440441165,-9.049207771994265,45.75243692749765,-1.8039004048917242,270.63635724954736,46.78977941885553
252,17.76806612595077,-269.93486665290095,-3.0935269100149907,-9.107378002682935,45.00845719211425,-1.6880909649570186,270.5694806570329,46.062831830112735
253,17.8436305688863,-269.8481395874031,-3.0982311522033927,-9.17736203503408,44.33350814734781,-1.5689489115263324,270.4940652636748,45.40547232526125
254,17.9143288509753,-269.7529782819958,-3.104696908647395,-9.254259945215775,43.73072327077829,-1.4466561739974666,270.410396685992,44.82006179943583
255,17.979344396109678,-269.6500106239636,-3.1123379121861947,-9.333008732454637,43.202683823860134,-1.321446617387233,270.31897336860635,44.30840726538143
256,18.03792548336027,-269.5400910441446,-3.1204521803466796,-9.408526109365054,42.7513738240211,-1.1936065754405194,270.22051089340005,43.871740462815545
257,18.08939637398198,-269.4242962815756,-3.128248550884494,-9.475847547583133,42.378137002151306,-1.0634742398483554,270.1159400842951,43.51069635586479
258,18.133167746725302,-269.3039136871586,-3.1348752648102303,-9.530252784458824,42.08363878198584,-0.9314379925956615,270.0063980419759,43.22529381701969
259,18.168746855397263,-269.1804217057957,-3.139449591825684,-9.567379510488099,41.86783664836874,-0.7979339574168797,269.8932117469214,43.01492148493497
260,18.195748176018384,-269.055462724304,-3.141087628878417,-9.583323245788886,41.72996220916422,-0.6634431994410723,269.7778744245081,42.878332037322046
261,18.213905581860914,-268.9308087970268,-3.1389333414166933,-9.5747232300179,41.66851767728987,-0.5284891143147267,269.6620151878937,42.81364775206356
262,18.22308709347904,-268.80832079046377,-3.1321858948449077,-9.538834499896106,41.68128840649061,-0.39363557447151015,269.5473624821687,42.81837924046947
263,18.223312782761276,-268.6899014502299,-3.120124565141905,-9.4735863978682,41.76537168962233,-0.25948629568133447,269.4357017649614,42.88945785059044
264,18.214775341653763,-268.57744310077123,-3.102130958944405,-9.377627728770921,41.917220589643215,-0.12668566221521665,269.3288279809304,43.02328081330681
265,18.19786133890023,-268.4727712801882,-3.077708652556606,-9.25035873250711,42.1327004739058,0.004079045889246896,269.22849387096,43.21576710366968
266,18.1731699181535,-268.3775864677253,-3.0465005190624916,-9.091949950209708,42.407155393047454,0.13207437281529166,269.1363559206057,43.46242143718623
267,18.14152533617326,-268.2934068325536,-3.0083039637847637,-8.90334789439758,42.735481489599785,0.2565169166568422,269.05392049761844,43.75840381023693
268,18.10398031995493,-268.22151528895455,-2.9630839725961717,-8.686267201463464,43.11220506145916,0.3765697430604164,268.98249313116605,44.0986023543051
269,18.06180811700596,-268.16291409673363,-2.910983169361668,-8.443168710519034,43.531563505850926,0.4913397213450884,268.9231339198515,44.47770778697288
270,18.016481940812024,-268.11829004337466,-2.8523272219610525,-8.177222758246211,43.987587909619236,0.599876588013725,268.87662194299367,44.89028820875399
271,17.9696414426749,-268.0879929232336,-2.7876236105481857,-7.892256974932393,44.474186373066836,0.7011745918190934,268.8434313339495,45.33086327218492
272,17.923047037077133,-268.0720293356962,-2.7175523357202604,-7.592688046301995,44.98522721694891,0.7941775494616631,268.82372110364537,45.793976805191726
273,17.87852417497366,-268.0700726021888,-2.642948206159081,-7.283437259501489,45.514621112636014,0.8777880215055162,268.8173396993762,46.27426688728706
274,17.83790061783701,-268.081488083074,-2.564775443825386,-6.969830158575951,46.05640102879445,0.9508811448427498,268.82384386023665,46.76653228170634
275,17.80294018580365,-268.1053717857597,-2.484096448298541,-6.657481309298407,46.604798785411305,1.0123234573112883,268.8425300088839,47.26579410113914
276,17.77527648442787,-268.1405990926606,-2.4020375619315573,-6.35216605739066,47.15431694133452,1.0609967646693912,268.8724754017733,47.76735163165717
277,17.756350082323976,-268.1858796600006,-2.3197551224554354,-6.059682239425421,47.699794670946346,1.0958266600069664,268.9125855027876,48.266831312505516
278,17.747352585571942,-268.2398141925063,-2.238404704111491,-5.785705913123697,48.23646621470494,1.11581475011975,268.9616436870011,48.760227943462894
279,17.749180833387502,-268.30094925258135,-2.1591153936709886,-5.535646074380065,48.760010505734094,1.1200731210156565,269.0183597875797,49.24393730981204
280,17.762403830663416,-268.3678274716215,-2.082969579050082,-5.314503864956263,49.26659078290006,1.1078592360738966,269.08141513193874,49.714779654880516
281,17.78724393770292,-268.43903175456484,-2.0109874872933493,-5.126741935231933,49.752883427755066,1.0786093636118659,269.14950283935787,50.17001382751655
282,17.823572356660474,-268.51322258505735,-1.9441150676135903,-4.976169449445226,50.2160958482111,1.0319687238796198,269.2213625611291,50.60734244757283
283,17.870917556395778,-268.5891674524832,-1.883213946861401,-4.865847702051415,50.65397386284942,0.9678167316376156,269.29580866430763,51.024908967603274
284,17.9284845001223,-268.66576145260785,-1.8290527569203046,-4.798020407153813,51.06479959010142,0.8862859352729678,269.3717508311347,51.42128794558477
285,17.995182439491973,-268.7420387050349,-1.7822996293816544,-4.774071395477654,51.447381227929334,0.7877735246857787,269.4482066079084,51.79547010239028
286,18.069659207105946,-268.8171751537727,-1.7435158468282483,-4.79451077228271,51.80103630997846,0.672944620586383,269.5243063373666,52.146843815900816
287,18.15034004903263,-268.8904840855231,-1.7131506609289975,-4.858988794717903,52.12557008372162,0.5427269694749294,269.59929164973533,52.47517464807531
288,18.23546918020839,-268.96140609716826,-1.6915373064993595,-4.9663351618583516,52.421250611361124,0.3982971210793118,269.6725090675148,52.78058435383454
289,18.323152690492247,-269.02949536509715,-1.6788902358277886,-5.114620323762921,52.688782054172535,0.24105859405467983,269.74340041416417,53.06353059466825
290,18.411402110033485,-269.09440404436856,-1.675303423173762,-5.301234829212311,52.92927735126289,0.07261288258505218,269.81149172797853,53.32478826228473
291,18.498178387690036,-269.15586650742364,-1.680749187819733,-5.52298248332973,53.1442311257344,-0.10527558195045934,269.8763822844177,53.56543288509739
292,18.58143597747053,-269.21368500488313,-1.6950764875677609,-5.776182970306136,53.335493173363865,-0.29071918769744637,269.9377351895107,53.786826062371276
293,18.659166479420378,-269.26771824597154,-1.7180073194361223,-6.0567794844433305,53.50524241283707,-0.48175010668760837,269.9952709001549,53.99060234214343
294,18.729441266740018,-269.3178741439896,-1.7491300436186952,-6.360446791939851,53.65596080655987,-0.6763648150664466,270.0487647758759,54.178656533981666
295,18.790452731634577,-269.3641072628458,-1.787889268767504,-6.682695084173806,53.79040651542584,-0.8725684543020299,270.09804907738965,54.35313015238804
296,18.8405539186312,-269.4064204368707,-1.833573194928371,-7.018965091139885,53.91158537810946,-1.068417352562175,270.1430187790629,54.51639548487218
297,18.87829629960301,-269.44486908449613,-1.8853005499421387,-7.364710341085885,54.02271967666881,-1.262058136947977,270.18363961133025,54.67103566517966
298,18.902465349977344,-269.4795662765976,-1.9420100812663634,-7.7154633045785275,54.1272131122911,-1.451762031296739,270.2199562789112,54.81981917956653
299,18.912113344832676,-269.5106867774799,-2.002455794114686,-8.066883469201446,54.22861105341776,-1.6359531693339335,270.25209893710354,54.96566753949319
300,18.906588290145244,-269.5384689313823,-2.0652107383449305,-8.414787015622911,54.33055547495813,-1.8132300930155103,270.2802866367911,55.11161544160117
301,18.88555727389976,-269.56321399312,-2.1286812473615,-8.7551594501055,54.436734523741166,-1.9823800281944197,270.3048271661656,55.26076350268879
302,18.84902215624821,-269.58528283874585,-2.1911323502377003,-9.084154034624884,54.55082717555109,-2.142385954741885,270.3261130957222,55.41622440850686
303,18.79732576864015,-269.6050899437103,-2.250723869547604,-9.398079987292517,54.67644384257323,-2.2924268561481322,270.34461388439865,55.581063871091054
304,18.731147640904688,-269.62309446731314,-2.305555685807836,-9.693385159843979,54.81706400246124,-2.431871846954211,270.36086398340615,55.7582381005974
305,18.651489297095267,-269.63978846695863,-2.353719972847161,-9.966638235393317,54.97597204119133,-2.5602691587220257,270.37544716298777,55.9505296568876
306,18.55964990641602,-269.65568258915897,-2.3933579947158705,-10.214515412086731,55.156192649132095,-2.677331205287358,270.3889776619844,56.160483669438456
307,18.457193417851325,-269.6712898676512,-2.4227192225914194,-10.433796030263904,55.360427305530806,-2.782917099400481,270.4020790491059,56.39034652116507
308,18.34590838255226,-269.68710843241183,-2.44022084141034,-10.62137069277238,55.59099354730978,-2.8770140094224876,270.41536183964104,56.64200910461858
309,18.22776166554876,-269.70360400020473,-2.4445059567859446,-10.774264203513384,55.84976874121349,-2.9597186026482065,270.4294009517291,56.9169565893489
310,18.10484729755571,-269.7211929425545,-2.4344989230376033,-10.889674216263348,56.138139942792286,-3.0312195355878218,270.4447139868413,57.216226282383815
311,17.979331871013606,-269.7402264681339,-2.4094562231636982,-10.96502496249311,56.45696121969187,-3.091781593141538,270.46174104252344,57.54037472506812
312,17.85339813206312,-269.7609761282215,-2.369011204507928,-10.998033941468886,56.80651963792976,-3.14173175536443,270.48082642664747,57.88945476628173
313,17.729188701145187,-269.78362074291186,-2.3132106380342794,-10.986788153835986,57.18651094930726,-3.1814472499905655,270.50220252243906,58.26300299970561
314,17.608752079856192,-269.80823511071804,-2.2425406343044,-10.929825506798473,57.59602581041559,-3.21134551465298,270.52597630380933,58.66003761359623
315,17.493993152323547,-269.834781251416,-2.1579392521404954,-10.826216543232896,58.033547127024654,-3.231875897381172,270.5521193628485,59.07906641445178
316,17.386630133403035,-269.8631030257624,-2.0607934736394498,-10.675641646764078,58.49695893777614,-3.243512862628652,270.5804623666398,59.51810463759941
317,17.28815933074271,-269.89292474301084,-1.9529190649204673,-10.478459220774413,58.983567127101395,-3.2467504686989557,270.6106945741898,59.9747021286466
318,17.19982836024152,-269.9238541457942,-1.8365228964941964,-10.235760885162508,59.49013207227616,-3.242097940270706,270.6423687597474,60.44597943015588
319,17.12261788137612,-269.9553901293424,-1.7141483167704432,-9.949410397672054,60.01291300400168,-3.230076239078263,270.67491179677296,60.928672141746745
320,17.05723163887324,-269.9869355559375,-1.5886051527105562,-9.622063748289388,60.54772345055999,-3.2112155929274944,270.7076411142524,61.419182682615116
321,17.004094411248538,-270.0178153814699,-1.462886937830494,-9.25716865102675,61.089996753116274,-3.1860539562532506,270.73978705243405,61.913638369024696
322,16.963357117931373,-270.04729997440523,-1.3400789750512234,-8.858942420939258,61.63486033420407,-3.1551363487966215,270.7705207639368,62.40795456410505
323,16.934908002002796,-270.0746330591765,-1.223261582208457,-8.432327968069416,62.177217152167465,-3.1190149569409162,270.7989868225277,62.89790154162974
324,16.918388931035995,-270.09906333556165,-1.1154131997271675,-7.982928389628978,62.71183255782268,-3.0782497755944123,270.8243393199029,63.379173611271234
325,16.913216429328422,-270.11987860158627,-1.0193182250649857,-7.516921388897228,63.23342462288307,-3.033409428448004,270.84578003580674,63.847459016180544
326,16.918607459962868,-270.13644097558176,-0.9374847173265832,-7.040955419485156,63.73675600988354,-2.9850716758176348,270.862597069445,64.2985092000663
327,16.93360971406841,-270.1482214298017,-0.8720769323010007,-6.562029982171294,64.21672561468678,-2.9338230379159507,270.8742019790782,64.72820625563236
328,16.957135405170675,-270.1548314793768,-0.8248661607946475,-6.087362933625683,64.66845843505557,-2.880256934919086,270.88016318756434,65.1326276185862
329,16.987996925557884,-270.15604976057136,-0.7972008504055599,-5.624248112589965,65.0873922731836,-2.824969788382037,270.88023341665263,65.5081072530491
330,17.024942633848816,-270.1518414152321,-0.7899948313916618,-5.1799070619271985,65.46935992769149,-2.7685546824652794,270.87436919572133,65.85129265419803
331,17.066691416547155,-270.14236860509504,-0.8037314827878308,-4.761338990015712,65.81066553753767,-2.711592477126409,270.86274094001124,66.15919702570638
332,17.11196508453084,-270.12799110328933,-0.8384816673788938,-4.375173227832188,66.10815379656866,-2.6546406600352372,270.8457327030614,66.42924604632988
333,17.159517835454213,-270.1092567573318,-0.8939336567163916,-4.027528260571454,66.35927090321698,-2.5982206068040896,270.8239315092129,66.65931875629325
334,17.208162068066763,-270.0868826032671,-0.9694335241213078,-3.7238809893094813,66.56211631915941,-2.542804168450695,270.79810711204874,66.84778224800418
335,17.256790174489065,-270.06172834053245,-1.0640342273628802,-3.4689492863000537,66.7154846206812,-2.4888005606970007,270.76918393996095,66.99351998190072
336,17.304392651450446,-270.0347645296609,-1.1765508742419748,-3.266590257152633,66.81889688710585,-2.4365444035383725,270.7382076585829,67.0959536259333
337,17.350073477726745,-270.0070381147765,-1.305618931381689,-3.11971603256358,66.87262117120544,-2.386285510187446,270.70630902777464,67.1550583336806
338,17.39306364717924,-269.9796376968862,-1.4497518715271285,-3.0302284196302933,66.87768164610105,-2.338180739963696,270.6746675198076,67.1713713447595
339,17.432733014553893,-269.9536605051017,-1.6073950564482002,-2.9989732623270156,66.83585603722429,-2.292287993356375,270.6444766144043,67.14599372635818
340,17.468599778931786,-269.9301824319581,-1.776973236254973,-3.0257147817493237,66.74966097441951,-2.2485622637300597,270.61691203860255,67.08058502001437
341,17.50033667516929,-269.9102319913654,-1.9569295918735068,-3.1091295010941438,66.62232501700946,-2.206853535869406,270.59310369830087,66.9773505892016
342,17.527773419396198,-269.8947686233039,-2.1457548176477395,-3.2468187516561327,66.4577493537563,-2.166906225694961,270.5741116707915,66.83902162321164
343,17.550895601060066,-269.8846653104805,-2.342005660150034,-3.4353383432873366,66.2604565112823,-2.128359838745941,270.560906262191,66.66882799734276
344,17.569840365727696,-269.880695055587,-2.544313588381004,-3.6702437899674973,66.03552771589742,-2.090750627854305,270.5543517877852,66.47046441768394
345,17.584888828086548,-269.88352064392825,-2.7513854138232667,-3.9461494211806696,65.78852976302218,-2.053514207950318,270.5551936256715,66.24805040462849
346,17.5964546894446,-269.89368739669396,-2.96199831875713,-4.2567996463521816,65.5254323531015,-2.015989234487005,270.56404835463945,66.0060846819353
347,17.60506846930307,-269.91161904694434,-3.174991843811144,-4.595150471465007,65.2525169358475,-1.9774222856911585,270.5813971949438,65.74939451404309
348,17.61135711839955,-269.93761702465287,-3.3892590802009552,-4.9534591064585545,64.97627825701363,-1.9369739868201443,270.6075831217605,65.48308056580485
349,17.61601925184059,-269.97186316919425,-3.603738827467261,-5.323379266462624,64.70332003185081,-1.8937262355978695,270.6428117547704,65.21245796366316
350,17.619796575139933,-270.0144254184892,-3.8174100479014537,-5.696059681952096,64.44024640928782,-1.8466902528575464,270.6871556520987,64.94299436165291
351,17.62344230072156,-270.0652656333387,-4.029289685191551,-6.062243451527205,64.19355107368017,-1.7948152034212919,270.740561235089,64.68024590566014
352,17.627687614301976,-270.12424851805366,-4.238434698883086,-6.412366218374417,63.96950592109898,-1.7369973322137726,270.8028573648126,64.42979202093528
353,17.6332075427708,-270.19115059272633,-4.4439487771517365,-6.736651742493369,63.77405122127128,-1.6720898670263447,270.8737645773226,64.19716990610276
354,17.64058774794064,-270.26566828905516,-4.6449935577659796,-7.025204223083084,63.61268903222262,-1.598914252110194,270.9529040823308,63.98780949757536
355,17.650293775321664,-270.34742437000864,-4.8408034308608086,-7.268097510285146,63.4903814369763,-1.5162735197153332,271.03980572615575,63.80696951616044
356,17.662644237023894,-270.4359719783709,-5.030702250729167,-7.455461882807187,63.41145505469177,-1.4229687276025125,271.133914187622,63.65967512847032
357,17.67778937173203,-270.53079581073774,-5.2141196516438875,-7.577569236580377,63.37951336423969,-1.3178193582669464,271.23459283337434,63.55065785728854
358,17.695696326711712,-270.63131033764364,-5.390604336278742,-7.624917432800412,63.397358681734886,-1.1996883844168809,271.34112505569277,63.484298686451545
359,17.71614230937343,-270.73685562389215,-5.559831894077148,-7.588314408822467,63.466926047774194,-1.067512363128742,271.45271353318145,63.46457574918699
360,17.73871656997017,-270.8466919122138,-5.721605429299635,-7.458962601047257,63.589231627073126,-0.9203364585584691,271.5684784659205,63.49501840661092
361,17.762831991248742,-270.95999451115955,-5.87584840292314,-7.228544239607762,63.76433831471976,-0.7573537925813707,271.6874562300406,63.57866972668366
362,17.78774654022533,-271.07585068283794,-6.022590462668718,-6.889308025320962,63.991340937294424,-0.5779480759646447,271.8086000579483,63.71805920751857
363,17.812593754155245,-271.19326024269986,-6.161948324185072,-6.434157471358247,64.26837269535842,-0.3817380863701146,271.9307843455066,63.915187000785785
364,17.836420173584166,-271.31114143251204,-6.294104496743962,-5.856740720091048,64.59263341158771,-0.16862216564140045,272.0528140004081,64.17151996904431
365,17.8582268781173,-271.4283432208261,-6.419286669904328,-5.151540923296465,64.96043892883652,0.06117951316026393,272.17343982889554,64.48799885515916
366,17.87701226341361,-271.54366453496135,-6.537750208307889,-4.313965374498565,65.36728988010317,0.3070875186470556,272.29138034539216,64.86505488932157
367,17.891813610395253,-271.6558801578573,-6.649765665091776,-3.3404306712370864,65.80795719616223,0.5681333446628799,272.4053496809007,65.30263348466892
368,17.901745463356768,-271.7637722379421,-6.755612402345281,-2.228440481934182,66.27658116498975,0.8429398412052022,272.5140905253246,65.80022232407084
369,17.906033253238995,-271.8661656121924,-6.8555783022147025,-0.9766521932331729,66.76678056597235,1.129714076437664,272.61641030487095,66.35688108042457
370,17.904041057876537,-271.9619645650185,-6.949964536640146,0.41507108713240737,67.27176835534617,1.4262540828036145,272.7112182213691,66.97127022099684
371,17.895292856042083,-272.05018846191194,-7.039093778249546,1.9456260401509093,67.7844706163668,1.7299700307372927,272.7975606049512,67.64167684488163
372,17.879486930292103,-272.13000393358254,-7.123320071655406,3.6126540309617905,68.29764600833288,2.0379194258458324,272.8746522757199,68.3660362662588
373,17.85650318790698,-272.20075167038215,-7.203038696848985,5.412546057834591,68.8040036388184,2.3468550884199564,272.9419019975178,69.14194894752724
374,17.826403363916985,-272.2619662572305,-7.278694681896287,7.340467152868086,69.2963179700567,2.653284075186183,272.9989304919752,69.96669321653242
375,17.789424521476594,-272.3133880301653,-7.3507890360972095,9.390398478774635,69.76753990921463,2.9535354118880166,273.04558006385747,70.83723482020258
376,17.745966786884594,-272.35496677611667,-7.419882033201374,11.555194502509345,70.21090350244758,3.2438344862427155,273.0819157573848,71.75023465742797
377,17.696576567909673,-272.38685791149845,-7.486592889076526,13.82665216392942,70.62002753304046,3.5203820889767243,273.1082187808907,72.7020558933466
378,17.641926548511723,-272.40941218501604,-7.551595127534258,16.195588898372485,70.98901076979817,3.779436301638179,273.12497333011106,73.68877105805007
379,17.58279361403261,-272.42315992252657,-7.615607044238773,18.651926565969084,71.31251875610315,4.017395708725755,273.1328478904875,74.70616880467695
380,17.520035573234697,-272.4287906000969,-7.679377099751967,21.184778521043917,71.58585917154993,4.23088275034337,273.13267184788157,75.74975901017717
381,17.454567153535475,-272.42712835086155,-7.743664811455154,23.782537004192626,71.80504227480485,4.416826348408609,273.12540804425305,76.8147741427573
382,17.387335417272304,-272.4191040060266,-7.809218601695349,26.43295776530949,71.96682299726501,4.572543127612795,273.1121219084285,77.89616453571257
383,17.319294650757605,-272.40572438184023,-7.876752775524218,29.123238586790478,72.06872200888571,4.695816553481928,273.0939479141477,78.98858556067033
384,17.25138093178736,-272.38803961867967,-7.946926020631774,31.840088520589482,72.10902446819972,4.784973124295062,273.07205422827536,80.08637573103555
385,17.184486866931035,-272.367109395,-8.020323385370766,34.569785396463494,72.08675697386172,4.838954435669018,273.04760644141436,81.18352635586949
386,17.119437254944994,-272.3439687963195,-8.097442744845026,37.29822047167032,72.00164510397427,4.857383587314637,273.02173123159326,82.27364519551828
387,17.05696655663138,-272.31959456383066,-8.178685681556729,40.01093073454848,71.85405550452042,4.840624099065485,272.9954807416893,83.34991825703524
388,16.99769902260366,-272.2948724391246,-8.264351798617135,42.693120997433276,71.64492751713485,4.789829232433535,272.96979841783406,84.40507506412078
389,16.94213225875085,-272.2705663945073,-8.354634896028635,45.32967918826573,71.37569971739279,4.70697932289345,272.94548710575066,85.43136322434803
390,16.89062497647891,-272.24729066830884,-8.449619224192121,47.90518901667993,71.04823651919294,4.594904452034411,272.92318032037076,86.42053788322148
391,16.843389622715907,-272.2254856663063,-8.549274123191815,50.40394454661655,70.66475937388743,4.457289645112883,272.90331774210756,87.36387092255066
392,16.800490438443205,-272.20539888078304,-8.65344564071054,52.80997140514299,70.22778631160064,4.298659839781703,272.8861260801053,88.2521838844625
393,16.761847316106408,-272.1870719102879,-8.761844193933713,55.10705958862603,69.7400828637532,4.124342103464533,272.8716063762626,89.07590787479032
394,16.727245730470372,-272.1703343633883,-8.874028073376541,57.27881308343174,69.20462688323431,3.9404029097292974,272.85952854154436,89.82517320558166
395,16.696352988038985,-272.154804977628,-8.989383477415146,59.30872158802248,68.62458942466625,3.7535586729401644,272.8494334912119,90.48993113675033
396,16.668740943012853,-272.139899872758,-9.1071025444138,61.1802592193672,68.00333355967769,3.5710581709766887,272.8406428504124,91.06010951475723
397,16.643915090701984,-272.1248476331723,-9.226161343915722,62.87701403667121,67.34443265877727,3.4005359841433638,272.832275972757,91.5258031764352
398,16.621349635629773,-272.10871089697275,-9.345300061333626,64.38285058596462,66.65170917835277,3.2498367362507126,272.82327397744393,91.87749865505471
399,16.600527828209753,-272.09041423834253,-9.4630078241957,65.6821057284097,65.92929430930441,3.126810865766266,272.8124305972715,92.10633113379045
400,16.580986563747764,-272.0687782465364,-9.577514864191725,66.75981609080523,65.18170798830262,3.0390839409514987,272.798429724421,92.20436996249263
401,16.562363857155557,-272.0425597155872,-9.686794993493775,67.60197381841563,64.4139577798084,2.9938030995550857,272.7798895254996,92.16492757645833
402,16.54444729820124,-272.010497680335,-9.788581631396857,68.19580602059976,63.63165404150947,2.997365884795718,272.7554127852095,91.98288541817351
403,16.527221044474697,-271.971364589458,-9.880400560383308,68.5300723312222,62.84113765762403,3.055138372186259,272.7236426549357,91.65502946831279
404,16.510908539829828,-271.924021116618,-9.959621678908514,68.59537419727963,62.04961559801308,3.1711708582564286,272.68332216024976,91.18038720510884
405,16.496008132576232,-271.86747204459857,-10.023529993069323,68.38446863976179,61.26529878047667,3.3479204098724633,272.6333547384729,90.56055716110845
406,16.483319080352967,-271.8009196933977,-10.069413543974164,67.89257808879958,60.49753626220651,3.585990233614017,272.57286211291364,89.8000216298262
407,16.473955888979667,-271.7238109885242,-10.09466396418132,67.11768637167978,59.7569396860287,3.883896120697574,272.50123544104196,88.90643241906396
408,16.469349412145093,-271.63587463193306,-10.096884456156982,66.0608091072555,59.05549213866378,4.237870138764921,272.418176045896,87.89085888371153
409,16.47123362366918,-271.5371456953568,-10.07399995859355,64.72622491637028,58.406636056187274,4.641711275907435,272.32372290620594,86.76798692766889
410,16.481617488334027,-271.4279759958781,-10.024364595382444,63.12165242526873,57.82533536757651,5.086691923763774,272.2182651332489,85.55625742288095
411,16.502741928988893,-271.3090296798935,-9.946861835609695,61.258357516077076,57.32810752065937,5.561527926098931,272.10253874174833,84.27793278341441
412,16.537022559046534,-271.1812644659707,-9.84099302341498,59.151176101509776,56.93302132648602,6.0524183672911676,271.977608060419,82.95908152626723
413,16.58697965190905,-271.04589991133895,-9.706950096774472,56.81844003369174,56.65965680756764,6.543159274032417,271.8448330610464,81.6294727350468
414,16.655157776968302,-270.90437478343154,-9.545668453857823,54.28179734212304,56.52902362112295,7.015332984367647,271.7058246311345,80.32237531770708
415,16.744038644451916,-270.7582960508087,-9.358856098995975,51.56592225979992,56.56343520208322,7.448572248139296,271.56239029275605,79.07426038428217
416,16.855951729505996,-270.609382093928,-9.148995597480289,48.69811484845782,56.7863364430351,7.820895379063996,271.41647301224594,77.92440842985538
417,16.99298760221127,-270.4594024356842,-8.91931633826655,45.70779409834521,57.22208343988337,8.109106204184675,271.2700854947594,76.91442595046217
418,17.156918113066816,-270.3101156773306,-8.673736353388778,42.62589204953812,57.89567467571433,8.289250306220833,271.12524177499625,76.08767862235302
419,17.349125978612204,-270.16320672721423,-8.41677516684656,39.48415988894421,58.83243417580315,8.337117158371894,270.9838873387795,75.48865045830146
420,17.570544789159914,-270.0202242408931,-8.153441111966307,36.31440038970832,60.057648749201014,8.228776151862602,270.8478288650422,75.16224068750682
421,17.821609673075173,-269.88251949915383,-7.889097745029895,33.14764469847894,61.59616335053668,7.941133182637374,270.71866500834045,75.1530125912085
422,18.10221872933368,-269.7511883846751,-7.629314569348152,30.013295279463733,63.47194064502896,7.4524934388676884,270.5977200905176,75.50441100798528
423,18.411705362450743,-269.6270184275213,-7.379707816635712,26.938260358640928,65.70759288221377,6.743115363594979,270.4859828841776,76.25796736570385
424,18.748821376281906,-269.51044314795934,-7.145777734569758,23.94610786515272,68.32389609457299,5.795740447727919,270.3840529196796,77.45251254322581
425,19.11173012411322,-269.4015061863106,-6.932749322818434,21.05626819917519,71.33929831839696,4.596083506166692,270.29209698309353,79.12341836695248
426,19.498008571623092,-269.29983773736416,-6.745423096713274,18.283315074211302,74.76943481067595,3.1332684113344946,270.20981846952736,81.3018880399605
427,19.904657136048808,-269.2046452881502,-6.588040998821387,15.636352327596766,78.62666395502572,1.4001949846309623,270.1364417205994,84.01431437877743
428,20.328116698823347,-269.1147195972502,-6.464170580401827,13.118532123290775,82.91963760879733,-0.6061759590855843,270.0707124300929,87.28172254164797
429,20.764293105150678,-269.0284556665903,-6.376608875721245,10.726726438792676,87.6529189521511,-2.884630373831701,270.0109140647063,91.1193110793931
430,21.208590296114526,-268.9438876068332,-6.327306311209726,8.45136912219064,92.82665940009062,-5.429609650622267,269.95489944550866,95.53610170301091
431,21.655953438454862,-268.85873587991364,-6.3173103658230465,6.276480217542081,98.43634388413949,-8.231224742962203,269.9001362195023,100.53470426541989
432,22.100922975279293,-268.7704651648876,-6.346728457527322,4.179878001300528,104.47261100534162,-11.27537632658475,269.8437646640958,106.11119931442367
433,22.537699789901044,-268.6763508067071,-6.414709724934233,2.1335776899787846,110.92115153340131,-14.543977430965725,269.78266591201657,112.25513649438948
434,22.960220952086967,-268.5735515051186,-6.519445815028631,0.10436941676313306,117.7626858569572,-18.015270898205685,269.71353831282516,118.94964340137152
435,23.362244909172755,-268.4591857919321,-6.658191139372204,-1.9454380103615498,124.97301857251207,-21.66423022903127,269.6329794708658,126.17163650555614
436,23.737444568381093,-268.330410102884,-6.8273032414090835,-4.05712679149961,132.5231665242814,-25.463029113085206,269.53757169803595,133.89212353199144
437,24.07950651505308,-268.1844968848172,-7.022304119904889,-6.2745577213830765,140.37955516043618,-29.381562418110814,269.4239692124882,142.07658512698663
438,24.382234557689447,-268.0189119797951,-7.237963642630288,-8.643064630119628,148.50427686839063,-33.38799976100205,269.2889861917248,150.68542255688527
439,24.639655837991224,-267.83139111081755,-7.468406244466297,-11.208288072738151,156.85540391021374,-37.449352072500645,269.12968536029217,159.67445751368646
440,24.84612787756872,-267.6200153641376,-7.707241507487737,-14.014982828974379,165.38734781104898,-41.53203180867806,268.94346685452706,168.99546995187438
441,24.996445032625914,-267.38328516250243,-7.94771791658611,-17.105834573984293,174.0512568054522,-45.60238860294308,268.7281566852808,178.59676048741048
442,25.085942727419557,-267.1201915712147,-8.182897483293807,-20.52032064072857,182.79544345037732,-49.62720410354911,268.4820934205953,188.42372546349247
443,25.110597541810545,-266.8302829329188,-8.405847527728831,-24.293648411289197,191.5658358603719,-53.57413241968461,268.2042107994664,198.41943539517774
444,25.067120896632147,-266.5137237550716,-8.609844932049239,-28.45580278684777,200.3064480639995,-57.412075891704944,267.8941128524189,208.52521095722463
445,24.953043858961305,-266.1713417033746,-8.7885875101884,-33.0307314004642,208.95986728187754,-61.111489596026104,267.5521369838696,218.68119445681194
446,24.76679057690937,-265.8046579318899,-8.936406467888604,-38.03569259305114,217.46775788997604,-64.64461180628199,267.1793998151033,228.82691812947516
447,24.507738086179966,-265.4158961133375,-9.048473043795099,-43.48078656132962,225.7713830150803,-67.9856213087779,266.77782070225277,238.901873064105
448,24.176260642482255,-265.00796648689726,-9.120991435157627,-49.36868459831815,233.8121450065784,-71.11072584795261,266.3501187950926,248.8460839097149
449,23.773757231982675,-264.5844228573925,-9.151369430142484,-55.69456524408198,241.53214557034445,-73.99818893581617,265.89978113511535,258.6006948029048
450,23.30266144515717,-264.14939230427154,-9.138358269337383,-62.446259682148565,248.87476534303113,-76.62830468052839,265.4310011620243,268.1085713154672
451,22.766433418188274,-263.7074789269106,-9.082154385905044,-69.60460189375391,255.78526135560887,-78.983332066958,264.9485886486831,277.3149218040601
452,22.169533955177137,-263.26364422138266,-8.98445771193657,-77.14397187897836,262.21137937647626,-81.04740117342298,264.4578534619814,286.16793947982467
453,21.517381117209624,-262.82306778669295,-8.848483844110367,-85.03301289861349,268.10397659252953,-82.80640407839685,263.9644667608799,294.61946387499603
454,20.816289452594816,-262.39099281721354,-8.67893011932594,-93.23549683938901,273.41764836218664,-84.24788269786345,263.4743040935806,302.62565718388714
455,20.07339178535825,-261.97256097693145,-8.481898125872949,-101.71130630951312,278.1113506470137,-85.36092458055835,262.9932750590181,310.14768723421236
456,19.296543326965462,-261.57264088560726,-8.264777034148418,-110.41749860533233,282.1490070484634,-86.13607591442674,262.5271438722047,317.1524047366492
457,18.494208017552847,-261.19565400850894,-8.036093277900163,-119.30941554579275,285.5000862222386,-86.56527880702224,262.0813447607385,323.61299827283085
458,17.675327486696602,-260.8454015654066,-7.805332624928986,-128.34180423998902,288.1401322330863,-86.64183743493236,261.660795967197,329.5096067299367
459,16.84917377859801,-260.52489621776954,-7.582740650671738,-137.46991668806857,290.05122784425885,-86.3604150800035,261.26971629898344,334.8298662121321
460,16.025187892601345,-260.2362026251531,-7.379107213142064,-146.65056005250403,291.222369530461,-85.71706158795011,260.91144852202154,339.56936739613525
461,15.212807165357919,-259.98029132258455,-7.205539967240851,-155.84307374462566,291.6497336233175,-84.70926859982588,260.5882942822661,343.7320000760184
462,14.42128549233659,-259.7569106313608,-7.073231560058034,-165.01021352611343,291.33681551984205,-83.33604815264434,260.3013655379518,347.33016412384524
463,13.659511190112898,-259.5644813106462,-6.993225033884272,-174.1189262988093,290.294428034547,-81.59802897262418,260.0504575252412,350.38482991130365
464,12.93582779483085,-259.4000181969368,-6.976181835955565,-183.14100223690744,288.54055024632385,-79.497564024429,259.8339478517382,352.92543598727235
465,12.257863364848335,-259.25908216419214,-7.032156318550378,-192.05359381852833,286.1000240102822,-77.03884268521946,259.64872540798257,354.98961718301445
466,11.632374036011914,-259.13576469893377,-7.170379809263622,-200.83959458697237,283.004101243538,-74.22800130414295,259.49015174677527,356.62276216170926
467,11.065107435944046,-259.0227066964657,-7.399056784733372,-209.48787429181075,279.2898509345357,-71.07322680796351,259.35205689097324,357.87740562781653
468,10.560690700919071,-258.91115300888316,-7.725175795143172,-217.99337120388427,274.99944041244447,-67.5848492398345,259.2267714582438,358.81246668985733
469,10.122546335596516,-258.7910445880216,-8.154338351746963,-226.35704634456775,270.1793105112106,-63.77542043261093,259.1051973148029,359.49235071379286
470,9.752837606450461,-258.65115010145655,-8.690609417014686,-234.5857075426562,264.87926858981933,-59.659777197773074,258.97691902679946,359.9859368210739
471,9.452444009248529,-258.47923801495574,-9.336393197386624,-242.6917132429371,259.1515266495081,-55.255088299230486,258.83035752108674,360.3654764976741
472,9.220966593823814,-258.26228822434945,-10.092337891705313,-250.6925668007035,253.04971373218962,-50.58088500268791,258.6529654814845,360.7054303279753
473,9.056762460193104,-257.9867398509282,-10.957272956001642,-258.6104120150498,246.62789217840051,-45.65907516885159,258.4314615515422,361.0812697579342
474,8.95700755410403,-257.63876939554956,-11.92818195419866,-266.471440646383,239.93960620484796,-40.513940812929164,258.15209799228296,361.5682695947397
475,8.91778684836704,-257.20459143736474,-13.000213011688762,-274.3052233588948,233.03698894036125,-35.17211892845093,257.80095440852256,362.24031544145214
476,8.934210737752979,-256.670772582185,-14.166727613554587,-282.14397717366546,225.9699509640474,-29.66256523722206,257.36424862784855,363.16874897719265
477,9.000555724685888,-256.02454850729777,-15.419387445616083,-290.0217847847037,218.78546993877956,-24.016500325894143,256.82865489090744,364.42127301613516
478,9.110426316947688,-255.25413384284656,-16.74827831365191,-297.97378335844945,211.5269974455832,-18.267337238949235,256.181619325868,366.0609373847064
479,9.256933869155345,-254.34901529528076,-18.142069706495402,-306.0353421437814,204.23399570957133,-12.450588936513398,255.41166325627233,368.1452254985159
480,9.432887228602752,-253.30021966206934,-19.58820801147302,-314.24124903211566,196.94161344782384,-6.603753152766923,254.50866603144988,370.7252597717499
481,9.630989586482308,-252.1005498990653,-21.07314059032738,-322.62492596786404,189.68050639467094,-0.7661712928226208,253.46412045569943,373.84514141979196
482,9.844035755020018,-250.74478395073845,-22.582566855096417,-331.2176916578321,182.47680415249326,5.0211427187035245,252.27135528904128,377.5414366619427
483,10.065104030264704,-249.22983254342714,-24.101711194529106,-340.0480871537403,175.35222101464174,10.715708149321443,250.92572060225535,381.84281667396573
484,10.287736808370187,-247.55485350851825,-25.615611257139907,-349.1412755295943,168.3243044585687,16.27382230286725,249.42473293977656,386.7698528882003
485,10.506104294851502,-245.72132133583833,-27.10941395342628,-358.5185213969268,161.40681117671022,21.650848720028666,247.76817819067642,392.33496270413275
486,10.715146146484473,-243.73305147130029,-28.568670772029016,-368.19675019547543,154.61019681393896,26.801552148601264,245.95817072854663,398.5424940368308
487,10.910686746382376,-241.59617942172824,-29.97962363854915,-378.1881821229683,147.94220204854543,31.68048234245326,243.9991678209614,405.38893133296085
488,11.089520850987423,-239.3190952174505,-31.329472595057595,-388.5000322479037,141.40851437438914,36.24240677337623,241.8979387351582,412.8632016783674
489,11.249467377650324,-236.9123344378464,-32.60661714172289,-399.13426748470715,135.01348203219837,40.44278976323471,239.6634886193735,420.9470581045684
490,11.389390129266687,-234.38842791342708,-33.800864261982916,-410.08741292244144,128.7608541580515,44.23831250638405,237.30693822946898,429.61551845233606
491,11.509185350527181,-231.7617132587494,-34.903597920041115,-421.3504042509526,122.65451960468653,47.58742516543895,234.84136178855604,438.83734204328715
492,11.609737125757789,-229.0481123623734,-35.90790694947778,-432.908489149874,116.69921629220285,50.45091893143416,232.28158648782093,448.57553249387047
493,11.692842660357398,-226.26487976998953,-36.80867039449976,-444.7411876747457,110.90118348207416,52.792502923707886,229.64395821441042,458.78786253915666
494,11.761110467193104,-223.43032756909537,-37.60260123058561,-456.8223288276318,105.26873103410607,54.5793683836621,226.94607900995118,469.4274246926025
495,11.817835519180582,-220.56353296222227,-38.28825087303393,-469.1201863404926,99.81270243872262,55.78272112061734,224.20652255441865,480.44321868502846
496,11.866856529208947,-217.6840352682694,-38.86597799894629,-481.5977398857096,94.54681210041474,56.37826288808597,221.44453470296412,491.78079157293604
497,11.912401519987231,-214.81152971595606,-39.33788593698433,-494.21308746920596,89.4878417545109,56.34660348998398,218.67972685900315,503.3829481546692
498,11.958928542676414,-211.96556609261486,-39.7077330592238,-506.92003033199177,84.65568571655922,55.673587972417444,215.9317707070791,515.1905474556781
499,12.010968615959703,-209.16526091645247,-39.98082011733232,-519.6688435886866,80.07323960027665,54.35052711117764,213.22010335434487,527.1433957048888
500,12.07297758180363,-206.42903207875258,-40.16385751923142,-532.407234764655,75.76613199097572,52.37432424496329,210.56365203924156,539.1812379694218
501,12.149202645649881,-203.77436468685838,-40.26481464379107,-545.0814793014838,71.76230320334813,49.747496860432285,207.9805871787864,551.2448402350452
502,12.243568063379605,-201.21761601480023,-40.29275279869521,-557.6377081205903,68.09143963274633,46.47809667287612,205.48811159851246,563.277142210184
503,12.359583001805417,-198.77386593381954,-40.25764333659973,-570.0233087147956,64.7842763635591,42.5795368181424,203.1022922333888,575.2244496423566
504,12.500273261076721,-196.45681698043762,-40.17017260213733,-582.188389200907,61.8717847975661,38.0703389121357,200.8379384193234,587.0376246607077
505,12.668137393721802,-194.2787456186324,-40.04153575149156,-594.0872453245721,59.38426641679644,32.973816017447,198.70852840116785,598.6732246390682
506,12.865126676381278,-192.25050363199026,-39.883222106111546,-605.6797641946168,57.350378665085486,27.317709903111826,196.72618322697448,610.0945349919355
507,13.092647181401016,-190.38156607006644,-39.70679544602737,-616.9326957850341,55.796124214014554,21.133802335425717,194.90168486838624,621.2724394317007
508,13.351580729495224,-188.68011970721352,-39.5236732045185,-627.8207239645897,54.74383987918073,14.457520483525439,193.24453307033224,632.1860724707386
509,13.642319905567637,-187.1531835971315,-39.34490867006863,-638.3272727975589,54.21122498489951,7.32755590314702,191.76303309405714,642.8232030706475
510,13.964810999149071,-185.80675127256356,-39.1809801242465,-648.444990766887,54.210449712662204,-0.21448496814860077,190.46440445831178,653.1803049277753
511,14.318598101366941,-184.64594272736844,-39.041590690795694,-658.1758651056431,54.74738091912313,-8.124383301834595,189.3548993669785,663.2622776452691
512,14.702861749172445,-183.675153675448,-38.93548285502356,-667.5309305961005,55.82095586948002,-16.355551265125495,188.43991895147118,673.0817940640478
513,15.116446351641,-182.89818974094345,-38.87027216744947,-676.5295524398733,57.42272417226168,-24.859208728465056,187.72411579519252,682.6582628650427
514,15.55787216690991,-182.3183741997007,-38.85230534257793,-685.1982817077716,59.53656683144081,-33.58449137686337,187.2114724161283,692.016412948833
515,16.025329910158455,-181.9386196289019,-38.88654850817114,-693.5693045794607,62.13859121259009,-42.478494996570106,186.90534738702692,701.1845273309477
516,16.51665901178581,-181.7614562232663,-38.976511494584315,-701.6785321314384,65.19719401883515,-51.486268173110126,186.80848340570802,710.1923785545231
517,17.029313544777892,-181.78901246473177,-39.1242134830013,-709.5634036068452,68.67328213720766,-60.55077343548307,186.92297464835227,719.068942791759
518,17.560322165173275,-182.02294715356285,-39.33019372202681,-717.2604998275228,72.52064290484431,-69.61284423982171,187.25019388621791,727.8399927811565
519,18.106249571503596,-182.46433534413117,-39.59356828427453,-724.8030815425288,76.68645890842411,-78.61117096674191,187.79068288967693,736.5256871871256
520,18.66316691006861,-183.11351422684493,-39.91213042331533,-732.2186776144604,81.11196507274282,-87.48235208010841,188.54401241315333,745.138283126849
521,19.226637460535695,-183.96989820086927,-40.282488856767074,-739.5268488253554,85.73324516616097,-96.1610458808271,189.50862046747406,753.6800980080201
522,19.791722241900764,-185.0317750980332,-40.70023599178189,-746.7372449214921,90.48216000634257,-104.58025368762404,190.68163962441542,762.141836531935
523,20.35300837437114,-186.29609757751902,-41.160137039174764,-753.8480566269587,95.28739128245739,-112.67175734961376,192.05872570530627,770.5013801474188
524,20.90466153523655,-187.75828488255524,-41.6563310026669,-760.8449426212602,100.07557497867128,-120.3667238923847,193.63390118129087,778.723111537323
525,21.4405028173785,-189.41205020071322,-42.182535285721016,-767.7004857834096,104.77248946696375,-127.5964791695919,195.3994266780691,786.7578181458697
526,21.95410956655861,-191.24926771866959,-42.732246753538824,-774.3742050788524,109.30425785947278,-134.29344178036712,197.34571297239015,794.5431884519911
527,22.438939001077433,-193.25989120547143,-43.2989333650237,-780.8131210969581,113.59852366431346,-140.39219896111138,199.4612838285608,802.0048847895538
528,22.888472396611498,-195.4319327732035,-43.87621193095273,-786.9528464528446,117.58556329864297,-145.83069799732874,201.73279710520873,809.0581491674384
529,23.296376384030374,-197.75150664844597,-44.45800906660275,-792.719149047487,121.19930747956693,-150.55151990766538,204.14512803576207,815.6098756412688
530,23.656676623207257,-200.20293888297803,-45.03870376589553,-798.0299180500007,124.37825412967015,-154.50319651603078,206.68151493553634,821.5610655478804
531,23.963937962836415,-202.76894058118592,-45.61325096868123,-802.7974501100817,127.0662661935342,-157.64152739445254,209.323764393378,826.8095706559917
532,24.21344435755324,-205.43083975156074,-46.177285818786814,-806.9309664590614,129.21325681989742,-159.93084963047045,212.05251055843067,831.2530234562962
533,24.401371474033965,-208.16886513226206,-46.72720800574213,-810.3392691000588,130.77577032048808,-161.3452112946002,214.84752129248494,834.7918521590555
534,24.524945203885974,-210.9624739584044,-47.26024496431779,-812.9334446670216,131.71746953213773,-161.8693992664112,217.68804248712277,837.3322789621303
535,24.582580167978016,-213.79071448139146,-47.77449230216256,-814.6295264447176,132.00953906792853,-161.4997740429996,220.55317070946418,838.7892026673219
536,24.57399349794839,-216.6326131193487,-48.26893000561612,-815.3510280327632,131.63101072905198,-160.24486851138923,223.4222435926585,839.0888705632154
537,24.500290420851847,-219.4675753840883,-48.74341369510548,-815.0312666070183,130.56901367319273,-158.12571454656535,226.27523695337334,838.1712503128035
538,24.364019252340114,-222.2757891173607,-49.19864114074549,-813.6154003348894,128.8189491752948,-155.17587070083175,229.0931573273227,835.9920212112442
539,24.16919415395942,-225.03861802166867,-49.636095146197164,-811.062113561103,126.38458888847958,-151.44113589497354,231.8584183347579,832.5241159851728
540,23.921284242101496,-227.7389730157456,-50.05796473924649,-807.3448948590936,123.27809673548428,-146.97894720148122,234.55518902202425,827.7587591270748
541,23.62716733411851,-230.3616487270115,-50.467047413482156,-802.4528668940164,119.51997734384162,-141.85747342986963,237.16970222225117,821.7059652062687
542,23.295046119118226,-232.8936126656859,-50.866635874354074,-796.3911434007587,115.13895658700524,-136.15442901743086,239.69051126469793,814.3944802723852
543,22.934324405750463,-235.32423548765178,-51.26039328026585,-789.1807075228189,110.17180004356723,-129.955643582823,242.10868425578442,805.8711708991813
544,22.55544179528119,-237.64545234500798,-51.65222144975782,-780.8578268499069,104.663071534731,-123.35343075311715,244.4179268277435,796.1998878739453
545,22.16966680481268,-239.85184765678537,-52.04612714585746,-771.4730424614244,98.66482682129772,-116.44480538063942,246.61462678019322,785.4598538522768
546,21.78885090837896,-241.94065861423866,-52.44609236941216,-761.0897901005249,92.23622946922211,-109.32960119610391,248.69781731832097,773.7436448543094
547,21.425148728405507,-243.91169617749304,-52.8559552847438,-749.7827289836806,85.44306992864168,-102.10854156740784,250.6690593224304,761.1548524838199
548,21.0907122145421,-245.76718602491403,-53.27930853122852,-737.6358657803969,78.35716724616222,-94.88131464649565,252.53224693294726,747.8055256653015
549,20.797368690244078,-247.5115357401993,-53.719420996829555,-724.7405668031948,71.05563605999309,-87.7447011633468,254.29334447530795,733.813496496089
550,20.55629388926572,-249.15103830067872,-54.179187672873304,-711.1935499431504,63.62000853851099,-80.79079892806638,255.96006621094273,719.299693951349
551,20.37769156448905,-250.6935253759523,-54.661110136142455,-697.0949393050607,56.1352098821958,-74.1053831860722,257.541513347373,704.3855413966187
552,20.270491193107453,-252.14798672177844,-55.167307646583936,-682.5464500949731,48.68839525575674,-67.76643669119011,259.0477849038813,689.1905192006024
553,20.24207497481589,-253.5241737891814,-55.69955598881702,-667.6497499394962,41.36766459210521,-61.84287796729342,260.4895802103214,673.8299529060737
554,20.298044699581386,-254.83220630615804,-56.259348494278065,-652.5050173843904,34.26067939402123,-56.393510916461516,261.8778108522456,658.4130622660148
555,20.442037909348144,-256.08219976793515,-56.847971774123344,-637.2096921010898,27.453212616321174,-51.466213878942675,263.22323860299576,643.0412802474906
556,20.67560094812171,-257.2839294124744,-57.46658784451075,-621.8573886589758,21.027668926413405,-47.09738163058448,264.53615326874535,627.8068281642331
557,20.99812413488002,-258.44654260361654,-58.11631435956108,-606.5369309706286,15.061617600402856,-43.311629684883464,265.8261006421582,612.7915177445165
558,21.40684169789719,-259.5783271224948,-58.79829530939095,-591.3314606824937,9.626383212857618,-40.12176639827009,267.1016664080322,598.065746114893
559,21.896896430407615,-260.6865383982847,-59.51375564341061,-576.317580271397,4.785739498645204,-37.529034118807026,268.3703175541219,583.6876557672082
560,22.461466271405683,-261.77728488601133,-60.26403472238934,-561.5645078037992,0.5947491215747654,-35.52361521362373,269.6382992552469,569.7024459863806
561,23.091947262387837,-262.8554679814713,-61.05059508941993,-547.1332404084312,-2.9012132096932515,-34.085391786264196,270.91058262080963,556.141840195787
562,23.778184787745396,-263.9247710147798,-61.87500462343769,-533.0757423557147,-5.6672243059529475,-33.18493925520258,272.19085706417144,543.023730136867
563,24.50874286711857,-264.98769076725245,-62.7388917029036,-519.434187449109,-7.679341798771708,-32.78472415939305,273.4815601719408,530.3520289982407
564,25.271199643269213,-266.045604413718,-63.6438745764491,-506.240292477911,-8.924888259410524,-32.840466398731756,274.7839376454015,518.1167698273697
565,26.052456223325258,-267.09886471786325,-64.5914675714135,-493.51477897138545,-9.40248987988196,-33.302616659352516,276.098126053931,506.294483018338
566,26.839045937833983,-268.1469167012011,-65.58296792794833,-481.26699606392657,-9.12188055147983,-34.117892101107614,277.42325177692186,494.84887902238313
567,27.617432128070398,-269.1884297856631,-66.61932801535276,-469.49473003089906,-8.10349323326462,-35.23080840062872,278.7575405894482,483.73185178902304
568,28.374284698616897,-270.2214403188544,-67.70101870037324,-458.1842177102163,-6.377870462865164,-36.58514456417825,280.09843367428874,472.88480654932704
569,29.096728505917998,-271.24350014475976,-68.82789076227398,-447.3103727645416,-3.984933252339654,-38.12527890763179,281.4427071262517,462.2403036134979
570,29.772559828784424,-272.2518273450427,-69.99904228174954,-436.837226325161,-0.9731512233999715,-39.79734040853427,282.7865930386136,451.7239987516288
571,30.39043049240278,-273.243455470345,-71.21270056205077,-426.7185772489387,2.6013438692301034,-41.55012925695113,284.1259009554312,441.2568509422798
572,30.940002470161478,-274.21537763567085,-72.46612710838053,-416.8988415678817,6.675664165441759,-43.33577372216276,285.4561388716976,430.7575596786864
573,31.41207850777352,-275.16468192635256,-73.75555330084302,-407.3140845244322,11.181063504248261,-45.11010711234837,286.7726331128329,420.1451857641477
574,31.79871596410703,-276.0886747124196,-75.07615263505762,-397.8932104149176,16.04381199629551,-46.832767902112266,288.07064631421576,409.3419003464231
575,32.09333134194609,-276.9849886380356,-76.42205309879455,-388.5592748900537,21.18604692811482,-48.46704652567364,289.3454923327586,398.27579625008553
576,32.29080190754463,-277.8516721948986,-77.78639091351478,-379.23087322134757,26.52661353024831,-49.979521677872384,290.59264634076095,386.8836847688847
577,32.38756858596424,-278.687258009711,-79.16140482627901,-369.8235501090915,31.98192017691112,-51.33954486544104,291.8078477869622,375.1137931279087
578,32.38174128702882,-279.4908074900201,-80.5385684096797,-360.25117565755704,37.4668391031631,-52.51864242656517,292.9871936085188,362.9282762218753
579,32.273204353133146,-280.2619304035219,-81.90875629716356,-350.42723986994054,42.89568493373124,-53.48990806858452,294.1272191698375,350.3054627028598
580,32.0637163482281,-281.0007792080193,-83.26243889904906,-340.2660331572575,48.18329900053302,-54.22745590637429,295.2249648147047,337.24176911007595
581,31.756995295563048,-281.70801928453164,-84.58989898939053,-329.6836993433509,53.246257913319276,-54.70599465698127,296.2780264898783,323.7532334009933
582,31.358777973080507,-282.3847775501635,-85.88146269713275,-318.5991661115109,58.00421109721944,-54.900569294250744,297.2845895739796,309.8766369931648
583,30.8768402175993,-283.0325732611009,-87.12773677648093,-306.93497194736443,62.38133552837517,-54.78649864467531,298.24344584647633,295.67019870539895
584,30.32096469199605,-283.65323607875393,-88.3198434007463,-294.61801584556383,66.30787847954346,-54.33951787240334,299.15399437880836,281.21383242684686
585,29.702843553455903,-284.24881737361346,-89.44964316630133,-281.58025544166924,69.72174257833015,-53.53611544598484,300.01622780748954,266.608962193292
586,29.035906051956722,-284.8215009958497,-90.50993678558238,-267.75937154531476,72.5700536241612,-52.35403687807559,300.8307057911075,251.97788464313052
587,28.335065183333136,-285.37351930686776,-91.49463630882953,-253.09940448715233,74.81064186180893,-50.77291402009582,301.5985174848202,237.4626622338307
588,27.616382844481464,-285.9070793154609,-92.39889766800545,-237.55135359991723,76.41336279279575,-48.77497041774431,302.3212347386264,223.2235250520232
589,26.896659032490955,-286.4243025098667,-93.21920783114793,-221.07371944708058,77.36118475846874,-46.34575097174057,303.00085757377366,209.4367589396326
590,26.19295689879191,-286.9271805478154,-93.95342182286083,-203.63296245251718,77.65097767230948,-43.47482768844701,303.6397533315486,196.29206644424588
591,25.522081360947087,-287.41754737130515,-94.60074721111985,-185.20385291988453,77.29394976725644,-40.15644154686229,304.2405906256893,183.9894057939523
592,24.900034103411755,-287.89706659806745,-95.1616763368098,-165.76969520793125,76.31569518712699,-36.390051867921194,304.8062688494941,172.73533962926894
593,24.34147185565412,-288.36723150219547,-95.63786958388317,-145.32242033202914,74.75583227299389,-32.18077724511915,305.33984375000034,162.73895534767465
594,23.859197396039043,-288.82937401307186,-96.03199619827176,-123.86255335397976,72.66722888275505,-27.539724183309684,305.8444498652179,154.2074481798071
595,23.463713153744305,-289.2846792454852,-96.34754204005813,-101.39907239941864,70.11482691288741,-22.484209296790524,306.32322153329,147.34148353491966
596,23.162864892872715,-289.73420300664617,-96.58859552889689,-77.94918390410328,67.17409410803214,-17.03788671399803,306.7792154038038,142.3304753383789
597,22.961597564459236,-290.1788910461757,-96.75962361028716,-53.53804292037709,63.92914776257427,-11.230793101010365,307.215338414954,139.34793120195357
598,22.861837706884536,-290.61960000065693,-96.86524907996665,-28.198447140421006,60.47061151079039,-5.099318171365662,307.6342856901384,138.54702222429918
599,22.862508084238023,-291.0571206564209,-96.91003953961861,-1.9705284660058335,56.893281314063515,1.3139000277281574,308.03849260179777,140.05653372158793
600,22.959671736009344,-291.49220411639567,-96.89831696805439,25.098542484793715,53.29368763483513,7.960165469708642,308.4301043034979,143.97734226516693
601,23.146794875465172,-291.9255906667838,-96.8339955368478,52.954833470956096,49.76764579050967,14.785018001724886,308.8109643670066,150.3795439695051
602,23.41511138278918,-292.3580396971871,-96.72045391007818,81.5379128463898,46.40788507012194,21.728651443808005,309.1826218953125,159.3003302778452
603,23.754066211853704,-292.79035721149546,-96.56044675553196,110.78110654652794,43.30184019790377,28.726474723207975,309.54635386831103,170.74267312815715
604,24.15181114888374,-293.22341579690175,-96.35605841895489,140.61176187062375,40.529677715671895,35.709829423775474,309.90319699722744,184.67484468218757
605,24.59572442251873,-293.65816110487197,-96.10869964076733,170.9515290065209,38.16261632997418,42.606870206655174,310.253981734775,201.03076097162426
606,25.07292606773754,-294.095599544599,-95.81914600526248,201.7166676825382,36.26158515858683,49.34360736690911,310.5993610003637,219.71110630328664
607,25.570763692620474,-294.5367641082915,-95.48761483255355,232.81838141677574,34.87624757477702,55.84510343573484,310.9398278605704,240.5851675700362
608,26.077247708658714,-294.9826585231302,-95.11387567645401,264.16317666721375,34.04440145888948,62.036807759725285,311.2757193809223,263.4932855702693
609,26.581420102898747,-295.4341833745515,-94.69738838898861,295.65324006175695,33.79174993466223,67.84600427178596,311.60720717466637,288.2498147895988
610,27.07364563441325,-295.89205066943464,-94.23746164377371,327.18682543142137,34.13202114247763,73.20333881968914,311.9342779161367,314.6464748633059
611,27.545818729059835,-296.3566950878485,-93.73342392444056,358.6586451615513,35.06740230203256,78.04438446681425,312.25670886150067,342.45597714367574
612,27.991483633628164,-296.8281908314381,-93.18479852328939,389.96026820256645,36.58924310131492,82.31119698178442,312.574044264652,371.43581872257346
613,28.405869853326553,-297.3061825279806,-92.59147409475476,420.9805392924318,38.678977066142174,85.95380852651904,312.88557854513175,401.3321527555218
614,28.785849265288345,-297.7898371001771,-91.95386258274425,451.60604827960174,41.30920766857235,88.93160510226431,313.1903510744169,431.8836652748282
615,29.129824846390562,-298.27782102658676,-91.27303677603528,481.7216915440995,44.444908719597414,91.21453264474832,313.48715554097447,462.82541114837585
616,29.437563151244017,-298.7683044882109,-90.55084031271431,511.21137607546774,48.04469512907119,92.78407849391749,313.77456441127816,493.8925818107071
617,29.70998365171799,-299.25899109650584,-89.78996363149821,539.9589186653526,52.06212821934194,93.63398020362462,314.05096658855285,524.8241923299214
618,29.948918289146157,-299.7471696329911,-88.99398029182632,567.84918740089,56.447026994306064,93.77062254282441,314.314614453313,555.3666841569529
619,30.156854357701842,-300.22978262668437,-88.16733957653153,594.7695207529832,61.14676160924509,93.21309549230666,314.5636753022963,585.2774424095452
620,30.336673067544698,-300.70350571143763,-87.31531355141975,620.6114419185955,66.10750758147363,91.99290013323834,314.79628189931645,614.3282230791298
621,30.4913948363058,-301.164831646921,-86.44389958309345,645.2726637223076,71.27543968256022,90.15330458291368,315.01057745413794,642.308476684071
622,30.623940845817437,-301.61015367619,-85.5596820942554,668.65935378563,76.59784403498416,87.7483674204421,315.2047517186567,669.0285416903051
623,30.73691904984909,-302.0358442991083,-84.66965932363951,690.6886030763335,82.02412705621397,84.841660022052,315.3770666299825,694.322665356675
624,30.832441685623106,-302.4383271247714,-83.78104166311212,711.2910162870751,87.5067018454004,81.50473073485962,315.5258715136407,718.0517942317844
625,30.91198016718774,-302.81414081270435,-82.90102798787763,730.4133227626336,93.00173696279647,77.81536234982646,315.6496089367148,740.1060642551752
626,30.976261773212237,-303.15999503080025,-82.03656588672804,748.0208941022521,98.469758726672,73.85568007365966,315.7468128409939,760.4069135146106
627,31.02521080623955,-303.4728188801214,-81.19410139343142,764.100049882172,103.87610466417952,69.71017061870462,315.81610077830845,778.908739968949
628,31.057935129842225,-303.7498025245845,-80.37932396294269,778.6600352993701,109.19123100530483,65.46367447320446,315.85616215733654,795.6000309981116
629,31.072757379173506,-303.9884330288271,-79.59691297248023,791.7345617732213,114.39088019411803,61.1994129981129,315.8657445989239,810.5038994151058
630,31.067288642146757,-304.1865257968239,-78.85029277829015,803.3828113574003,119.45611539984193,56.99710976156896,315.84364087493634,823.6779694751369
631,31.038540764050975,-304.34225354710065,-78.141404195419,813.6898171786747,124.37322863722655,52.931261601344225,315.7886794486421,835.2135656841964
632,30.983071473483736,-304.4541754740185,-77.47050111963448,822.7661458443645,129.13352790186318,49.06960955113053,315.6997223290325,845.2341678918281
633,30.897154514868216,-304.52127015025604,-76.8359818218914,830.7468257210462,133.73300681386718,45.471853221937806,315.57567482631134,853.8931102887501
634,30.776965465284597,-304.5429766956733,-76.23426525060533,837.7894885783027,138.1718979166976,42.18864458852238,315.4155127840146,861.37052109206
635,30.618773309875817,-304.51924949363666,-75.65972352223066,844.071721027243,142.45410911487483,39.26088829518683,315.21833374704914,867.8695239040512
636,30.419128134363774,-304.4506321026219,-75.1046822978981,849.7876544121526,146.58654348293047,36.719365322266896,314.9834390587898,873.6117493316708
637,30.175036195613366,-304.33835606114036,-74.55949997081436,855.1438544894833,150.57830711139576,34.584684892058874,314.7104538981179,878.8322339724109
638,29.884114862851387,-304.18447014210113,-74.01273363545066,860.3546030981722,154.43981774483524,32.86755582014806,314.39949166466613,883.7738112216987
639,29.5447212735751,-303.99200512184706,-73.45139473788882,865.6366925303906,158.1818373847431,31.56935354656139,314.0513677384048,888.6811238919593
640,29.156049903823366,-303.76517769215496,-72.86129111720486,871.2038807134443,161.81446274061574,30.682943684739158,313.6678651008991,893.7944133401237
641,28.71819561266279,-303.50963392144814,-72.22744596044699,877.2611832324793,165.3461163163235,30.19370837870188,313.2520500301027,899.3432649697232
642,28.232180247077302,-303.2327271085439,-71.53457863974016,883.9992060087484,168.78258633405028,30.080709660610268,312.8086296777544,905.540514728042
643,27.699942842340914,-302.94381719742915,-70.76762766041223,891.5887454034653,172.1261646395068,30.317916099176955,312.34433510020415,912.5765408464184
644,27.124295926531385,-302.65457021139895,-69.91229212911212,900.1758930216916,175.3749279237704,30.87541683495212,311.8683043234489,920.6141721423425
645,26.508853180524625,-302.3792279662259,-68.95556557930851,909.8778735677971,178.5221993193753,31.720551426698577,311.39243182870894,929.7844320387862
646,25.857936175087048,-302.1348121935129,-67.88623521446273,920.7798127420036,181.55621550284803,32.818894626387824,310.93164502421155,940.1833033605097
647,25.17646953436607,-301.94122439146844,-66.69532114961001,932.932580290507,184.4600103962221,34.13505117010586,310.50406609261796,951.8696451515086
648,24.46987429942297,-301.8212039222926,-65.37643420210117,946.3517866051035,187.2115126573762,35.63323518259828,310.1310197650541,964.8643251511011
649,23.74396845114355,-301.80011215312845,-63.92603676691543,961.0179373066528,189.7838429241781,37.27762979520496,309.8368540351382,979.150557944919
650,23.004881740182597,-301.90551931917884,-62.343598269547954,976.8776772612276,192.14579032090194,39.03254293549225,309.6485509083316,994.6753674208734
651,22.258989528594057,-302.16658243601694,-60.631643348989236,993.8459917355701,194.2624469253861,40.86239289746389,309.59511689792413,1011.3520310481784
652,21.51286764192726,-302.61321584718735,-58.7956963575233,1011.8091855704685,196.09598290353145,42.73157050763006,309.7067568192836,1029.0633198043206
653,20.77326754864375,-303.27506945891724,-56.844129644610085,1030.6284367701296,197.60655142565167,44.60423243199065,310.01384809049574,1047.665326027768
654,20.047108663070265,-304.1803420397005,-54.78792550439874,1050.1437197623582,198.75331813231992,46.44408234073548,310.54574495550565,1066.9916724401228
655,19.34148224656223,-305.35446722430225,-52.64036286271943,1070.1779115812737,199.49561206996333,48.21419402336539,311.32945197477926,1086.8579145422154
656,18.663659348911448,-306.81871768193554,-50.41664011300513,1090.540923833769,199.79419213333207,49.87692432509689,312.3882134926174,1107.0659780243452
657,18.02109369919242,-308.5887783919102,-48.133445399424346,1111.0337367499908,199.61261507560124,51.39395513218702,313.74007078735974,1127.408505188571
658,17.421409733528563,-310.6733435576299,-45.80848542839599,1131.452243102597,198.91867937409285,52.726493438428854,315.3964417591845,1147.6730142211668
659,16.872366385064616,-313.07279383364164,-43.45998372395622,1151.5908362235955,197.68590592119224,53.83564730449125,317.3607798117632,1167.6457997815085
660,16.38178902189351,-315.77801141148615,-41.10615915776564,1171.245696813778,195.89500425690244,54.68298361255154,319.6273692294113,1187.1155222399796
661,15.957464744126664,-318.7693901164527,-38.76469554551209,1190.217747896097,193.53526416016123,55.23126127022713,322.18031383119546,1205.8764464966575
662,15.606999580915168,-322.01609610114417,-36.4522130205916,1208.3152567310563,190.60580822128608,55.445321413279885,324.9927740411167,1223.7313004591413
663,15.337639451315384,-325.4756320312889,-34.1837517408991,1225.3560678685672,187.11664165886725,55.2931047847757,328.0265047585898,1240.4937290391106
664,15.156059763362547,-329.09375358601596,-31.972278390008082,1241.1694544591994,183.0894402625533,54.74675638379683,331.2317422907069,1255.9903234819485
665,15.068131044131013,-332.8047811421997,-29.828226062028094,1255.5975776328012,178.55802466399055,53.783769078326664,334.5474826419955,1270.0622098667936
666,15.07866991422013,-336.5323412191833,-27.759078416988473,1268.4965481927184,173.56847800786824,52.38811145121719,337.9021851870841,1282.5661864929234
667,15.191186055352622,-340.1905613295919,-25.76900921233795,1279.7370922977798,168.1788737560407,50.55128103769555,341.21492486126556,1293.3754086871782
668,15.40763674584454,-343.68572815551397,-23.858588254505968,1289.2048333324651,162.45859051076232,48.27322276295767,344.39700232962065,1302.3796314094875
669,15.728201366604768,-346.9184024057146,-22.024564492299113,1296.8002151110084,156.48720150147753,45.56305416260158,347.3540051213597,1309.4850342575287
670,16.15108928253141,-349.7859643472474,-20.25973661443764,1302.4381060857504,150.35293816910277,42.43954393445524,349.9882935225899,1314.6136693255926
671,16.67239557367078,-352.1855418081049,-18.552921306162126,1306.0471398801828,144.15074078168536,38.93129831255914,352.20186309130276,1317.7025895084744
672,17.286019469043776,-354.01724725473105,-16.889029069651944,1307.5688644769396,137.97992517668234,35.07662044840076,353.8995107931409,1318.7027336279277
673,17.983658900351802,-355.18762260066393,-15.249256596570232,1306.956791541584,131.94151453124957,30.923021470968376,354.99220411507764,1317.5776661249408
674,18.754890757542093,-355.613161470231,-13.611402576301185,1304.1754583138045,126.13530858500745,26.526378366151974,355.40052380474975,1314.302292698549
675,19.587340785666456,-355.22375278945134,-11.95031068365213,1299.1996325077885,120.65678792103887,21.949752989346152,355.05802517416447,1308.8616941881332
676,20.466940993119625,-353.96587237283256,-10.238440000780482,1292.013795508337,115.59397347390009,17.261906981499756,353.9143458119278,1301.250228411104
677,21.378267184557853,-351.8053453557497,-8.446559825172486,1282.6120206218188,111.02437660256554,12.535566568753156,351.9378838442367,1291.4710327471298
678,22.304945296333376,-348.72951358063284,-6.5445626475039305,1270.9983200839852,107.01217978388813,7.845506568384854,349.11788227472044,1279.53601746435
679,23.230112338722837,-344.7486668202122,-4.502385450430011,1257.18747779254,103.60578176116663,3.2665329178110425,345.4657798426845,1265.466381981463
680,24.136915282987644,-339.89663201646596,-2.291024518406453,1241.2063299647687,100.83582520964652,-1.1285523104565975,341.01572425540667,1249.2936294163942
681,25.009028691246392,-334.23045794305193,0.1163780282789611,1223.0954132617308,98.7138019849278,-5.2709193587306125,335.82418698173893,1231.0610094450628
682,25.831169366274867,-327.8291818697249,2.7434067900617403,1202.9108698731254,97.23130359980387,-9.097532424713254,329.96866805540253,1210.825286539483
683,26.589584436037494,-320.7917174213839,5.609245708248058,1180.7264759679279,96.35995549921755,-12.552751618997597,323.5455320268304,1188.658704664443
684,27.27248889289296,-313.233954922837,8.727601114770062,1156.635638105394,96.05204502494193,-15.58965355391882,316.667068347247,1164.650994959944
685,27.870430237284854,-305.28521178649265,12.105731705608289,1130.7531800664608,96.24182575450936,-18.171024117708612,309.4579157541293,1138.9112483130116
686,28.376561589798495,-297.084205507409,15.74364256054703,1103.216723376481,96.84745558720611,-20.26999607863222,302.0510252857965,1111.5694533292435
687,28.7868099771846,-288.7747418112849,19.633494572459078,1074.1874551435453,97.77350270793922,-21.870325822039305,294.58335670576054,1082.777488592365
688,29.09993272511086,-280.5013145741211,23.759269468784087,1043.85008404998,98.9139324821327,-22.96632530664878,287.1915075063498,1052.7093634240434
689,29.317461317244025,-272.4048043090472,28.096716288179525,1012.4118146373797,100.15546954612725,-23.562484295567373,280.0074641862707,1021.5605286924024
690,29.443538229609047,-264.6184421794547,32.6135901840671,980.1002224399201,101.38121320517003,-23.672831558251463,273.1546458216319,989.546129498032
691,29.4846577631041,-257.2641809777554,37.27018051340622,947.1599843496651,102.47437153076534,-23.32009067267854,266.7443841772144,956.8981411392998
692,29.449326450525668,-250.44958688052165,42.02011305572827,913.8485026101081,103.32197160760737,-22.534686397981826,260.8729561726029,923.8614115853937
693,29.347661933431436,-244.26533828575947,46.81140083955244,880.4305482618413,103.81840190730478,-21.353652857964743,255.61925564440563,890.6887193075502
694,29.19095110144189,-238.78339155806296,51.58770914515944,847.1721321779255,103.868649243844,-19.819487284864614,251.04316301385785,857.6350365812865
695,28.991188731597862,-234.05584800088232,56.289792699694075,814.3338817797974,103.39110782268867,-17.97898502622456,247.18464378064115,824.9512583907555
696,28.760617062982472,-230.11453137127245,60.857057032129106,782.1642535628594,102.31986092958931,-15.882084353898518,244.06357948260018,792.8777105479531
697,28.511285010914676,-226.97126033377674,65.22919169804497,750.8929418911915,100.60636504182135,-13.580743849517766,241.68030777154905,761.6377838733181
698,28.254643249482292,-224.61877530501536,69.34782084644206,720.7248508698405,98.2204989517214,-11.127870610779791,240.01682173128043,731.4320518411063
699,28.00118823275872,-223.0322544708199,73.15811636426962,691.8349772014469,95.15097373516852,-8.57631375169643,239.03855298450415,702.4332152951077
700,27.760164592648923,-222.17133023883898,76.6103203788922,664.3645071877792,91.40512987412637,-5.977934186625951,238.69663943751846,674.7821784995258
701,27.539331698205082,-221.98249664275693,79.66112705279033,638.4183608792007,87.00817285273989,-3.3827582350628127,238.9305582981031,648.5854956967466
702,27.344796964491564,-222.40178244155948,82.2748783095282,614.0643232924147,82.00191642660168,-0.8382191879685215,239.67099036665778,623.91433843723
703,27.18091599342653,-223.35755601180716,84.42453426567766,591.3337923409172,76.44311321190459,1.6115121636508194,240.8427744791486,600.8050266114062
704,27.050257755889824,-224.77332806918423,86.09238648040724,570.2240551143951,70.40145628796783,3.9261097512542116,242.36781257821676,579.2610497092295
705,26.95363158983959,-226.57042727460845,87.27049049446539,550.7018906137331,63.957335018635135,6.069591139177662,244.16779654223953,559.2563916798598
706,26.89017161617081,-228.6704413475076,87.96080347460575,532.7082007609192,57.19942522434479,8.01073871929207,246.1666470623301,540.7398758516645
707,26.85747310597501,-230.99734077143867,88.17502308816897,516.1633034749831,50.222189683238255,9.723449665894183,248.29258094833986,523.6401769797486
708,26.85177422833266,-233.47923087804017,87.93413481843078,500.97248946756696,43.123360615965055,11.187020879932026,250.47975369371792,507.8711134925336
709,26.868175457532953,-236.04970783793846,87.26768633944532,487.0314514090582,36.00147167829333,12.386373478859865,252.66945576829653,493.33683785639624
710,26.900887888843553,-238.6488217201993,86.21281859649764,474.231238599826,28.953502970014675,13.312218265396586,254.81087073467586,479.9365851663474
711,26.943500971130284,-241.22367273958025,84.81309305262228,462.46246577761735,22.07269822682642,13.961159388629008,256.86142819603623,467.56871322898587
712,26.98925974568968,-243.72868356678893,83.1171623627393,451.6186007097848,15.446607960755578,14.335728740923626,258.78680305266323,456.1338611135216
713,27.031341566778988,-246.12560078044424,81.17733690811639,441.5982589690217,9.155405051028161,14.444339284022334,260.56062400919535,445.53715468685084
714,27.06312251611182,-248.3832826878133,79.04810185423088,432.3065331465981,3.2705097062898796,14.301142240997725,262.1639590909397,435.6894844728241
715,27.078424382498188,-250.47732971684653,76.78463873765436,423.6554675150968,-2.146450961945405,13.925771663928868,263.5846449560377,426.5079631785411
716,27.071734162102466,-252.3896084443517,74.44140238069595,415.5638510780052,-7.044336513274918,13.34296090215385,264.8165211628045,417.9157307816362
717,27.03838944422558,-254.10771231787837,72.07079862937988,407.95653859290513,-11.382841078895597,12.582019221566664,265.85862160828924,409.8413108294165
718,26.97472463420104,-255.62439266051092,69.72200151326247,400.76351987454416,-15.132509946981454,11.676163038032069,266.71436459640836,402.21773199021874
719,26.878174637748675,-256.9369840317332,67.43994050796638,393.91894442153085,-18.274451645454157,10.661704358186743,267.3907719469112,394.98161589897893
720,26.747334359656705,-258.04683958875313,65.26448016849194,387.36027563036066,-20.799783483890028,9.577108395950217,267.89773747057234,388.072400350384
721,26.581974094458207,-258.95878538758836,63.229805824258854,381.0277029652117,-22.70885757975541,8.461942148769477,268.2473567233332,381.43182211024066
722,26.38301254230991,-259.6805977766735,61.36402051429543,374.86388857840916,-24.010320577097623,7.355744897017098,268.45332345750927,375.0037328692972
723,26.152450752092573,-260.22250512833955,59.688950189157445,368.8140735788296,-24.720063017810496,6.296858998617237,268.5303936366708,368.73427143900545
724,25.89327168086906,-260.5967138897413,58.220146769960195,362.82652352104446,-24.86011347517337,5.321264253946909,268.4939151025039,362.5723701831346
725,25.60931103692169,-260.8169588273465,56.96707225153134,356.853256106497,-24.457528354762225,4.4614613188232,268.3594195331735,356.470537335835
726,25.30510553126456,-260.89807782722505,55.93344190215709,350.85096832618007,-23.543321350349522,3.7454492504585275,268.1422726926324,350.3858311980199
727,24.98572479678742,-260.85561236377356,55.117700883242,344.78206576784123,-22.15146777296415,3.1958394570470117,267.85737885611564,344.2809277917308
728,24.65659335723633,-260.70543567319265,54.51360630423961,338.6156929254148,-20.318009176410303,2.829143282718681,267.5189356564724,338.12517982834896
729,24.32330925218039,-260.4634116562638,54.11088575493745,332.3286687214126,-18.080273581234,2.655263443972097,267.1402363196667,331.8955704801364
730,23.991466110665968,-260.1450882984358,53.89594358783589,325.90624431808357,-15.476216828749278,2.6772108836595545,266.73351702804183,325.5774786684909
731,23.66648539139089,-259.7654295961973,53.85258751430908,319.34261858278103,-12.543881904017093,2.8910588097900356,266.30984759181985,319.16519130462547
732,23.353464972901502,-259.3385894531801,53.9627502599841,312.6411678511982,-9.320966147382197,3.2861353685704118,265.8790635144168,312.6621196651314
733,23.05704915998018,-258.8777298274458,54.207183896110465,305.8143682403516,-5.844481657198226,3.8454462595139804,265.44973692356757,306.08069915640357
734,22.781323526029162,-258.3948838153553,54.56610782237095,298.8834083602431,-2.1504921156667383,4.546309286594271,265.02918290480744,299.441971738673
735,22.529736114531154,-257.90086269304646,55.019795055629984,291.8775063971706,1.7260903487432508,5.361174856074373,264.62349683594636,292.7748667464555
736,22.305044733321985,-257.4052044854755,55.549085323990155,284.83295774521065,5.7516621924973945,6.258600060227383,264.23761764467037,286.11520828127453
737,22.10928864497541,-256.91616041432314,56.13581727571252,277.7919479514527,9.89404937973442,7.204339300856457,263.87541148624615,279.50448604509296
738,21.943781996737773,-256.44071444844803,56.763175690355624,270.80117143874554,14.122597629642494,8.16251134402382,263.539769989034,272.9884321293242
739,21.809125869175517,-255.98463015602292,57.41595286102673,263.9103001651596,18.408233261803286,9.096801113169132,263.2327169403506,266.61544975429445
740,21.70523581323495,-255.55251835053727,58.08072634813007,257.17034891751956,22.723493108196827,9.971654276968966,262.9555172994958,260.43494214375596
741,21.631382081512765,-255.14791881987588,58.74595805988671,250.63198593388196,27.042521027261202,10.753423741491936,262.7087828941545,254.49559131408563
742,21.586240282878183,-254.77338976375881,59.40202193009795,244.34383926486288,31.341029441248835,11.411429622253374,262.49257006383255,248.8436379193894
743,21.567950756335005,-254.43059938893674,60.04116919200518,238.3508505809823,35.59622655207801,11.918898274194891,262.30646576343594,243.52121437735323
744,21.574185491107414,-254.12041533114547,60.65744139668949,232.69272856000592,39.7867128915631,12.253751485715737,262.1496601364562,238.5647839147954
745,21.60222185718141,-253.84298901161986,61.24654196649347,227.40255293956244,43.89235415778292,12.399223767170614,262.0210051510868,234.00373733416313
746,21.64902265794719,-253.59783344745034,61.80567717733468,222.50557723659597,47.89414046221171,12.34429330591558,261.91906031088314,229.85919660723195
747,21.711321977383,-253.38389422653515,62.3333769709325,218.01827267466106,51.77404463770978,12.083919945425835,261.8421274972688,226.1430693708215
748,21.7857159416423,-253.1996142393189,62.82930502580088,213.94764800936144,55.514893575120205,11.619090800879132,261.7882776111401,222.8573908336085
749,21.86875691739443,-253.04299326434563,63.29406631837982,210.29087006019793,59.10026632520604,10.956680428453243,261.7553718523521,219.9939797216143
750,21.95704898174635,-252.91164361800588,63.72901915558655,207.03519852898074,62.5144309381976,10.109137771544656,261.74108024505097,217.53442333780004
751,22.047341913955208,-252.8028429716652,64.13609737172636,204.15823694315267,65.74232903320164,9.094016593847945,261.742899568166,215.45039447058082
752,22.136620621547664,-252.71358541854207,64.51764701768516,201.628490033706,68.76961338488101,7.933369926652843,261.75817248532627,213.7042905802376
753,22.222186865243188,-252.6406321355168,64.87628046069543,199.40620702693286,71.5827398776673,6.653032211954491,261.78410959038035,212.25017400403615
754,22.301730343517118,-252.58056343379243,65.2147494948482,197.444480504297,74.16911134928601,5.281815242056764,261.8178162275704,211.03498122757574
755,22.373386549580953,-252.52983426534968,65.53583797137078,195.6905619204072,76.51726729407804,3.850645576892564,261.8563259832445,209.99995986697112
756,22.435779232953372,-252.4848349609492,65.84227358094057,194.08734781592804,78.61711020807894,2.3916716949275485,261.89664229240014,209.08228417174826
757,22.48804573880016,-252.4419579947362,66.1366576414313,192.57498544709816,80.46015663889433,0.9373685342901565,261.93578850659253,208.21679385844354
758,22.529843977656945,-252.3976701692565,66.4214110725416,191.09254315558272,82.03979895537239,-0.4803346780025562,261.97086529574324,207.33779717620044
759,22.561340353265525,-252.34858830750716,66.69873438784221,189.57968945546477,83.3515627378481,-1.8308800833204995,261.9991129618766,206.38087752272386
760,22.583178679789604,-252.29155573107022,66.9705796812014,187.9783256376754,84.39334468322782,-3.085840367677677,262.01797556694754,205.2846438537846
761,22.596430909623074,-252.22371652402148,67.2386330783679,186.23411979943592,85.16561699575739,-4.21959502079988,262.0251637057404,203.99236865277786
762,22.602531275974254,-252.142584574068,67.50430653373922,184.29789560203258,85.67158620687714,-5.209910728756764,262.0187129220407,202.45346326443445
763,22.603196163457614,-252.04610445856355,67.76873783107787,182.1268364298126,85.91729698438148,-6.038416111775221,261.997034897511,200.62474853915387
764,22.600332646754627,-251.9327014831055,68.03279723264417,179.6854742023412,85.91167448643621,-6.690963763514889,261.9589587232808,198.47148815903822
765,22.595939170400197,-251.80131873103275,68.29709878634053,176.94644086204184,85.66650189592711,-7.157875074036236,261.90376002983936,195.96816166984848
766,22.59200223887198,-251.65143979224263,68.56201426401928,173.8909687479536,85.19633259872522,-7.434065959665334,261.83117655607396,193.09896328418932
767,22.590393248856195,-251.48309670150135,68.82768823004409,170.50913352420073,84.51833873209094,-7.51905452224983,261.7414097260855,189.8580206799649
768,22.592769787949777,-251.2968633505688,69.09405361726859,166.7998404157965,83.65209936412946,-7.416854639681191,261.6351127514325,186.24933552966198
769,22.600485851131896,-251.09383516177826,69.36084802628548,162.7705616207703,82.61933244940495,-7.135762259595147,261.5133665047981,182.2864547340102
770,22.614515383464507,-250.87559612850075,69.62763149949201,158.43684004992056,81.4435752293873,-6.6880435546685,261.37764484571716,177.99188851919823
771,22.63539322169812,-250.64417449845246,69.89380668188412,153.82158179109175,80.1498182605216,-6.0895360535221315,261.229771247302,173.3962986418875
772,22.663176822916025,-250.40198844388624,70.15864205945856,148.95416639839584,78.76409898352894,-5.359175401862528,261.0718685133821,168.5374865662209
773,22.69743115672702,-250.1517830506826,70.42129842244867,143.86940961012343,77.31306173505958,-4.518461588295799,260.9063031283239,163.45921706222214
774,22.73723789962842,-249.89655993507742,70.6808580272256,138.60641689304845,75.8234922988014,-3.5908793408475437,260.73562547220683,158.2099167623899
775,22.78122878023017,-249.63950090688388,70.93635536628663,133.20736812384754,74.32183644894361,-2.6012879648180744,260.5625069764969,152.84128964752273
776,22.82764174448807,-249.3838874588532,71.18680813334115,127.71627383163357,72.83371336235163,-1.5752961061895923,260.3896754495179,147.40689226280946
777,22.87439758283605,-249.13301842615357,71.43124691596364,122.17774194159972,71.383436050096,-0.5386367472640083,260.21985023256923,141.96071078208348
778,22.919193729749537,-248.89012873684007,71.66874236427043,116.63579119470826,69.99355176021147,0.48344283350518874,260.055679371194,136.55577997167805
