time,ax,ay,az,gx,gy,gz,accmagnitude,gccmagnitude
0,-0.8752320420774711,-239.96805852936706,-63.82899102649162,5.520000263717221,2.087041293114231,-9.140617883369579,248.31854698611343,10.85264279858002
1,-0.611775021582323,-240.0860567165127,-63.43596446548695,5.1480270915057,2.905468921483227,-8.878462571596936,248.33679106992142,10.953578920628233
2,-0.3593322489299784,-240.20138318926217,-63.048209372677896,4.7816511856400945,3.711333770224008,-8.611740781371177,248.35368056198544,11.048044975039055
3,-0.1195981703195098,-240.3133470829073,-62.669899805197005,4.4283542362764905,4.497367837112883,-8.343684165149881,248.36956740395323,11.137740453656777
4,0.10590183750284399,-240.42131323181133,-62.305092645234275,4.095741640778083,5.256701138474876,-8.077512759522408,248.38482910542146,11.224689327082546
5,0.31583954692672883,-240.52471138558087,-61.95764179030827,3.7913942485606174,5.9830027456869574,-7.816370536879983,248.39985671729394,11.311211021897103
6,0.5091065386382568,-240.6230425493512,-61.631120923970464,3.5227262550609817,6.670608422001141,-7.563269260919921,248.41504213454084,11.399890212445491
7,0.6848309568054662,-240.71588201286787,-61.328757230807526,3.2968527195719717,7.314631263023693,-7.321042272768777,248.4307648789174,11.493545799917769
8,0.8423882578358983,-240.80287870414926,-61.05337743267949,3.120468635134999,7.911052211769807,-7.092308933542926,248.44737834122344,11.59519855545666
9,0.981406065722685,-240.88375078753427,-60.80736640967955,2.9997400720008276,8.45678781256341,-6.879449630750709,248.46519546872375,11.708036167511153
10,1.1017633708338352,-240.95827790266284,-60.592637740966154,2.94020697161243,8.949733108819274,-6.684590624560824,248.48447411985637,11.83537400618097
11,1.203584403656094,-241.0262908828302,-60.41061505754054,2.946696844819479,9.388778273509269,-6.509597570430423,248.5054026270043,11.980609912729154
12,1.2872276034217316,-241.08765997076205,-60.26222312680578,3.023248837000327,9.77379844520477,-6.356076259222772,248.52808628609256,12.147171742512695
13,1.353270177368703,-241.1422824459132,-60.14788783653889,3.1730480841565525,10.105617253007477,-6.225378941199095,248.55253544825698,12.338457092842024
14,1.4024888062482204,-241.1900703733074,-60.067544552000086,3.3983707042391904,10.385945494797708,-6.118614533569308,248.57865576213817,12.55776542152954
15,1.4358371010239006,-241.23093905141852,-60.02065467804263,3.7005400178789616,10.61729727398698,-6.036661012862102,248.6062410704565,12.808223455522986
16,1.4544204627427146,-241.2647967090476,-60.006230588082374,4.079894753693363,10.802886579150758,-5.9801783390397265,248.6349695152215,13.092705383085448
17,1.4594690738792404,-241.29153606639207,-60.022869148732795,4.535770219214178,10.946507826780786,-5.949620382212928,248.66440348544108,13.413749876544788
18,1.4523098701654815,-241.31102852580113,-60.06879368208268,5.066493750298219,11.052404296092616,-5.9452445528727145,248.69399409835506,13.773476530162469
19,1.4343384231569662,-241.32312189559306,-60.141903425200674,5.669396077167838,11.125128694848947,-5.967118131100025,248.72309085990622,14.173504777996527
20,1.4069915889022935,-241.32764248265605,-60.23982868906267,6.340840396911341,11.16940036328028,-6.0151206132286985,248.75095688856197,14.61487874791999
21,1.3717215491974557,-241.3244020130828,-60.35998936372598,7.076270793285234,11.189963895956547,-6.088941798046283,248.77678959428084,15.098001824561461
22,1.3299716010395541,-241.31320927087134,-60.499654317156526,7.870281134788862,11.191454220603745,-6.188075866431519,248.79974612959506,15.622584915061497
23,1.283153841193266,-241.29388577837557,-60.65599945198247,8.716704716773666,11.17827333218867,-6.311812281989221,248.8189724308104,16.18761241366166
24,1.2326287924588948,-241.2662843639886,-60.8261624860748,9.60872377035242,11.15448381246594,-6.459224800263145,248.83363427353788,16.791329479744626
25,1.179687014552756,-241.23030909161065,-61.00729281260847,10.538996691449926,11.123723815188841,-6.629160156371047,248.8429484745696,17.431253383873262
26,1.125532784944359,-241.18593483201207,-61.19659514530365,11.499799642063149,11.089147229828543,-6.820228157772205,248.8462122669761,18.104210368259476
27,1.0712699827844763,-241.13322482078806,-61.39136615870462,12.483178218929597,11.053391231084145,-7.030795016526372,248.8428290605484,18.806397870854795
28,1.0178903474360057,-241.07234489050245,-61.58902396286245,13.48110427899093,11.018571534928386,-7.258981841795736,248.8323292861253,19.5334703171347
29,0.9662643012532854,-241.00357361242857,-61.78713087591362,14.485632783225505,10.986303713074184,-7.502670234754911,248.81438570511298,20.28064522162689
30,0.9171345187520517,-240.92730814926873,-61.98341046034168,15.489053631225392,10.957747187593046,-7.759516785379811,248.78882323430827,21.042825200721687
31,0.8711123956699759,-240.8440660028895,-62.17576011260762,16.48403382035011,10.933667264746745,-8.02697787410316,248.75562378228904,21.81473071653125
32,0.8286775139898114,-240.75448302286765,-62.36226062842127,17.463745774215987,10.91450988949173,-8.302345517142776,248.71492679769534,22.59103794678242
33,0.7901800974517694,-240.65930817115805,-62.54118411138619,18.42197827098002,10.900483742642537,-8.582794127321153,248.66702633741173,23.36651610785979
34,0.7558463261336386,-240.55939567417167,-62.71100131196755,19.35322701552671,10.891644773243186,-8.865437092021105,248.6123655220195,24.136158801003585
35,0.7257862801924039,-240.45569522377295,-62.87038890893949,20.25276251187718,10.887979028113083,-9.14739110742967,248.551529131904,24.89530438630607
36,0.700004231142746,-240.3492407448633,-63.01823645680675,21.116673527569734,10.88948043915769,-9.425845390303968,248.48523476297083,25.63974092826292
37,0.6784109602770951,-240.24113804766114,-63.15365202762601,21.94188520832848,10.896220875418981,-9.698132367803245,248.4143225953745,26.365791943878065
38,0.6608377241020206,-240.13255158970253,-63.27596529103902,22.726151920783675,10.908410198711605,-9.961796307011317,248.3397436675105,27.0703801244922
39,0.6470514014621176,-240.02469058589077,-63.38472698550446,23.468026192338474,10.926444321253184,-10.214656537339337,248.26254661329057,27.751067422851175
40,0.6367702506557755,-239.9187946755028,-63.47970427462164,24.16680655819003,10.950939481445644,-10.454862318677,248.18386293030736,28.406071316805868
41,0.6296795846000409,-239.81611919078028,-63.56087207560543,24.822468518330684,10.98275129272554,-10.680936937242288,248.10489083985948,29.03425855758491
42,0.625446562977523,-239.71791985224317,-63.62840086763769,25.435583971446647,11.022977686972844,-10.891809243274702,248.02687769517962,29.63511916570388
43,0.6237332479885995,-239.62543658806788,-63.68264170274299,26.007235309751046,11.072945667538436,-11.086831539816096,247.95110082441906,30.208724735565887
44,0.6242071353479227,-239.53987621603048,-63.72410925180436,26.538930768381732,11.13418271374122,-11.265783420861803,247.8788467612341,30.75567613409406
45,0.6265486062980798,-239.46239392364484,-63.753463774105356,27.032527593984803,11.208374601909208,-11.428861793800301,247.81138901976132,31.27704632718392
46,0.6304551544782734,-239.39407376583324,-63.77149284214065,27.490169086456227,11.297312191970796,-11.576657909391345,247.74996483095242,31.774324248792173
47,0.6356427665994401,-239.3359086690009,-63.779093424558425,27.914240498259606,11.402830256163503,-11.71012276837325,247.69575146092598,32.24936523085825
48,0.6418453462132315,-239.28878058747915,-63.77725457642978,28.30734708271857,11.526741610887886,-11.83052273005215,247.6498427958113,32.70435242886873
49,0.6488133512879516,-239.25344145873063,-63.767040651925576,28.672315306936717,11.67076962856816,-11.939387439790243,247.61322679493207,33.14177189637626
50,0.65631268865378,-239.23049547643296,-63.749574772201235,29.01221558985255,11.83648171130673,-12.038452286531403,247.58676424671265,33.56440165416884
51,0.6641244197351938,-239.22038300655436,-63.7260222694584,29.330402252791853,12.025225629840085,-12.129597543404449,247.57116907334165,33.97531263004332
52,0.6720452630913202,-239.22336628323563,-63.697573891680165,29.630564134824148,12.23806993660303,-12.214786227164002,247.56699026642846,34.37787719586539
53,0.6798885080265196,-239.2395169417543,-63.66542860035854,29.91677793176509,12.475749119691743,-12.296002603326695,247.57459547221214,34.77577963503991
54,0.6874848621332144,-239.268705549945,-63.6307758460265,30.19355593998056,12.738613909867524,-12.375193156671742,247.59415635883317,35.1730224387148
55,0.6946828630096354,-239.31059353384563,-63.594777333564586,30.46588042043319,13.026587256370304,-12.454211694207968,247.62563615677695,35.57392277979318
56,0.7013486830619525,-239.36462812363817,-63.55854847819489,30.739217987847336,13.339126921123592,-12.534770034338338,247.66878003400294,35.98309461786755
57,0.7073653741536884,-239.43004110692752,-63.523139927191856,31.019509014608694,13.675196252923818,-12.618395500084812,247.72310916658398,36.405413380805136
58,0.7126317653413883,-239.50585228676377,-63.48951964873007,31.313128810490113,14.033245258889234,-12.706396219353486,247.78791950325862,36.84596179938126
59,0.7170612656398628,-239.59087857772712,-63.4585561802548,31.62681914740017,14.411204377389986,-12.799835029664468,247.86228627826424,37.3099570310451
60,0.7205807437184634,-239.68374954499143,-63.43100368146862,31.967590474823602,14.806493270147545,-12.899512529155823,247.94507521409025,37.80266058553855
61,0.7231295977092879,-239.78292987374797,-63.40748943795133,32.34259691368243,15.216046489863253,-13.00595947948421,248.03496104790662,38.32927375082509
62,0.7246592030492721,-239.88674882093005,-63.38850442171028,32.75898779823112,15.636357069377436,-13.119438397973083,248.13045358473968,38.894822217916776
63,0.7251330405905262,-239.9934361723945,-63.37439745571233,33.22374106575104,16.063537935210448,-13.23995386383573,248.22993095552755,39.504034371508354
64,0.7245277715622885,-240.10116357131145,-63.36537343913759,33.743485083963705,16.493399657302028,-13.367270842543713,248.33167910048525,40.16121820976603
65,0.7228353068613053,-240.20808939524875,-63.361495937809316,34.32431651684978,16.921541638135942,-13.50094013620756,248.4339357934454,40.870142099231295
66,0.72006564843412,-240.31240488735241,-63.36269424158758,34.971622504201356,17.343452705733416,-13.640329789128597,248.53493701301548,41.63392457459679
67,0.7162500901130626,-240.41237914313066,-63.36877478278252,35.68991564320987,17.754616375954846,-13.784660897715973,248.63296331093107,42.45493811271789
68,0.7114443193412604,-240.5064007844107,-63.37943658762345,36.482689883733265,18.150615798064006,-13.933045905064807,248.72638399260103,43.33473119727074
69,0.7057310719486147,-240.59301464716484,-63.3942901269183,37.35230445248207,18.527233538340244,-14.084527266657693,248.813697326031,44.273972082285916
70,0.6992221951554213,-240.6709525121729,-63.41287852861,38.29990140413164,18.88054184639309,-14.238114461701269,248.89356557326988,45.2724165856975
71,0.6920601475018726,-240.7391576389252,-63.43469972404785,39.3253605463612,19.206979856428152,-14.392817666227291,248.9648442481379,46.32890114065825
72,0.68441901017691,-240.79680331980742,-63.45922788754278,40.4272935000695,19.50341526693254,-14.547676840281259,249.02660539329267,47.4413612942136
73,0.676504990804788,-240.84330568101248,-63.48593259811571,41.603076683644964,19.767189343333968,-14.701785353645882,249.07815469858002,48.60687489352684
74,0.668556247912277,-240.87833070008386,-63.514294472450025,42.848921135598964,19.996145425274413,-14.85430756267396,249.1190421183537,49.82172830857781
75,0.6608417538378292,-240.90179524875822,-63.54381647290705,44.15997535194267,20.188642244140297,-15.00449004281753,249.14906560690616,51.08150314311512
76,0.6536588871375173,-240.9138620563915,-63.5740305917821,45.53045573067508,20.34355408277562,-15.151666515528364,249.16826780201558,52.3811799235079
77,0.6473294806037931,-240.9149286938864,-63.604500097485776,46.95379782449441,20.460260110250996,-15.295256797784884,249.17692580771816,53.715254230214924
78,0.642194111046691,-240.9056108753915,-63.634817939050656,48.42282052406022,20.53862517344458,-15.434760246580232,249.17553452231658,55.0778597680915
79,0.6386044827597926,-240.88672060323944,-63.664602196211646,49.92989474792996,20.57897400673399,-15.569744218707111,249.16478425133562,56.46289221768
80,0.6369138352552028,-240.85923998015684,-63.693489612411035,51.46710844450946,20.582060317397072,-15.699828198767928,249.14553367065406,57.86412768716741
81,0.6374654191528154,-240.8242917974665,-63.72112823525079,53.026420834663455,20.549031647866126,-15.82466455221489,249.11877947564335,59.27533038773634
82,0.640579247786163,-240.78310818403753,-63.74717002792216,54.59980073125697,20.481390472653565,-15.94391719412635,249.08562418018772,60.690345715795424
83,0.6465375367260884,-240.736998652527,-63.77126410185299,56.179346140517076,20.380951783593456,-16.057239623972947,249.04724352425632,62.103176945196346
84,0.655569441212572,-240.68731879252076,-63.79305107036559,57.757384748922995,20.249797468859516,-16.16425373568859,249.0048548253851,63.50804581985377
85,0.6678358356568139,-240.6354405887229,-63.812158980159815,59.326556909369664,20.090228019772237,-16.26453070832318,248.9596873349052,64.8994391199662
86,0.6834149386757971,-240.58272492106164,-63.828201302787214,60.879884038330744,19.904712416060793,-16.357575205837044,248.9129552575495,66.27214445264609
87,0.7022895955202493,-240.5304963976933,-63.8407774773316,62.41082575588634,19.6958374042693,-16.44281402770646,248.86583370139758,67.62127891628518
88,0.7243369964248152,-240.4800204402291,-63.84947640376333,63.91332869033008,19.466257764198943,-16.51959019110646,248.81943757607635,68.9423139239357
89,0.7493215464054412,-240.43248250156853,-63.853883053690566,65.38186888940827,19.218649472572327,-16.58716316070291,248.77480335853812,70.23109854757644
90,0.77689155965672,-240.38896938460067,-63.85358801031401,66.81148860484788,18.9556678061162,-16.644715552724243,248.73287363907596,71.48388256271788
91,0.8065804567246042,-240.35045280776708,-63.84819933837425,68.1978271880701,18.67991230580536,-16.6913661363254,248.69448442698865,72.69733922843143
92,0.8378131247154572,-240.31777559364113,-63.83735582961536,69.5371451576665,18.393900156415768,-16.726188424419533,248.66035532777187,73.86858694916933
93,0.8699179455522655,-240.2916410233922,-63.820740490614064,70.82634019328171,18.100048958507404,-16.748233715270377,248.63108282035017,74.99520839937661
94,0.9021446434241784,-240.27260587668337,-63.798093188075235,72.06295374325038,17.800669101085564,-16.756557198490885,248.6071368540967,76.07526535776842
95,0.9336875670006377,-240.261077456951,-63.76922161434366,73.24516695737658,17.49796500939382,-16.75024568027794,248.5888608384213,77.10730726907028
96,0.9637134027662394,-240.2573145767102,-63.73401011137261,74.37178475965854,17.194043554921357,-16.728445575980647,248.57647488165918,78.09037143406262
97,0.9913917760563499,-240.2614321044638,-63.69242626146251,75.44220718758983,16.890927088705666,-16.690390024107266,248.57008187182825,79.02397288426016
98,1.015926872895809,-240.27340828372007,-63.64452537426902,76.4563877792893,16.590568130530396,-16.63542423501869,248.56967567085823,79.90808259016907
99,1.0365881456285377,-240.29309373611193,-63.590453044758235,77.41477979561493,16.29486284205603,-16.563028402295146,248.57515041639007,80.74309369481917
100,1.0527383108759538,-240.32022099161287,-63.53044590190953,78.31827227895025,16.005660987611876,-16.47283761319433,248.5863098439299,81.52977679657515
101,1.063857153045012,-240.35441353908632,-63.46483058605287,79.16811915750912,15.72477098896911,-16.364658246983236,248.6028756664061,82.26922669525335
102,1.069560063010443,-240.39519362155696,-63.394020950885114,79.96586560989677,15.45395972784718,-16.238480443800693,248.6244942618724,82.96280425525825
103,1.0696107152139636,-240.4419882347297,-63.31851356032645,80.71327656382616,15.19494775645913,-16.094486389209173,248.65074116738063,83.61207795183843
104,1.0639277276555306,-240.49413307904538,-63.23888175442989,81.41227239604083,14.949401377734253,-15.933054351735537,248.6811232135613,84.21877009253058
105,1.0525854834057453,-240.55087466094338,-63.1557688033678,82.06487652115837,14.718923546821008,-15.754758609753024,248.71507862916394,84.7847125172692
106,1.0358095375207175,-240.61137133849823,-63.06988080882807,82.67317850712129,14.505045664358596,-15.56036560937148,248.75197606103393,85.31181567396824
107,1.0139672490666853,-240.67469467546616,-62.981979934892905,83.2393145751199,14.309222051835903,-15.350826858759806,248.79111398592852,85.80205327220307
108,0.9875544473295245,-240.73983272290332,-62.89287825717343,83.76546491225594,14.132828275429272,-15.127269085573968,248.83172216293897,86.25746230308305
109,0.9571789956197033,-240.80569664001612,-62.80343211395223,84.25386444590104,13.977163686528073,-14.890982016199908,248.87296647110892,86.68015538787752
110,0.9235420647402268,-240.87113149742353,-62.714536440704755,84.70682107262782,13.843457774556889,-14.643403874124548,248.91395782328289,87.07233969141411
111,0.8874178657533238,-240.93493143015394,-62.62711825720737,85.12673331806202,13.732879296077579,-14.386104510411819,248.95376511209653,87.43633456164936
112,0.8496325801885309,-240.9958587607817,-62.54212833294324,85.51609848069015,13.646546669760681,-14.120766059631029,248.99143157612818,87.77457909502773
113,0.8110432490760262,-241.05266639496983,-62.460530142147405,85.87750278524206,13.585537806284517,-13.84916112318995,249.02599368573487,88.08962126600699
114,0.7725173927939578,-241.10412267601322,-62.38328555056152,86.21358698398586,13.550897417344334,-13.573128678913676,249.05650161800602,88.38408213975147
115,0.7349140737294169,-241.14903795031898,-62.31133719677242,86.52698392987998,13.543639982159926,-13.294548226581618,249.08204058418107,88.66059176222191
116,0.6990669322678927,-241.18629234614846,-62.24558812174465,86.82022839740388,13.564746953172566,-13.015313090793729,249.10175266391823,88.92169709833075
117,0.6657694445507044,-241.21486456362,-62.18687973738178,87.09564323000198,13.615157380728995,-12.737304180434633,249.11485922178093,89.1697462359453
118,0.6357623634253939,-241.23386152697907,-62.135969620191425,87.35520913142224,13.695751806203106,-12.462365702605458,249.1206841309313,89.40675634964661
119,0.6097230853161931,-241.24254841572733,-62.09351080705671,87.60042758229885,13.807329874374641,-12.192284331490194,249.11867775179002,89.6342751011923
120,0.58825654943236,-241.2403780267644,-62.060034224981315,87.83218718260584,13.950582507300227,-11.92877320423017,249.10844105423058,89.85324596651986
121,0.5718872400047817,-241.22701790222598,-62.035935599912285,88.05064323874164,14.126059575818916,-11.673461872238859,249.08974869820847,90.06388745360015
122,0.5610519553172407,-241.20237336443492,-62.021467690834996,88.255118924162,14.334133831102498,-11.42789295134164,249.06256947910316,90.265594599689
123,0.5560931997444336,-241.1666045576772,-62.01673811508143,88.4440342388726,14.574961533711031,-11.193525712361964,249.02708235927122,90.45686891814778
124,0.5572532538746733,-241.12013573384976,-62.021712551318345,88.6148666608143,14.848439862034411,-10.97174630938951,248.98368632101264,90.63528051084334
125,0.5646690943524146,-241.06365528065103,-62.036222752471545,88.76414515918974,15.154160910298163,-10.763883820605903,248.93300244220057,90.79746373174063
126,0.5783683437244087,-240.99810546348075,-62.0599784358523,88.88747739074684,15.491362023170483,-10.57123082997245,248.87586696542365,90.93914586879075
127,0.5982663791807604,-240.92466164565494,-62.09258173247721,88.97960856804966,15.858872425194201,-10.395066959039491,248.81331480807435,91.0552069630714
128,0.6241646875046658,-240.8447016946992,-62.13354267152685,89.03450967069483,16.255056532438044,-10.236683576615173,248.7465538256151,91.13976809591951
129,0.6557505489036348,-240.75976697721882,-62.18229427946574,89.04549225256905,16.677754877644446,-10.09740783094845,248.6769308385297,91.18630511470487
130,0.6925981505900173,-240.67151662963286,-62.23820619626168,89.00534691994966,17.12422419760134,-9.978624146936085,248.60589078687246,91.1877846724057
131,0.734171252054063,-240.58167690089053,-62.30059611174004,88.90650246519235,17.591078930371857,-9.881791446123039,248.5349305774634,91.1368194858042
132,0.7798275324635376,-240.49198757673736,-62.368738745809516,88.7412025472233,18.074237113278375,-9.808454595295595,248.4655494958788,91.02583977863816
133,0.8288247562044541,-240.4041478665169,-62.441872494446734,88.50169670625262,18.56887432821815,-9.760248910058168,248.39919851040918,90.84727793053169
134,0.8803289521818084,-240.31976453016267,-62.51920415382531,88.18044242311026,19.069389731005632,-9.7388968604265,248.3372312503029,90.59376339293777
135,0.9334249570710763,-240.24030521887687,-62.59991229037359,87.77031488348385,19.569388212595,-9.746196434915447,248.2808596723522,90.25832493681274
136,0.9871298383239911,-240.16705975952488,-62.68314994425123,87.26482101347415,20.0616823899212,-9.784000948703456,248.2311172317872,89.83459720229948
137,1.0404096997601677,-240.10111133807146,-62.76804750652866,86.65831411363426,20.538317517592652,-9.854190453098322,248.18883166976713,89.3170282528635
138,1.0922000652981525,-240.0433184127155,-62.853716684274175,85.94620496605056,20.990621645471908,-9.958635310507917,248.1546084638054,88.70108434701504
139,1.141429531364996,-239.99430710099818,-62.93925631287758,85.12516464306175,21.40928245563476,-10.099152884991332,248.12882489675718,87.98344744912566
140,1.1870459140067504,-239.95447307628172,-63.023760415344405,84.19331353376745,21.784451180830324,-10.277458579604632,248.11163392078305,87.16220021653123
141,1.228043873916183,-239.92399173088157,-63.10632850379698,83.15039050893196,22.105872834181184,-10.495112610075674,248.10297661835762,86.23699249754793
142,1.2634929835338584,-239.90283532293162,-63.18607778059514,81.99789582919831,22.363040739160745,-10.753464013798338,248.10260193469628,85.2091829345463
143,1.2925652750245131,-239.89079583160927,-63.26215663274995,80.7392014915633,22.545372186680755,-11.053593513769217,248.1100922925676,84.08194924635262
144,1.314561349572244,-239.88751224428876,-63.33375864022715,79.37962330043352,22.642401127613702,-11.396256967359887,248.1248936511309,82.86036128983497
145,1.3289340975747972,-239.8925009757702,-63.40013633124572,77.92645005404131,22.643983244390483,-11.781831188484725,248.14634854660642,81.55141210193604
146,1.3353090103830312,-239.9051879924954,-63.46061417569692,76.3889267361704,22.540508520422527,-12.210263936801068,248.17373059157674,80.16400368077815
147,1.3335000272877082,-239.9249409242972,-63.51460069642823,74.77819029934194,22.323116395469203,-12.681029834354696,248.2062787259708,78.70888605073651
148,1.323519948896458,-239.95109916022446,-63.561599842910944,73.10715832061635,21.983908574359642,-13.193093901809073,248.24322930484294,77.19854993181617
149,1.3055847406868781,-239.9829999758458,-63.601221721865286,71.39037233492105,21.51615443131343,-13.744884306198003,248.28384414967695,75.64707490204187
150,1.28011153511996,-240.01999924792008,-63.63319247434786,69.64379887690227,20.91448371027501,-14.334275796427663,248.3274331116695,74.06993617506822
151,1.2477106671851619,-240.06148602703198,-63.65736279154594,67.88459214552287,20.17506093371019,-14.958585174899538,248.37337031786726,72.48377398222549
152,1.2091724523954372,-240.1068908452749,-63.67371447189741,66.13082280636884,19.295735731985598,-15.614579971776005,248.42110383850442,70.90613012766084
153,1.1654495438356278,-240.1556880585596,-63.68236450757364,64.40117789345605,18.276163352552285,-16.298501193646846,248.47015894457618,69.35515672609141
154,1.1176356210405605,-240.2073928480104,-63.68356630006019,62.714637180532804,17.11789001585939,-17.006100599661607,248.52013546511526,67.84930256646938
155,1.0669409679273518,-240.2615537819975,-63.6777076703688,61.090131824744525,15.824398570654218,-17.732692465908357,248.57070003465677,66.40698303626768
156,1.014665308260493,-240.31774204312538,-63.665305371344296,59.54619158052967,14.401111012616898,-18.47321929773912,248.62157422402177,65.04624011194313
157,0.9621681768740136,-240.37553849573058,-63.64699584663463,58.10058745310178,12.85534578827295,-19.222330473682227,248.67251962222517,63.78439955788931
158,0.9108371249135203,-240.434519687425,-63.62352202622899,56.76997725287927,11.196229307816093,-19.974472344782832,248.72332086704344,62.63773308481067
159,0.8620541475316076,-240.49424373768758,-63.595716091492804,55.56956199702499,9.434562619760545,-20.72398784499413,248.77376752189397,61.62113363384528
160,0.8171608730433135,-240.55423700799534,-63.56447849615137,54.51276136052335,7.582645681787602,-21.465223196764864,248.8236357325185,60.74781203981695
161,0.7774232915628984,-240.61398246205835,-63.530754044365,53.61091635412875,5.6540630970739745,-22.192638868117946,248.87267074604605,60.029023051611354
162,0.7439971119713953,-240.67291056522137,-63.49550628403048,52.87302710585176,3.6634366202909088,-22.900921605174233,248.92057143810106,59.47382808911683
163,0.7178951088419709,-240.73039338282496,-63.45969169624371,52.305533074558916,1.6261511750998727,-23.585094150310866,248.96697786979342,59.088901244693055
164,0.6999579247142081,-240.78574232269398,-63.4242351134753,51.91214223870078,-0.4419375542060698,-24.240619172862917,249.0114626773613,58.87838391284074
165,0.6908296759135658,-240.83820982272945,-63.39000750981188,51.69371472558524,-2.524804910503618,-24.863494028400154,249.0535268844734,58.84379203032046
166,0.6909394049588897,-240.88699518023847,-63.35780687284956,51.648204870528076,-4.606558948906354,-25.450333262130208,249.09260051631802,58.98397818174437
167,0.7004890151063367,-240.9312546041991,-63.32834245651292,51.77066377217713,-6.6717327612727795,-25.998436215749997,249.12804817871674,59.295148762033165
168,0.7194479422085871,-240.9701154989347,-63.302222425713786,52.05330216565406,-8.705559055257062,-26.50583752788864,249.15917962131735,59.77093410366578
169,0.7475545773915228,-241.00269501176004,-63.279944706013005,52.48561117349199,-10.69421998641869,-26.971338656972975,249.1852652760819,60.40250726426948
170,0.784324347670384,-241.02812287729506,-63.26189072885608,53.05453657844373,-12.625066881435416,-27.394518902064753,249.20555673042338,61.17874540923039
171,0.8290642987605179,-241.0455683688602,-63.248321763099064,53.744700950735044,-14.486806082997925,-27.77572493113916,249.21931187843504,62.08642669876676
172,0.8808939500089452,-241.05427072618141,-63.239377630485826,54.53866731954097,-16.26964845668635,-28.116038640457585,249.2258240926444,63.11045535857734
173,0.9387720919151674,-241.05357199904526,-63.235077731180674,55.41723799888122,-17.965421030285967,-28.417224197678046,249.22445437371755,64.23410802588658
174,1.0015290071171663,-241.0429510005004,-63.235324417057974,56.3597824610246,-19.567639809342698,-28.68165618798809,249.2146652232161,65.43929525034093
175,1.0679032497671186,-241.0220569374477,-63.23990883766974,57.344588547830085,-21.071543134248838,-28.912231708090882,249.1960548819813,66.70683290353776
176,1.1365816751184092,-240.9907411208753,-63.24851936400297,58.349231571828106,-22.474085203345393,-29.112269931784965,249.16839040837326,68.01671898616284
177,1.2062410158480645,-240.94908491632617,-63.26075245473148,59.35095582780888,-23.773889830502238,-29.285403073510835,249.13163777296623,69.3484118318699
178,1.2755890686212588,-240.89742191357584,-63.276125406730344,60.32706274004938,-24.97116532354612,-29.435462833910073,249.08598686137677,70.68110607803168
179,1.3434035588612256,-240.8363523371838,-63.29409007183662,61.255299497539575,-26.067582586379014,-29.566366398572782,249.0318692264387,71.99400319434157
180,1.4085670369108614,-240.76674802866614,-63.314046585718636,62.114241790150075,-27.066120044215324,-29.682005958304966,248.96996672207618,73.26657399088052
181,1.4700966684489927,-240.68974683820474,-63.335356499798884,62.88366424789505,-27.970880603065943,-29.786145573288785,248.90120973226266,74.47881139319873
182,1.5271683366765165,-240.6067358814733,-63.357355285115396,63.54489234065071,-28.78688741196135,-29.88232898629958,248.82676445578687,75.6114727277001
183,1.5791348840815773,-240.51932376339383,-63.379364769007594,64.08112966240645,-29.519866505864243,-29.973801591160125,248.74800948462584,76.64631153904169
184,1.625538526658526,-240.42930245730506,-63.40070647360679,64.47775455874867,-30.17602524765547,-30.063449081677568,248.6665025843005,77.56629929760494
185,1.6661175452532593,-240.33859997980682,-63.420716916329724,64.7225798903958,-30.761835659946385,-30.153754371386107,248.583939042808,78.35583710726328
186,1.7008073974676907,-240.24922529118848,-63.438765684582336,64.80606939633861,-31.283831151316573,-30.246773334333103,248.50210316956506,79.00095672949028
187,1.7297364452881372,-240.16320701724302,-63.45427658474224,64.72150377386238,-31.748423876572836,-30.34412893276943,248.4228145539703,79.48950910183268
188,1.7532165323635467,-240.0825277122967,-63.46675148364884,64.46508942832115,-32.16174823960384,-30.44702246986106,248.3478706381597,79.81133732290878
189,1.7717286212550611,-240.00905552896575,-63.47579570397805,64.03600304137134,-32.52953408143725,-30.55626006966438,248.27898710590054,79.95843004394204
190,1.7859036407055933,-239.9444753299254,-63.481143139146404,63.43636581197538,-32.85701106352532,-30.672292024077333,248.2177375763263,79.92505052402696
191,1.7964987188335548,-239.89022145339868,-63.48267878602615,62.671142575680754,-33.148843775964664,-30.795262316074883,248.1654941437191,79.70783641311364
192,1.8043691907448538,-239.84741454578975,-63.48045631482694,61.74796308724388,-33.409095296265946,-30.925065416544946,248.1233704833417,79.30586573334789
193,1.8104371540071829,-239.81680510218695,-63.47470870339993,60.67686552642063,-33.64121543741132,-31.061407388584485,248.0921695751828,78.72068557351349
194,1.8156578115990845,-239.79872649911803,-63.465850772442295,59.469965590276985,-33.84804886239703,-31.203868455488845,248.07233845377584,77.9563016133625
195,1.8209852640637685,-239.7930601879683,-63.45447338298075,58.141058094966446,-34.03185763462896,-31.351964498766417,248.06393252617846,77.01912855164197
196,1.82733964006206,-239.7992152390791,-63.44132982419918,56.70516147059629,-34.194352599166635,-31.505205397786625,248.06659173911217,75.91790352764521
197,1.8355773805495186,-239.8161236342789,-63.42731543079236,55.1780184799967,-34.3367282538345,-31.663148590314957,248.07953024163436,74.6635663603832
198,1.8464661417411752,-239.84225176564573,-63.41344174481752,53.57556854519731,-34.45969648432883,-31.825446581094592,248.10154034879457,73.26911157253348
199,1.8606653045057748,-239.8756276975001,-63.40080663135281,51.913408051885035,-34.563515609494594,-31.99188727808494,248.13101076060852,71.7494175590025
200,1.8787126373371643,-239.91388301665106,-63.390561750253504,50.206255063670156,-34.648012390542384,-32.162426060186945,248.16595827637946,70.12105798969796
201,1.9010173339163143,-239.9543076142488,-63.38387874444034,48.46743437127508,-34.71259579251656,-32.337208531957124,248.20407176335976,68.40209989463493
202,1.9278594114662218,-239.99391559035507,-63.38191543426408,46.70839807615797,-34.756262259625004,-32.51658311599756,248.24276696926123,66.61189218517987
203,1.9593952289857075,-240.02952065577276,-63.38578319235904,44.938296138022025,-34.777593082533656,-32.701102998750365,248.27925091232996,64.77084780601207
204,1.9956685635364517,-240.05781970375685,-63.39651651017467,43.16361046121069,-34.77474514553921,-32.89151745074165,248.31059482540894,62.90022231691916
205,2.0366262341127084,-240.075483266804,-63.41504551939658,41.38786497154793,-34.745437025914825,-33.08875311706042,248.33381460373366,61.02189139527185
206,2.0821367920285674,-240.07925119484636,-63.44217184987421,39.611422549579316,-34.68693314653473,-33.29388640288003,248.345957237254,59.15812941847358
207,2.132010477640614,-240.06603129258207,-63.47854774128112,37.83137757144521,-34.596029460284896,-33.508108443844755,248.34419100586166,57.331390862962934
208,2.1860185871703495,-240.03299815899726,-63.52465794379312,36.041550269161895,-34.46904489613779,-33.7326842865734,248.32589663634542,55.5640957569325
209,2.2439106295745708,-239.97768922664895,-63.58080379965123,34.23258635229347,-34.30182338358955,-33.96890782541294,248.28875634507656,53.87841990941531
210,2.3054281462862325,-239.8980949262081,-63.64708903502741,32.392162494781374,-34.08975153045164,-34.218053850865445,248.23083765876788,52.29609017012163
211,2.370314683586586,-239.7927398695768,-63.72340713752906,30.505295455815293,-33.82779684455988,-34.481328403603186,248.150668967967,50.83818460015682
212,2.438321955477573,-239.6607519245988,-63.80943064233253,28.554749751923108,-33.510570747146474,-34.75981855653114,248.04730386715872,49.524937153536236
213,2.5092125905753955,-239.50191614545946,-63.90460316029486,26.521535841572028,-33.132419569184066,-35.054442701224346,247.920371556998,48.37554620406806
214,2.5827600257349927,-239.31671086673893,-64.0081355566016,24.385487653924155,-32.687545299917545,-35.36590231582275,247.77011106688,47.40798591973458
215,2.6587461685784968,-239.10632394587518,-64.11900819240044,22.125905053942663,-32.17015612771802,-35.694636060322416,247.59738784250126,46.638819126489416
216,2.7369574408718274,-238.87264808176047,-64.23598126472245,19.722243720450273,-31.57464488361375,-36.04077696774732,247.40369218775655,46.083010082723575
217,2.817179693941263,-238.61825515160575,-64.35761480502103,17.154832255319743,-30.895791516964515,-36.40411352585292,247.19111990857323,45.753735694308006
218,2.899192246210827,-238.34635042268985,-64.48229893855027,14.40559446374266,-30.12898385835366,-36.784055557253545,246.96233614276034,45.66219426152913
219,2.9827610453580085,-238.06070825610016,-64.60829392642968,11.458753849983182,-29.270449306292278,-37.17960595415772,246.72052381558777,45.81741189134078
220,3.0676308145547324,-237.7655915228147,-64.73377862971859,8.301497477339806,-28.317488845555307,-37.58933945812454,246.469318513483,46.22604816649201
221,3.153515994196149,-237.46565738543887,-64.85690541469309,4.924577332631406,-27.268704053003454,-38.01138977583485,246.21273182077988,46.89220440857392
222,3.2400903058427435,-237.16585237239138,-64.97585901543408,1.32282910689146,-26.124207501469446,-38.443446384171466,245.95506529146482,47.81723975194814
223,3.3269748800303756,-236.87129983448702,-65.0889164038512,-2.504409186361184,-24.885807247254405,-38.88276236676388,245.70081726021115,48.9996021001136
224,3.413725155175389,-236.58718297426788,-65.19450444755005,-6.552993128646247,-23.55715689794829,-39.32617447993535,245.45458472562171,50.43468269511835
225,3.499817167707071,-236.3186266880983,-65.29125227974049,-10.813792961913078,-22.143864085738805,-39.77013634361313,245.2209626323467,52.11470431282362
226,3.5846343061103445,-236.0705814171637,-65.37803586127777,-15.272646344672191,-20.653551934785348,-40.210765215111635,245.00444299256984,54.02865381626274
227,3.6674559037927263,-235.84771199933584,-65.45401296872345,-19.910445240609125,-19.09587016767635,-40.643902267934145,244.8093162955416,56.16226978680491
228,3.7474490755154406,-235.6542941498918,-65.51864755977743,-24.70335545236032,-17.482454653538166,-41.06518571986388,244.6395774926408,58.498095103323394
229,3.823665001044496,-235.49412075487123,-65.57172302816574,-29.623163626711964,-15.826836241414824,-41.47013562874764,244.49883856118998,61.01560264283948
230,3.895040556256586,-235.3704197068161,-65.61334431923721,-34.63774304975693,-14.144301458987629,-41.85424878577085,244.39024932868003,63.69139978446478
231,3.960405892945818,-235.28578459976023,-65.64392938480086,-39.71162611021921,-12.451708988086402,-42.213101891994434,244.31642797151775,66.49951418800308
232,4.018498323701465,-235.24211929572456,-65.66419101675007,-44.80666792504539,-10.76726675150246,-42.542461029500025,244.27940245522825,69.41175950936956
233,4.067982687760921,-235.24059718690643,-65.67511052224755,-49.88278246789498,-9.110275007976044,-42.83839522208154,244.28056411198557,72.39817551301168
234,4.107478228639489,-235.28163581178106,-65.67790485894145,-54.8987299341803,-7.500841112024992,-43.09739153859203,244.32063443001073,75.42753276837931
235,4.135591800922714,-235.36488725728108,-65.67398882626851,-59.81293236979504,-5.959571626443567,-43.316468741610386,244.3996459017856,78.46788822652415
236,4.15095682689391,-235.4892444852878,-65.6649338578788,-64.58429408058744,-4.507247370024393,-43.49328604936721,244.5169374754586,81.48717498041755
237,4.15227688371623,-235.65286335014065,-65.6524249178747,-69.17300415865306,-3.16448681606709,-43.626243306240674,244.67116477681424,84.4538078090294
238,4.138372313807483,-235.85319961047637,-65.63821692430952,-73.54130048819506,-1.9514030707762569,-43.714568833915756,244.86032479360085,87.3372857846897
239,4.10822796335961,-236.08705974582838,-65.62409197732629,-77.65417747613806,-0.8872595010925116,-43.758391470406174,245.08179419381804,90.10877408291834
240,4.061040078799387,-236.35066397742202,-65.61181847452085,-81.48002306144957,0.009870987464873663,-43.75879373667709,245.332379997684,92.74164881885685
241,3.996260496813599,-236.6397196269702,-65.6031129935986,-84.99117393637988,0.7234379594045194,-43.71784360787536,245.60838101197632,95.21199089708392
242,3.9136365148326657,-236.94950283402073,-65.59960564223105,-88.16438112225626,1.238731484391603,-43.6386029451713,245.90565827999964,97.4990172414699
243,3.8132451359489847,-237.27494669089037,-65.60280944808783,-90.98118092387408,1.5431806221456597,-43.5251112430855,246.21971280676536,99.58544018656013
244,3.6955206307721147,-237.61073404079244,-65.61409435240766,-93.42816874641632,1.626626362765084,-43.38234395688688,246.54576899859686,101.4577481364811
245,3.5612745007506574,-237.95139345994335,-65.63466649599927,-95.49717528460772,1.4815625605966969,-43.21614530747114,246.8788625559441,103.10640278315032
246,3.411706981395963,-238.29139716218893,-65.66555358487909,-97.18534623889592,1.1033379856249017,-43.03313615467425,247.21393179413673,104.52595024229738
247,3.24840922415252,-238.62525958379626,-65.70759694410788,-98.49512803371357,0.49031240627104583,-42.84059830710528,247.5459113370468,105.71504542895846
248,3.073355306167803,-238.94763523003448,-65.7614503612228,-99.4341630294217,-0.3560402238245576,-42.6463374888676,247.8698268235267,106.6763908256142
249,2.888883338201091,-239.25341412761665,-65.8275852185186,-100.01509844180117,-1.4310877311089603,-42.45852807536202,248.180888878004,107.41659244836104
250,2.697665241294624,-239.53781302537033,-65.90630101569933,-100.25531365237433,-2.7270598056882625,-42.285543563919724,248.47458429882514,107.94593725561084
251,2.502665221148301,-239.796460286581,-65.99774031796531,-100.17657093090013,-4.2331352162863505,-42.13577745477348,248.7467622121062,108.27809749780648
252,2.3070874969565884,-240.02547215684646,-66.10190734261164,-99.80459503158859,-5.935596603643822,-42.01745968868239,248.99371273952445,108.42976870918851
253,2.114314367141829,-240.2215178418839,-66.21868963555953,-99.16858796052102,-7.8180502767175115,-41.93847394475174,249.21223555452232,108.42024938983924
254,1.9278362203851047,-240.3818707868499,-66.34788243752405,-98.30068664524886,-9.861705207264945,-41.90618091943563,249.39969570247104,108.27097204932306
255,1.7511756367814577,-240.50444383374767,-66.48921533412182,-97.23537322831339,-12.045702308749314,-41.92725225617089,249.55406433692767,108.00499713541008
256,1.5878081723661461,-240.58780651321385,-66.64238061302902,-96.00884995301459,-14.347482454714136,-42.0075192173936,249.67394254054008,107.64648321169567
257,1.4410826353315396,-240.63118357385034,-66.80706239781966,-94.65839267772546,-16.743179854145232,-42.15183960467874,249.75856712387724,107.22014823109953
258,1.3141436430685005,-240.634434983924,-66.98296509505373,-93.22169855106523,-19.208026526507467,-42.36398586376796,249.80779824616346,106.75073756174586
259,1.2098591259814775,-240.5980189176116,-67.16983909173472,-91.73624407631499,-21.716753687252115,-42.6465567233251,249.82208977436466,106.26251438531709
260,1.1307552898914148,-240.5229403473214,-67.36750122606935,-90.2386696586654,-24.243976709884596,-43.000914105105856,249.8024442554169,105.77878722851459
261,1.0789613619761402,-240.41068859019154,-67.5758476067361,-88.76420585392373,-26.764551767375487,-43.42714646165453,249.75035508955196,105.32148785314047
262,1.056166247689379,-240.26316750965734,-67.79485699546986,-87.34615499596282,-29.25389406246806,-43.92405918382021,249.66773900427228,104.91081063407151
263,1.063589006594332,-240.08262212119416,-68.02458403157654,-86.01543965876874,-31.688249538699008,-44.48919225854609,249.55686226290896,104.56492190458285
264,1.101964677623699,-239.87156510937282,-68.26514271943228,-84.8002265154695,-34.04491397335003,-45.11886490770876,249.42026411886312,104.29974455865255
265,1.171546298979809,-239.63270626713268,-68.51668156829423,-83.72563080988552,-36.302395324680546,-45.80824644964465,249.26068081210016,104.12881966648303
266,1.2721230022331862,-239.36888721769,-68.77935253142758,-82.8135032933165,-38.44051720457906,-46.55145204227199,249.08097298497503,104.06324339498303
267,1.4030530222698798,-239.08302304744612,-69.05327644782196,-82.08229853664834,-40.440463572641335,-47.34166127545446,248.88405884210366,104.11167459873552
268,1.5633095462133284,-238.7780516878328,-69.33850795958502,-81.54702124564453,-42.28476739084302,-48.17125679189089,248.67285469114367,104.28040636715832
269,1.751536571123061,-238.45689112808986,-69.63500279255878,-81.21924561025209,-43.957249030678206,-49.03197921413962,248.45022374703524,104.57349361027643
270,1.9661113362160907,-238.12240400697914,-69.94258989119616,-81.107201674829,-45.44291344139378,-49.91509364842931,248.21893345394588,104.99292824612793
271,2.2052094749022753,-237.77736893661896,-70.26095027977266,-81.21592200690375,-46.72781812880446,-50.811562072580166,247.98162121476093,105.53885346863348
272,2.466868866570489,-237.424457979284,-70.589603767625,-81.54744136239432,-47.798926546377906,-51.7122152695494,247.7407682686335,106.20980874816127
273,2.749048303300483,-237.06621983409946,-70.92790382955499,-82.10104149171549,-48.643963274882346,-52.607917866716996,247.49868136550725,107.00299753851128
274,3.049677505294699,-236.70506834851258,-71.27504029626864,-82.87353272535795,-49.251288068861655,-53.48972050810043,247.25748174658332,107.91457002993981
275,3.366695652761868,-236.34327593266073,-71.63004904164681,-83.85956362714283,-49.609805231980275,-54.34899404945432,247.01910078118516,108.93991359604121
276,3.6980763897820896,-235.98297138515628,-71.99182778977489,-85.05194991833783,-49.70892275544911,-55.17754170819012,246.78528153264656,110.07394378089167
277,4.041838179318657,-235.62614158259402,-72.35915741960251,-86.44201406614215,-49.538572312491254,-55.96768620823295,246.5575855547852,111.31138876286217
278,4.396039942533429,-235.27463643604403,-72.73072840502076,-88.01992725810888,-49.08929680722906,-56.7123301173593,246.33740426066345,112.64706020116341
279,4.758763028960905,-234.93017643058903,-73.10517195452836,-89.77504574351869,-48.352407111986196,-57.40498873804427,246.12597411624782,114.07610316917517
280,5.128081571039464,-234.59436190865742,-73.48109492552241,-91.69623360986333,-47.3202043553615,-58.039795978968804,245.9243946387885,115.59421751416394
281,5.502024041310277,-234.26868309652184,-73.85711694058394,-93.77216409326167,-45.986259135891494,-58.611484554061214,245.73364785210643,117.19784266613786
282,5.878529389075524,-233.95452983050075,-74.23190769921898,-95.9915917918416,-44.34573480544652,-59.115342709481155,245.55461769268393,118.88429805847568
283,6.255401598529489,-233.65320005667158,-74.60422241772102,-98.34358898728824,-42.39573886121763,-59.547150582802075,245.38810795868494,120.65187233601432
284,6.630266865152827,-233.36590636079555,-74.9729335238286,-100.81774086960198,-40.13568466902524,-59.90310026113796,245.23485762518337,122.49985659454317
285,7.000537679651484,-233.09377991655776,-75.33705698437517,-103.40429671733203,-37.56764516931786,-60.179704499537415,245.0955525415013,124.42851984227055
286,7.3633878158457575,-232.83787129228065,-75.6957718535097,-106.09427662184945,-34.6966807316457,-60.37369973932636,244.97083262241037,126.43902822507953
287,7.715741534712294,-232.59914760659998,-76.04843182516241,-108.87953562079461,-31.53112472876319,-60.48194948162007,244.86129372691346,128.5333127490386
288,8.05427933334413,-232.37848570530159,-76.39456783997022,-111.75278869224307,-28.082812488383816,-60.50135427301663,244.76748364097958,130.71389282549706
289,8.375461451591422,-232.17666141251172,-76.7338811855734,-114.70760081318339,-24.36724182243148,-60.428774585699024,244.68989202850207,132.98366473810015
290,8.675569293338928,-231.9943353864919,-77.0662270317186,-117.73834634682451,-20.403656101847037,-60.260972696487066,244.62893479203024,135.345665081517
291,8.950764001404066,-231.83203649004105,-77.39158891895747,-120.8401417115514,-16.215043666706805,-59.994579237190024,244.58493379789056,137.80281950901048
292,9.197160522134176,-231.69014378023195,-77.71004534339976,-124.00875496543453,-11.828050173971569,-59.626089338260066,244.5580932740109,140.3576870011989
293,9.410914468831667,-231.56886830139146,-78.02173022304254,-127.24049591862726,-7.272803312847624,-59.1518921214602,244.54847443652724,143.0122095655596
294,9.588318051684839,-231.46823592607666,-78.32678963441109,-130.53209080802145,-2.582652190740543,-58.56833563321301,244.555970118937,145.76747691878037
295,9.725900589709957,-231.38807254589562,-78.62533770208677,-133.88054634681455,2.206173424680392,-57.8718271797963,244.58028136552454,148.62351525410946
296,9.82052885213643,-231.32799292441618,-78.9174148489258,-137.28300878230098,7.054976081461394,-57.05896658485468,244.62089805617805,151.5791084558363
297,9.869502653423664,-231.28739445832562,-79.20295169151076,-140.73662402952982,11.923065582401025,-56.12670736115654,244.67708559948656,154.63165881510398
298,9.870641621463855,-231.26545694568574,-79.48174161370844,-144.23840460878176,16.768284011813346,-55.07253843557838,244.7478795334654,157.77709221335974
299,9.822359803480646,-231.26114924307362,-79.7534244633084,-147.78510780006567,21.54756826090533,-53.894677172816,244.8320895166901,161.0098098631829
300,9.723725715523932,-231.27324343738914,-80.01748298632398,-151.37312723394572,26.217537676269284,-52.59226323993816,244.92831373456025,164.32268528875525
301,9.57450642997191,-231.30033687502382,-80.27325272862025,-154.9983974843794,30.735095446033444,-51.165542461938934,245.03496424879262,167.70710179050357
302,9.375195135462208,-231.340882046,-80.51994538020679,-158.6563087513366,35.0580338457584,-49.61603025560488,245.15030329710598,171.1530227967479
303,9.127022241439589,-231.39322389379038,-80.75668491947287,-162.34162703931327,39.14563518353009,-47.946645419386364,245.2724899820301,174.64908579611767
304,8.831950652356593,-231.45564366115764,-80.98255527975806,-166.0484147300472,42.95926187074646,-46.1618068365891,245.39963617339296,178.18271021178535
305,8.492656389519485,-231.52640796681172,-81.19665752674001,-169.7699471941556,46.462930155623695,-44.26748779509176,245.5298698401836,181.74021055215084
306,8.112496199843035,-231.60382148198565,-81.3981737674543,-173.49862297489332,49.6238624232262,-42.271224887372064,245.66140348529592,185.30690820548108
307,7.695463985684516,-231.68628131809118,-81.58643431271902,-177.2258678813482,52.413012504537484,-40.18208058159231,245.79260488792593,188.86723802422216
308,7.246137743146039,-231.77233098671368,-81.76098407524896,-180.9420366841582,54.80555729560144,-38.010560356749494,245.92206693507526,192.404848995317
309,6.76961830659836,-231.860711567312,-81.92164390146947,-184.63631947767897,56.78134649508647,-35.76848668946741,246.04867299694848,195.90270135547112
310,6.271460757946446,-231.95040766370178,-82.06856257542951,-188.2966625011392,58.325300805666195,-33.46883321651689,246.17165424027186,199.3431649606897
311,5.757599007639637,-232.0406859546759,-82.20225559140528,-191.9097146819151,59.42774782355392,-31.1255232248634,246.29063558216927,202.70812508376198
312,5.234263808487535,-232.1311245071757,-82.32362739630672,-195.46081100150147,60.08468426352162,-28.75319738237019,246.40566751106755,205.97910181923993
313,4.707894312446534,-232.221631268137,-82.43397460155764,-198.9340019698,60.29795325652984,-26.366956380182682,246.51724148391145,209.13738794733894
314,4.185043301881121,-232.31245024609365,-82.53496867941963,-202.3121353439374,60.07532629195565,-23.982084921853914,246.62628702589535,212.16420776022642
315,3.672276548351524,-232.4041540474535,-82.62861793388038,-205.5769922950977,59.43048097485181,-21.613764239411996,246.73414922745965,215.0408964898693
316,3.1760673786987526,-232.49762182591513,-82.71721003598388,-208.7094761601736,58.38286806235292,-19.276780978514818,246.84254621197374,217.7490971524868
317,2.7026882713180407,-232.59400231307723,-82.80323797112248,-211.6898483108904,56.95746412639159,-16.985240815469425,246.95350725222997,220.2709693350192
318,2.258101928200894,-232.69466228088766,-82.88931359832544,-214.49800293708387,55.18440961827354,-14.752295506524344,247.06929331428333,222.58940303857398
319,1.8478546314066888,-232.80112144607062,-82.97807395821053,-217.11377080875897,53.09853609118595,-12.589892127127628,247.19230273865233,224.68823027447777
320,1.4769747531367325,-232.91497547701016,-83.07208594468449,-219.51724121660294,50.73879075119327,-10.508552893230373,247.32496553169182,226.55242749916263
321,1.1498790821974092,-233.03780944920808,-83.17375500604695,-221.6890909822556,48.14757096478187,-8.517193102866335,247.46963038990694,228.1683027608179
322,0.8702892722433936,-233.17110479998883,-83.28524315059597,-223.61090941747912,45.36998525956874,-6.622983440230487,247.62844910143014,229.52366221500876
323,0.6411603182082347,-233.31614348372534,-83.40840073596273,-225.26550842365307,42.45306014629731,-4.831261223296061,247.80326330763913,230.60795136223055
324,0.4646225474783681,-233.4739135329474,-83.54471547431862,-226.63720789415888,39.44491341915872,-3.145493237455177,247.99549872811096,231.4123672608357
325,0.341938174544556,-233.64502050396632,-83.69528092727764,-227.71208855966918,36.39391443655826,-1.5672907280588564,248.20607181951667,231.92993947203277
326,0.27347308277151733,-233.82960928302793,-83.86078553680288,-228.47820738201173,33.347850556587645,-0.09647510892719807,248.4353134236506,232.15557970695025
327,0.2586842430012936,-234.02730043145715,-84.0415219654226,-228.92577403806862,30.353116941424172,1.268808870562653,248.68291325056128,232.08610270610026
328,0.29612306589485093,-234.23714464082303,-84.23741527965201,-229.0472901433046,27.45394491828326,2.531937278558716,248.947888051732,231.72022312546662
329,0.38345497707230186,-234.45759798672003,-84.44806742312193,-228.8376549612775,24.69168237426379,3.697614416342018,249.22857513791877,231.05853452854677
330,0.5174955443481707,-234.68651961930908,-84.67281457777871,-228.29424215194103,22.10413837013714,4.771650227109269,249.522651616697,230.10347673596155
331,0.6942634885532076,-234.92119242036952,-84.9107934220622,-227.41695179103385,19.725003122534588,5.760714914609581,249.8271784767841,228.85929691133333
332,0.9090507718149593,-235.15836604921554,-85.16101194829396,-226.20824087788657,17.583353410496645,6.672078301333527,250.13866748097124,227.33200826361522
333,1.1565095891314063,-235.39432070731522,-85.42242037743607,-224.67313432696804,15.703252035497817,7.513341698502305,250.4531677544255,225.52934858431385
334,1.4307554630102395,-235.62494888702665,-85.69397783505762,-222.81921742863705,14.103448130726457,8.292170261977423,250.7663679933885,223.46073942951514
335,1.7254848735019186,-235.8458514316584,-85.97471095382907,-220.65661025508373,12.797182994537854,9.01603390258359,251.0737095072721,221.13724590128197
336,2.0341051744293543,-236.05244360086687,-86.26376155095836,-218.19792456251554,11.792103894882695,9.69196464548942,251.37050504840076,218.57153677405955
337,2.349874093448046,-236.24006659614392,-86.56042188790741,-215.45820424115533,11.090286121572795,10.326337733625428,251.6520586238159,215.77784499044301
338,2.6660458331921837,-236.40410006520273,-86.8641574474268,-212.45485094611,10.688361604032613,10.924682735851894,251.9137820310332,212.7719289694959
339,2.976020546038268,-236.54007133682464,-87.17461833946734,-209.20753680191277,10.577750753889562,11.49152962566914,252.15130447705425,209.57103532249585
340,3.273493677478571,-236.64375749308064,-87.49164121366034,-205.73810569386956,10.74499274799719,12.030293462113418,252.36057222787716,206.1938631263397
341,3.552601380655904,-236.71127688417332,-87.81524393683947,-202.0704635524437,11.172167977370126,12.543200047164298,252.53793582177596,202.66052875531005
342,3.808057960352831,-236.73916732215733,-88.14561536183675,-198.23045645287738,11.83740460899005,13.031253758619043,252.68022298082582,198.99252864516797
343,4.035281185943067,-236.72444883885825,-88.48310228211199,-194.24573384435683,12.715459101754917,13.494247648283462,252.78479587122476,195.2126957971255
344,4.230501379977542,-236.6646694355758,-88.82819514931774,-190.1455934114328,13.77835823806985,13.930814856151397,252.84959168326867,191.34514493454125
345,4.390850485693575,-236.5579327761656,-89.18151343109551,-185.9608043234448,14.996087989876289,14.338519417474961,252.87314574683674,187.41520136457748
346,4.514427898552007,-236.40290753698557,-89.54379079591928,-181.72340689777508,16.33731252644735,14.713983591036174,252.85459687718318,183.4493097194945
347,4.600340746337353,-236.19881919581468,-89.9158598501705,-177.46648863607234,17.770105101834922,15.053047854213215,252.79367550112292,179.47492050926814
348,4.648717429562286,-235.94542617933948,-90.29863604939897,-173.2239387625481,19.262671691782252,15.350958674508988,252.6906761647219,175.5203544041648
349,4.6606943720651515,-235.64298320354666,-90.6931005812154,-169.03018543406935,20.78404830502837,15.602578152592486,252.54641696303946,171.6146460537727
350,4.638376873474764,-235.29219517913444,-91.10028226052775,-164.9199214178012,22.304753911287698,15.802608799694069,252.36218903771373,167.78737079098607
351,4.584775618779267,-234.89416519046432,-91.52123867181547,-160.92782506077765,23.79738274812981,15.945826227934088,252.13969949604382,164.06845861033744
352,4.503720814061636,-234.45033986741595,-91.95703695144127,-157.0882837586955,25.237122174392994,16.027312457128215,251.88101099468872,160.4880003157327
353,4.3997561581982545,-233.96245507759554,-92.40873471825937,-153.43512693090324,26.602185058271324,16.04268281087865,251.58848091673087,157.0760507679812
354,4.278015053878139,-233.43248436187363,-92.87736169139568,-150.00137483042772,27.87414877611168,15.988299900291684,251.26470262369548,153.86243382643286
355,4.144081773718283,-232.8625919854345,-93.36390250429018,-146.81900848237555,29.038196100951797,15.861468940820279,250.91245075629215,150.8765529800286
356,4.0038407915912755,-232.25509194365208,-93.86928117394653,-143.91876482203455,30.08325645248008,15.660609576285458,250.53463206271613,148.14721095291213
357,3.8633180282408093,-231.61241374748982,-94.39434756810546,-141.32995992581502,31.00204907595229,15.385400389190695,250.13424273084703,145.7024409489001
358,3.728518161967861,-230.9370752574701,-94.93986596992617,-139.08034229560485,31.791032644419108,15.036893238223609,249.7143326093032,143.5693518347748
359,3.6052623578726166,-230.23166223148073,-95.50650551156754,-137.1959775157338,32.450268463803695,14.617595400302754,249.27797602988596,141.77398947046123
360,3.4990307781023495,-229.4988136860342,-96.09483193960169,-135.70116506629745,32.98320681339862,14.131518153615964,248.82824830973402,140.341216363559
361,3.4148140582569635,-228.74121175637092,-96.70529994384262,-134.6183872639056,33.396407825647216,13.584190909044176,248.36820654252594,139.29461144247807
362,3.3569776253854418,-227.96157454180482,-97.33824513986768,-133.9682888071005,33.699209490093615,12.982640351402342,247.90087305000966,138.65639056631105
363,3.3291423734864702,-227.16265041345548,-97.99387478343061,-133.76968307116653,33.90335569427064,12.335334428504245,247.42921985140273,138.44734623615912
364,3.334084810119843,-226.34721234634674,-98.67225645255364,-134.03957839626133,34.022596711920436,11.652091558685571,246.95615264628458,138.68680211470166
365,3.373659283064083,-225.51805092599966,-99.37330423438289,-134.79321479723777,34.07227345467334,10.943956188663305,246.48449300233526,139.39257508598595
366,3.4487443086952982,-224.67796476762524,-100.09676234778959,-136.0440995699094,34.06889544191569,10.223042822756454,246.0169576709948,140.58093551525207
367,3.5592144680332605,-223.82974727234404,-100.8421866033468,-137.8040297492242,34.029721054597225,9.502351785551074,245.55613430843678,142.26655569425526
368,3.703938835521589,-222.97616901816784,-101.60892461764058,-140.08309045693412,33.97234731537568,8.795561131597667,245.10445342461097,144.4624373458882
369,3.8808063423907564,-222.11995558270578,-102.39609615179594,-142.88962064441063,33.91431517904824,8.116800108563526,244.66415701759834,147.17981128694902
370,4.086777786373595,-221.26376103542344,-103.202575198182,-146.23014115773532,33.87273509039624,7.4804102923290445,244.23726484710846,150.42800547288024
371,4.317963444711033,-220.41013758155833,-104.0269754244915,-150.109243941555,33.86393634940419,6.900700949366467,243.82553950312948,154.21428119783823
372,4.569724465303388,-219.56150191748546,-104.86764031637156,-154.5294451220421,33.90314264378905,6.391705451300798,243.43045136620745,158.54364079029955
373,4.83679536915796,-218.72009896079473,-105.7226388588742,-159.49100832975137,34.00417503400418,5.966945737666673,243.05314441689524,163.41861342022688
374,5.1134241206326765,-217.88796396545806,-106.58976689281445,-164.991747669088,34.1791827814096,5.639211841319336,242.69440384397288,168.83902836953072
375,5.393525423323084,-217.06688465616625,-107.46655355200707,-171.02682195735838,34.43840179163456,5.420363216255486,242.3546266302934,174.80178708112692
376,5.670842281657954,-216.25836567152942,-108.35027175202997,-177.58853301932172,34.78994022014852,5.321157871995375,242.03379667913097,181.30064629894886
377,5.9391104920047155,-215.46359794039938,-109.23795178789246,-184.66614081069167,35.239591009571456,5.35111400680644,241.73146636685573,188.32602453643108
378,6.192220658041172,-214.6834354682073,-110.12639764489668,-192.24570698948656,35.79067172403529,5.518406998954673,241.4467465050436,195.86484298571435
379,6.4243726032932145,-213.91838152256216,-111.0122063493969,-200.30997648408012,36.443892870688764,5.829802510196379,241.17830657332487,203.90040999971433
380,6.630217607999317,-213.16858563092256,-111.8917913225118,-208.83830405687434,37.197256810851364,6.2906243830862065,240.92438685118552,212.41235584395827
381,6.804984594308856,-212.43385228153937,-112.7614111324434,-217.80663036956534,38.04599022576971,6.904754181317827,240.6828238038168,221.37662202470415
382,6.9445871420083005,-211.71366177024623,-113.61720519609646,-227.18751000025364,38.98251378591276,7.674657726197084,240.45108974385684,230.76550750505203
383,7.045708969160293,-211.00720320444475,-114.45523778564312,-236.95019226591168,39.99645308780262,8.60143287469005,240.2263473128198,240.54777253208468
384,7.105866157542041,-210.31341915608158,-115.27155117943548,-247.0607543143823,41.07469498472127,9.684872097838829,240.00551861955432,250.68879936288496
385,7.123444932430086,-209.6310607801707,-116.06222806900642,-257.4822845550376,42.20149302111985,10.923533138144366,239.7853679286225,261.150807674425
386,7.09771433609332,-208.95875146594875,-116.82346243096454,-268.17511316747033,43.358624679559526,12.314811099954886,239.56259570107898,271.8931209329023
387,7.0288137638838,-208.2950564885904,-117.55163699077777,-279.09708550468986,44.52560159720465,13.855005721430482,239.33394075389845,282.87247883219726
388,6.917716136513819,-207.63855591429854,-118.24340431924227,-290.2038740749765,45.67993196995533,15.539378271453103,239.09628661436707,294.04339049998293
389,6.766168536567551,-206.98791824249386,-118.89576783792073,-301.4493255921403,46.79743219550222,17.362193491608615,238.84676801388179,305.3585236893427
390,6.576613339760494,-206.34197276684586,-119.50615875023955,-312.7858410818919,47.852582507304305,19.31674328888886,238.5828738161439,316.7691264026933
391,6.352093915543098,-205.6997791249846,-120.07250510932295,-324.1647886467,48.81891905218187,21.395350561684868,238.30254322824592,328.22547879253176
392,6.096149606546442,-205.06069280112982,-120.59328977343193,-335.5369495313212,49.66945283521699,23.589353626669627,238.00425268097948,339.67737410782485
393,5.8127048575880425,-204.4244254075006,-121.06759482616391,-346.85299799983295,50.377104548400354,25.889074058359412,237.68709122890118,351.07462735829864
394,5.505957104859875,-203.7910984562489,-121.49513110957704,-358.0640138894643,50.91514380274012,28.28377309821966,237.35082274795528,362.3676089390725
395,5.180267507326093,-203.16128913941114,-121.87625274602074,-369.12202358106515,51.257621844351696,30.761603858686833,236.99593364361627,373.5077977323938
396,4.840058040686821,-202.53606645289076,-122.21195772691753,-379.98056095601316,51.37978846613574,33.30956806375792,236.62366521849788,384.44834459106073
397,4.4897180472672735,-201.91701591592727,-122.50387657639286,-390.59523539131214,51.258486434543755,35.91348678929959,236.23603023370873,395.14463325791917
398,4.133522991239074,-201.30625122660095,-122.75425152606648,-400.92428971399704,50.872520122531746,38.55799446926573,235.8358134810148,405.55482236086146
399,3.7755676778130893,-200.70641148165714,-122.96590843308769,-410.9291278841129,50.202998780292056,41.226564364230356,235.42655631521455,415.6403496578057
400,3.4197153715972024,-200.12064301009147,-123.142222912371,-420.57479035651266,49.23365837683616,43.9015719290653,235.01252505995902,425.36637845466066
401,3.06956314120282,-199.55256532191356,-123.28708115691643,-429.8303547249962,47.95116845412026,46.5644003218201,234.59866307046792,434.7021661314412
402,2.728422624262128,-199.00622110440645,-123.40483502044027,-438.66924043869915,46.34543120663206,49.19558990125266,234.19052613671545,443.62133598226717
403,2.3993145120274457,-198.48601060960655,-123.50025025612996,-447.06939922682966,44.40987853704871,51.77503109571221,233.79420090404062,452.10203620740293
404,2.0849744612050434,-197.99661116169497,-123.57844639556284,-455.0133775945118,42.1417691692298,54.28219754212073,233.4162060990344,460.12697414582874
405,1.7878677298918193,-197.54288284408327,-123.64482675684232,-462.4882445668225,39.542482673026484,56.69641397501659,233.06337663231938,467.6833200038047
406,1.510209496643088,-197.12976170665195,-123.70499757445836,-469.4853867358401,36.6178015145079,58.997151161668455,232.7427311549138,474.76248251193095
407,1.2539876186104213,-196.7621421510501,-123.7646761269755,-476.00018305934697,33.378167041821285,61.16433844996456,232.46132438486757,481.3597686930429
408,1.0209846727935838,-196.44475066378016,-123.82958879682195,-482.0315825328255,29.838891463610555,63.17868341474087,232.2260865222632,487.47395009542447
409,0.8127965503382228,-196.18201385223367,-123.90536108933163,-487.5816170997025,26.02030588837362,65.02198775221719,232.04365332567588,493.1067667912473
410,0.6308455021848233,-195.97792464427135,-123.99740270772831,-492.6548883391644,21.9478245976486,66.67744898116324,231.92019176819005,498.2624065530258
411,0.47638619679987726,-195.83591123472476,-124.11079177560589,-497.2580684982513,17.651907891672174,68.12993861031433,231.86122734047004,502.94699882875784
412,0.3505039884753834,-195.75871367893916,-124.25016309749319,-501.3994539664358,13.167909800014272,69.36624912703269,231.87147976827774,507.16816106177527
413,0.25410521467454245,-195.74827288694223,-124.41960574269545,-505.0886025790484,8.535802173870765,70.37530429540828,231.95471400314455,510.9346287291318
414,0.1878999333078875,-195.80563621372343,-124.62257502306663,-508.3360758320471,3.7997724524939183,71.14832961193598,232.11361276223093,514.2559907562853
415,0.15237807123858071,-195.93088298225118,-124.86182308025825,-511.15329419992133,-0.9923020285340248,71.67898211731674,232.34967571334286,517.1425396075193
416,0.14778050247648508,-196.123072262854,-125.13935100909389,-513.5524997647798,-5.789495493869445,71.96344087390055,232.6631488577968,519.6052317608949
417,0.17406709003392226,-196.38021420106182,-125.45638402491859,-515.5468073036221,-10.538579379437312,72.0004610875703,233.05298603413706,521.6557414169288
418,0.23088411850677065,-196.6992652093751,-125.81336983659669,-517.1503150176683,-15.184857580887554,71.79139594770096,233.51684291988002,523.3065803179983
419,0.31753370502929035,-197.07614645921106,-126.20999912932497,-518.3782408811037,-19.673074332534842,71.34019077098463,234.0511024916898,524.5712511440385
420,0.43294766481764607,-197.50578442774395,-126.64524580927889,-519.2470507001057,-23.948375944346388,70.65335405618667,234.65092965789705,525.4644017033651
421,0.5756680096904621,-197.9821718980378,-127.11742344193335,-519.7745487359657,-27.957306450708224,69.7399096780819,235.31035182302335,526.0019514344834
422,0.7438359316265292,-198.4984477818415,-127.62425336608946,-519.9799096008953,-31.648816765621756,68.61133371603513,236.02236161029288,526.2011690629901
423,0.9351908487443548,-199.04699426407515,-128.1629395820917,-519.8836392533822,-34.97526705535661,67.28147837794455,236.7790378713143,526.0806888230111
424,1.1470807999693924,-199.61954985433712,-128.73024584009536,-519.5074617497879,-37.8934023033115,65.76648424464682,237.57168136154993,525.6604609234646
425,1.3764850642244102,-200.20733688281453,-129.32257131997315,-518.8741359008457,-40.3652809444879,64.08468075348235,238.39096194215261,524.9616388750269
426,1.6200493304944699,-200.8012018251951,-129.93602263692202,-518.0072114854432,-42.359135685926795,62.256473572143214,239.22707476637905,524.0064112491523
427,1.8741330892019685,-201.39176664964634,-130.5664812771482,-516.93073773169,-43.85014427584359,60.30421633366389,240.06990348692622,522.8177879708874
428,2.1348681968945904,-201.96958917364626,-131.2096667214933,-515.6689371209283,-44.821086490146314,58.252063110223695,240.9091889663219,521.4193511157235
429,2.398226892159335,-202.525330132004,-131.86119642748397,-514.2458554257806,-45.26286264564503,56.12579704172351,241.7347022172415,519.8349776582456
430,2.6600970734944465,-203.04992414775833,-132.51664457040013,-512.6849952530383,-45.17484917160631,53.95262988147563,242.53642025827548,518.0885377640028
431,2.9163624607847685,-203.53475099246288,-133.1716018910153,-511.00893685645195,-44.56506862105569,51.760967147071675,243.3047031288753,516.2035687143034
432,3.162985232308902,-203.97180255005978,-133.82173892140958,-509.2389482566342,-43.450155220408455,49.580134297944866,244.0304694397607,514.20292308856
433,3.3960886739157745,-204.35384002195718,-134.4628741574735,-507.394587678816,-41.85510277354721,47.44006097975539,244.7053667034455,512.1083913433812
434,3.612037255493182,-204.67453537124754,-135.091047566062,-505.4933048314914,-39.812789525650025,45.370922804001545,245.32193157771738,509.940303265148
435,3.8075114834164,-204.9285909837817,-135.70259839628744,-503.55005252089137,-37.36328433131128,43.402743202140556,245.8737343512313,507.7171188331999
436,3.9795749626127135,-205.11183216587028,-136.2942448351228,-501.5769250506873,-34.55294961647895,41.564961386321976,246.35550175150289,505.45502525607
437,4.125731303470762,-205.22126841575127,-136.86316185642917,-499.5828434959933,-31.433368130772266,39.885976094984855,246.76321260622305,503.1675618809583
438,4.243968777476488,-205.25512118586934,-137.40705289852662,-497.5733095270313,-28.06013103214396,38.392678288835086,247.09416198656064,500.86529739418484
439,4.332791008482805,-205.2128177551198,-137.92421092033408,-495.55024883394697,-24.491533182407604,37.10998892358205,247.3469910030813,498.55558390391536
440,4.391232558809792,-205.09495259816129,-138.4135649784499,-493.51196256223324,-20.787226694380077,36.0604199317878,247.52168122690912,496.2424102272909
441,4.418859056698181,-204.90321920290833,-138.8747096323646,-491.4532008174645,-17.006885114827448,35.26367718327583,247.61951465990904,493.9263723010976
442,4.415752512553827,-204.64031669601482,-139.3079158944389,-489.36536651507765,-13.208927958126225,34.73632319235608,247.64300214156628,491.60477245424937
443,4.382483607025803,-204.30983687659875,-139.71412365183915,-487.2368507614262,-9.449349086708883,34.491514647213776,247.59578480025553,489.27185157676195
444,4.320073749094356,-203.91613812172747,-140.09491621367914,-485.05349257511216,-5.780683719423897,34.53882561266775,247.48251429382668,486.91914914528576
445,4.229950266948873,-203.4642128169224,-140.45247793417693,-482.7991463474263,-2.2511388827896948,34.884161861376526,247.30871791643872,484.53597597139236
446,4.113898041809928,-202.95955435308898,-140.78953605548662,-480.4563308913358,1.0960980432002239,35.52976573547081,247.08065425014226,482.10997437111234
447,3.974010308312146,-202.4080284563389,-141.1092883151492,-478.00692581190043,4.223367679628026,36.474304815704635,246.80516420791503,479.6277318058848
448,3.812640462113818,-201.8157519794477,-141.41531851161298,-475.4328760540698,7.098867614941303,37.713032080762844,246.48952132466573,477.0754087336679
449,3.6323558053942384,-201.188980611079,-141.71150290182854,-472.7168651999332,9.696813198662745,39.23800078121823,246.14128415325746,474.43934080018846
450,3.4358934410298656,-200.53400553019364,-142.00191081165067,-469.84292269368785,11.997447323357173,41.038314463678155,245.76815272619282,471.7065799058269
451,3.226118081926413,-199.857058043901,-142.29070309516217,-466.7969387037246,13.986920304306677,43.10039177932671,245.3778303674407,468.8653471514685
452,3.0059812693764423,-199.16422079660617,-142.58203204103103,-463.56707095144634,15.657062597436875,45.408226918702844,244.9778917394243,465.90538137022753
453,2.778481206185291,-198.4613442322821,-142.87994599626126,-460.1440386543881,17.005072445703753,47.94362949635535,244.57565789177255,462.8181780030353
454,2.546622103878458,-197.75396753766637,-143.18830147567584,-456.5213084942593,18.03313805632559,50.68643210172192,244.17807923141456,459.59712321717564
455,2.313371889965246,-197.04724409441988,-143.5106849528199,-452.69518571422685,18.748010285383177,53.61465914851299,243.79162765857419,456.23753686787734
456,2.081617566261956,-196.34587230366583,-143.85034586905775,-448.6648298274519,19.160537777444212,56.704656657847586,243.42219942360168,452.7366448834348
457,1.8541183421107614,-195.65403341771912,-144.21014163533002,-444.4322185048065,19.285172707716388,59.93118864585902,243.07503046087817,449.09350638212396
458,1.6334575074063638,-194.97533872600206,-144.59249462275807,-440.00208430822113,19.13945223818308,63.26751122357374,242.75462609627525,445.3089225411108
459,1.4219945746714162,-194.31278903322772,-144.99936047722943,-435.38184657381015,18.74345901755573,66.68543976234493,242.46470712751727,441.3853523957456
460,1.2218194961849262,-193.66874964769536,-145.4322066415223,-430.5815550517319,18.119263927275227,70.15542705067885,242.20817424395648,437.3268554228966
461,1.03471088671345,-193.04494387125555,-145.89199974991357,-425.6138536622773,17.290355966932715,73.64667094033553,241.98709244563238,433.13907269017847
462,0.8621002449587859,-192.4424671762656,-146.37920056623966,-420.4939632191442,16.281067455042944,77.1272684131433,241.8026964833313,428.82924877213355
463,0.7050441537500854,-191.8618229437747,-146.89376536976167,-415.2396727202069,15.11600689382912,80.56442937371935,241.65541743909378,424.40628700506664
464,0.5642062740137612,-191.30297902646757,-147.43515311488812,-409.8713211828128,13.81951582192993,83.92475811692067,241.54492954257358,419.8808222950346
465,0.43985055667899425,-190.76544276476685,-148.0023381760599,-404.4117468984563,12.415168575074802,87.17460392528902,241.47021531562444,415.26528950027455
466,0.3318464893158828,-190.24835068354284,-148.59382892031434,-398.8861787660677,10.9253342088162,90.2804753804102,241.42964628824643,410.5739618139572
467,0.23968648838098303,-189.75056812813943,-149.20769266558156,-393.32204507054576,9.370817626670979,93.2095064637347,241.4210759519245,405.82293273605103
468,0.16251486849659663,-189.2707936598303,-149.84158770057812,-387.7486786308025,7.770592581011816,95.92995697418871,241.44194133760138,401.03001721444593
469,0.09916721266799071,-188.80766306443596,-150.49280289677176,-382.19690355637505,6.141633507192782,98.41172564228289,241.48936953774665,396.2145523931945
470,0.04821844780414655,-188.35984818034078,-151.15830510331597,-376.6984977268612,4.498847045798802,100.62685187027353,241.56028555478858,391.3970860391825
471,0.008037532253100943,-187.92614632655233,-151.83479409745215,-371.28553598973866,2.855098335129383,102.54998142682226,241.65151804427416,386.59895065989593
472,-0.02315359863372247,-187.50555690392494,-152.51876437737755,-365.9896308143986,1.2213221226019126,104.15877268869559,241.7598998338524,381.84173251017967
473,-0.04721931174420004,-187.0973427469445,-153.2065725314589,-360.84109812032665,-0.39329545482053885,105.43422306385224,241.88236053306773,377.1466555760182
474,-0.0660502588027531,-186.70107490038632,-153.89450841528955,-355.86808458338146,-1.9810820436471093,106.36089988434335,242.01600908472625,372.53390966387536
475,-0.08150642805090591,-186.316660429104,-154.57886808164696,-351.0956977256685,-3.5356117139991023,106.9270660544256,242.1582046519794,368.02195776180724
476,-0.09536545395827863,-185.9443534423292,-155.25602643964,-346.545180982251,-5.051427917041901,107.12469764587357,242.30661469799838,363.6268602953277
477,-0.10927810787542308,-185.58474983619058,-155.92250795946464,-342.2331729441856,-6.523781220214985,106.94939785319876,242.4592595755338,359.3616528487383
478,-0.12473245092043743,-185.23876662385842,-156.57505425274687,-338.1710840586056,-7.948406793369173,106.40021859892146,242.61454354120076,355.23581006891425
479,-0.1430275056584199,-184.90760722876078,-157.2106878627764,-334.3646165690124,-9.321365533738671,105.4794070102427,242.77127280333326,351.25482288676056
480,-0.16525660926991176,-184.59271458873522,-157.8267719700981,-330.81344564833785,-10.638969542697023,104.19209847508259,242.92866179208906,347.4199098947148
481,-0.1922999863082848,-184.29571417036405,-158.42106589316776,-327.5110723648402,-11.897807108088783,102.54598063537206,243.08632912314718,343.7278773960192
482,-0.22482563075295392,-184.0183490090164,-158.9917761814769,-324.44485277905324,-13.09487450875502,100.55095322067798,243.24428466392206,340.1711366557537
483,-0.2632973668689426,-183.76240883635398,-159.53760267616366,-321.596202213756,-14.227812452265194,98.2188069617936,243.40290877721452,336.7378813236704
484,-0.30798888844257316,-183.5296554566652,-160.05777813580082,-318.94096930510847,-15.295234800034015,95.56294101979444,243.5629243738476,333.41242263140305
485,-0.3590024764450105,-183.32174682815963,-160.55209914809924,-316.44997022362105,-16.2971275856799,92.59813263950467,243.72536205267124,330.17567426577335
486,-0.41629087724934033,-183.14016252145834,-161.02094557641624,-314.0896688627503,-17.23528818566188,89.34036551394287,243.89151846674105,327.00577234700893
487,-0.47968059835826404,-182.98613303013258,-161.46528605620085,-311.82298380667396,-18.113768481701975,85.80671541393404,244.06290809337236,323.8788089080478
488,-0.54889485291621,-182.8605748209567,-161.88666788337167,-309.61019821481113,-18.939282249890802,82.01528414645738,244.24120870126464,320.76965070539137
489,-0.6235746823375902,-182.76403244768954,-162.28719057734276,-307.4099453660305,-19.721536000242224,77.98516706158556,244.4282010122798,317.65281040078116
490,-0.7032973499337706,-182.69662888012718,-162.66946321662562,-305.180240983964,-20.473444346197958,73.73643597550213,244.62570346639365,314.5033349193227
491,-0.7875917397480326,-182.65802537870468,-163.03654636867563,-302.87953329509594,-21.21119602941665,69.29011881537927,244.83550361003466,311.2976759891751
492,-0.8759510380648521,-182.6473924323025,-163.3918801028629,-300.46774223294295,-21.954145077104915,64.66815934531758,245.05928821019052,308.01450975653
493,-0.9678433210679558,-182.66339319300465,-163.73920010106846,-297.9072596204636,-22.724512899323663,59.89334448719036,245.2985744838991,304.6354751860281
494,-1.0627207792584579,-182.70418045053145,-164.08244418872187,-295.1638824393976,-23.54690060308087,54.98919226238687,245.55464474787655,301.1458043206643
495,-1.1600282081824482,-182.76740763480683,-164.42565175720193,-292.2076518634405,-24.447625164612585,49.97979940282468,245.8284864820183,297.5348213863911
496,-1.2592112152322734,-182.85025380744918,-164.77285865407308,-289.0135722084544,-25.45390694209445,44.88965342732198,246.12073948408593,293.7962923345257
497,-1.3597244781686497,-182.9494622245134,-165.12799022036492,-285.5621867673856,-26.59294798780238,39.74341884893727,246.43165158882115,289.92861178005654
498,-1.461040351742869,-183.06139180263773,-165.49475524374574,-281.8399917042946,-27.890949626448766,34.565710737412594,246.76104430929644,285.9348202609773
499,-1.5626580209943361,-183.18208053897465,-165.87654367742394,-277.8396745369071,-29.372122950962634,29.380870763746742,247.10828961399673,281.8224510109705
500,-1.664113132357116,-183.3073194674976,-166.27633099542413,-273.56016995849063,-31.05774661395933,24.21276084599439,247.4722987296093,277.6032117819442
501,-1.764987424087853,-183.43273511271423,-166.6965919007587,-269.00653269098837,-32.965322247972516,19.0845875809918,247.85152330351372,273.292513674311
502,-1.864917456411338,-183.5538778087455,-167.13922570345346,-264.18963462176237,-35.10786931546569,14.018767155476601,248.2439685598633,268.908865526346
503,-1.9636012635893967,-183.66631281198693,-167.60549502604832,-259.1257013625444,-37.49338929352776,9.03683606487172,248.64721732284522,264.47315906127585
504,-2.0608017311763507,-183.76571088577214,-168.0959786038129,-253.83571091585722,-40.12451568757551,4.159408448417976,249.05846300780541,260.0078761272966
505,-2.1563457672506523,-183.84793505946968,-168.6105379946174,-248.34468331932922,-42.9983535044305,-0.5938233154010958,249.47454907170555,255.53625400997367
506,-2.2501188146181437,-183.90912065659097,-169.1482973265779,-242.6808938743185,-46.10650113471042,-5.2040516758533455,249.89201225778547,251.08144690158935
507,-2.342054814259769,-183.9457464014456,-169.70763509953215,-236.87504318684384,-49.435239901451624,-9.653290473606054,250.30712743745838,246.66572058286908
508,-2.432122215801871,-183.954695316656,-170.28618762357107,-230.95941486173805,-52.96587174313223,-13.924297133634598,250.71595291323317,242.30971337823135
509,-2.5203068919349154,-183.93330509275782,-170.88086474913877,-224.96704710272124,-56.67518288659463,-18.000494392898023,251.11437649042495,238.0317902954617
510,-2.6065928614493616,-183.8794084434817,-171.48787970391518,-218.9309388071485,-60.53600995639174,-21.865906772235704,251.49816402405145,233.8475100033345
511,-2.6909417489760767,-183.79136436497845,-172.10279563031528,-212.88330502889556,-64.517883921053,-25.505127722162303,251.86301296972732,229.76921683733752
512,-2.7732720550273684,-183.66808109260634,-172.72059150085792,-206.85489155633266,-68.58772612188636,-28.903333138492844,252.2046134277756,225.80576288731325
513,-2.8534395267278243,-183.50903111961813,-173.33574938863248,-200.87435401574066,-72.71056938130772,-32.046355241907904,252.5187183721445,221.96235859870856
514,-2.9312200685966974,-183.31425820281677,-173.9423636911378,-194.96770330260176,-76.85027636349882,-34.92082721265918,252.8012234856603,218.24054429432593
515,-3.0062966322161255,-183.08437595110408,-174.534271117422,-189.15781618199364,-80.97022783867915,-37.51440333772406,253.04825555112214,214.63826983133785
516,-3.0782513611289852,-182.82055738247377,-175.105198392762,-183.46400764018838,-85.03395618417514,-39.81605215955465,253.25626691202731,211.15006571876984
517,-3.1465639643074734,-182.52451478315947,-175.64892299729905,-177.90166029130128,-89.0057048231676,-41.81641218474237,253.4221323396741,207.76728704711542
518,-3.210616913715148,-182.19846936526696,-176.15944106065723,-172.48190634130006,-92.85090209175127,-43.508192328030006,253.54324392029162,204.4784120762785
519,-3.2697077512078168,-181.84511056811007,-176.63113598496037,-167.21135978750934,-96.5365471976366,-44.886593450053326,253.61759942730194,201.26938049770482
520,-3.3230687015721525,-181.46754525638386,-177.05894149967827,-162.09190080751645,-100.03151495314124,-45.94972378232596,253.64388000630166,198.12396183546213
521,-3.369893907102459,-181.0692374103151,-177.4384933879982,-157.12052010841828,-103.30679329036572,-46.698980071482474,253.6215135951424,195.0241511277439
522,-3.409374701203631,-180.65393915041946,-177.76626467058728,-152.28923713463206,-106.3356722026362,-47.139367850959054,253.5507210330793,191.95059548539928
523,-3.440743224327323,-180.22561413939664,-178.03967943237257,-147.5851109127881,-109.09390455089797,-47.27973792126655,253.43254220593457,188.8830599653669
524,-3.4633243307770734,-179.78835461062914,-178.25720085209295,-142.99036457603822,-111.55985862318842,-47.1329213023294,253.26883995334217,185.800943472247
525,-3.4765951464347995,-179.3462935577129,-178.41838949468712,-138.48264351025827,-113.71468008525574,-46.715751032273246,253.0622799876913,182.6838547350461
526,-3.48025078121949,-178.9035140711897,-178.52392865317913,-134.035422629643,-115.5424774456839,-46.04896568503278,252.81628587688076,179.51225493913276
527,-3.474273686557257,-178.46395840553862,-178.57561459979362,-129.6185711309058,-117.03054060269581,-45.15699592235412,252.53496929586194,176.26816782988507
528,-3.4590032661182653,-178.0313398870286,-178.5763110933264,-125.19907400053006,-118.16959662186756,-44.06764147877704,252.2230371547051,172.93595068785433
529,-3.4352017584774264,-177.60906096223914,-178.52986929437222,-120.74189931007103,-118.95410081872195,-42.81165142167067,251.88567860831444,169.50311108381763
530,-3.4041119753961215,-177.20014039988777,-178.44101614250656,-116.21098970373302,-119.38255468761248,-41.422224912825804,251.52843609288337,165.9611452581393
531,-3.367502068655894,-176.80715193514322,-178.3152160004723,-111.57034643024569,-119.45783545967136,-39.934452477106674,251.15706526640201,162.30636493978102
532,-3.327692303546638,-176.43217567764464,-178.15851174729204,-106.7851658913104,-119.18751550499631,-38.38471855214682,250.77738903150615,158.5406713072299
533,-3.2875591429925444,-176.0767626840832,-177.97735234582186,-101.82298286045149,-118.58414415911672,-36.81008488641873,250.39515078198949,154.67222871254842
534,-3.2505128189898786,-175.74191247614667,-177.7784141450327,-96.6547716809047,-117.6654607931607,-35.24767169914768,250.01587176269345,150.7159878031715
535,-3.2204457597929985,-175.42806302087857,-177.56842285669538,-91.25595688772046,-116.45450679582534,-33.73405019729463,249.6447170414553,146.69400846204815
536,-3.201650600042952,-175.13509264841852,-177.3539824538594,-85.6072877916574,-114.97960579812722,-32.3046567859088,249.28637409732605,142.63553777425517
537,-3.1987080855865995,-174.86233340878834,-177.14141634117516,-79.69553779974297,-113.27418568542839,-30.993236627178373,248.9449474457384,138.5768069800923
538,-3.216347071752766,-174.60859544261123,-176.93662508377076,-73.51399880858756,-111.3764222908735,-29.831322422844227,248.62387206340247,134.56052387788014
539,-3.2592808886959177,-174.37220211893043,-176.74496378276794,-67.06275353500253,-109.32869286530723,-28.847753518492386,248.3258477035088,130.63505287553903
540,-3.3320263466840068,-174.15103591156233,-176.57114100645495,-60.34872295114043,-107.1768373374357,-28.06824050333393,248.0527955622939,126.85329287419566
541,-3.438713324593308,-173.94259501400265,-176.41914019387934,-53.385500247090306,-104.96923673158139,-27.514981082134753,247.80583812056906,123.27128191374207
542,-3.5828940420064708,-173.74406038498844,-176.29216363944772,-46.19299507059563,-102.75573015140861,-27.20633378757203,247.5853022264568,119.94657521439883
543,-3.767361643759265,-173.5523723749526,-176.19259842645624,-38.796920812628336,-100.58640336773878,-27.1565567887714,247.39074459366353,116.93645824110958
544,-3.9939875894373835,-173.36431552739353,-176.1220029772666,-31.228162776592992,-98.51029226471047,-27.375619366727772,247.22099799936788,114.29606762852691
545,-4.263586575186375,-173.17660973438083,-176.0811123393766,-23.522066132301223,-96.57405252681232,-27.869093313708426,247.07423577081522,112.07649981526453
546,-4.5758164133966055,-172.98600566310287,-176.06986008711243,-15.717679880285461,-94.82065248113003,-28.638130370552492,246.94805177527573,110.32298996456011
547,-4.929118588240651,-172.78938211376752,-176.0874148972928,-7.856987142070159,-93.28814840867938,-29.679529779459592,246.83955305284672,109.07324218222699
548,-5.320703227784659,-172.58384253885083,-176.13223038891854,0.015856185270280102,-92.00860039629619,-30.985897223002322,246.74546228423046,108.35598622521924
549,-5.746580110534663,-172.36680734656366,-176.20210740233884,7.85526170774928,-91.00718165294612,-32.54589308243261,246.6622272485425,108.18982602850217
550,-6.201635184446826,-172.13609804782442,-176.29426816977974,15.614923869958819,-90.30152535496146,-34.34456429118741,246.58613419311033,108.58243191476595
551,-6.679750038549841,-171.89000905016977,-176.40544162262307,23.248513287971775,-89.90134122300684,-36.363750214331795,246.51342166845578,109.53011202318521
552,-7.173959873350758,-171.62736305575976,-176.53195849028847,30.710354665435222,-89.80832021453521,-38.582549119553846,246.44039101900555,111.01778025939645
553,-7.676643752146548,-171.3475465130558,-176.66985410462928,37.95609575127186,-90.01633101610064,-40.97782824992986,246.3635094813527,113.0193189895011
554,-8.179739376596903,-171.05052233425334,-176.81497609640542,44.943370085011445,-90.51189740612082,-43.52475770562858,246.27950180069257,115.49831586328762
555,-8.674973571521553,-170.73681814050715,-176.96309354529802,51.63245004709199,-91.27493195167021,-46.19734667259747,246.18542651562274,118.40913668818567
556,-9.15409928611059,-170.40748962423623,-177.11000378567928,57.986879683036996,-92.2796897406381,-48.968960224016016,246.0787336964495,121.69828130531876
557,-9.6091301832246,-170.06406012997758,-177.25163316701665,63.97407061522785,-93.49589642293645,-51.812796065374954,245.95730202284525,125.30595781471342
558,-10.032564587601062,-169.70843916003145,-177.38412860590597,69.56584022518348,-94.88999776943815,-54.70230319125889,245.81945457550745,129.16780268569443
559,-10.417591465025518,-169.34282411745008,-177.5039375273158,74.7388695898128,-96.42647311360993,-57.61152828434543,245.6639543715506,133.2166703300841
560,-10.75827203427413,-168.96959102260854,-177.60787463037678,79.4750593556491,-98.06915246439391,-60.515380427235044,245.48998226237043,137.38441554126615
561,-11.049691514552158,-168.59118089734233,-177.6931748558951,83.76176466471091,-99.78247701515733,-63.3898098745972,245.29710115974368,141.603595734979
562,-11.28807642579936,-168.20998876112264,-177.75753291580438,87.59189517032327,-101.53264543730755,-66.21190192759987,245.0852114499506,145.80902702633676
563,-11.47087384738391,-167.82826170417297,-177.7991304498236,90.96387275195124,-103.28859381017695,-68.95989216559433,244.85450265119513,149.93913855392495
564,-11.59679015695912,-167.44801151496486,-177.81665198514418,93.8814472477045,-105.02276528286491,-71.61311419211349,244.60540579327716,153.9370826482677
565,-11.665788089680449,-167.07094612284973,-177.80929042289725,96.35337871617814,-106.71163646447938,-74.15189531701894,244.3385498715138,157.75157376702361
566,-11.679042526069088,-166.6984227924802,-177.77674213907898,98.39300267458646,-108.33598071673633,-76.5574189063347,244.05472441369525,161.3374456908015
567,-11.63885716083917,-166.33142456219218,-177.71919138510702,100.01770170610298,-109.88086319653343,-78.81157429561131,243.75484899152414,164.6559331780148
568,-11.548545925161298,-165.9705599268059,-177.63728369269626,101.24831217372129,-111.33537747010924,-80.89681611535104,243.43994958044183,167.6746998197506
569,-11.412284531328833,-165.61608444754188,-177.53208838253477,102.10849810413843,-112.69214745902725,-82.79605457405427,243.11114112573523,170.36764693818668
570,-11.234938699177295,-165.2679419912183,-177.40505091726163,102.62412535355703,-113.94663041511745,-84.49259657238203,242.76961551864323,172.71454809758964
571,-11.021876511450566,-164.92582263651374,-177.2579365900282,102.82266775736157,-115.09626620979026,-85.97015433888734,242.41663431056423,174.70055971336907
572,-10.778772925625965,-164.58923383899844,-177.09276773138816,102.7326730813976,-116.13952546611974,-87.21293359275441,242.0535257074887,176.3156603402538
573,-10.5114147463134,-164.2575811356054,-176.9117570858294,102.383310572989,-117.07491391166216,-88.20580737656415,241.68168551521006,177.5540697734781
574,-10.225514394680467,-163.9302544144046,-176.71724018945127,101.80401443456745,-117.8999925280946,-88.93457530222113,241.3025816508842,178.4136945648415
575,-9.92654060835233,-163.6067155526759,-176.51160951048294,101.02422939032645,-118.61047226213789,-89.38630175607693,240.91776161214682,178.8956394571038
576,-9.619573620677254,-163.28658313339082,-176.29725289251894,100.07325640006616,-119.19943811167569,-89.54972111088289,240.5288620361645,179.0038151507712
577,-9.309191228787132,-162.96971011204067,-176.0764985828295,98.98018915718538,-119.65675071015018,-89.41569325539464,240.13761935307488,178.74466247721745
578,-8.999390465233011,-162.65625071326747,-175.85156886645075,97.7739259075735,-119.96866485142851,-88.97768861573975,239.7458805601656,178.12700232794273
579,-8.693547519832535,-162.34671335454368,-175.6245439474075,96.48323681300884,-120.11769426214512,-88.23227831412785,239.3556131475148,177.16201032135103
580,-8.39441633187658,-162.04199691780065,-175.39733709515323,95.13686473743181,-120.08274042868922,-87.17960248930636,238.96891303721776,175.86330559936607
581,-8.104164035223228,-161.7434082740168,-175.1716812434336,93.76363678701073,-119.83949047981592,-85.8237884683187,238.58800912505754,174.24713453396544
582,-7.82443931664957,-161.4526597826112,-174.94912640239087,92.39256476872627,-119.36107551397994,-84.17329069264187,238.21526291049278,172.33262269483114
583,-7.556467917971704,-161.17184661784682,-174.73104670039663,91.0529144948362,-118.61896725048395,-82.24112621054005,237.85316202853588,170.14206251354366
584,-7.3011681374189115,-160.90340506623394,-174.51865579247385,89.7742262050269,-117.58407843049818,-80.04498324367947,237.5043072867146,167.70120005884513
585,-7.05927832275259,-160.65005411296184,-174.31302965222795,88.5862710773935,-116.2280217529564,-77.60718582486768,237.171393794763,165.03948251110663
586,-6.83148800414698,-160.41472347368813,-174.115136006911,87.51893174085079,-114.5244737967119,-74.9545045942775,236.85718751700236,162.19022841405916
587,-6.618564503717046,-160.20047166636067,-173.92586954190207,86.60199791002651,-112.45058460677076,-72.11781207435642,236.56449878959205,159.19068550917868
588,-6.421467521621939,-160.0103978470454,-173.74609153062568,85.86487185738018,-109.98837049245383,-69.13158941584268,236.29615411633623,156.08194567729595
589,-6.241445189555677,-159.8475510821587,-173.57667203355524,85.33618248356552,-107.12602713531348,-66.03329985747511,236.05496718503568,152.90869286555986
590,-6.080106304563006,-159.71484050788368,-173.41853246305436,85.04331116813218,-103.8591024214864,-62.86265107221119,235.84370968818487,149.71876749285792
591,-5.939464887625326,-159.61494937199276,-173.27268610113597,85.0118372116349,-100.19147364639898,-59.66077342385024,235.66508212343678,146.56253945573755
592,-5.8219547977080905,-159.55025531064874,-173.14027395018996,85.26491536721433,-96.13608199363037,-56.469343509715685,235.5216842221701,143.49209143490882
593,-5.7304137471590755,-159.52275858180855,-173.02259304573812,85.8226025928208,-91.71538830173715,-53.32968228831148,235.41598410454293,140.56022469771492
594,-5.668037546760103,-159.53401955829395,-172.92111414198925,86.70115558742687,-86.96152746778385,-50.28185517021336,235.35028487205946,137.81931073656165
595,-5.638306625300448,-159.58510664317188,-172.83748564672965,87.91232468460458,-81.91615328629828,-47.36379861590673,235.3266872731379,135.32002323827214
596,-5.644887780956671,-159.67655585347654,-172.7735210534429,89.4626730644794,-76.62997973451166,-44.61049500642082,235.3470474375959,133.10999517221777
597,-5.691514762799378,-159.80834352186466,-172.73116806946524,91.35295293523926,-71.16203737770783,-42.05321558513646,235.41292953293856,131.23245436868092
598,-5.781851684937672,-159.97987373527752,-172.71245907202228,93.57757230600973,-65.57867362972333,-39.71885050362798,235.52555437611255,129.72489714869866
599,-5.919343492607789,-160.18998206482271,-172.71944408942358,96.12418706529523,-59.95233242922464,-37.62934531797799,235.6857461484435,128.61786280446935
600,-6.1070578535654105,-160.43695668705578,-172.7541088668286,98.97345290571063,-54.36015238304538,-35.80126393986185,235.89388006007428,127.93387152902704
601,-6.3475231186785654,-160.7185771224628,-172.81828154709663,102.09896967620844,-48.88242302763503,-34.24549790507864,236.14983393799014,127.68658441565252
602,-6.6425674869480575,-161.03216962225852,-172.9135320080337,105.46744652956532,-43.600937419305886,-32.967139780416915,236.4529462869411,127.88023634968626
603,-6.9931651428606365,-161.37467695992936,-173.04106803239793,109.03910948931816,-38.597276816454986,-31.965533926437043,236.80198261695375,128.50938132788968
604,-7.399295715603527,-161.7427393908889,-173.20163248028095,112.76836377972762,-33.95106074911754,-31.234510668211676,237.19511115615163,129.55897562241313
605,-7.859823822007438,-162.13278315046952,-173.39540568735276,116.60471174057255,-29.738194051876267,-30.76280089412945,237.62988883474353,131.0048081312907
606,-8.372405710274675,-162.5411131289308,-173.6219174580491,120.49391392352564,-26.029141940457954,-30.534618357664296,238.10325870059117,132.81427014519835
607,-8.93343011669133,-162.96400706802402,-173.87997313771234,124.37936668828972,-22.887265116007104,-30.530387687155603,238.6115604673913,134.94743942798027
608,-9.538000201673926,-163.39780941735512,-174.16759812397476,128.2036550188931,-20.367249036028273,-30.727588254696606,239.15055631020593,137.3584366808797
609,-10.179962500800546,-163.83902356477685,-174.48200466908472,131.9102253401748,-18.51366435045397,-31.10167828065235,239.71547398863382,139.99699697234902
610,-10.851986935674592,-164.28440131951126,-174.81958400767067,135.44511119752985,-17.35969809206386,-31.62706025491197,240.3010688142037,142.81018570962675
611,-11.545699122609614,-164.73102821526177,-175.1759259322155,138.758636403452,-16.926096309436,-32.27804796977059,240.90170499839473,145.7441796097235
612,-12.251862859481914,-165.17640253416462,-175.5458670219981,141.80701718517005,-17.22035736088763,-33.029796745106665,241.51145567503696,148.74602926657798
613,-12.960607242101258,-165.61850523284284,-175.92356771382114,144.55378804476803,-18.236210502344832,-33.85916101740025,242.12421952837218,151.76532229225415
614,-13.661689806441553,-166.05585748941124,-176.30261720834588,146.97098580640707,-19.953406806828774,-34.74544664228264,242.73385064153223,154.75567496538858
615,-14.344784761866924,-166.48756254926118,-176.67616392906362,149.0400421582632,-22.33783949434529,-35.6710287057844,243.33429710318356,157.67599535184712
616,-14.999783915814787,-166.9133289575599,-177.03706805182932,150.7523554468443,-25.341999419230344,-36.621809496177654,243.9197432210805,160.49148054344914
617,-15.617097203107404,-167.3334730359337,-177.37807159589624,152.10953522150314,-28.90575984783542,-37.58749598536741,244.484749903637,163.17433270845103
618,-16.187939739232643,-167.74889935878275,-177.6919807475015,153.12333516349014,-32.95747367977565,-38.56168218403281,245.02438776095596,165.7042002652479
619,-16.704593130706275,-168.16105880693718,-177.97185444553259,153.81530862980406,-37.415356519258,-39.54172936113772,245.5343576020295,168.06836889500937
620,-17.160630488349305,-168.57188456171818,-178.21119270478601,154.21623374495005,-42.18912083595895,-40.528446240616105,246.0110932372018,170.26174009454954
621,-17.55109694700173,-168.98370731913636,-178.40411766826483,154.36536058000777,-47.18182006721317,-41.52558129546637,246.45184192036092,172.28664137328798
622,-17.87264001305061,-169.39915205940562,-178.54554011726563,154.30953162478548,-52.29185690586983,-42.53914922616748,246.85471846157554,174.15251204799682
623,-18.123586419108342,-169.8210197359039,-178.63130432332332,154.10221972467596,-57.41510688518263,-43.5766227584792,247.21873001153395,175.87550287088732
624,-18.303964342844996,-170.2521581254163,-178.65830478657574,153.80251678305956,-62.4471062025179,-44.646028459451244,247.54376974059898,177.47801801181743
625,-18.41547193617356,-170.69532681041332,-178.6245695688416,153.47409403278562,-67.2852511364714,-45.75499106689672,247.8305791161581,178.9882161573091
626,-18.461395131167286,-171.15306188255386,-178.52930654508165,153.18414294052792,-71.83095541247971,-46.909774660081396,248.08068021246146,180.43947589293853
627,-18.446479541111067,-171.62754642385903,-178.3729107755093,153.00229704722926,-75.9917117717985,-48.114370635008065,248.29628129332167,181.86982124545776
628,-18.376762795049466,-172.12049296976375,-178.15693302414505,152.9995308273301,-79.68300513616659,-49.36968163022108,248.4801604289304,183.32129786991027
629,-18.25937473970052,-172.63304374951235,-177.88401099177244,153.24703246276394,-82.83002735725759,-50.67284707572011,248.63553280926448,184.83928952778274
630,-18.10231365107181,-173.16569340218416,-177.55776612362055,153.81505259850846,-85.36914777765682,-52.01674985513473,248.7659076351633,186.4717678552806
631,-17.91420693462571,-173.7182372235362,-177.18267007476757,154.77173907779155,-87.24909990953036,-53.38973487704239,248.8749402357471,188.26847482313644
632,-17.704064662828426,-174.2897461931414,-176.76388613984955,156.18197632317708,-88.43185255511025,-54.775559657371645,248.9662846832813,190.28004519085601
633,-17.481033689110856,-174.87856844146395,-176.30709204470935,158.10625551708873,-88.89314347812869,-56.15358511871489,249.0434518114232,192.55708408765884
634,-17.25415919078161,-175.48235560744692,-175.8182912919255,160.59960661485772,-88.62266483624387,-57.49920264388402,249.10967719596718,195.1492213191386
635,-17.032159569959994,-176.09811167075833,-175.3036207163496,163.7106246993062,-87.6239013822249,-58.784481792225506,249.1678032974058,198.10416822059813
636,-16.823219749736513,-176.72226123415723,-174.76916207184559,167.48062103007254,-85.91363424146161,-59.97901245996942,249.22017956698863,201.4668043204426
637,-16.634807003257507,-177.35073387424143,-174.2207652975729,171.94292362240242,-83.52113415276985,-61.05090572410446,249.26858385595744,205.27831949492113
638,-16.473512591993558,-177.97906112071092,-173.66389049565083,177.1223441390413,-80.48707778679353,-61.9679091236998,249.31416790875318,209.57543289962953
639,-16.34492179103173,-178.6024828256087,-173.10347453688578,183.03481870483262,-76.86222879754067,-62.69858493736105,249.3574290096418,214.38970366980507
640,-16.253514346534455,-179.21605995781783,-172.54382667562723,189.6872216262518,-72.70593163977313,-63.21349477972947,249.39820891198428,219.74694170266122
641,-16.202596871273613,-179.81479101010646,-171.98855576751643,197.07734426553688,-68.08447101695853,-63.48633152104326,249.43571997995073,225.6667213012756
642,-16.19426797545785,-180.393729193697,-171.4405298234485,205.19402709460374,-63.0693530033613,-63.49494106707544,249.46859709925988,232.16199704529384
643,-16.22941603559802,-180.94809748537264,-170.90186689680633,214.0174311236987,-57.735565037297974,-63.22218251128162,249.49497255131806,239.2388202181864
644,-16.30774849716753,-181.47339844565838,-170.3739549008677,223.5194348865996,-52.15987067829183,-62.65658552703954,249.51256988820376,246.89615513126205
645,-16.427850532852517,-181.96551563309657,-169.85749695703834,233.6641441827668,-46.41919095525191,-61.79277771778316,249.5188120069425,255.12579694685073
646,-16.587269773171094,-182.42080356543661,-169.35257813258357,244.4085030267703,-40.58911723946467,-60.63167037841566,249.51093811980107,263.91239503073695
647,-16.78262286557489,-182.83616365057924,-168.8587488030926,255.70299511866816,-34.74259112170371,-59.18040677854717,249.48612416309305,273.233587397366
648,-17.009719095072317,-183.2091042935403,-168.37511943834159,267.4924253258992,-28.948775419299366,-57.452090755803994,249.44160141916478,283.0602517375583
649,-17.263696336937308,-183.53778431622922,-167.90046148154673,279.7167701036512,-23.272128192685265,-55.46532362609435,249.37476871310218,293.35687656010003
650,-17.539165011738277,-183.82103970619573,-167.43330916706833,292.3120844753015,-17.771679694478653,-53.243583397980125,249.28329432489903,304.082052188103
651,-17.8303561656534,-184.05839437687703,-166.9720575360825,305.21145117627003,-12.500501683823831,-50.814482089037455,249.16520454680733,315.1890760634499
652,-18.13127015034877,-184.2500560027065,-166.5150525127605,318.34595509624114,-7.50535054881355,-48.208935451016536,249.01895651722802,326.62666073251495
653,-18.43582266522662,-184.39689813211146,-166.06066961526054,331.64566385242944,-2.8264609429865577,-45.46027601443939,248.84349355832074,338.3397270707655
654,-18.73798525009421,-184.50042983662198,-165.60737864352237,345.04059395544533,1.5025345497947122,-42.60333657966894,248.63828182013415,350.2702608575035
655,-19.031917707748285,-184.56275432900216,-165.1537925940991,358.46164214526027,5.454582169470926,-39.67352835159872,248.40332779748562,362.3582084799733
656,-19.312090319333812,-184.58651837836805,-164.69870021132064,371.84146322652884,9.009098262222567,-36.70593648592206,248.13917737951263,374.54238750754945
657,-19.573393980308918,-184.5748548483757,-164.24108291786638,385.11527888419465,12.151787912807928,-33.7344557705382,247.84689837016774,386.76138979649926
658,-19.81123650135197,-184.53132101630788,-163.78011815656095,398.22160603117266,14.874398920956668,-30.79098973855452,247.52804953320873,398.9544580257782
659,-20.021623380824238,-184.4598352598825,-163.3151722791142,411.10289769842143,17.174415851031753,-27.90473662910054,247.18463990784625,411.0623204625026
660,-20.201221492118766,-184.36461415236198,-162.84578698411244,423.70609387924947,19.054697741283913,-25.101584282272643,246.819082333465,423.027972808572
661,-20.34740440617574,-184.25011109097403,-162.37166376303136,435.9830836946329,20.52306397914482,-22.403632644272545,246.43414478105777,434.797399798839
662,-20.458278493772035,-184.12095655055327,-161.89265059268794,447.89108331291226,21.591835233194217,-19.828856992401015,246.032902223048,446.320232384367
663,-20.532689516334052,-183.98189924968665,-161.40873415205257,459.39293575487403,22.277339267850753,-17.39091782514241,245.61869059772732,457.55033836121544
664,-20.570210101350376,-183.83774723931128,-160.92003936309794,470.4573387037977,22.59939401910468,-15.09911573006388,245.1950633131289,468.4463448240825
665,-20.57110926977564,-183.6933082235514,-160.4268363481126,481.05900475069905,22.58078175501072,-12.958482832747695,244.76574991644716,478.9720898182231
666,-20.536305999632145,-183.55332902688443,-159.92955316456633,491.17875565734414,22.24672808324013,-10.96999774673691,244.3346159561194,489.0969985080463
667,-20.46730964017049,-183.42243462207458,-159.42879109129657,500.80354912397144,21.624397966228663,-9.130908629087992,243.90562248240082,498.79637695217326
668,-20.36615070384105,-183.3050673226211,-158.9253380219625,509.9264342507512,20.742418118964725,-7.435148496190636,243.48278304703106,508.0516151863303
669,-20.235305881076947,-183.20542676905308,-158.42017495173795,518.5464312721774,19.63043189377126,-5.873827326953257,243.0701157424446,516.8502916258968
670,-20.077620846777723,-183.12741149595283,-157.91447084187047,526.6683326778236,18.318689842836474,-4.435785569872749,242.6715881176464,525.1861732398183
671,-19.896233701096165,-183.07456329993758,-157.40956239474232,534.3024263495312,16.837677276316395,-3.1081927403731795,242.29105389626068,533.0591103419277
672,-19.694501087647794,-183.05001622110495,-156.90691735998533,541.4641461434609,15.217779569753386,-1.877172690598645,241.93218217497244,540.4748304866866
673,-19.475928412017932,-183.0564524036535,-156.408082537907,548.1736605045362,13.488986479003975,-0.7284342649998422,241.59838174361965,547.4446419074981
674,-19.244105148022626,-183.0960671484592,-155.91462005990132,554.455414372994,11.680637644854952,0.3521167484937049,241.29272475277727,553.9850623196614
675,-19.002645893537853,-183.17054508727145,-155.42803729113672,560.3376431488584,9.821212014318988,1.3778101845856985,241.0178747968058,560.1173930164514
676,-18.75513754555834,-183.28104880959427,-154.94971657636688,565.85187926339,7.938163449593096,2.360714150542812,240.776024577452,565.8672604466238
677,-18.505092589629697,-183.42822071268213,-154.48085101903754,571.0324714866132,6.057803149020482,3.3112306226378925,240.56884784045332,571.2641474074561
678,-18.255908008628786,-183.6121984087141,-154.0223916376882,575.9161341568113,4.205226946161152,4.2378017237942975,240.39746936108367,576.3409333234331
679,-18.01082889031409,-183.83264356275706,-153.5750097442783,580.5415381109156,2.40428261656203,5.146737386513543,240.26245540280556,581.1334578816893
680,-17.77291566197192,-184.08878333261748,-153.13907651311624,584.9489478222979,0.6775695315073542,6.042167030617859,240.16382531504874,585.6801151564267
681,-17.54501398571007,-184.37946262642822,-152.71465986666186,589.1799011784782,-0.9535391977113066,6.926109743852091,240.1010830246893,590.0214773251734
682,-17.329726517885618,-184.70320446208888,-152.301537423053,593.2769207413947,-2.4688631154932614,7.798650114353737,240.0732655803588,594.1999394353886
683,-17.12938582507565,-185.05827515592824,-151.89922354207718,597.2832394527866,-3.8493802076036947,8.65820093539417,240.07900502295067,598.259370651251
684,-16.94602776017735,-185.44275103772455,-151.5070083333281,601.2425204636843,-5.077201338404708,9.501829837852053,240.1165997090195,602.2447539051533
685,-16.781364680635395,-185.85458375780502,-151.12400650085524,605.1985504169396,-6.135559893580831,10.325624739260228,240.18409149649645,606.2017952637676
686,-16.636758209887322,-186.2916617773761,-150.74921380303277,609.1948878627417,-7.0088198725815865,11.125073007097887,240.27934555809355,610.1764863948384
687,-16.513191813561466,-186.75186616836186,-150.38156862999816,613.2744529167304,-7.682502383197995,11.8954313927666,240.40012985691428,614.2146076940035
688,-16.41124411704496,-187.23311936515634,-150.02001584019203,617.479049995605,-8.143327870017504,12.632067670609407,240.54419152566388,618.3611651341656
689,-16.33106448990796,-187.73342599901426,-149.66356967836478,621.8488216910591,-8.379270012524906,13.33075967477516,240.70932759587527,622.6597599383192
690,-16.272352950549752,-188.25090539533252,-149.31137238453894,626.4216378450868,-8.379617288549856,13.987942118236191,240.8934477576964,627.1518960151535
691,-16.23434690385072,-188.78381571019725,-148.96274502504107,631.2324291294424,-8.135039487616268,14.600895583795971,241.09462710218094,631.8762351870256
692,-16.2158175163294,-189.3305699613939,-148.61722719087135,636.3124786994636,-7.6376583733030605,15.167875331023925,241.31114708966982,636.8678143707521
693,-16.215078450578034,-189.8897443280551,-148.27460258698463,641.6886889190221,-6.881123502796931,15.68818037416179,241.54152330153144,642.1572421783846
694,-16.230009055231605,-190.46007915612267,-147.93490816359957,647.3828430183654,-5.860695333950797,16.16216596533879,241.78451892938287,647.7698951705854
695,-16.25809302498703,-191.0404732889954,-147.598425199729,653.4108840576317,-4.573337926788556,16.591205257756087,242.0391434990873,653.7251364281341
696,-16.29647234153924,-191.6299727242137,-147.26565152366652,659.7822358114977,-3.017822853063561,16.97760840785063,242.3046370211596,660.0355812920991
697,-16.342015271517518,-192.22775512448806,-146.93725479394416,666.4991921919726,-1.1948446687613983,17.324509460497854,242.58044054797722,666.7064370837697
698,-16.391396386178776,-192.83311219802587,-146.61400750436897,673.5564035560283,0.8928531382692643,17.635732724132282,242.86615488353908,673.7349453137585
699,-16.441185918983063,-193.4454321210388,-146.29670526699707,680.9404894996902,3.2403441252791296,17.91565064070309,243.1614897976683,681.1099561141737
700,-16.487945296294484,-194.06418383471126,-145.98607110862275,688.6298080242999,5.840380203088436,18.169044151231777,243.46620649911102,688.8116648759475
701,-16.528325412205614,-194.68890435528155,-145.68264991868665,696.5944095268482,8.683252338440498,18.400974241005173,243.78005639568758,696.8115395967951
702,-16.55916411795208,-195.31918949690237,-145.38669852930315,704.7962001976924,11.756655051361363,18.61666999287889,244.10271938073885,705.0724635295265
703,-16.57757929309257,-195.95468779511077,-145.0980779065657,713.1893328015226,15.045559244144785,18.821434628717615,244.43374498438695,713.5491110671508
704,-16.581053672372988,-196.5950969315954,-144.8161544102769,721.7208338184608,18.53209805599329,19.02056739552219,244.77249960389918,722.1885657677747
705,-16.567507472910123,-197.2401615888738,-144.5397169502653,730.331465471594,22.195470938276227,19.2192964614546,245.1181226358923,730.9311789645382
706,-16.535355084168074,-197.88967148678907,-144.2669161420714,738.9568104679317,26.01187229255102,19.42271672546704,245.46949377034375,739.7116567455338
707,-16.483542779287767,-198.5434584930631,-143.9952303228593,747.528557376521,29.954452932863852,19.63572676829278,245.82521313404672,748.4603532840355
708,-16.41156544924748,-199.20139219684296,-143.7214615761986,755.9759560742492,33.9933251548886,19.86296086647408,246.18359544628035,757.1047401603402
709,-16.319461536528607,-199.86337405595427,-143.44176279774513,764.2274057981439,38.09562479686283,20.108714504604254,246.5426787919901,765.5710146026291
710,-16.207786566519992,-200.52933093382174,-143.15169460166098,772.2121330074167,42.22564553913709,20.37686437667206,246.90024799118956,773.7858043819426
711,-16.07756695738015,-201.19920933481754,-142.84630899805398,779.8619123603684,46.34506090006583,20.670785699368146,247.2538719621664,781.6779232423697
712,-15.930237066291642,-201.87297184168256,-142.5202555969778,787.1127815564336,50.41324730140344,20.993270296628005,247.6009540549995,789.1801280948723
713,-15.76756351214515,-202.5505971290768,-142.1679055979377,793.9066996085162,54.387717133746456,21.346448320757236,247.93879402516234,796.2308277728538
714,-15.591561544030933,-203.23208446438701,-141.78348878134813,800.1930984876128,58.22466452380298,21.731715027124608,248.26465997766746,802.7756931607986
715,-15.404408596553,-203.91746282535823,-141.36123891070707,805.9302802805761,61.87961943575329,22.14966237977536,248.5758681271864,808.7691202731463
716,-15.208360247699122,-204.6068037654872,-140.89554321118493,811.086616176706,65.3081987759665,22.600014181916972,248.8698675797261,814.1755015885419
717,-15.005673553464195,-205.3002362235501,-140.38109176433784,815.6415097071138,68.46693700463985,23.08156347846994,249.14432669003006,818.9702666426372
718,-14.798542105530059,-205.99796096522886,-139.81302268676532,819.5860944944633,71.31417371093882,23.592112375278678,249.3972171382052,823.1406603752552
719,-14.589046155582169,-206.7002624185565,-139.1870589334723,822.9236460104239,73.81097163955046,24.128416898934926,249.62689187743695,826.6862366991427
720,-14.379119881617942,-207.40751618977956,-138.49963266557597,825.6696970348904,75.92203553912428,24.686142368530323,249.83215353583,829.6190547364296
721,-14.170536468450004,-208.1201912881149,-137.74799348277293,827.8518570112221,77.61659980971604,25.259836967010155,250.01231060365748,831.9635754763665
722,-13.964910255995537,-208.83884684051114,-136.9302974165331,829.5093454301788,78.8692514102143,25.842931859100943,250.16721962454795,833.7562663781367
723,-13.763713900924285,-209.56412371993824,-136.04567419783933,830.6922578603663,79.66065425079486,26.427774879191603,250.2973124233726,835.0449298231628
724,-13.56830745310846,-210.29673205868056,-135.09427078347713,831.4605897190012,79.97814285133187,27.005701795727234,250.40360807019567,835.8877778291069
725,-13.379975613346224,-211.0374361122077,-134.07726960814452,831.8830474090199,79.8161568378214,27.56714530702044,250.48770992559776,836.3522802183588
726,-13.199969232560143,-211.78703827854594,-132.99688084048307,832.0356796280539,79.17649404095596,28.101778277323263,250.55178882530993,836.5138171305786
727,-13.029547171568261,-212.54636411295917,-131.85630903137763,832.0003641644686,78.06836827494112,28.598685104033294,250.59855409049626,836.4541700588783
728,-12.870014763729982,-213.31624992011166,-130.6596955681293,831.8631877122194,76.50826757970644,29.04655388058259,250.63121438035574,836.2598887755919
729,-12.72275527966316,-214.09753410867557,-129.41203902127376,831.71275811507,74.51961880624926,29.43388207656487,250.65343041467654,836.02057442917
730,-12.589251141108146,-214.89105306065505,-128.11909580510456,831.638489637909,72.13227391267799,29.74918937752584,250.66926139075204,835.8271212510241
731,-12.47109233404594,-215.6976417796621,-126.78726362896555,831.7289018890142,69.38184140817694,29.981232606361683,250.6831065318552,835.7699601300807
732,-12.369970504623213,-216.51813901882738,-125.42345003255679,832.0699714883243,66.30889248009227,30.11921890316627,250.69964263925007,835.9373463299872
733,-12.287658333360824,-217.35339607077844,-124.03492801302704,832.7435723167378,62.95807518020632,30.15301441239991,250.723757939183,836.41373063926
734,-12.225974691588707,-218.20428811295818,-122.62918062271557,833.8260352898515,59.37717159411909,30.07334662627908,250.76048219582535,837.2782483728845
735,-12.186736725837028,-219.0717269615824,-121.21373674995345,835.3868524524152,55.616132304502116,29.87199930723197,250.81491317148982,838.6033542975881
736,-12.171700530289476,-219.95667411487696,-119.79600126957767,837.4875434271959,51.72611988283829,29.541999558524477,250.8921399997044,840.4536244138429
737,-12.182492578264062,-220.86015287722142,-118.3830841325906,840.1806957044731,47.7585888263849,29.07779707399923,250.9971646274218,842.8847384657777
738,-12.220534618584198,-221.78325808715107,-116.98163412928207,843.5091847282778,43.764423582079615,28.475435763095028,251.13482281250054,845.9426509059687
739,-12.286965310867737,-222.72716153229737,-115.59768349124185,847.5055756754699,39.79314951263826,27.732717625805922,251.30970598347832,849.6629533067799
740,-12.382562482314945,-223.6931106020264,-114.23650919453434,852.191706092597,35.8922245509167,26.8493577063944,251.5260846538643,854.0704277832023
741,-12.507670461629047,-224.68241729693273,-112.90251610663478,857.5784464478555,32.106412732473814,25.827127034284324,251.78783336207832,859.1787882123533
742,-12.662137261142455,-225.69643461743075,-111.59914616637921,863.6656332676348,28.477235629440894,24.669977761179723,252.0983565766395,864.9906030410181
743,-12.845266131109893,-226.73651776315697,-110.32881654280119,870.4421662816959,25.042494497451955,23.38414165994285,252.4605147884017,871.4973897248547
744,-13.055785045393954,-227.803968586936,-109.0928881638127,877.8862570131489,21.835854913290724,21.97819053361952,252.87655018351282,878.6798664868769
745,-13.291836200840986,-228.89996334843465,-107.89166434571756,885.965812333676,18.886486727442833,20.46304583421991,253.34801194269414,886.5083429559172
746,-13.550986071893535,-230.02546575852384,-106.72441779776716,894.6389338493857,16.21875489410296,18.85192566693578,253.87568227579604,894.9432285440464
747,-13.830255263278566,-231.18112909585176,-105.58944321638477,903.8545136233979,13.851960535933273,17.160220526182382,254.4595054167684,903.9356371622946
748,-14.126166329486153,-232.36719232799135,-104.48413205141537,913.5529090511992,11.80013564504415,15.405294029352328,255.0985225430523,913.4280693840175
749,-14.43480678102014,-233.58337555970172,-103.40506579439078,923.6666842274353,10.071898219429585,13.606210621869273,255.79081581525227,923.3551579308661
750,-14.751903742097667,-234.82877999807695,-102.34812431891947,934.1214108248405,8.670376543803945,11.783397748673986,256.53346467719524,933.6444682792968
751,-15.072906302391363,-236.10179727684184,-101.30860638556751,944.8365269849197,7.593211198359652,9.958254464751649,257.32251749088744,944.2173518828029
752,-15.393071566369475,-237.40003262489844,-100.28136020135491,955.7262564950723,6.832641201833869,8.152721205930774,258.152981607233,954.9898534772465
753,-15.707550737246056,-238.72024608051166,-99.260922478443,966.7005912946287,6.375677054541437,6.388826195954084,259.0188349963355,965.8736748966402
754,-16.011472232738758,-240.05831570353567,-98.24166441077536,977.6663376245168,6.204359365302545,4.688223066494245,259.91306239901814,976.7771953073354
755,-16.300019688764408,-241.409226431292,-97.21794237054674,988.5282207283901,6.296098307272241,3.0717324838345594,260.8277185169249,987.6065426019685
756,-16.56850362540953,-242.76708780429578,-96.18425017737059,999.1900369249399,6.624087077617997,1.5588986599553638,261.7540200768162,998.2667048845235
757,-16.812426504123934,-244.12518319946582,-95.13536873753264,1009.5558375188225,7.157781953338674,0.16756992329531392,262.6824677227447,1008.6626669389176
758,-17.027541935383987,-245.4760523236597,-94.06650782667643,1019.5311282803606,7.863442003202035,-1.0864889821561494,263.60299754594246,1018.700556175649
759,-17.209909818019312,-246.81160743032223,-92.97343403085137,1029.0240717595934,8.704722310707435,-2.1899465133116975,264.50516063373806,1028.2887864385273
760,-17.35594995490148,-248.12328206416228,-91.85257867050979,1037.9466866799023,9.643314957266856,-3.1322104119889063,265.37832743023563,1037.3391953829735
761,-17.462496916899116,-249.4022092928299,-90.70112003455056,1046.216046943761,10.639631469956413,-3.905685067233423,266.2119121435301,1045.7681797583257
762,-17.526858465271488,-250.6394246375824,-89.5170353438043,1053.7554896497006,11.653518721133091,-4.5059745209741555,266.99561112500805,1053.4978400987056
763,-17.54687880576517,-251.82608765112593,-88.29911939829618,1060.4958446699295,12.6449974732859,-4.932024521401493,267.7196483956752,1060.4571497444442
764,-17.521006739176762,-252.9537156372327,-87.04696874147784,1066.3766965574878,13.575009248500029,-5.186195931992272,268.37502159327397,1066.5831615542686
765,-17.44836776541807,-254.014423383095,-85.76093223935854,1071.3476826646224,14.406153504159596,-5.2742610419059615,268.9537425458407,1071.822258943255
766,-17.328838393614916,-255.00116364704635,-84.44203089801742,1075.3698199901396,15.103393879490536,-5.20531437756703,269.4490680202243,1076.1314466190775
767,-17.16312013020539,-255.90796402826078,-83.09185117382167,1078.4168388771946,15.634710258795465,-4.991590944471201,269.85571736878074,1079.4796620375107
768,-16.952809892134383,-256.7301563600514,-81.71241691466882,1080.4764865025677,15.971673190994558,-4.6481877448472035,270.17007443415093,1081.8490734149782
769,-16.700463125864356,-257.4645947553506,-80.30604573374406,1081.5517497598019,16.089919150938623,-4.1926887937200865,270.3903711452954,1083.2363167527783
