time,ax,ay,az,gx,gy,gz,accmagnitude,gccmagnitude
0,34.54761772625393,-261.1397403158289,-48.15064203346119,16.058017084490828,79.95427683066423,-8.726651247394525,267.787974024276,81.629084306935
1,34.81505850444413,-261.1616205718938,-47.99548489209443,19.877299875349866,84.02137351994182,-10.120772891830901,267.82201218958545,86.60187524684474
2,35.038860185016354,-261.1683539300353,-47.83744682884551,23.572014651101025,88.00967312049485,-11.49068572656191,267.834495954515,91.47548745357793
3,35.21924702799633,-261.1583287103525,-47.67585580540415,27.095779616455854,91.8829587582462,-12.825432169091142,267.82379478549325,96.20676867805199
4,35.35699193387496,-261.13035261910085,-47.51010412163701,30.402618217274867,95.60579760505412,-14.114132775958296,267.7887753236483,100.75358866970615
5,35.453400722421364,-261.0837194761294,-47.339691887372446,33.44781178800927,99.14411393300692,-15.346128049818004,267.7288708741262,105.07552305963466
6,35.51029068426116,-261.0182624868199,-47.1642632551572,36.18875660920405,102.4657560467308,-16.511129116503344,267.6441357587144,109.13452380826682
7,35.52996318559158,-260.9343919208834,-46.98363380864894,38.5858084608335,105.5410462339158,-17.5993759643525,267.5352821651921,112.89556295879368
8,35.51516987847431,-260.8331155392535,-46.79780836911954,40.60310002350981,108.34330270053722,-18.60180100234668,267.40369771846025,116.32723710836873
9,35.46907199113658,-260.71604046994287,-46.606989137983724,42.209318354731366,110.84932245480441,-19.510194705224553,267.2514424523314,119.40232075283166
10,35.39519227552256,-260.58535559431436,-46.41157460145253,43.37843069670288,113.03981410908685,-20.31736921255416,267.0812243091082,122.09825717519821
11,35.29735936318601,-260.4437939294064,-46.21215012900461,44.09034680428102,114.89976962949746,-21.017315016404655,266.8963528107413,124.39757578852551
12,35.1796444617981,-260.29457499932545,-46.009471711086086,44.33150479281136,116.4187643860028,-21.605345358445213,266.7006711448565,126.28822499034519
13,35.04629055857411,-260.14132785419645,-45.80444468882148,44.09536547846372,117.59117566390454,-22.078222739738326,266.49846765088995,127.76380993367445
14,34.90163464272652,-259.9879963266971,-45.598099501681254,43.382797932485396,118.41631123407215,-22.43426210704393,266.29436866697245,128.82372548857165
15,34.75002388876729,-259.83872924559137,-45.391566320836105,42.202337282119544,118.89844172014034,-22.67340583446668,266.0932158208678,129.4731763542574
16,34.595727219380315,-259.69775933625823,-45.186049932786425,40.57029536940913,119.04673335640872,-22.79726652354779,265.89993180412796,129.7230789911885
17,34.44284428778159,-259.5692751502531,-44.98280553928529,38.5107061947027,118.87508115979762,-22.809134841145813,265.7193792268319,129.58984377821182
18,34.29521477165968,-259.45729061472383,-44.78311550066931,36.05509132459864,118.40184619208001,-22.71395103274865,265.55621740259653,129.09504028902526
19,34.156331719620766,-259.3655168972503,-44.588266660389785,33.24203555306963,117.64950399161684,-22.51824028250213,265.4147620718012,128.26495333336058
20,34.02926307103883,-259.29724131728676,-44.39952780138179,30.116569726127764,116.64421397020317,-22.23001360494237,265.2988531484639,127.13004185259209
21,33.916585142453016,-259.25521786033715,-44.21812696078645,26.729365258806965,115.41532131009087,-21.858637295945787,265.2117353933258,125.7243163797442
22,33.82033101293626,-259.2415733296519,-44.04522866996565,23.13575289762828,113.99480358837022,-21.414674984274768,265.15595634864434,124.08465321351584
23,33.74195571054353,-259.2577323687407,-43.8819115427137,19.39458609369795,112.41667419277499,-20.90970689013061,265.1332850090185,122.25006459996719
24,33.68231919950244,-259.3043637346652,-43.729146834523384,15.566976372054098,110.71635395575528,-20.356130978503106,265.1446537815733,120.26094418204497
25,33.641687498403556,-259.38134949331453,-43.58777852215666,11.714933914163527,108.9300217220638,-19.766950345789454,265.19012549458716,118.15830603202349
26,33.619751720166455,-259.48777826120863,-43.458505176025376,7.899951090336208,107.09395408459697,-19.15555052667405,265.2688865620281,115.98303406654325
27,33.615664255408156,-259.6219631036496,-43.34186366023911,4.181569946448982,105.24386447839787,-18.53546965980931,265.37926679482916,113.77515692257174
28,33.62809070488128,-259.78148408436465,-43.23821463547035,0.6159767264301198,103.41425232114172,-17.920163851647047,265.5187856600917,111.57316175260087
29,33.65527559702085,-259.96325469186,-43.147729875771304,-2.745332623052741,101.63777389622348,-17.32276982509803,265.68422397123703,109.41335903881361
30,33.695119408272134,-260.1636104464416,-43.070381478781066,-5.856772492905448,99.94464796195467,-16.755867112510163,265.8717190387019,107.32930939083248
31,33.745263852214414,-260.37841696648155,-43.00593322564467,-8.679731774674437,98.36211021918805,-16.23124261431455,266.0768802682677,105.35132216742565
32,33.803181831615134,-260.6031937161358,-42.95393465851381,-11.183444607568997,96.91393127098611,-15.759661179108058,266.29492113857947,103.50603436538411
33,33.866268000146135,-260.833248652445,-42.91371875235578,-13.345636011798867,95.62001210694604,-15.350646789170733,266.52080249813133,101.81607632981475
34,33.931925711858,-261.06381817057263,-42.88440419865733,-15.152918444989124,94.49606918599875,-15.012279731370537,266.74938131891827,100.29982841103926
35,33.99764635174196,-261.29020629788437,-42.86490326166978,-16.600924675052482,93.55341792726692,-14.751015584306915,266.97555862084585,98.97126987451547
36,34.061077670765464,-261.50791712177454,-42.85393599827603,-17.69417283036775,92.79885921184261,-14.571531847610752,267.1944203654284,97.83991844349968
37,34.120078703384486,-261.7127749006003,-42.85005141224445,-18.445670394046303,92.23466889751039,-14.476607596729373,267.4013656576064,96.91085612619133
38,34.1727599603344,-261.9010271176693,-42.85165583412198,-18.876274599321295,91.85868591811496,-14.46704075949214,267.59221748613066,96.18483470246223
39,34.2175087481204,-262.0694269288304,-42.85704843447032,-19.013836593531526,91.6644907353478,-14.541606584829179,267.7633124872617,95.65845256557091
40,34.25300059331745,-262.21529303976337,-42.86446324325624,-18.892165344313835,91.64166304229579,-14.697059696848353,267.9115678313373,95.32439356518746
41,34.2781986871601,-262.33654678843385,-42.872116400566696,-18.549854054928694,91.7761058917995,-14.928180882749146,268.03452505600916,95.17171808116422
42,34.29234382341727,-262.43172769826566,-42.87825677361294,-18.02901638333557,92.05042296641663,-15.22786856949196,268.13037210909323,95.18619680449997
43,34.29493747572905,-262.49998976689653,-42.881217704190306,-17.37398169128008,92.44433648596048,-15.587273925348724,268.19794580510506,95.35067860568793
44,34.28572063679772,-262.54108128839283,-42.8794675059762,-16.629997722092178,92.9351349821506,-15.995977697266932,268.236717392267,95.64548528122091
45,34.26465093229597,-262.55531120029235,-42.87165633710902,-15.841985518515031,93.49814239655542,-16.442206153149918,268.24676409972403,96.04882761146797
46,34.23188023694884,-262.543504881069,-42.856657242709154,-15.05338525536551,94.10720219631067,-16.913082740913808,268.2287294596137,96.53723874360074
47,34.18773446019246,-262.50695202615134,-42.83359956764957,-14.305123560675495,94.73517204730244,-17.394911331654644,268.18377490333455,97.08602216797173
48,34.13269643856945,-262.4473487586114,-42.801893524790074,-13.634723860325664,95.35442571971059,-17.873486236499538,268.1135246751512,97.66971221906344
49,34.06739223061529,-262.3667356485389,-42.76124526272145,-13.075572536494507,95.93735911390822,-18.33442348104143,268.02000564727894,98.26254484726174
50,33.992580722201566,-262.26743304305415,-42.71166217702323,-12.656346263612155,96.45689653781488,-18.76350688145364,267.905583371282,98.83893525784072
51,33.909146242346154,-262.151975117872,-42.65344852223217,-12.40060032819499,96.88699180517021,-19.147041191365584,267.77289573220855,99.37395704782006
52,33.81809368585839,-262.0230441655846,-42.58719175406932,-12.326514096734773,97.20311673055079,-19.472203092981335,267.6247857048787,99.8438151047632
53,33.72054536419437,-261.8834066062153,-42.51374048684461,-12.446787660587743,97.38272768963864,-19.72737935095497,267.46423471724256,100.22630232692065
54,33.617738496942216,-261.73585204907255,-42.43417536455247,-12.768682295347261,97.40569960737514,-19.902480365878596,267.29429799574143,100.50122870964267
55,33.51102198729361,-261.58313663122067,-42.34977436458835,-13.294195855357081,97.25471631702463,-19.989217020090653,267.1180431634168,100.65081080425591
56,33.40185099123992,-261.42793185911626,-42.261974008121214,-14.020361957582379,96.91560664046904,-19.981329373636196,266.938493335482,100.66000994163062
57,33.291777885721174,-261.2727801135457,-42.17232768184495,-14.939658643787572,96.37761651863929,-19.87475746840933,266.758575859447,100.51680866899389
58,33.18243857632402,-261.12005766147263,-42.08246191974469,-16.040508472220505,95.6336088506481,-19.66774702042057,266.58107752215454,100.21241633144004
59,33.07553353963836,-260.97194548464995,-41.99403122021032,-17.307848351147356,94.68018428191226,-19.360885811877843,266.4086065370693,99.74139650633445
60,32.97280337711424,-260.8304076968071,-41.90867192879003,-18.72374472970217,93.51771801429972,-18.95706981351635,266.24356113880754,99.10171105612481
61,32.87599886790261,-260.6971769496676,-41.82795597142067,-20.268028778744203,92.15030985986355,-18.461401157904728,266.08810431501905,98.29467799603313
62,32.78684566663964,-260.57374601920213,-41.75334565500482,-21.91892734584607,90.58564728848698,-17.881022802136446,265.9441440904966,97.32484330387578
63,32.70700412418186,-260.4613646126827,-41.68615104032232,-23.6536686777919,88.83478409145266,-17.224896979455217,265.81331871890296,96.1997702559902
64,32.63802530018336,-260.3610402933211,-41.62749130130451,-25.44904668906813,86.91184032325049,-16.50353639733469,265.696986056561,94.92975369823277
65,32.5813049529071,-260.27354235456414,-41.57826112040043,-27.281933214494998,84.83363215669344,-15.728698635543994,265.5962163607423,93.52747053620715
66,32.53803790425121,-260.1994075958071,-41.539102847809744,-29.129733435283384,82.61924296736964,-14.913055259990404,265.51178789618524,92.00758124067204
67,32.5091754785902,-260.1389472262718,-41.51038507314314,-30.970784759237198,80.28954913314631,-14.069847689187716,265.4441850257102,90.386299863222
68,32.495388591197276,-260.09225436711955,-41.49218838608397,-32.78470324563029,77.86671548586432,-13.212541814428207,265.39359870202685,88.68095154695914
69,32.4970385759471,-260.05921169630477,-41.48429929163384,-34.552683753768626,75.37367597538187,-12.35449284610157,265.359929318882,86.90953656217
70,32.51415719231134,-260.03949877989953,-41.486213335816544,-36.25776018617299,72.83361494108115,-11.508630880232825,265.3427918123863,85.0903184904968
71,32.546436603768086,-260.03259876745,-41.49714830442126,-37.88503070523194,70.26946356411922,-10.6871762600313,265.3415229257485,83.24145152565114
72,32.59322950341032,-260.0378044511333,-41.51606776035408,-39.42185024507315,67.70342470937116,-9.90139199656189,265.3551907014582,81.3806582908823
73,32.653558975007826,-260.0542240276749,-41.541714310185824,-40.85798987829367,65.15653751350243,-9.161378427282681,265.3826063946617,79.52496549300609
74,32.7261372001911,-260.0807870692326,-41.5726511621737,-42.18576045223799,62.64829079541186,-8.475913063694923,265.4223389824187,77.69050057910187
75,32.80939186106082,-260.11625119852175,-41.60730999300679,-43.40009690032529,60.19629182277396,-7.852336333349768,265.47273231700933,75.89234878949316
76,32.90149905617195,-260.15920992293195,-41.644042897931854,-44.498599877578876,57.81599443260252,-7.296481808793193,265.5319248879774,74.1444670031959
77,33.00042166791829,-260.2081021464713,-41.68117619005439,-45.48153269397825,55.52048822412689,-6.812647720127577,265.59787223012955,72.45964877972108
78,33.10395230391706,-260.2612240609677,-41.71706396688507,-46.351773589058865,53.32034863742576,-6.403605210614009,265.66837223637646,70.84953399640047
79,33.209760119787845,-260.3167443480649,-41.750139569737414,-47.11472570494538,51.223546195530226,-6.070637958138659,265.74109391160073,69.32465617671195
80,33.315440928582206,-260.372723824812,-41.7789632264626,-47.77818904419229,49.23541197140166,-5.813607415643654,265.8136103358568,67.89452055309218
81,33.4185699237048,-260.42714076817043,-41.802264291542976,-48.35219970459467,47.358655422131925,-5.631037975076829,265.8834367130789,66.5677057188769
82,33.516756125523564,-260.4779230721047,-41.81897667292476,-48.84884152443674,45.59343013629075,-5.52021680442083,265.94807430107056,65.35198123707703
83,33.60769747101617,-260.52298805210296,-41.82826633970436,-49.282034007129795,43.937442788953256,-5.477303906013005,266.00506071067275,64.25443281847964
84,33.689235383223156,-260.5602901173129,-41.82955022129551,-49.66729827245307,42.386100640840056,-5.497449003789063,266.05202653441324,63.28158574923373
85,33.75940760296991,-260.58787577037526,-41.822506258048094,-50.02150020061722,40.93269312092552,-5.574913044876384,266.0867575828619,62.43951626488707
86,33.8164979601558,-260.6039445841928,-41.80707478751295,-50.36256745934834,39.56860324431742,-5.70319323215909,266.1072612636309,61.73393976937074
87,33.859081621811775,-260.60691401019466,-41.783451844994396,-50.70917540702175,38.28354473706387,-5.875151437246464,266.111834900819,61.17026456393879
88,33.8860642149491,-260.59548513088214,-41.75207534522933,-51.080396552868436,37.065820736996585,-6.083146489510386,266.0991331065078,60.75360051582756
89,33.89671312347761,-260.5687058754372,-41.71360548818833,-51.495309648836674,35.90259982274182,-6.3191711752053905,266.0682307782434,60.48871414876569
90,33.890679302125605,-260.52602794740295,-41.66890101086055,-51.97256750023325,34.780204908637,-6.574994795181768,266.0186780801838,60.379924964182244
91,33.86800824472093,-260.4673539022615,-41.61899295751727,-52.52992678177111,33.6844102817133,-6.842311787888101,265.9505439958573,60.430942104583806
92,33.829139292192686,-260.3930713977312,-41.56505741025418,-53.18374793997699,32.60074184094693,-7.112896226039935,265.8644456482154,60.64464530796062
93,33.774893183452726,-260.3040723820787,-41.50838821522056,-53.94847806467504,31.514775512929585,-7.378760999206335,265.7615613402808,61.02281900784676
94,33.706448519472836,-260.201755676621,-41.45037033823674,-54.83613390228738,30.412428902714343,-7.632319302122205,265.64362598561985,61.56585296325985
95,33.62530845246702,-260.08801202134686,-41.39245417228228,-55.855805514309885,29.28024150453648,-7.866544801126518,265.5129082362261,62.27242655458957
96,33.53325929572397,-259.96519126796744,-41.33613085445256,-57.01320310492345,28.105639216250122,-8.075125722587616,265.37216922927666,63.13919652268714
97,33.43232292660098,-259.8360520531025,-41.28290839562719,-58.31027004508639,26.87717939050395,-8.252607256625645,265.2246034929761,64.16050922913911
98,33.324704933747824,-259.70369494405185,-41.23428823721481,-59.74488404226548,25.58477313400087,-8.39451620433761,265.07376317722185,65.32815837689176
99,33.21274040324343,-259.5714807395527,-41.19174178770009,-61.310665789451306,24.21988201365086,-8.497461784436716,264.9234674322396,66.63120758108472
100,33.09883897742658,-259.442936362257,-41.15668654640949,-62.99691043131508,22.775686731154376,-8.559206997458604,264.7776994714823,68.05589434761241
101,32.985430453737735,-259.3216515491196,-41.13046153142105,-64.78865210260774,21.24722560230126,-8.57870591467992,264.6404945782331,69.58562810104156
102,32.874911890597,-259.2111702020555,-41.11430184551748,-66.66686603022093,19.631500726857226,-8.55610363343931,264.51582293649767,71.20109017929794
103,32.76959700193374,-259.1148806877091,-41.109312380410415,-68.60880669099156,17.927549588949706,-8.492697299485348,264.4074715852662,72.88043854447264
104,32.67166852715606,-259.03590951906364,-41.116440987160225,-70.58847467568093,16.136479699528792,-8.390858433214895,264.318929974946,74.59961475707583
105,32.58313429278284,-258.9770227072347,-41.1364519220769,-72.57719950381006,14.261464074779045,-8.253918721180348,264.25328354334835,76.33274587445021
106,32.50578784784661,-258.94053865573926,-41.16990078494322,-74.54432084346486,12.307696038679822,-8.08602335649474,264.21311940691766,78.05262958910549
107,32.44117472313058,-258.92825581482475,-41.21711227669169,-76.45794657303716,10.282303054646603,-7.891957837805717,264.2004476602269,79.73128726197416
108,32.39056534320864,-258.94139746226654,-41.27816195193518,-78.28576306362199,8.194220859267933,-7.676955756829172,264.21664091609085,81.34056664910811
109,32.35493533600328,-258.9805749852813,-41.352862927813504,-79.99587114717414,6.054030815305566,-7.446496365631164,264.26239367763554,82.85277417736762
110,32.334953519880344,-259.0457700138939,-41.44075832075377,-81.55762060613382,3.873764839732983,-7.2061014237565555,264.3377020426068,84.24131568958896
111,32.33097736037469,-259.1363348537086,-41.54111994856903,-82.94241675277647,1.666683277629267,-6.961140819407945,264.44186325926296,85.48132474025005
112,32.34305529890025,-259.2510099718902,-41.652953528169164,-84.12447475052014,-0.5529684384890857,-6.716655703290619,264.5734938770882,86.55025882783303
113,32.370935095511136,-259.387956763776,-41.775010315548805,-85.08150059971216,-2.770218586285084,-6.477206490544439,264.73056464308405,87.42844631872117
114,32.41407718380666,-259.54480345787107,-41.905804999303825,-85.79528181591023,-4.969638165584907,-6.246751289659497,264.91044989251503,88.09956997808447
115,32.47167202163232,-259.7187019418859,-42.043639720100465,-86.25217529629202,-7.1356156335756316,-6.028558322682659,265.10998911671254,88.5510765585932
116,32.542660565708594,-259.9063936017045,-42.186634246379754,-86.44348420945603,-9.252633640532363,-5.8251538614404845,265.32555873699044,88.77450534505526
117,32.62575727821185,-260.1042827797914,-42.33276236216231,-86.36571953098617,-11.305544616550327,-5.638305212455464,265.5531526590179,88.76573149258999
118,32.719475399089184,-260.30851687344705,-42.479894265723395,-86.02074478752992,-13.279842267770963,-5.469036447446208,265.7884705901249,88.52512212822144
119,32.822154497318195,-260.51507226481397,-42.62584433416686,-85.4158045531977,-15.161925822429506,-5.317673061698938,266.0270132360731,88.05760439514793
120,32.93199048947468,-260.71984526626017,-42.76842318124048,-84.56343834870982,-16.939353301371266,-5.1839106896026985,266.2641834393643,87.37264499593553
121,33.0470683391458,-260.918747153928,-42.905492593612635,-83.48128207688802,-18.60107933381324,-5.066902454920365,266.49539215968105,86.48414059943607
122,33.165397505795966,-261.1078021200125,-43.03502161209373,-82.19175933228838,-20.13767225881813,-4.965359445647778,266.71616788859734,85.41021807752293
123,33.284949953681696,-261.28324654983754,-43.15514170877608,-80.72166520303016,-21.54150460267781,-4.8776590994881195,266.9222675894581,84.17294330754746
124,33.403700254809316,-261.44162746490645,-43.26419878245869,-79.10164585424211,-22.80691067796877,-4.801956852160877,267.10978662540555,82.79793755678472
125,33.51966705516944,-261.5798973818495,-43.36079965661437,-77.36557849614411,-23.930305178074097,-4.736297123379445,267.27526451634253,81.31390153676494
126,33.63095490169181,-261.6955023497894,-43.443850973785956,-75.54985844570372,-24.91025733503998,-4.678720501825479,267.4157828843258,79.75204924946425
127,33.735795176045386,-261.78645967079655,-43.512588841131816,-73.69260290267147,-25.747516453277772,-4.627364750320009,267.5290517341587,78.14545675705482
128,33.83258472738682,-261.8514218390823,-43.566598230241965,-71.83278466609654,-26.444986297175433,-4.580557904624725,267.6134803292764,76.52833484908558
129,33.91992080374178,-261.88972351614115,-43.60582183506944,-70.00931310872683,-27.007647683439004,-4.536902241850957,267.66822931089666,74.93523899336456
130,33.99663108351398,-261.90140884212343,-43.63055871149136,-68.26008400367647,-27.44243050018559,-4.495348236868076,267.6932413049419,73.40023458837966
131,34.06179799230455,-261.88723706263664,-43.641453529097745,-66.62102386655252,-27.75803812373465,-4.455257818219896,267.6892480539055,71.95603997299294
132,34.11477695130099,-261.8486652858982,-43.63947769515737,-65.12515789188308,-27.96472878839091,-4.4164563168018525,267.65775305401166,70.63317345967003
133,34.15520854820432,-261.7878080667848,-43.62590392655393,-63.80173289091049,-28.07405986664177,-4.379272496100381,267.60098963352,69.4591334299766
134,34.183024705253146,-261.70737438537196,-43.60227592804276,-62.67542750989413,-28.09860223016752,-4.344565931765686,267.521855284381,68.45764192497568
135,34.19844881185725,-261.61058353111105,-43.57037459681271,-61.76568118487425,-28.051632887524665,-4.313740746405762,267.4238239349176,67.6479819670469
136,34.201989715466716,-261.5010624670617,-43.53218165999929,-61.0861707060645,-27.946814909574346,-4.288744375673405,267.31083880850997,67.04445700880721
137,34.194429540058,-261.3827282616728,-43.48984108706267,-60.644459005109084,-27.797874183133253,-4.272049781518587,267.18718943386887,66.65599747488409
138,34.17680545070622,-261.2596599145794,-43.44561828764748,-60.44183500748602,-27.618282677609894,-4.266619433903629,267.05737706857235,66.48593445362818
139,34.15038560372108,-261.1359643546351,-43.401857116696384,-60.47335634588898,-27.420957632064358,-4.275849484044598,266.9259732589155,66.53195439933481
140,34.116639598521004,-261.01564169009066,-43.36093496736433,-60.72809874937614,-27.21798545184319,-4.303492871507738,266.7974766046123,66.78624155438693
141,34.07720380597163,-260.90245497956886,-43.325216597417025,-61.18960745887578,-27.02037827474663,-4.3535606821573705,266.67617304609576,67.23580714166421
142,34.033842011162406,-260.7998097537733,-43.29700763182411,-61.83653754677495,-26.83787018690993,-4.430201930526299,266.56600500899293,67.86299663591863
143,33.9884018944951,-260.7106481548314,-43.27850869809145,-62.64346192326308,-26.678758901058202,-4.537563059758939,266.47045439806607,68.64615889960895
144,33.942768011231905,-260.6373619275616,-43.27177084218535,-63.581818401380595,-26.549797281985768,-4.6796297674815115,266.3924437829124,69.56045389017227
145,33.898812152247984,-260.58172773351345,-43.27865251204303,-64.62096080825836,-26.456137367370363,-4.860055184386716,266.33425934379625,70.57876930059128
146,33.8583422776298,-260.5448673944137,-43.3007782992476,-65.72927419214248,-26.40132750328214,-5.081979849772296,266.2974983271118,71.67271128634206
147,33.82305154596369,-260.52723457814295,-43.33949984096898,-66.8753110673987,-26.387361015744087,-5.34785022283983,266.28304276818113,72.81363077685916
148,33.794469217130235,-260.52862804852384,-43.39585962569418,-68.0289045613098,-26.414772688349455,-5.659243508068681,266.291059965898,73.97364504919683
149,33.77391529476649,-260.5482300905439,-43.4705587638852,-69.16221525863853,-26.482777426679615,-6.0167072401382455,266.3210287796505,75.12661433074908
150,33.76246066409945,-260.5846673871296,-43.56393002724324,-70.25067131961801,-26.5894439932781,-6.4196222723495895,266.37178953644735,76.24903510157375
151,33.760894232991056,-260.63609061713845,-43.67591758331433,-71.27376583731109,-26.73189565244288,-6.866097453939423,266.44161433680233,77.32081528976143
152,33.76969829493452,-260.70026836578916,-43.80606476680339,-72.21568114574633,-26.90652902765061,-7.352903311047993,266.5282938291451,78.32590147590012
153,33.789033030380494,-260.7746905581073,-43.9535109195649,-73.0657166750708,-27.109242492975213,-7.875450503876857,266.62923605690776,79.25273436026687
154,33.81873071144488,-260.8566765487246,-44.11699797490525,-73.81850479084615,-27.335665946813467,-8.427816861063702,266.74157279997826,80.09451591807438
155,33.85829978439329,-260.94348325000504,-44.29488730339071,-74.47400762275288,-27.58138466321609,-9.00282455957911,266.86226899521455,80.84927960592137
156,33.90693866619512,-261.03240920464526,-44.48518744076486,-75.03729687351505,-27.842150823930314,-9.59216665553994,266.9882313014359,81.5197633177745
157,33.963558862393725,-261.1208911164144,-44.68559348023799,-75.51812764735044,-28.11407709223299,-10.186579793317101,267.1164124598931,82.11309312448213
158,34.026816814699046,-261.20658982289615,-44.89353876921972,-75.93032606828362,-28.393807100544926,-10.776057681273352,267.2439085098396,82.64029378261185
159,34.0951535996635,-261.2874629986464,-45.106258835763605,-76.29101843599035,-28.67865802449203,-11.35009801151911,267.36804606593023,83.11564917452547
160,34.16684122565661,-261.361822231603,-45.32086627516186,-76.61973639212853,-28.966730672925113,-11.897974064778643,267.48645697304994,83.55594183645476
161,34.240033920115216,-261.4283727642967,-45.53443405038319,-76.93743754745061,-29.25698294986522,-12.409021313505018,267.5971380364955,83.97960516392342
162,34.312822554494,-261.48623515448503,-45.74408363126456,-77.26548385453357,-29.54926328145988,-12.872928856993692,267.6984942634902,84.40582446063083
163,34.383290268669015,-261.5349491814227,-45.94707370310769,-77.62462050779371,-29.844301695170266,-13.280025426670722,267.78936496700504,84.85362360151966
164,34.4495674344233,-261.57446128266326,-46.140884834030246,-78.03399640110338,-30.143657699803523,-13.621549969841203,267.86903296597643,85.34097285922968
165,34.50988425757158,-261.60509753269696,-46.32329558635164,-78.51026354870672,-30.449625924845154,-13.889897456474158,267.93721785714246,85.88395077966105
166,34.56261945444103,-261.6275246086753,-46.49244614633832,-79.06678790639234,-30.765102536126797,-14.07883154121411,267.9940548716049,86.49598935000124
167,34.6063435663917,-261.6427013317974,-46.6468865237725,-79.71299821958559,-31.09341755507858,-14.183657028657176,268.0400611506528,87.18722745182085
168,34.63985570923945,-261.6518233466993,-46.785607510305745,-80.45389324227062,-31.438140125904084,-14.201346706771858,268.07609147458805,87.9639929432943
169,34.662212931823625,-261.6562634778841,-46.90805373008229,-81.28972115934118,-31.802865290201787,-14.130618972875407,268.1032857031738,88.82842876775717
170,34.67275179695714,-261.65751034519377,-47.01411925632238,-82.21583851182908,-32.19099184242576,-13.971964662428496,268.12301048675147,89.77827334113539
171,34.67110219299936,-261.65710781737897,-47.10412734553019,-83.22274962728324,-32.60550136633938,-13.727623441337757,268.13679804781606,90.80680031634408
172,34.657193658100844,-261.6565976330778,-47.17879667261632,-84.29632180393452,-33.04874864642522,-13.401511893014012,268.14628477180736,91.90291791862691
173,34.6312546014215,-261.6574669073989,-47.239196911940866,-85.4181665358301,-33.52227333840583,-12.99910695910645,268.1531518414571,93.051423616525
174,34.59380474802535,-261.6611013858172,-47.28669662034875,-86.56617295736737,-34.02664207271723,-12.527289690963824,268.1590693210422,94.23340600914202
175,34.545640996250235,-261.6687445252457,-47.322906197576046,-87.71517626105302,-34.56132904719447,-11.994155363236924,268.1656442806566,95.42678233794395
176,34.48781674949027,-261.68146208262806,-47.349618295892284,-88.83774079571994,-35.12464163132438,-11.408796885063694,268.17437307125306,96.60695670219648
177,34.421614755360416,-261.70011194879413,-47.368747525447986,-89.90503461535693,-35.71369556522359,-10.781069071126836,268.186597820116,97.74758063312063
178,34.348513649628345,-261.72531930495404,-47.382270774095055,-90.8877693299931,-36.324442054389394,-10.121341628684377,268.20346747574996,98.82139409801769
179,34.27014879642037,-261.75745754500184,-47.392169071511,-91.7571763176474,-36.95174656213943,-9.440248635414934,268.22590406991293,99.80112140493364
180,34.188268512593254,-261.79663561146543,-47.40037179856924,-92.48598794648514,-37.58951655914477,-8.748441884252914,268.2545751045312,100.66039317068181
181,34.10468711273162,-261.84269234895385,-47.408704176891334,-93.04939079590487,-38.230873094478554,-8.056354856455005,268.2898729952971,101.37466292711572
182,34.021236251144266,-261.89519819424487,-47.41883925622366,-93.4259173863274,-38.86835899460872,-7.373983285502104,268.33190227893516,101.92208555374933
183,33.939715846970415,-261.9534641178523,-47.432255911729385,-93.59824400328804,-39.494174959748015,-6.710687267760944,268.38047492209824,102.284324955736
184,33.861845694870624,-262.01655739238714,-47.45020451707792,-93.55386500479888,-40.1004339530007,-6.075018690246304,268.435113740988,102.44726046955415
185,33.78921887433012,-262.0833235902921,-47.47368178837072,-93.2856184751774,-40.67942407597977,-5.474576505243293,268.4950637440975,102.40156533201385
186,33.72325826206022,-262.1524141507963,-47.5034157330945,-92.79204400518312,-41.22387042291292,-4.9158912253178135,268.5593110771657,102.14313592483492
187,33.66517763230467,-262.2223187863129,-47.53986087174598,-92.0775603709474,-41.727186941728945,-4.40433900412491,268.6266090718984,101.67335697535022
188,33.615948822559076,-262.2914018893482,-47.58320321292972,-91.15245847611789,-42.18370990057019,-3.944084802780159,268.6955106726385,100.99919493428928
189,33.57627624391016,-262.3579420304716,-47.63337401846047,-90.03271259015385,-42.58890508193857,-3.538053417288403,268.7644063424617,100.13311884518721
190,33.54657975004418,-262.4201736920401,-47.69007118074404,-88.73962013563059,-42.93954134056165,-3.1879266090868046,268.83156653077566,99.09285469216464
191,33.526986663304875,-262.47633053589686,-47.75278691115222,-87.29928653514925,-43.23382378177487,-2.8941643194640134,268.8951878850563,97.90098503881515
192,33.5173335970676,-262.52468963286844,-47.820840271746995,-85.74197648609004,-43.47148068266204,-2.6560480068334527,268.9534424675325,96.5844104158843
193,33.51717848253328,-262.5636161120191,-47.89341291521619,-84.10135623947802,-43.65379947788389,-2.471744465331009,269.0045292109223,95.17369220886161
194,33.52582278196056,-262.59160765963134,-47.969586388783114,-82.4136530252457,-43.783608669887,-2.3383888799891617,269.046726767957,93.70229877094707
195,33.54234331335466,-262.60733827145924,-48.04837954468376,-80.71675791778522,-43.8652043460948,-2.252186116534366,269.0784468487637,92.20577734799075
196,33.56563259964579,-262.60970063248226,-48.128784855496825,-79.04929750271027,-43.904222048261694,-2.208529195833443,269.0982870924839,90.72087444876722
197,33.5944462703023,-262.5978464314134,-48.20980264510845,-77.44969802625167,-43.90745699840828,-2.2021335869717262,269.10508244174093,89.28462682441747
198,33.62745578631962,-262.5712237798373,-48.29047241406144,-75.95526360595981,-43.88263800928558,-2.2271854721979216,269.0979538500399,87.93344445745126
199,33.66330467186111,-262.52961067023404,-48.369900595826834,-74.60128782203871,-43.83816254934327,-2.277501571198706,269.0763529377864,86.70220600282414
200,33.70066652530545,-262.4731431061861,-48.44728420987068,-73.42021572591429,-43.782802149260974,-2.3466975029954154,269.04010095190904,85.62338595179631
201,33.73830319542256,-262.4023363065383,-48.521929927982406,-72.44087102143848,-43.72538848783327,-2.4283610606344137,268.9894201797977,84.72623134638799
202,33.77512143869396,-262.3180973449063,-48.59326806289563,-71.68776095418923,-43.67449103818403,-2.51622626809221,268.92495591724776,84.03600418582762
203,33.81022610119819,-262.2217276921805,-48.660861051255914,-71.18046945603876,-43.638097160012705,-2.6043437916859755,268.8477871701489,83.57330391678283
204,33.842967607289246,-262.1149142466986,-48.72440625495323,-70.93314753667013,-43.623305188211404,-2.6872432459572124,268.75942439658854,83.3534828600678
205,33.872981519905586,-261.9997075389128,-48.78373331728812,-70.95410891680413,-43.63604061292092,-2.7600831205157568,268.6617927679902,83.38616631765545
206,33.90021817429717,-261.8784859734679,-48.83879672266944,-71.24553846593611,-43.68080495699065,-2.8187843542063695,268.55719970286606,83.67488847178942
207,33.924960681569644,-261.75390529818327,-48.889664448228004,-71.80332099826498,-43.76046637575085,-2.860143910547841,268.44828582351255,84.21685487701728
208,33.94782979548366,-261.6288330115064,-48.9365035804518,-72.61699810858073,-43.87610022762136,-2.8819250404043233,268.33795901472297,85.00284205517444
209,33.9697743025587,-261.5062681759485,-48.97956356159618,-73.6698606593894,-44.026886801572964,-2.882921287224193,268.22931198220954,86.01724409743215
210,33.99204594458798,-261.3892480910964,-49.0191575176891,-74.93918397206748,-44.21007195966032,-2.862991744608355,268.12552467495146,87.23827496767362
211,34.01615855923493,-261.28074443097466,-49.055642115932045,-76.39661150377628,-44.42099457956883,-2.823065639284128,268.02975414441437,88.63833315354644
212,34.043832073102884,-261.1835526609678,-49.08939671165533,-78.00869064643895,-44.6531822916393,-2.7651149917557287,267.9450157741224,90.18453224982856
213,34.076922993779434,-261.10017965928876,-49.12080304265166,-79.73756116610538,-44.898514096400774,-2.692094909412449,267.87406111842216,91.8393968975332
214,34.11734391951417,-261.0327352468811,-49.15022703764451,-81.54179264723156,-45.147445171191556,-2.6078519825245268,267.8192585196789,93.56171825832023
215,34.166975225367345,-260.98283356111443,-49.178004114972055,-83.37736208754116,-45.38928583907191,-2.5170022468061513,267.78248294807116,95.30755700504132
216,34.22757250325142,-260.95150982963867,-49.20442876281299,-85.19875658105573,-45.612523693488264,-2.4247812196474663,267.7650210865069,97.031374933859
217,34.30067359739362,-260.93915724313007,-49.22974862646684,-86.96017908421334,-45.80517567045965,-2.336869608700024,267.7674967775323,98.68726919757471
218,34.387509257221225,-260.9454875087759,-49.25416302641717,-88.61682804397235,-45.95515574605936,-2.2591994219386713,267.7898208272336,100.23027638653706
219,34.48892152750444,-260.9695174398227,-49.27782566867748,-90.12621482850385,-46.05064399900489,-2.197746323945282,267.8311679469713,101.61770783681364
220,34.60529392283592,-261.00958263922996,-49.3008510954284,-91.44947719955486,-46.08044387771487,-2.158315081285927,267.8899823003531,102.81047317832927
221,34.73649710316028,-261.06337802970154,-49.323324187600605,-92.55264321775941,-46.03431638309405,-2.146325678937661,267.96401176539626,103.77434670404799
222,34.881853175531425,-261.1280238732893,-49.34531186787084,-93.40779846709215,-45.903282217673976,-2.1666080245887884,268.0503698364308,104.4811309101586
223,35.040120937821534,-261.20015523898206,-49.36687601424393,-93.9941104264715,-45.6798854167874,-2.2232130263094287,268.14562329453054,104.90967347372171
224,35.20950338997039,-261.27603257950324,-49.38808643119939,-94.29866692910804,-45.358414187815455,-2.319247304366853,268.24590332929466,105.04669762034398
225,35.38767773281422,-261.3516707930568,-49.40903266702622,-94.31709050348795,-44.93507629938737,-2.456738008079307,268.34703736504724,104.88741080654385
226,35.5718469603077,-261.42298350158677,-49.429833677490755,-94.05389666256049,-44.40812721351099,-2.6365332300059543,268.4446981136352,104.43586258444101
227,35.758811117593986,-261.4859382715596,-49.45064479987348,-93.52257174642011,-43.77794933446676,-2.8582423762245672,268.5345653487695,103.7050293612443
228,35.94505541154169,-261.5367174323485,-49.47166206472168,-92.74535461957112,-43.0470806116014,-3.1202196059008114,268.6124948417138,102.71661156509562
229,36.1268516969292,-261.5718783143209,-49.493124413318995,-91.75271622513426,-42.22019076103685,-3.4195921130025897,268.67468809805433,101.50053752678066
230,36.30036944921398,-261.5885062736758,-49.51531480240734,-90.58254155029411,-41.30400397734331,-3.7523335326393883,268.7178561117971,100.09417819060685
231,36.46179212132629,-261.5843537381408,-49.53856129041042,-89.27902981481128,-40.30716836097235,-4.113381048739307,268.7393702139481,98.54128750203441
232,36.607434726310935,-261.55795859086794,-49.563238878738495,-87.8913403894591,-39.24007425417081,-4.496792889526711,268.73739310614116,96.89069468262556
233,36.73385860928248,-261.5087355885561,-49.58977222024504,-86.47202356020647,-38.11462589667562,-4.895940976663774,268.7109834326998,95.19478597298767
234,36.83797967123015,-261.4370354055938,-49.6186385868673,-85.07528603040355,-36.94397286672973,-5.303731761866578,268.66016802359013,93.50782395336674
235,36.91716672345319,-261.3441673590938,-49.65036997002283,-83.75515015504845,-35.74220934523363,-5.712846944384334,268.5859773239068,91.88416134210999
236,36.96932709206378,-261.2323836593766,-49.685552965566536,-82.5635725243259,-34.52405019810175,-6.115994932348413,268.4904412834001,90.37641243559688
237,36.99297695819682,-261.1048248444489,-49.72482513252183,-81.54859106879441,-33.30449326361658,-6.506163587843011,268.37654479786926,89.03364857321411
238,36.98729419599852,-260.96542778125445,-49.768866767801484,-80.75257014019164,-32.098477215747664,-6.876864894022749,268.24814355261987,87.89968407444431
239,36.952151803208224,-260.8187993115724,-49.81838750957202,-80.21061021957625,-30.920544131783874,-7.2223626212413174,268.1098428968543,87.01151627036116
240,36.888130562401884,-260.67006030791,-49.87410783314655,-79.94918342773583,-29.784515564702012,-7.5378748000597895,267.9668442125744,86.39797799554188
241,36.796510264576604,-260.524666426857,-49.936736188041955,-79.98504825331982,-28.703190572772563,-7.819743785353118,267.8247649430406,86.07865362491462
242,36.6792394872286,-260.3882129581295,-50.006943042595054,-80.32448714104072,-27.68807378308676,-8.065567868652517,267.68943971194017,86.06310069154692
243,36.53888452339607,-260.2662317193334,-50.08533332759365,-80.96289904890067,-26.74914110897987,-8.274289743582248,267.5667106253176,86.35040852022328
244,36.378558761168264,-260.1639879709036,-50.17241873867912,-81.88476617337311,-25.894650101473985,-8.446238652348912,267.462214962977,86.929113448619
245,36.201834691288795,-260.0862850009813,-50.26859121489001,-83.06400025456723,-25.13100092896715,-8.583124719547909,267.3811782449518,87.77747742882929
246,36.012641644782335,-260.0372835780344,-50.37409875489745,-84.46465972189182,-24.46265249943817,-8.687985754024789,267.32822031651017,88.86412346434619
247,35.81515313985617,-260.020342984532,-50.48902455135356,-86.04201493274256,-23.892096250599614,-8.765088607095223,267.3071816943219,90.14900787435064
248,35.6136682534654,-260.03788972649966,-50.61327019643909,-87.74392545762029,-23.419887770911696,-8.819788966137915,267.3209768413832,91.58469636625843
249,35.41249171332273,-260.09131912128777,-50.746543473055496,-89.51248139981371,-23.04473387721893,-8.858355147587817,267.37148015853774,93.11789900582515
250,35.215817382400516,-260.18093375649573,-50.888351030971734,-91.28585068853087,-22.76363024712351,-8.8877628691283,267.45944925563583,94.6912090168332
251,35.02761940223797,-260.3059212896861,-51.037996055070344,-93.00026657745104,-22.57204233981084,-8.915468960838739,267.5844884890484,96.24498238011891
252,34.85155449426932,-260.4643722631486,-51.19458088080828,-94.59208446862581,-22.46412029728576,-8.949172458121067,267.7450538720017,97.71928974495407
253,34.69087795764726,-260.65333671140036,-51.35701444977607,-95.99983482334487,-22.432936983713315,-8.996571561265425,267.9384984785339,99.05586944979588
254,34.548374956514685,-260.86891659011604,-51.52402450058643,-97.16619946750687,-22.470737457623308,-9.065124640577004,268.1611556356772,100.20001068907592
255,34.426307907904764,-261.1063896321904,-51.6941743042403,-98.03984216998445,-22.569188077893486,-9.161822883274613,268.4084556950245,101.10229921355092
256,34.32638025172945,-261.3603592186803,-51.86588348186098,-98.57703091815736,-22.719614160673178,-9.29298136961408,268.67507106307755,101.72016437808281
257,34.24971661427442,-261.62492424008605,-52.03745212542058,-98.74299850267178,-22.913216616862837,-9.46405438174602,268.9550834771075,102.01917552390337
258,34.19685921682765,-261.8938626055324,-52.2070873052855,-98.5129992858355,-23.141260213473483,-9.679479651068887,269.2421671556275,101.97404702427717
259,34.16778009295174,-262.16082185956986,-52.37293114982612,-97.87303267606043,-23.395228822221263,-9.942555100053049,269.52978124189974,101.56932411299186
260,34.16190816061232,-262.4195102207013,-52.533089913978465,-96.82021711355716,-23.66694592232484,-10.25535046418191,269.81136479656897,100.79973504317445
261,34.17816957576007,-262.6638813688538,-52.68566370521043,-95.36281154897787,-23.94866126853273,-10.618654977064278,270.0805275796848,99.67020835943288
262,34.21503928847355,-262.8883066397096,-52.82877676931499,-93.51989387909644,-24.23310661386615,-11.03196106093401,270.33123016619817,98.19556643746753
263,34.270601493384774,-263.0877290063885,-52.96060844155146,-91.32071722855841,-24.51352454705907,-11.493482750596783,270.55794765164546,96.39991755984404
264,34.34261674842995,-263.2577942876019,-53.07942498562409,-88.80377508087261,-24.78367503110566,-12.000206510037716,270.7558122661253,94.31577843846155
265,34.428593776105565,-263.3949562535038,-53.183612519270255,-86.0156147631743,-25.037824387398125,-12.547971267738765,270.9207314379213,91.98296702532346
266,34.52586408828025,-263.49655352496734,-53.271711089395055,-83.00944532036607,-25.270721430648248,-13.131573920648258,271.0494790288646,89.44731136146599
267,34.631657461597825,-263.56085727914217,-53.342449763051775,-79.84359009664881,-25.47756523770486,-13.744896205268882,271.13975849797555,86.75922383481708
268,34.743176086994126,-263.5870897858382,-53.394782320023424,-76.57983629862831,-25.653968589502817,-14.381048652612247,271.19023765420286,83.97219147759583
269,34.85766517769618,-263.57541473673234,-53.427922745796316,-73.28173358210228,-25.795920489105324,-15.032527302014463,271.2005554918197,81.1412319978433
270,34.97247806617053,-263.5269011585635,-53.44137932022134,-70.01289158384041,-25.899750457192077,-15.691378964765986,271.17130236311385,78.32136246847645
271,35.085134282402485,-263.4434633315601,-53.43498581311459,-66.83532273112296,-25.962096687418942,-16.34937111334911,271.1039753605908,75.56612347243107
272,35.19336962542771,-263.32777954547544,-53.408928190337555,-63.80787213774872,-25.979879651539978,-16.998162871797238,271.00091122541437,72.92619655676891
273,35.29517771448277,-263.18319282151697,-53.36376528461779,-60.9847715358577,-25.95028226283848,-17.629474000428566,270.86519945480353,70.44814760056447
274,35.38884292500534,-263.01359702574985,-53.300442065021144,-58.41434952798168,-25.870737076825517,-18.235249121808106,270.70057865601206,68.17332357746633
275,35.47296496989883,-262.8233121228749,-53.220294401926765,-56.13792623734116,-25.738920207586986,-18.807814683408548,270.51131960286756,66.13692543168752
276,35.54647562361859,-262.6169526113543,-53.125044470408454,-54.18891656546803,-25.552750818698485,-19.340026298044805,270.3020988104475,64.36727535827475
277,35.60864814623182,-262.399293377301,-53.01678605045059,-52.592162296391855,-25.310394415440275,-19.825404184633626,270.0778666625871,62.88529242325799
278,35.659099827523185,-262.17513728518975,-52.89795897559295,-51.36350869791315,-25.010267856610845,-20.258254519005362,269.8437141861919,61.704185853013755
279,35.69778779980993,-261.9491887650601,-52.77131202933958,-50.50963570631679,-24.651044042104655,-20.63377468622305,269.6047424856926,60.82937026266437
280,35.72499799726275,-261.7259373761501,-52.63985387757659,-50.028147146101915,-24.231654538358633,-20.948140761258273,269.36593860270324,60.25860154292328
281,35.74132697637616,-261.50955476236453,-52.50679220130757,-49.907913892976836,-23.751288857558816,-21.198576004186464,269.13206111004325,59.98232616678587
282,35.74765629199471,-261.3038076225844,-52.375462005169304,-50.12965880458925,-23.209389634132503,-21.383399652780156,268.9075381362063,59.9842305077457
283,35.74511927678174,-261.11198843179005,-52.24924503944382,-50.66676306868025,-22.605643553928285,-21.502055794801702,268.69637986475095,60.24197066802166
284,35.73506042844697,-260.9368647458837,-52.13148322646799,-51.48626576599122,-21.939968619011594,-21.555122630021817,268.5021069122324,60.72805758274066
285,35.71898811207394,-260.7806469882676,-52.02538969740265,-52.5500213121107,-21.21249913818288,-21.544302951349266,268.3276952893922,61.41086700581823
286,35.698521804241864,-260.6449736870519,-51.93396135821071,-53.815973480854524,-20.423570601952804,-21.47239704784416,268.17553787907775,62.255739589805515
287,35.6753355444919,-260.5309124430846,-51.859896791891195,-55.23950040137971,-19.57370718179079,-21.34325934153761,268.0474217322658,63.22613291585168
288,35.65109959138166,-260.43897470201733,-51.8055228453393,-56.77478267714337,-18.663614877784156,-21.16173989797402,267.94452023788966,64.28478536937583
289,35.627422504184445,-260.3691425728121,-51.77273258505114,-58.376146875904105,-17.69418331428739,-20.93361154738426,267.86739928766036,65.39485155525692
290,35.605795984440626,-260.32090610201766,-51.762936601590766,-59.999339153772624,-16.666498921363388,-20.665482815604882,267.81603659641206,66.5209707343294
291,35.58754480772513,-260.29330937704236,-51.77702901551908,-61.602688509990166,-15.581871806395693,-20.364696331694912,267.78985317806115,67.63023352641325
292,35.57378403938465,-260.28500371686016,-51.815369036023945,-63.14812574637401,-14.44187800984099,-20.039211980978703,267.7877557459587,68.69301762618588
293,35.565385417240535,-260.29430617622467,-51.877778545722144,-64.60203219456199,-13.24841799596724,-19.697473903220125,267.80818865601805,69.6836701738118
294,35.56295425153815,-260.31926162567754,-51.96355587398315,-65.93590118629895,-12.00379109743883,-19.348260619527135,267.8491939114584,70.58102229759132
295,35.566817486599845,-260.35770668878126,-52.07150557806461,-67.12680443849816,-10.710784191906733,-19.000518248525463,267.9084776036939,71.36872963946065
296,35.57702288092222,-260.4073338335449,-52.19998357321412,-68.15766423544756,-9.372771192458103,-18.663177970586453,267.98348099304746,72.0354406706447
297,35.59334874694642,-260.4657540308063,-52.34695627193047,-69.01733978694296,-7.993818126980031,-18.344960474315748,268.07145434406624,72.57480158780096
298,35.61532329181809,-260.53055666438127,-52.51007156346102,-69.7005419233478,-6.578786879051238,-18.054171840832584,268.16953168147404,72.98531202922814
299,35.64225219465104,-260.59936574660264,-52.686738714652854,-70.20759416543254,-5.133429306627327,-17.798496962849622,268.2748047940363,73.270049537861
300,35.67325269481328,-260.6698918556533,-52.87421383038605,-70.54406027911337,-3.664462659931692,-17.58479794729731,268.3843950339922,73.43628267073784
301,35.707292323979544,-260.73997952332695,-53.069687375034235,-70.72025899806899,-2.1796171253713643,-17.418925818247214,268.49552171717863,73.4949931544262
302,35.7432305857667,-260.80765007583216,-53.27037026812474,-70.75068604121664,-0.6876469809673156,-17.3055540977381,268.6055662170936,73.46032683077438
303,35.77986230412877,-260.8711401394247,-53.473575144547475,-70.65336222891062,0.8017017576483473,-17.248042502009074,268.71213111520416,73.34899166693033
304,35.815961825154204,-260.9289360603375,-53.67678953179224,-70.44912481251927,2.2777722876727187,-17.248338162210416,268.81309389490156,73.17961921482946
305,35.85032751515478,-260.9798042620481,-53.877737996688815,-70.16087752267043,3.7291291497135584,-17.306920567951515,268.90665453629356,72.97210403042791
306,35.88182590897111,-261.0228171041201,-54.074430826520114,-69.8128136643303,5.143741363605977,-17.422794843314104,268.99137601147993,72.74693402064392
307,35.909434504000295,-261.05737326434695,-54.2651975272747,-69.42962598180611,6.509213589499546,-17.59353593794465,269.0662162484005,72.52452358165269
308,35.932281812101174,-261.0832112213242,-54.44870417731439,-69.03571695554304,7.813059655826895,-17.815383855800963,269.1305498004492,72.32456068994364
309,35.94968313293053,-261.1004141999029,-54.623954347910356,-68.65442360924696,9.043010384502812,-18.08338729008543,269.1841773679072,72.16537876849901
310,35.9611706951216,-261.10940499244896,-54.790274016598254,-68.30727176829825,10.187345607780305,-18.391590218430874,269.2273215385296,72.06336419108017
311,35.96651717142336,-261.1109293713211,-54.94728180294456,-68.01327598339739,11.235238646814953,-18.73325340288228,269.2606076433381,72.03241072873394
312,35.96575185462073,-261.106027367115,-55.0948468221872,-67.78830287562216,12.177100273421795,-19.101100576347402,269.2850294013701,72.08343300379738
313,35.95916887727607,-261.0959924619675,-55.23303719187298,-67.64451712649509,13.004908309306774,-19.487577544995773,269.3018999398577,72.22395183023201
314,35.94732687818486,-261.08231958747774,-55.36206261526469,-67.58993017567914,13.712508676476038,-19.885111582744425,269.3127896685108,72.457764744105
315,35.93103964371169,-261.0666435560162,-55.48221462262639,-67.6280712948751,14.295874108128702,-20.286358409498394,269.3194532472674,72.78471461314622
316,35.91135757779978,-261.050670122561,-55.59380814290748,-67.75779867648384,14.753307966723112,-20.68442479304711,269.3237484964179,73.20056771283491
317,35.88954032658993,-261.0361023015554,-55.69712810289866,-67.9732644364215,15.085582631375255,-21.073056386971324,269.3275505791201,73.69701009109971
318,35.8670213672453,-261.024564905391,-55.7923845324775,-68.26404215625622,15.296004542850543,-21.44678268275832,269.33266513930806,74.26176758309009
319,35.84536577019846,-261.0175305493319,-55.879679028638535,-68.61541906529877,15.390401043060415,-21.80101369562487,269.3407442763507,74.87885066278774
320,35.826222640213686,-261.0162505835847,-55.95898441998187,-69.0088475545445,15.377027453224812,-22.132085984298495,269.3532092840752,75.52892061744984
321,35.81127393954383,-261.0216945486262,-56.03013830114047,-69.4225429339533,15.266396273245032,-22.437258598860662,269.37118400400243,76.18976857653746
322,35.802181487443704,-261.03450171543085,-56.09285006777205,-69.83220687071223,15.07103381828271,-22.714662334860357,269.39544241198223,76.83689410390109
323,35.800533896360214,-261.0549479558795,-56.14672034365013,-70.21184951104982,14.805172804632404,-22.963208033956338,269.426373595573,77.44416579156828
324,35.80779505707036,-261.08293056183317,-56.191271193302065,-70.53467849834915,14.484392024560577,-23.1824614460444,269.4639665480848,77.98454293054506
325,35.82525560520621,-261.1179727402678,-56.22598510365815,-70.7740202802132,14.125216037136363,-23.372493283654787,269.5078162297841,78.43083510223953
326,35.85398869525868,-261.1592484230413,-56.250350346526794,-70.90423820622995,13.74468870984006,-23.533713606279505,269.5571511971574,78.75647547569513
327,35.8948113872502,-261.20562681855944,-56.263910061161276,-70.90161261482653,13.359934660401946,-23.66669972950048,269.61088186558277,78.93628357070916
328,35.94825293303592,-261.25573487708874,-56.2663122365609,-70.74514997600326,12.987722419851126,-23.7720266561717,269.6676672174768,78.94719404346893
329,36.014531178356215,-261.30803464516225,-56.25735765803627,-70.41729093948572,12.644042632019524,-23.85010868984939,269.72599657548676,78.7689295343208
330,36.09353817799919,-261.36091150859295,-56.23704283939276,-69.9044907826015,12.34371386803296,-23.901060401406397,269.7842820907186,78.38459776744762
331,36.18483592968607,-261.41276872517136,-56.205595178866396,-69.19765025944871,12.10002765805126,-23.924584402107673,269.8409570378337,77.78119590515043
332,36.28766280993873,-261.46212345674684,-56.16349816822023,-68.29238010568479,11.924443142862316,-23.919892373135568,269.89457490764477,76.95000852413627
333,36.400950846342134,-261.5076995898645,-56.11150529983629,-67.18908823201434,11.826340358732393,-23.885664509765597,269.94390447974376,75.88688930508947
334,36.523353448309166,-261.54851277816357,-56.05064208958685,-65.89288479291855,11.812839574400407,-23.820051006747047,269.9880162929685,74.59242049109808
335,36.65328270441462,-261.58394324270404,-55.982196245671744,-64.41330682545433,11.888692238875924,-23.72071749460935,270.02635608988743,73.07194838003791
336,36.78895491678461,-261.6137920395348,-55.90769652236786,-62.76387099190107,12.056246962591079,-23.584934455724145,270.05880102367945,71.33549756700036
337,36.92844275902221,-261.6383169824925,-55.828881252007804,-60.96146999203573,12.315491649524978,-23.409708622686114,270.0856949316049,69.3975712394039
338,37.06973228682576,-261.65824532608366,-55.74765790168842,-59.02563520812635,12.66417061689553,-23.19195225197998,270.1078599146715,67.2768493729479
339,37.21078288518598,-261.6747616039912,-55.66605521623366,-56.97769477561705,13.097973462546907,-22.92868408149747,270.1265827335365,64.99580091765708
340,37.349588060980835,-261.6894704850159,-55.58616963510384,-54.83986200892882,13.61079064496787,-22.61725388227312,270.14357595012444,62.58022956778599
341,37.484234862999195,-261.7043358958445,-55.51010774219893,-52.63429328731316,14.195029166749407,-22.255581012003542,270.1609150855125,60.05877492944944
342,37.61295970289675,-261.72159878355745,-55.43992647025056,-50.38215656346388,14.841980238241355,-21.84239643219949,270.1809541461519,57.46239139300179
343,37.73419845892631,-261.74367676757225,-55.3775726314382,-48.10275136870315,15.542229181794314,-21.377477260081804,270.20622270617696,54.82382562780964
344,37.846628967357,-261.77304969673236,-55.32482323100844,-45.812718660495776,16.286096068447343,-20.86186295542755,270.2393084830076,52.17711049821051
345,37.949204359061184,-261.81213580440317,-55.28322808973372,-43.5253744154918,17.06409374655369,-20.298042579130477,270.2827300599873,49.557088743945464
346,38.041176159411144,-261.8631636210718,-55.25405652093313,-41.25019491812363,17.867388178883303,-19.690103204144325,270.33880496705507,46.998974500705344
347,38.12210658371808,-261.92804498463045,-55.23824999162263,-38.9924746102193,18.688244513730325,-19.043830566547367,270.4095186108598,44.53795518426077
348,38.191869962000645,-262.0082544232186,-55.236382659117496,-36.75316952140155,19.520441258682535,-18.366754428847628,270.4963995410945,42.20883090164539
349,38.25064363117978,-262.10471989710703,-55.24863134374333,-34.528931149916794,20.359634512126597,-17.668132836258735,270.60040624589305,40.04568385020819
350,38.29888888780845,-262.21772935700227,-55.274755966336734,-32.31232774023659,21.203654642222407,-16.958871405723634,270.7218300804014,38.08156658122436
351,38.3373227733828,-262.3468569087231,-55.31409098389574,-30.092242674803288,22.052719251010494,-16.25137595628276,270.8602182083376,36.34819593027304
352,38.36688171401163,-262.490911771887,-55.36554812846834,-27.85443346934386,22.90954881027685,-15.55933916569292,271.0143198419012,34.8756390989703
353,38.38867839610565,-262.6479127419172,-55.427630792399796,-25.582229797885468,23.779374964076204,-14.897464498600312,271.1820586618993,33.691979859596984
354,38.403953633569415,-262.8150903910431,-55.49846047270982,-23.25734514558241,24.66983598107744,-14.281133295005162,271.3605339083859,32.82295598583791
355,38.414025271793605,-262.98891868090953,-55.575815533601265,-20.860774057437283,25.59075896392606,-13.726023484424886,271.54605209537453,32.291563482028764
356,38.42023629893328,-263.1651769545073,-55.657182052632336,-18.373745317538646,26.553833930013827,-13.247690760928256,271.73419053698547,32.11762858230794
357,38.42390419830916,-263.3390423016367,-55.739815782086225,-15.778700416848647,27.572190469711973,-12.861125075935393,271.9198927610504,32.31735429780475
358,38.426273178238965,-263.5052109758118,-55.82081357522441,-13.060266020605784,28.659892965628394,-12.580296814901695,272.09759441641364,32.90285388852724
359,38.42847042694134,-263.65804606019793,-55.897192245283314,-10.206188692601069,29.83137483956525,-12.417707893205932,272.26137669819934,33.88168843081425
360,38.43146715316379,-263.79174724425815,-55.96597272565139,-7.208199993409842,31.10083548927814,-12.38396322027504,272.4051429434688,35.256429173395595
361,38.43604496244808,-263.9005375368792,-56.02426737469132,-4.062780505253398,32.4816250765917,-12.487377616869487,272.52281300807334,37.02426731333743
362,38.442768067331805,-263.9788609779839,-56.06936812156245,-0.7717925680061771,33.98564195845767,-12.733632418757415,272.60852925606736,39.176694043647075
363,38.45196189031623,-264.02158488728645,-56.098832805354135,2.6570463437148164,35.62276549067959,-13.125494708136758,272.65686742405836,41.69927232391404
364,38.46369870845133,-264.0241999145892,-56.110566601169246,6.209874533020333,37.40034365294329,-13.662610372698406,272.66304527782535,44.57151911198398
365,38.47779098374692,-263.9830110533143,-56.102895045785516,9.866601979352188,39.32275104529168,-14.341379965180764,272.6231218028848,47.7669131903775
366,38.49379281467449,-263.89531269280667,-56.0746250330609,13.60104647069989,41.39102889662922,-15.154923644505805,272.5341795302165,51.25303968617058
367,38.51100951816725,-263.75954066670005,-56.02509031291908,17.381298436902846,43.60261529620748,-16.093138466640852,272.3944824581976,54.99187832113028
368,38.5285148197561,-263.57539422508944,-55.95417856148056,21.170314791768035,45.95117112686701,-17.14284818091904,272.2036020398931,58.94023851841448
369,38.54517465880146,-263.34392111163066,-55.862338043510746,24.92673268610882,48.42650505985512,-18.288042651664597,271.9625040845509,63.050340600704544
370,38.55967634098038,-263.0675596684982,-55.750563142822976,28.605883823464215,51.014599260079265,-19.510201123472164,271.67359036543206,67.27053814220784
371,38.57056175860128,-262.75013328425644,-55.62035931975017,32.16097953482053,53.697735986183446,-20.78869078117991,271.34069034056137,71.54617184428729
372,38.576263621475135,-262.3967945377898,-55.47368912196658,35.54442691769258,56.4547238957008,-22.10122948747442,270.9690006190412,75.8205400146679
373,38.57514395605764,-262.01391885583297,-55.31290159071162,38.70922779731335,59.2612213278626,-23.424399372887958,270.5649723840732,80.03596492408269
374,38.56553439648546,-261.6089500584358,-55.14064778057801,41.61040574242408,62.090151826439424,-24.73419626046799,270.1361495747868,84.13492824630532
375,38.54577799023155,-261.19020249233535,-54.959785342651706,44.20640238476194,64.91220448141709,-26.006598782125398,269.69096295679117,88.06124292675412
376,38.51427240334347,-260.76662634487195,-54.77327545832412,46.46038324690415,67.69640833917175,-27.21814044522931,269.2384871362729,91.7612238516899
377,38.46951448078436,-260.3475442088721,-54.58407594069979,48.341395515382345,70.41076641665686,-28.34646779582771,268.78816912179917,95.18481640790219
378,38.410146024395786,-259.94236817965276,-54.395034911024226,49.82532592515447,73.02293118253193,-29.370868224585998,268.3495383175087,98.28664117706016
379,38.33500044387709,-259.56030774338484,-54.208789872246484,50.8956160871639,75.5009002540463,-30.27275194738012,267.9319088331291,101.02691508097156
380,38.24314975178579,-259.2100793351009,-54.027677008808396,51.543704760196476,77.81370903411211,-31.036074322299793,267.54408557123594,103.37221438763233
381,38.133951283081096,-258.89962858076694,-53.85365500518661,51.76918097287783,79.93209652723901,-31.647686922253705,267.194085564275,105.29605282470628
382,38.00709345794118,-258.6358758358411,-53.688246663328776,51.579647497494975,81.82912188943187,-32.09760853358068,266.8888854337272,106.77925799192958
383,37.86263974686942,-258.4244946752609,-53.53250037933487,50.990309707202215,83.48071240062617,-32.37921024395358,266.63420464873184,107.81014038118391
384,37.70106966028336,-258.2697315343082,-53.38697237126724,50.02331899625449,84.86612824536786,-32.48931173590084,266.43433256671386,108.38446051359972
385,37.52331508020896,-258.1742729009516,-53.251729480362194,48.70691158050883,85.96833522451611,-32.4281886212279,266.2920052057004,108.50520993794444
386,37.330789678623404,-258.13916448492074,-53.126371323441994,47.07439187088343,86.77428255290268,-32.19949304456673,266.2083354896615,108.18223022543313
387,37.12540868789589,-258.16378473252007,-53.01006961040578,45.16301438368697,87.27508841409148,-31.8100917941317,266.18279845132906,107.43170000224151
388,36.90959603947302,-258.2458729674787,-52.90162175234708,43.012819324815716,87.46614025951892,-31.269827747756715,266.21327067550465,106.27552313285985
389,36.686275918990624,-258.38161041296087,-52.79951556654658,40.665474858794404,87.34711950421219,-30.591211667116916,266.2961212379124,104.74065136423914
390,36.458846122407905,-258.56575055451844,-52.70200182625271,38.16317417826647,86.92196110067627,-29.78905218139341,266.42634968316537,102.85837230272045
391,36.231131262341364,-258.7917938532386,-52.60717145385574,35.54762846608057,86.19875758273264,-28.88003235062526,266.59776527558296,100.66358902287156
392,36.00731483052951,-259.0522006783051,-52.51303427172765,32.8591883215921,85.18961495390657,-27.882241642210122,266.8032008016018,98.19411161790939
393,35.79185028268111,-259.3386353950727,-52.41759644896728,30.13611679149147,83.9104647792344,-26.81467276204627,267.03475349826766,95.48997439772609
394,35.589352616892995,-259.6422337566177,-52.3189341364374,27.41402738592594,82.38083355396245,-25.69669377124424,267.28404516563535,92.5927859462482
395,35.404473326602584,-259.95388507346155,-52.215261236389956,24.72549097684998,80.62356738457218,-24.547507316669307,267.5424931521971,89.54511346544555
396,35.24176301317858,-260.26452005627505,-52.10498975928835,22.09980683583016,78.66450779095577,-23.385610466764454,267.80158363571576,86.38989830653111
397,35.10552714572736,-260.56539477441584,-51.9867816736391,19.56292569909677,76.53211360654872,-22.228270362327514,268.0531384396502,83.16989683345487
398,34.99968126614862,-260.8483609590234,-51.8595913910546,17.137506862651307,74.2570249533634,-21.091032425180554,268.28956657278536,79.92714013264228
399,34.92761226394191,-261.1061130325246,-51.722698019287236,14.843086896803815,71.87156820641381,-19.987278915958665,268.5040918643797,76.70240759038205
400,34.892052180957286,-261.3324028641876,-51.57572647642081,12.696334419729078,69.40920541757511,-18.92785583725156,268.69094862962385,73.53471259285166
401,34.89497034284065,-261.52221438436305,-51.418656732575286,10.71136321723063,66.90393712687947,-17.920785210749813,268.84553834195617,70.46080278459395
402,34.93748843862192,-261.67189182998413,-51.25182083758426,8.900074720569412,64.38967289304335,-16.971077421708102,268.9645418053474,67.51468149902013
403,35.019821573281135,-261.77921745861255,-51.075887811907144,7.2725005651533365,61.89958828112418,-16.080654629873468,269.0459832061406,64.7271602858267
404,35.141246564916585,-261.84343687345404,-50.891836759411405,5.837116888316693,59.46548977147932,-15.248391442322431,269.0892445011365,62.125454347735435
405,35.30009723302822,-261.8652323617685,-50.70091872005309,4.60110440534783,57.11720982394392,-14.470273578386486,269.09503063747945,59.73283301952226
406,35.493785448423914,-261.8466466386413,-50.50460804076151,3.570532241240506,54.88205327460399,-13.73966964531887,269.0652879625121,57.56833641406727
407,35.71884631491642,-261.7909611372945,-50.304544666360286,2.7504489580434486,52.78431376471748,-13.047705845665538,269.00307995019716,55.64656748410706
408,35.971005740156016,-261.7025346618421,-50.102469702348984,2.144871042460267,50.844875483781166,-12.383728800578632,268.9124261626956,53.97756648408187
409,36.245268513616274,-261.5866098046681,-49.900157479979875,1.756667040943405,49.08091154249206,-11.735837912150247,268.79811205170955,52.566772495150516
410,36.53602476193946,-261.4490957988623,-49.699347789405024,1.5873441417461842,47.505686011619,-11.091465910287448,268.6654784797612,51.41507439032715
411,36.837172390010686,-261.2963372103359,-49.50168188712904,1.6367526935154209,46.128462203062504,-10.437984493919531,268.52020049994246,50.518951245266045
412,37.142252920108646,-261.1348779907081,-49.308645471627706,1.9027321517463796,44.95451527449214,-9.763311297365107,268.36806493148066,49.87069956286678
413,37.44459799581733,-260.97122992826377,-49.1215211662765,2.380728477255061,43.98524294157122,-9.056494725800968,268.21475564530243,49.458741725684284
414,37.73748364098024,-260.81165356565964,-48.9413522056046,3.0634174012107738,43.21836430086143,-8.308254389913,268.0656543411844,49.26800701282282
415,38.0142890941781,-260.6619584039696,-48.76891808831035,3.940369757812033,42.64819384105262,-7.511456838000982,267.92566316445317,49.280373740656685
416,38.26865672318162,-260.5273278615512,-48.604722107512394,4.997794109667987,42.26597590621411,-6.661508981272151,267.7990539858302,49.47515910410778
417,38.494649312754426,-260.41217306141044,-48.448990038943606,6.218388261916254,42.060264261416634,-5.756654938836234,267.68934765665244,49.82964245580662
418,38.68690103727934,-260.32001809705855,-48.301678891081544,7.581325212192179,42.01733191451029,-4.798165815002198,267.59922509127495,50.31960814825078
419,38.840758640227655,-260.2534180708899,-48.16249440348012,9.062390906371993,42.1215977626239,-3.7904159461972378,267.53047069123295,50.91989551096612
420,38.952409556551494,-260.2139100703287,-48.030915770633264,10.634281283566207,42.35605867484086,-2.7408432031255643,267.4839475125234,51.6049456624554
421,39.01899375814665,-260.2019964443568,-47.906225808070815,12.267055115030201,42.70271796585973,-1.6597948250463719,267.4596027482135,52.34933712850559
422,39.038695975806576,-260.2171592376343,-47.78754458561694,13.92872789240365,43.14300352632871,-0.5602638985830357,267.4565015469038,53.12830405101484
423,39.01081480166231,-260.25790430131866,-47.67386462261651,15.585981504129137,43.658170832611916,0.5424750475663789,267.47288684331926,53.91823156625608
424,38.935805172600276,-260.32183326155234,-47.56408615108711,17.20495575954955,44.22968735721369,1.6313197768328542,267.5062626172901,54.69712234793858
425,38.815291019271676,-260.40574106508285,-47.45705161875215,18.752081995005515,44.83959531491079,2.687869040521303,267.5534977082939,55.44502641203605
426,38.65204554703134,-260.5057362326454,-47.351579332664826,20.194916705163227,45.47084917508301,3.6930093195715123,267.6109469734807,56.144423684511466
427,38.449937701664986,-260.6173803386071,-47.24649670123649,21.502934549570018,46.107623157942854,4.627540447489319,267.67458624704807,56.780546515994295
428,38.213844753350436,-260.7358427077952,-47.140673720728,22.648244814796826,46.73558239172246,5.472819140242545,267.74015728955385,57.341628176198626
429,37.94953247648012,-260.85606592753095,-47.03305713676969,23.60620267182691,47.34210996908538,6.211398331563354,267.8033187294454,57.819063819789555
430,37.66350598808495,-260.9729375529745,-46.92270527711125,24.355895335418197,47.91648122243868,6.827640001048628,267.8597989461471,58.20747246395048
431,37.36283576392676,-261.0814633724433,-46.80882315156701,24.88049248529333,48.44997654597681,7.308279967086852,267.9055469760587,58.50465190520088
432,37.05496449852545,-261.1769377350436,-46.69079713316213,25.167459235473025,48.93592537576552,7.642924784431035,267.9368777671239,58.71142298259948
433,36.74750123697524,-261.2551065661422,-46.568228271347344,25.20863804628503,49.369676628981466,7.8244632500420135,267.9506082816646,58.831364958458686
434,36.44800964922876,-261.3123187095064,-46.440962968271386,25.000213031413235,49.74849476218414,7.849377924209363,267.9441809549853,58.870449727163894
435,36.16379755883075,-261.34566119290844,-46.309119428202244,24.5425759233576,50.07138508564748,7.717945380014067,267.91577094058835,58.836588558493105
436,35.90171490700975,-261.3530740317656,-46.17310805070668,23.840117153535182,50.338856437329106,7.434317463900313,267.8643735444976,58.73911046804347
437,35.667967122002445,-261.33344031931074,-46.03364380824446,22.900967553709396,50.55263326361061,7.0064795720304875,267.78986831867553,58.588195464073785
438,35.46795021945116,-261.28664759917353,-45.89174868453822,21.73671566786286,50.71533223983197,6.4460857478138225,267.6930564358783,58.39428846589274
439,35.306112847654596,-261.21361693877117,-45.74874256492051,20.36212250263777,50.83012063869825,5.768174228187083,267.5756682828565,58.167520574444076
440,35.18584908725316,-261.1162969070687,-45.60622156087768,18.794850088479482,50.900374734871036,4.99077087602068,267.44033889162466,57.91716383916692
441,35.10942440700936,-260.99762093564647,-45.466023417745376,17.055213158101683,50.929356735041125,4.134391736354878,267.2905500047116,57.65114406081578
442,35.07793596087881,-260.8614281467122,-45.330180234388905,15.165955465530455,50.91992813272973,3.2214597024692964,267.13053907638255,57.37563374204539
443,35.091307422609724,-260.7123493263916,-45.20085928621781,13.152044762923506,50.87431597391199,2.2756537640603773,266.96517703118377,57.0947440574139
444,35.14831776563781,-260.55566113994644,-45.08029340404524,11.040474213653802,50.79394615881395,1.321212211468839,266.7998179882249,56.810330548739664
445,35.24666274340474,-260.39711301912655,-44.97070303479257,8.860053854652012,50.679354505152766,0.3822132584321377,266.6401254817422,56.52192216674179
446,35.383047159456645,-260.2427324540481,-44.87421259251998,6.641174047813516,50.5301819101672,-0.5181422565381162,266.49188096470505,56.22677752195539
447,35.55330519030152,-260.09861552964725,-44.792763919243356,4.4155236372876985,50.34525479448377,-1.3582211876955723,266.36078138137873,55.920066171951895
448,35.752545040114875,-259.97071027857777,-44.72802972893407,2.2157483733112504,50.12274645538243,-2.1185973330990233,266.25223318020414,55.595166864632205
449,35.97531321168392,-259.86460075251483,-44.68133001431525,0.0750395429051226,49.86040946545321,-2.7826174392205147,266.17115033869345,55.244069237074605
450,36.215772826257414,-259.7852996818078,-44.6535546806959,-1.9733519071002394,49.555864313715105,-3.33687462960175,266.12176386592085,54.857860807734866
451,36.46788977879444,-259.7370572308122,-44.645096040243,-3.8966747378079063,49.206925506702845,-3.771573443534437,266.10744985791274,54.42727733732976
452,36.72562006377,-259.723192735056,-44.65579501505841,-5.663303656930395,48.81194357221143,-4.0807745712240076,266.1305825361769,53.943291802706696
453,36.983091375329955,-259.7459555261099,-44.684904779356565,-7.243420687580463,48.37013993285824,-4.262511505538197,266.1924178729239,53.397715355207225
454,37.23477220154076,-259.8064200567468,-44.731075064413275,-8.60973548381999,47.88191147975481,-4.318775681325646,266.29301245579376,52.78378282768175
455,37.47562221794595,-259.9044195051466,-44.79235946830873,-9.738224740781726,47.34908294641969,-4.2553712555922925,266.43118116590125,52.09669579201339
456,37.701218801645346,-260.0385208249531,-44.866246943019426,-10.608867939766265,46.77508793698065,-4.081645430962813,266.60449600791554,51.33409801344347
457,37.90785575700064,-260.20604284576297,-44.949717305768054,-11.206354436023801,46.16506369142357,-3.810104951885312,266.8093270612926,50.49646143334561
458,38.09261169174476,-260.40311758922985,-45.039319218879406,-11.520735337333898,45.52585020565318,-3.455933825589172,267.04092507554634,49.58736539530283
459,38.25338679677746,-260.62479345337647,-45.13126767965372,-11.547992930553242,44.86589081515036,-3.036431156364711,267.29354371016984,48.61365741165552
460,38.38890803589448,-260.8651772584507,-45.22155684426996,-11.290500908655435,44.1950382462501,-2.5703910239435253,267.56059777662443,47.585489915313765
461,38.49870400590664,-261.11761038109404,-45.30608315947554,-10.757350614397083,43.524276712586214,-2.0774484232470445,267.8348521540006,46.516233615035596
462,38.5830520454581,-261.37487260305693,-45.38077330975377,-9.964522067785083,42.86537616052003,-1.5774162451802356,268.1086346004728,45.422273750617244
463,38.64290147718008,-261.62940618991786,-45.44171134169355,-8.93488354445742,42.230498759135315,-1.0896379771571403,268.37406476279955,44.32270037635237
464,38.67977796430113,-261.87355219198736,-45.48525950354913,-7.698009510550088,41.63178002353431,-0.6323792269090391,268.6232913614148,43.238907622120294
465,38.69567468668084,-262.0997908722752,-45.508167863654585,-6.289813259105741,41.08090760884517,-0.22227848845989606,268.8487296325754,42.19411962063079
466,38.6929363561506,-262.3009783352846,-45.50766860446672,-4.751997176906576,40.588719962068836,0.12612593518271248,269.0432914558877,41.21286241464438
467,38.67414203548694,-262.4705718212094,-45.4815519404302,-3.131329889577957,40.16484486667431,0.400779945428739,269.2006011441852,40.320401678143455
468,38.64199232839642,-262.6028367982245,-45.42822179421272,-1.4787653255731403,39.81739471364867,0.5923999202461062,269.31519066807226,39.54216553610438
469,38.59920575377998,-262.69302990520555,-45.346730585825455,0.15157629052872895,39.55273138420568,0.6946567676470873,269.38266908554573,38.90317020285584
470,38.54842799553829,-262.73755282747595,-45.236793601204766,1.703541639374984,39.3753092607263,0.7042572179518826,269.39986198516755,38.42746370742072
471,38.49215634272914,-262.7340732037679,-45.098784305603075,3.120165230046829,39.287600393853666,0.6209253173654605,269.3649177038605,38.13759988944935
472,38.43268025776423,-262.6816096109709,-44.93371263466688,4.344950248289565,39.29010145234608,0.44729012621443887,269.2773779268744,38.0541514652297
473,38.37203786029682,-262.58057851097095,-44.74318871182203,5.323181312648245,39.38141790708417,0.188688253384202,269.1382110032209,38.1952676239266
474,38.31198727110461,-262.43280175972683,-44.52937452964499,6.003241635807523,39.558417147537625,-0.14710790538499696,268.949806903338,38.576278662810175
475,38.253991212514585,-262.24147396386815,-44.29492588206312,6.337907789311532,39.81643920054054,-0.5502235650752478,268.7159332928873,39.20934792869343
476,38.19921297425023,-262.01108974255374,-44.042926384467435,6.285595585578297,40.14955170940109,-1.0090626366582478,268.4416528312819,40.103170028508735
477,38.148521773562756,-261.7473318534263,-43.77681500913566,5.811530166008582,40.550834971156064,-1.5107218037754264,268.1332025988814,41.262713978391815
478,38.10250562922572,-261.4569221706814,-43.500308421652825,4.888812247770525,41.0126830408858,-2.041422721270901,267.797837545755,42.689010577959046
479,38.06149008855175,-261.1474386676266,-43.21731961001839,3.4993510672296586,41.527107922986374,-2.58694789875484,267.4436410526285,44.378984563589135
480,38.025561371761874,-260.827102828705,-42.931874672865526,1.6346335778708463,42.08603530928172,-3.133066857985594,267.07930702789326,46.32533367117412
481,37.99459259784139,-260.5045432191981,-42.64802986986425,-0.7037003065007867,42.681581839188425,-3.665940709908989,266.7138992876653,48.51645833209642
482,37.9682717493948,-260.1885422020044,-42.36979100730895,-3.503504567391287,43.30630517492585,-4.172495292480885,266.3565951883909,50.93644714225452
483,37.946130059000055,-259.88777391687285,-42.10103706114066,-6.742020000251305,43.95341914833183,-4.640755292630171,266.01642155246554,53.56512434460608
484,37.92756964557948,-259.6105424173,-41.84544977191177,-10.386031015502006,44.616966878407474,-5.060134104609971,265.70199167749547,56.378166234718975
485,37.911889460698724,-259.3645290533599,-41.60645075733052,-14.392296556336253,45.29194533125262,-5.421676258450948,265.4212524059009,59.34729355112395
486,37.89830881380793,-259.1565577617016,-41.3871473655692,-18.70825701296563,45.97437564594256,-5.71825082348314,265.18124978787347,62.44054649618498
487,37.885987865962946,-258.99238607285054,-41.19028801237461,-23.273010448383907,46.66131495646726,-5.944695113768875,264.9879209759226,65.62264802553948
488,37.87404458873568,-258.8765285858878,-41.018227234789144,-28.01854300112334,47.35080752408868,-6.097908346453077,264.84591888560243,68.85545945791652
489,37.86156796177297,-258.8121185111053,-40.87290031857889,-32.87119013369327,48.041775734022195,-6.176894847361559,264.7584750150644,72.09853032630016
490,37.84762772958346,-258.8008117167219,-40.75580710945738,-37.753297549776164,48.73385473275805,-6.182756215493744,264.72730472317863,75.30974170140036
491,37.8312817477168,-258.8427365760841,-40.668004323784494,-42.58504326499225,49.427177838181976,-6.1186317590043355,264.75255821709504,78.44603884201544
492,37.81158259080421,-258.9364917336511,-40.61010529398495,-47.28637563989611,50.122122864283135,-5.989586718001113,264.8328193907711,81.46424476316865
493,37.787585449379684,-259.0791925563569,-40.58228584453206,-51.77901621043812,50.81903173651703,-5.802448549331078,264.96515335433645,84.32194104350482
494,37.75835924911907,-259.26656545983803,-40.58429508274017,-55.98847086127946,51.51791707620067,-5.565593015915784,265.145201955526,86.9783960771588
495,37.7230023624762,-259.49308758005145,-40.61547021739459,-59.8459884561644,52.218169978725406,-5.28868389425577,265.3673248859729,89.39551456207677
496,37.68066342360754,-259.75216751053114,-40.674754862894275,-63.290403043905165,52.91828331232365,-4.982372472253774,265.62478218652956,91.53877618359205
497,37.63056684595975,-260.0363611202261,-40.76072050197542,-66.26979509547789,53.61560469026874,-4.6579652823550886,265.90995220317063,93.37812718510634
498,37.57204179618727,-260.33761488434936,-40.87159089635038,-68.74290978780616,54.30613274708792,-4.327070380419883,266.2145773954705,94.88878667834834
499,37.50455262548071,-260.6475277911064,-41.005269391027134,-70.68027669847706,54.98436928121375,-4.001233713534411,266.53002897718363,96.05193072066842
500,37.42772821585889,-260.957621828996,-41.1593692986769,-72.06498548561922,55.64323805400306,-3.691577620579453,266.84758029322336,96.85522159039286
501,37.34138754990445,-261.2596104358239,-41.33124776370883,-72.89308570295536,56.27407851708358,-3.408453333083504,267.15867823884986,97.29315704765455
502,37.24555909919933,-261.54565424400244,-41.518043602946065,-73.17359479750432,56.86671954442368,-3.1611187006983186,267.45520203595476,97.3672238621345
503,37.14049219516672,-261.8085941193029,-41.71671961456844,-72.92811519354318,57.40963451887579,-2.957451518735998,267.72969940672556,97.08585035458258
504,37.026659236217824,-262.0421528927574,-41.924109725808755,-72.19007785243483,57.89017507916735,-2.8037079142032653,267.97559163195046,96.46416296703312
505,36.90474835344334,-262.2410991246971,-42.13697100311186,-71.00364474402835,58.294876735214466,-2.704334158172277,268.1873409296261,95.52356101670497
506,36.77564698646678,-262.4013683375545,-42.352039913130085,-69.42231549880678,58.60982566791108,-2.6618388147653897,268.3605756589793,94.29113116267847
507,36.640417622160264,-262.5201391240607,-42.566091474176524,-67.50729362542972,58.821072560582,-2.6767301813182836,268.4921707790197,92.79892835874705
508,36.500267602769114,-262.5958633139668,-42.77599941233849,-65.32567480993838,58.91507642524048,-2.747521553799818,268.5802827366034,91.08315306509903
509,36.35651533861647,-262.62825100158227,-42.978795289804715,-62.94852390682,58.879159212071144,-2.8708041555496226,268.6243395737318,89.18325535734782
510,36.210555406259495,-262.6182127476787,-43.17172463496841,-60.44890842987148,58.7019506929371,-3.041384851871918,268.62498854391765,87.14099566938144
511,36.063824807350265,-262.567762758479,-43.35229815851388,-57.899954981952625,58.37380299893155,-3.2524832275944573,268.584004957893,84.99948989961634
512,35.91777208772174,-262.47988836113484,-43.5183362149727,-55.37299154564271,57.88715564603068,-3.4959803017453073,268.50416739262755,82.8022643200429
513,35.773830190924656,-262.3583925035744,-43.66800492671067,-52.935833157243884,57.23683506208491,-3.762709131306093,268.3891057033788,80.59234374151691
514,35.633393105450786,-262.2077170295473,-43.79984284531511,-50.65126116231042,56.42027723205448,-4.042775916559615,268.2431292411247,78.41139473807084
515,35.49779582836001,-262.0327549200137,-43.912777572156095,-48.575736829827164,55.43766739138329,-4.325899131607267,268.0710431219095,76.29894397912543
516,35.36829699215905,-261.8386595429156,-44.00613231841721,-46.758378659749184,54.291995880698,-4.601753821164736,267.87796031350786,74.29168933617174
517,35.24606351798181,-261.6306583332326,-44.07962286548804,-45.24021981162675,52.98903365779194,-4.860308573258374,267.6691167781803,72.42291811262781
518,35.1321566560896,-261.4138774112082,-44.133345656026336,-44.05374870772048,51.53723417104319,-5.0921436713646715,267.4496960611134,70.72204247746735
519,35.02751876883947,-261.19318264355513,-44.16775784358922,-43.22272324599139,49.947570243413615,-5.288740309282079,267.22466874972116,69.2142572123118
520,34.932960399472854,-260.9730417028943,-44.18365031195138,-42.76223836081879,48.23331544228343,-5.4427322979745565,266.9986513566675,67.92031968714305
521,34.84914765121689,-260.75741077227207,-44.18211508535737,-42.67901870262432,46.40977943049423,-5.548113279602476,266.775788424008,66.85644718556388
522,34.7765905220422,-260.54964855556636,-44.16450898041363,-42.97190324597315,44.49400637822762,-5.600394046704831,266.5596608371882,66.03432287816885
523,34.71563330610795,-260.3524591204369,-44.13241544712625,-43.63248644103591,42.50444495326711,-5.596706170114039,266.3532223092368,65.46119919494762
524,34.66644828394355,-260.1678638947134,-44.0876062013183,-44.6458805101087,40.46059783474853,-5.535849843566135,266.15876477679325,65.1400860146211
525,34.6290336978543,-259.9972020393134,-44.03200372000451,-45.991564932719136,38.38265811642781,-5.418285715080343,265.97791226083234,65.07001062873186
526,34.6032165722416,-259.8411575650997,-43.96764529093132,-47.644291420247065,36.29113930951125,-5.246072467327876,265.8116417897396,65.24633643429702
527,34.58866040982973,-259.6998109379093,-43.89664915491888,-49.57501536467814,34.20650484804983,-5.0227539120297875,265.66032927983935,65.66112746717634
528,34.584877331725174,-259.57271242956125,-43.82118319769394,-51.75182767227267,32.14880205316045,-4.753201222686898,265.52381771895375,66.30354609000632
529,34.59124399669817,-259.45897402818974,-43.74343648899944,-54.140863910175554,30.137304575513717,-4.443417522179205,265.4015045061437,67.16027136837614
530,34.607020630230565,-259.35737621926455,-43.665593679715805,-56.70717062181697,28.1901666610316,-4.100313303119169,265.2924442597204,68.21592591529266
531,34.63137253149283,-259.2664852999183,-43.58981183293489,-59.41551137666899,26.32409244978759,-3.731462065379849,265.19546270191165,69.45349931721145
532,34.66339335824142,-259.1847761267609,-43.51819870467224,-62.23109758872434,24.554024133621688,-3.3448460945061425,265.1092763790969,70.85475678095534
533,34.70212934573897,-259.11075453120844,-43.452790944875886,-65.12023140120982,22.892854176419945,-2.948602485687838,265.0326122135725,72.40062241324512
534,34.74660349571517,-259.04307331663347,-43.395530396610866,-68.05085001711605,21.35116864930084,-2.5507793823712688,264.96432050333675,74.07152747224805
535,34.79583869545173,-258.9806358700176,-43.34823682871295,-70.99296281283416,19.937030500168692,-2.159111967734551,264.9034751168336,75.84771486607619
536,34.84887868505908,-258.9226819002062,-43.31257607859555,-73.91897466499474,18.655812658210547,-1.7808269527177831,264.8494552003984,77.70949218484677
537,34.90480586134793,-258.8688505831859,-43.29002356660028,-76.80389167803436,17.510090838709576,-1.4224830069699228,264.8020036431843,79.63742708588943
538,34.962755185839356,-258.81921747457574,-43.281824259274245,-79.62540947234974,16.49960462227422,-1.089852664850626,264.7612588242156,81.61248150722464
539,35.02192391527652,-258.7743029680844,-43.2889512141375,-82.36388953829997,15.621292942730575,-0.7878487097908543,264.7277577862133,83.61608525321165
540,35.08157735422302,-258.7350517812059,-43.31206567842984,-85.0022354286034,14.869406779248216,-0.5204950745873842,264.70241084286874,85.63015465232503
541,35.1410512235707,-258.70278480908706,-43.351482254662216,-87.52568683657591,14.235697961121618,-0.29093923713961806,264.68644957828303,87.63706738475437
542,35.19975148490222,-258.679126512682,-43.40714288859892,-89.92155486803411,13.709679005594518,-0.10150034348829715,264.68135204606295,89.61960921597799
543,35.25715253756948,-258.6659125355552,-43.478603346937945,-92.17892522983038,13.278945288022314,0.04625481253370958,264.68875045843726,91.56091142307059
544,35.31279464817418,-258.66508325194764,-43.565035267580264,-94.28835713193526,12.929547937276912,0.15141707459892134,264.7103275353286,93.44439866578401
545,35.36628135597948,-258.6785694254099,-43.66524565239852,-96.24160430156854,12.64640381261882,0.21363093227931576,264.7477079387191,95.2537658012544
546,35.41727746264786,-258.70817626984666,-43.77771395143639,-98.03138082286905,12.413727767362106,0.23299020081345947,264.8023510368088,96.97299885315054
547,35.46550803456141,-258.75547205962516,-43.90064502359471,-99.651188976827,12.215472110099386,0.20994112242450777,264.87545078204613,98.58645044880318
548,35.510758592037206,-258.8216869821862,-44.03203471022607,-101.09521951508468,12.035758694037892,0.1451989675859466,264.967847764743,100.07897415886691
549,35.5528763563424,-258.90762712174524,-44.169743872847796,-102.35832767865388,11.859290319963302,0.03968228830132443,265.07995753435097,101.43611608670368
550,35.59177211908393,-259.01360739292306,-44.31157653017948,-103.43608158496866,11.671729982997032,-0.10553305104608848,265.2117181551678,102.64435650844862
551,35.62742203005709,-259.1394060535625,-44.455357865539995,-104.324873946169,11.460038707078864,-0.2892399607471865,265.36255877958126,103.69138987361937
552,35.65986845251039,-259.2842422258826,-44.599008076090016,-105.02208374368237,11.212765017434442,-0.5101080980619609,265.53138985433236,104.5664282544258
553,35.68921912939978,-259.44677671377696,-44.74060831283815,-105.52627156489486,10.920281214524248,-0.7666770302232249,265.7166145134428,105.26051140472038
554,35.715644260888446,-259.6251353700589,-44.87845552954794,-105.83739080732798,10.574963313088052,-1.0573389535811055,265.916159843552,105.76680591349805
555,35.7393715543325,-259.81695337327716,-45.01110404255817,-105.95699679053904,10.171312739163804,-1.3803158545630418,266.1275260635426,106.08087642298673
556,35.76067964926432,-260.01943804183645,-45.1373928695808,-105.88843679568704,9.706018780098216,-1.7336359985466923,266.34785120699496,106.20091336380271
557,35.7798904218915,-260.22944725181287,-45.25645918333324,-105.63700590366675,9.177961599064457,-2.1151142029817005,266.57398857567773,106.12790390350725
558,35.797360606630534,-260.4435801164954,-45.36773923796525,-105.21005591878563,8.588156538954877,-2.522339606422411,266.80259399512386,105.86573553113837
559,35.81347314177948,-260.6582763033235,-45.47095876468005,-104.61704734966236,7.939641530762673,-2.952673685306607,267.0302197278631,105.42122462445575
560,35.828628805102184,-260.8699201948029,-45.56611508706681,-103.86953715551832,7.237310722891043,-3.4032601943723306,267.25341179492204,104.80406525727055
561,35.843238987390684,-261.0749460355461,-45.65345316885211,-102.98109769292867,6.487698965421902,-3.8710476202982242,267.4688074215045,104.0266963419097
562,35.85772061724934,-261.2699402418835,-45.73343753285469,-101.96716506014134,5.698723445550175,-4.352823699571654,267.67322933058864,103.1040880059008
563,35.87249408695756,-261.4517372142519,-45.80672149165928,-100.84481784059183,4.879390424891581,-4.845260552106167,267.8637736618845,102.05345086834905
564,35.88798450970824,-261.6175053502037,-45.87411450947146,-99.63249003101112,4.039476528072579,-5.344968036264433,268.03788846880934,100.89387454064202
565,35.90462592342442,-261.76482054368904,-45.936547985591965,-98.3496246548661,3.189195298009898,-5.848552155910741,268.1934401356,99.64590418752954
566,35.92286741365656,-261.89172522641434,-45.99503951877563,-97.01627720541865,2.3388607177184997,-6.3526749040687545,268.328765683935,98.33106636179116
567,35.94317979903406,-261.99677181723405,-46.050655879498905,-95.6526806144414,1.498559993278791,-6.854111877351728,268.44270971409765,96.97135756581471
568,35.96606156157249,-262.0790501249501,-46.1044754256779,-94.27878580953715,0.6778479213519508,-7.34980427600633,268.5346454816428,95.58871101938875
569,35.99204295877981,-262.138198721459,-46.15755128355331,-92.91379392536147,-0.11452554098674396,-7.83690240576677,268.60448020724635,94.20445876774683
570,36.021687541835774,-262.17440062050053,-46.21087693633634,-91.57569763469837,-0.8708444042299661,-8.312798456217154,268.65264512463204,92.83880734359124
571,36.05559054386642,-262.1883638660297,-46.265355788871204,-90.28084963734409,-1.5846046457942582,-8.775147126351325,268.68007105594756,91.5103455091199
572,36.094373786161675,-262.1812879398464,-46.32177595636246,-89.04357593920281,-2.250636094578804,-9.221873560903562,268.688150573385,90.23560201996125
573,36.138676900457455,-262.15481729029227,-46.38079113901019,-87.87585012530033,-2.865166353781598,-9.651168967108214,268.678688142665,89.02866982505118
574,36.18914483224968,-262.11098374305084,-46.442908070142245,-86.78704242204407,-3.4258280763839615,-10.061475115170621,268.6538400499669,87.90091067087103
575,36.24641179987691,-262.05213998652977,-46.50848070689487,-85.7837540758718,-3.9316138462200336,-10.451459631552828,268.6160463077724,86.86075081064905
576,36.31108210551901,-261.9808866106113,-46.577711052798776,-84.86974365476117,-4.382785421054685,-10.819984544130046,268.56795699520654,85.91357461058661
577,36.383708386960556,-261.8999952434689,-46.65065615093362,-84.0459476044946,-4.780745971005652,-11.16607092411386,268.512355517219,85.0617185713693
578,36.464768048865935,-261.8123301875038,-46.727240317880735,-83.31059311412922,-5.127885031770082,-11.488862679302068,268.45208106537325,84.30456397745701
579,36.554638724218044,-261.72077070201556,-46.80727123228223,-82.65939739572629,-5.4274060854900315,-11.78759253688414,268.3899522515454,83.63872236801703
580,36.653573699488526,-261.62813583198863,-46.890458234482075,-82.085844101758,-5.683145995509079,-12.061552954968896,268.32869360998257,83.05830452942686
581,36.7616782571568,-261.5371134635583,-46.97643122391529,-81.58152491423846,-5.899394127489464,-12.310074140390299,268.2708664571489,82.55526087692654
582,36.878887774057766,-261.4501950468711,-47.06475881755712,-81.13653239108422,-6.080717207484506,-12.53251064090745,268.2188053969688,82.11977899373578
583,37.00494819576719,-261.3696171764966,-47.15496481180991,-80.73988895047108,-6.231794172965796,-12.728237261214419,268.1745615515868,81.74072275603457
584,37.1393993738134,-261.29731104410274,-47.2465423056823,-80.37999633442598,-6.357263787966021,-12.896654423317186,268.13985346490784,81.40609683183688
585,37.28156182859674,-261.23486069785076,-47.33896507631299,-80.04508983702627,-6.46158681276065,-13.037202594775197,268.11602660021924,81.10352023255415
586,37.43052767569724,-261.1834709578245,-47.431696112791904,-79.72368180001979,-6.548924084428531,-13.149385024897786,268.1040223493323,80.82069281107695
587,37.58515654981521,-261.1439456341229,-47.524193705810404,-79.40497925282652,-6.623031895883913,-13.232797698634206,268.10435737165886,80.54583901402717
588,37.74407736700956,-261.1166763783791,-47.615915984739075,-79.07926116896209,-6.687176384760899,-13.287165089054996,268.11711385996324,80.26811385343933
589,37.905696747059245,-261.1016422066884,-47.70632502503275,-78.73820185144939,-6.744069013298653,-13.312379962165224,268.14194108070143,79.97795716448648
590,38.06821478141426,-261.09841957301006,-47.794891559880675,-78.37512868769082,-6.795825382148736,-13.308545203878865,268.17806834696285,79.66738398148979
591,38.22964842172717,-261.1062027706284,-47.8811010650873,-77.98520505619796,-6.843949412176492,-13.276015437075301,268.2243293813014,79.33020141005535
592,38.38786219852541,-261.1238342303019,-47.96446164860903,-77.56553252270113,-6.889344299828843,-13.215436086162795,268.27919768737587,78.96214569664694
593,38.54060562034062,-261.1498439510762,-48.04451374881254,-77.11517052920965,-6.932350634410151,-13.12777751042906,268.34083210205074,78.56093719877099
594,38.685556598944224,-261.1824969891964,-48.12084115701555,-76.63507634192295,-6.972810785446369,-13.014361838248854,268.4071313092802,78.12625543023996
595,38.82037035385242,-261.21984778089734,-48.19308250478274,-76.12797275337168,-7.010157347599151,-12.876880192342563,268.47579589595347,77.65964098051431
596,38.94273316111942,-261.2598001398744,-48.26094227688053,-75.59815549676696,-7.0435222648409095,-12.717398171061538,268.5443965606905,77.16433547429438
597,39.05041994288098,-261.30017200126497,-48.324200619143376,-75.05125599252078,-7.0718622856445394,-12.538347853747323,268.61044728972695,76.645074341878
598,39.1413541246236,-261.33876419900025,-48.382721477068536,-74.4939773462528,-7.094095548406555,-12.342505287713255,268.6714824834012,76.10784946981771
599,39.213667551543054,-261.3734325443443,-48.436458654953086,-73.93382200909872,-7.1092432903719125,-12.132953324190888,268.72513691264925,75.55965934945515
600,39.26575779524985,-261.4021621487163,-48.48545917250645,-73.37882796292402,-7.116569939077607,-11.91303062925444,268.7692269655297,75.00826288984118
601,39.29634017672326,-261.42314240490845,-48.529863047431014,-72.83732670527266,-7.115714328931942,-11.686268519184939,268.8018310906011,74.46194959890546
602,39.30449229881924,-261.4348404642279,-48.56989864753397,-72.31773097069423,-7.106804687963828,-11.456317868503428,268.8213668624609,73.92933365752157
603,39.289689512262285,-261.43607054650676,-48.60587315403431,-71.82835371738709,-7.090550484285383,-11.226868756329216,268.82666177708126,73.41917321034532
604,39.251830223944765,-261.4260560519601,-48.63815835463397,-71.37725347090014,-7.068305189141506,-11.00156584642642,268.81701472042465,72.9402100099372
605,39.191250207815045,-261.40448120545244,-48.66717270388665,-70.97209577671308,-7.042095399026367,-10.783922759957074,268.7922449857904,72.50101946708143
606,39.10872513881514,-261.37152884940144,-48.6933611081778,-70.6200171369409,-7.0146134674327065,-10.577238826627408,268.75272570202964,72.10985800115134
607,39.005460547809065,-261.3279010592445,-48.71717409403636,-70.3274768337592,-6.989172794569704,-10.384521511413439,268.6993986184057,71.7744937701533
608,38.88306851658777,-261.2748195936956,-48.73904793381605,-70.10008356070705,-6.969627223151132,-10.208417501510642,268.63376751922584,71.50200849019933
609,38.74353094810332,-261.21400391370514,-48.759387039209024,-69.94238767853956,-6.960258536906004,-10.051154966470094,268.55786827061326,71.29856203213456
610,38.589150205923715,-261.14762561173444,-48.77854959762582,-69.85763593688893,-6.965638605829292,-9.914498959424538,268.4742146615072,71.16911755277198
611,38.42248909950367,-261.07823949482224,-48.796837095159106,-69.8474931973927,-6.990474825837429,-9.799721346428486,268.3857206809044,71.11713258502563
612,38.24630326235686,-261.0086931303892,-48.81448808018343,-69.91174423625795,-7.039448700287519,-9.707586000166943,268.29560150179,71.14422992168657
613,38.063469627309246,-260.9420181953716,-48.83167626245009,-70.04799688970391,-7.11705743052069,-9.638349225487945,268.2072569807415,71.24987007856326
614,37.8769147858844,-260.8813082291344,-48.84851275393099,-70.25141429603045,-7.227467226894492,-9.591774514825786,268.12414266646704,71.43105331211274
615,37.68954659095046,-260.8295882663746,-48.86505190909266,-70.514507672485,-7.374384987125021,-9.567159859525853,268.04963403657183,71.68208253578875
616,37.50419166061716,-260.7896823767601,-48.88129989495745,-70.8270212540822,-7.560952447704205,-9.563375111619537,267.986890056384,71.99441839328422
617,37.32354069616652,-260.76408542406836,-48.89722492729493,-71.17593747248566,-7.7896643673295465,-9.578906462023271,267.9387222883462,72.35665402253812
618,37.150102831667816,-260.7548453327222,-48.91276805315059,-71.54562342868383,-8.062310138316917,-9.61190510838461,267.9074756440952,72.75463000404393
619,36.986169577901435,-260.7634617501937,-48.9278533829174,-71.9181300192217,-8.379936673647693,-9.660237635475218,267.8949263905742,73.17170046713086
620,36.83378830611401,-260.7908062448882,-48.94239680390474,-72.27364385590013,-8.742829551355547,-9.721536359411214,267.9022022264968,73.58915044862817
621,36.69474470836818,-260.8370681683168,-48.95631254796765,-72.59108051727281,-9.150509179633548,-9.793248654355665,267.92972825137235,73.98675343934674
622,36.570553356508206,-260.90172910231496,-48.969517556039015,-72.84879668233559,-9.601739079580284,-9.872684918344612,267.97720153409114,74.34344753854087
623,36.462455342829315,-260.9835674238204,-48.981934225044334,-73.02538920379047,-10.094544096692523,-9.95706530393404,268.0435957358347,74.63809958136048
624,36.371421891575864,-261.08069298275467,-48.99349262445299,-73.1005419347598,-10.626237213914976,-10.04356567147197,268.1271958247734,74.85031970774311
625,36.29816267933329,-261.1906103313961,-49.00413351017521,-73.05587667619167,-11.19345443297886,-10.129363430275996,268.2256614259164,74.9612846104629
626,36.243137432883145,-261.310307568636,-49.01381341642004,-72.87576326449971,-11.792197780072986,-10.211683965865523,268.33611597658063,74.95452641752406
627,36.20656932638447,-261.4363668017986,-49.022512780613546,-72.54804561067894,-12.417886809679795,-10.2878481356912,268.45525775710746,74.81664586765682
628,36.18845889755091,-261.5650914708581,-49.03024748818099,-72.06464517341271,-13.065419009330954,-10.35532083305952,268.57948805083055,74.53791288017274
629,36.18859763967906,-261.692645273174,-49.03708348980058,-71.42201035196076,-13.729239293820438,-10.411759944480828,268.7050511203737,74.11272428181144
630,36.20658095339583,-261.81519717952943,-49.043153401482385,-70.62138890278948,-14.403418421731445,-10.4550643035208,268.8281803853309,73.53989665225085
631,36.24182055914367,-261.9290670596656,-49.04867350103463,-69.66890997773095,-15.081739757173606,-10.483418648884465,268.9452451826124,72.82278128078308
632,36.29355664819774,-262.0308666675257,-49.05395946600793,-68.57547207491909,-15.757793365596307,-10.495333292489457,269.0528927319729,71.96919743968432
633,36.36086999285369,-262.1176310366122,-49.05943945828204,-67.35644250038423,-16.425075997882782,-10.489676294430954,269.1481802646544,70.99118901172507
634,36.44269408881563,-262.18693561626014,-49.065663468206665,-66.031182374055,-17.077095135245425,-10.465696419071708,269.2286925843364,69.90461749641308
635,36.53782733935556,-262.23699476400964,-49.073308032250566,-64.62241842528603,-17.707474976987253,-10.42303591984604,269.2926406346792,68.72861121919239
636,36.64494535981078,-262.2667375667745,-49.08317556635136,-63.15548861702162,-18.310062041610237,-10.361733135978646,269.33893702700084,67.48489598423294
637,36.762613575062446,-262.27585744524407,-49.096187647798,-61.65749295271401,-18.87902788406961,-10.282215813512675,269.3672449775744,66.19703636903168
638,36.88930027568356,-262.26483266861,-49.11337161205847,-60.156383634567476,-19.40896628593601,-10.185286802700917,269.37799776175564,64.88961932195683
639,37.023390181074596,-262.23491586263526,-49.13583986725099,-58.68003004044456,-19.894982160376617,-10.072104187754524,269.3723867115892,63.58741267818439
640,37.16319843750877,-262.1880918745033,-49.16476151425535,-57.25529382348915,-20.33276939059721,-9.94415789173101,269.3523170459134,62.31453073689235
641,37.30698498264478,-262.1270048790205,-49.20132623034518,-55.90714797029871,-20.718675001297502,-9.803244365397074,269.32033236905414,61.09363735941125
642,37.45296938388212,-262.0548571708978,-49.24670079903458,-54.65787107727734,-21.049747562385267,-9.651440228096893,269.2795102928922,59.945214433725965
643,37.599346511912564,-261.97528348483974,-49.30197909799135,-53.52634457946336,-21.32376857077558,-9.491074904831072,269.233333110617,58.88692023552037
644,37.74430355095431,-261.89220584714326,-49.36812696161643,-52.52747631861685,-21.5392666526919,-9.32470162019194,269.18553871636726,57.933058346270535
645,37.88603876156774,-261.8096749108069,-49.445924219803096,-51.67176882968987,-21.6955156181469,-9.155065690510364,269.13995804756496,57.09417349099
646,38.022782161643235,-261.7317044265195,-49.5359071112395,-50.965045271211224,-21.792518539693244,-8.985068938409578,269.10034614776356,56.376786081721676
647,38.1528179951997,-261.66210584368537,-49.63831477436878,-50.408340232928985,-21.83098099607137,-8.817729245018553,269.07021433708013,55.78327252671845
648,38.27450859263389,-261.6043299509492,-49.75304352324288,-49.997956882453394,-21.81227729998639,-8.656134734484727,269.05267085815376,55.31189356074351
649,38.38631903390146,-261.56132199847224,-49.879612251586906,-49.725686199301045,-21.738413825164965,-8.50339278072049,269.05027681401725,54.95696801702542
650,38.486841906707646,-261.53539600469986,-50.01714166173322,-49.579178545780415,-21.611993403653482,-8.362574800727545,269.0649233560972,54.709184663456554
651,38.57482134140206,-261.5281330415064,-50.16434916208931,-49.54245271442558,-21.436184147368575,-8.236658468827754,269.0977350217223,54.55604005618906
652,38.64917535449712,-261.5403072768448,-50.319560394008874,-49.596523035562555,-21.214694963310944,-8.128469367003419,269.1490029472138,54.48238593474231
653,38.70901538992425,-261.57184246188973,-50.48073754242029,-49.72012126398158,-20.95175856345353,-8.040624063129156,269.21815044807636,54.471065642968185
654,38.75366193030763,-261.6218004034151,-50.64552379441775,-49.890486912347974,-20.652121111387284,-7.975476207613812,269.303732191602,54.503615617626856
655,38.78265526442264,-261.68840181393756,-50.8113025194905,-50.08419757815762,-20.321036072864576,-7.935066635347718,269.40346695303185,54.561005393828836
656,38.79576093048526,-261.76907883237607,-50.975269079326516,-50.27800973455734,-19.964258600409003,-7.921077884239971,269.5143028142927,54.6243880746249
657,38.79296986177725,-261.8605574437659,-51.13451270417149,-50.44968052561821,-19.588036023693963,-7.934793158675433,269.6325126123573,54.67583297155563
658,38.7744936939164,-261.9589669721588,-51.28610551139141,-50.5787423784185,-19.199089768731856,-7.977059629305789,269.7538164100666,54.699013211597766
659,38.74075600318603,-262.0599728320778,-51.427195413333706,-50.64720466012923,-18.804584264924653,-8.048256044335384,269.8735267795206,54.67982345492798
660,38.69238040626427,-262.1589278811075,-51.555099418047234,-50.64015997791898,-18.412079048248206,-8.148264872021219,269.9867118417618,54.60690626437173
661,38.630176417832836,-262.2510370184789,-51.66739377124924,-50.546276787120355,-18.02946120154198,-8.276449528854945,270.0883703091067,54.47206981625353
662,38.55512378241196,-262.3315290988101,-51.76199755782616,-50.3581644653776,-17.664856328831977,-8.431637609262795,270.17361222044997,54.270584222640096
663,38.46835582764302,-262.39582982861475,-51.837246700537406,-50.07260159291254,-17.32651730194696,-8.612111380495083,270.2378387045836,54.00134837908272
664,38.3711422968592,-262.43972917198306,-51.89195562161143,-49.690622478377364,-17.02269097287239,-8.81560712707435,270.27691401840616,53.6669235817751
665,38.264871992128235,-262.45953698273036,-51.92546410174294,-49.21746076851167,-16.761463947307266,-9.039325219674177,270.28732332482883,53.27343397667054
666,38.151035290883726,-262.4522211532196,-51.937667165137405,-48.66235238406703,-16.550589501159024,-9.27995301597574,270.266310248432,52.83033734656942
667,38.03120628245834,-262.4155234632647,-51.929026288592894,-48.03820338137853,-16.397298951604913,-9.53370280180997,270.2119891579326,52.35007317241788
668,37.90702407256471,-262.34804932007324,-51.900560986262576,-47.36113197180699,-16.308102331461928,-9.796366857367909,270.1234282195844,51.847598628717485
669,37.78017277598295,-262.2493285195865,-51.85382086307084,-46.64989793915038,-16.288584951288602,-10.063391310315179,270.0007003767996,51.33982723580352
670,37.65235984262187,-262.1198450216117,-51.79083936934649,-45.92523693385927,-16.34320808417728,-10.329969660511193,269.84490048968706,50.84498906061464
671,37.52529264342918,-261.96103463990585,-51.714071419751576,-45.20912128466285,-16.475123203323285,-10.591155719033779,269.6581279729409,50.38193522594338
672,37.40065360836351,-261.77525061814777,-51.62631763288313,-44.52397267898669,-16.686009623998018,-10.841994267707921,269.443435476106,49.969412617521094
673,37.280074468460974,-261.56569828285905,-51.53063834171223,-43.891854982206446,-16.97594488678821,-11.07766613494913,269.20474544674113,49.62533671904143
674,37.16511019937367,-261.3363412062232,-51.430260825349464,-43.33367733641059,-17.34331581404068,-11.293642729201663,268.946737686118,49.366091250816126
675,37.057213192972306,-261.091782437444,-51.32848331563604,-42.86843831162419,-17.784776123040153,-11.485843546822641,268.6747121096089,49.205882655983075
676,36.957708134150835,-260.8371252996819,-51.22857915054111,-42.51254112648303,-18.29525411311148,-11.650789004507855,268.394431793404,49.156175466622074
677,36.86776803917838,-260.5778189828844,-51.13370410244355,-42.279207717995085,-18.868011517439122,-11.78574032833587,268.111952032162,49.225231254247426
678,36.78839188241004,-260.3194946805478,-51.04680955496841,-42.17801570443824,-19.49475229999593,-11.888818259261635,267.83344156163025,49.41776937950067
679,36.72038426645719,-260.06779829671365,-50.970563811174245,-42.214577095572245,-20.165778135865366,-11.959093046591248,267.5650022975566,49.734762350079755
680,36.664337788731174,-259.8282257566727,-50.90728330546223,-42.39037106294401,-20.87018564356736,-11.996639588946776,267.3124938772114,50.173372550046636
681,36.62061909457937,-259.6059666543243,-50.858874920127796,-42.702735438213566,-21.596099137005634,-12.002553541187394,267.08136893416093,50.72703067997471
682,36.5893598666983,-259.40576133995233,-50.82679011192832,-43.14501336570515,-22.330931653649795,-11.97892650743079,266.87652436558346,51.38564972962603
683,36.57045394537372,-259.23177565222204,-50.811991190861804,-43.70684344565529,-23.06166624151413,-11.928780792024217,266.7021728989937,52.135962062451405
684,36.56356136166998,-259.0874964746339,-50.81492985928051,-44.374574600564365,-23.775148976449834,-11.85596632317457,266.56173816960177,52.961961701634415
685,36.56811949894958,-258.9756502859005,-50.835538032616384,-45.13178151614263,-24.458384994568597,-11.765024137300616,266.4577754454732,53.84542969627836
686,36.58336115062745,-258.8981459309394,-50.87323101151623,-45.95985333288058,-25.098828969365794,-11.661022159097298,266.39191917338434,54.76651793229411
687,36.60833902850851,-258.8560419871506,-50.926923154135416,-46.83862740204816,-25.6846618584809,-11.549369948374462,266.3648576797185,55.70436607953251
688,36.64195619188958,-258.8495383755631,-50.99505619130954,-47.74704112159066,-26.20504628559949,-11.435619649144975,266.37633464484924,56.63772737935764
689,36.68300170252566,-258.877991275508,-51.07564019746912,-48.663777704106,-26.65035355964762,-11.325260586128364,266.4251763465189,57.545581362932516
690,36.73019041636303,-258.93994989381457,-51.16630694815275,-49.56788574789377,-27.012356082008935,-11.223514807712263,266.5093430639235,58.40771500868309
691,36.78220525194579,-259.03321316825907,-51.26437488872319,-50.43935716817062,-27.28437979235374,-11.135140415045887,266.6260023990762,59.20525789189723
692,36.8377397834475,-259.1549040679323,-51.366924206061576,-51.25965272259007,-27.46141239668064,-11.064248870251483,266.7716216581169,59.92116100194277
693,36.8955388643632,-259.3015588333941,-51.470879716513615,-52.01216829544959,-27.540164454236525,-11.014141806404018,266.9420759561759,60.54061250793067
694,36.9544352496493,-259.46922827196505,-51.573098741051695,-52.68263774970008,-27.519082002437994,-10.987172287039801,267.13276842172553,61.05138641384391
695,37.01338066371097,-259.65358805317277,-51.67046097698599,-53.25946932961212,-27.398311228985424,-10.984635027285927,267.3387587476316,61.4441216001626
696,37.071470264947905,-259.8500548404513,-51.75995744725853,-53.73401245956394,-27.179617616564453,-11.00668977419364,267.55489631420517,61.71252927689087
697,37.12795996014331,-260.05390508114647,-51.83877564352825,-54.10075080948923,-26.866263778449124,-11.052321754718394,267.7759541710433,61.853526657797765
698,37.182276557214045,-260.2603933661197,-51.904377937334935,-54.357416420009294,-26.462851664135794,-11.119342645180227,267.9967603152465,61.8672941967284
699,37.23402121845985,-260.4648674462732,-51.95457046662466,-54.505019304152064,-25.975135806123273,-11.20443468847194,268.2123229649387,61.75725360163152
700,37.28296692239652,-260.66287723397005,-51.987560221783205,-54.54778784391229,-25.409814785462842,-11.303239284673463,268.4179468953927,61.529964562686345
701,37.32905064193704,-260.8502753947944,-52.00199886577763,-54.493017656499674,-24.77430821760668,-11.410489632484095,268.6093383324247,61.194939942724794
702,37.37236087305971,-261.0233074115714,-51.997012689041426,-54.35083026144547,-24.07652646294084,-11.520184877785402,268.7826963238843,60.7643820588184
703,37.4131211536832,-261.1786892316198,-51.97221885921716,-54.13384745620417,-23.32464006203728,-11.625800840080226,268.9347888796928,60.252846371232664
704,37.45167028500045,-261.31367078922455,-51.92772865264039,-53.85679220111109,-22.52685557774414,-11.72052994905341,269.06301245819054,59.67684286272403
705,37.488440046210776,-261.42608393959625,-51.864138524324765,-53.53603122273887,-21.691204026815722,-11.797540860330598,269.16543365741734,59.05438890423593
706,37.523931277953665,-261.51437379907503,-51.782509737483146,-53.18907764909398,-20.825347404150943,-11.850246659174225,269.2408124001119,58.40452974485022
707,37.55868927126994,-261.5776131831595,-51.6843371074557,-52.83407321758056,-19.936408029468204,-11.87256979044911,269.2886065528316,57.74684347907686
708,37.59327932653065,-261.61550061612803,-51.571507486076456,-52.489268822065966,-19.030824639437988,-11.859191897430104,269.3089586812112,57.100946382274245
709,37.62826308077882,-261.6283430292883,-51.44624896628708,-52.17251974328329,-18.11423830613566,-11.805777546845345,269.30266629888786,56.48601222280026
710,37.66417584582105,-261.6170246161899,-51.31107226056923,-51.9008085209553,-17.191410415881325,-11.7091622541685,269.2711373509642,55.920316195363746
711,37.70150492271966,-261.5829633831427,-51.16870611378539,-51.68980486687,-16.266174176590056,-11.567497144963324,269.216332779937,55.42081118339543
712,37.74066873473087,-261.5280568786123,-51.02202887426273,-51.55346898554165,-15.341420462366456,-11.380344816785813,269.14069799903007,55.002741731043535
713,37.78199663682396,-261.45461857369696,-50.873998448924425,-51.50370263705496,-14.41911815857062,-11.148723339788123,269.0470851040193,54.679299732482974
714,37.8257094286165,-261.36530646276884,-50.727582794960526,-51.55005143626745,-13.500368412129403,-10.875097686019908,268.9386677539387,54.461325517716084
715,37.871900934553274,-261.2630456197678,-50.58569291935248,-51.69946213348894,-12.585491255490089,-10.563320019345682,268.81885082198767,54.35705857811493
716,37.92052142116867,-261.1509465818309,-50.45112023496652,-51.95609959963997,-11.67414197760887,-10.218522088132541,268.69117708128914,54.371943278397474
717,37.9713639247896,-261.0322214417329,-50.32648014820179,-52.321229414476385,-10.765453447973295,-9.846964485595207,268.55923324507813,54.50849609061673
718,38.024054685198905,-260.91009943903407,-50.21416377318453,-52.79317277493594,-9.858199473634784,-9.455848922751642,268.426557611554,54.766241703018636
719,38.07804884720051,-260.7877438312482,-50.1162993675385,-53.367340431485,-8.950973268731095,-9.053100948511231,268.29655149516,55.141725385372546
720,38.1326324165697,-260.668172066336,-50.03472430465265,-54.03635121631676,-8.042374281086579,-8.647131619737802,268.17239669264524,55.628607910945405
721,38.186931135816,-260.5541816702758,-49.97096733656778,-54.79023833205618,-7.131196004780503,-8.246587276342849,268.05698137595397,56.21784698994968
722,38.239926533831046,-260.4482844784858,-49.92623996181044,-55.61674295769256,-6.216607120988237,-7.8600967225252605,267.95283678313336,56.89796558955428
723,38.290479011801885,-260.35265165389575,-49.90143517392043,-56.50169007867736,-5.2983184667203265,-7.496024800597596,267.86208674137237,57.65540290661049
724,38.33735753653304,-260.2690714495465,-49.89713178043068,-57.42943614520266,-4.376728962193581,-7.162240665223094,267.7864115249565,58.474938519950385
725,38.37927529814786,-260.1989211232465,-49.91360274786681,-58.38337279514858,-3.4530446582323884,-6.865908102247447,267.72702703335483,59.34017494883776
726,38.41493043628948,-260.14315385933963,-49.950826419579066,-59.34646611855037,-2.529366374235285,-6.613304029547022,267.68467977515684,60.234059121696745
727,38.44305054239166,-260.1023008736217,-50.008499722593584,-60.301807372154144,-1.6087428520484688,-6.409669894492175,267.65965747984586,61.13941967204732
728,38.46243913029503,-260.0764879953739,-50.08605259012621,-61.233149022022054,-0.6951877906015136,-6.259099120902863,267.6518142527469,62.03949486047092
729,38.47202184874245,-260.06546509677776,-50.182662929186804,-62.12539959694721,0.20633961842860526,-6.164462208822509,267.66060825361353,62.91842537194648
730,38.470890177935196,-260.06864606964285,-50.29727162369483,-62.965052063322865,1.0899900657369979,-6.127369685623328,267.685149256291,63.76168725920564
731,38.45834078477492,-260.08515676382683,-50.42859722802338,-63.74052327545059,1.9491141461257135,-6.148171865654454,267.724253264748,64.55644290604492
732,38.433909341543846,-260.11388826885366,-50.57515018857074,-64.4423864932499,2.7763853021808886,-6.225993240045363,267.7765014559319,65.29179206393796
733,38.397398098328985,-260.1535529417724,-50.735246692441926,-65.06348488392433,3.56395356608844,-6.358798253056001,267.84030086078485,65.95891067218463
734,38.34889675317805,-260.2027405858255,-50.90702252586422,-65.59892107774208,4.3036274301661885,-6.543484247993599,267.91394428498916,66.55107205385194
735,38.28879632688469,-260.25997220817567,-51.08844753014056,-66.0459257683693,4.987080336585137,-6.775996543790293,267.99566705357665,67.06355272758736
736,38.21779592001541,-260.32374890277475,-51.2773413950076,-66.4036163717362,5.60607715730001,-7.051460013363883,268.0836983281865,67.49343282949263
737,38.13690236271173,-260.3925936918584,-51.47139170412888,-66.67266415432518,6.152714776604451,-7.3643212610510025,268.1763050735379,67.83930827787466
738,38.04742280109838,-260.465084680656,-51.668175318701905,-66.85489440474228,6.619669656252534,-7.708495598996694,268.27182728871327,68.1009377433712
739,37.95095019911403,-260.539878609621,-51.86518424912308,-66.95284874399725,7.000444213306472,-8.077513505771906,268.36870382574165,68.27885181811016
740,37.84934161940356,-260.6157246815618,-52.05985700523641,-66.96934128730193,7.289603124523617,-8.464662045753716,268.4654888380949,68.3739542673933
741,37.74468910735192,-260.6914692513209,-52.24961594414793,-66.9070409058961,7.48299041826267,-8.86311771213146,268.5608594958669,68.38714574163717
742,37.63928319018868,-260.7660525593159,-52.43191040732242,-66.76811021052984,7.5779185171034635,-9.266068206279236,268.6536160718783,68.31899877399181
743,37.53556938408751,-260.83849917820555,-52.60426467346516,-66.55392815280578,7.573321292543273,-9.666821714989798,268.74267588799427,68.16950939231035
744,37.43609843531455,-260.90790417663766,-52.76432912951315,-66.26491754605624,7.469864666838652,-10.058903284964442,268.827062864376,67.93794549579722
745,37.34347114590916,-260.97341713984923,-52.90993261755439,-65.90049170925897,7.270010246430647,-10.43613887699431,268.90589447640616,67.62280564188491
746,37.260278632761946,-261.0342261610321,-53.039133669635824,-65.45912630492829,6.978029697416378,-10.79272846594058,268.97836784818253,67.22189444099766
747,37.189038917237525,-261.08954378507866,-53.15026834453597,-64.93855382617234,6.5999698098587825,-11.123309977237051,269.04374658746895,66.73251278518002
748,37.132130931785255,-261.1385966487163,-53.24199260726552,-64.33606966380941,6.14357019245045,-11.423015863422718,269.1013498046778,66.15175310614177
749,37.09172733858053,-261.1806201945502,-53.3133175220993,-63.64893079844223,5.61813710556058,-11.68752376741572,269.15054450812875,65.47688226012944
750,37.06972789719036,-261.21485934145494,-53.36363587815493,-62.874821451753895,5.034377976161905,-11.913102066713442,269.1907422011232,64.70578799780172
751,37.06769539343541,-261.2405754221946,-53.39273928229134,-62.012355016146046,4.404201659641534,-12.096650273283737,269.2214000703216,63.837459849565285
752,37.086796279941694,-261.25705914766183,-53.40082529757155,-61.061578665446,3.740489661842831,-12.235733477429344,269.24202674600184,62.872472112689124
753,37.12774815950321,-261.26364888575847,-53.388494751794575,-60.02444642540316,3.056843488429311,-12.328609439422033,269.2521922632371,61.81343572868404
754,37.190776071750115,-261.25975312518506,-53.35673965897158,-58.905228126093625,2.3673131620634926,-12.374246592612499,269.25154148715706,60.66538719957567
755,37.27557927176467,-261.2448756172679,-53.30692225078768,-57.71082537376965,1.6861117831026897,-12.372331084210156,269.23980987172064,59.436086124550854
756,37.381309960016864,-261.21864145303607,-53.240745633603915,-56.45097115380276,1.0273208630539583,-12.323261027635532,269.2168401629139,58.13619814101512
757,37.506565372499104,-261.18082236540994,-53.1602168036311,-55.13829648604156,0.4045911731874379,-12.228126436049795,269.1825987234472,56.77934663020107
758,37.64939469386796,-261.1313598470723,-53.06760317131346,-53.788255160947564,-0.16915579479218082,-12.08867395326141,269.1371905370972,55.382023995863705
759,37.80732214033909,-261.0703850796623,-52.96538412215397,-52.418905408676956,-0.6820198795194519,-11.907256513350701,269.0808724022701,53.96336108270277
760,37.9773870386805,-260.9982349304232,-52.856199175093316,-51.0505548905006,-1.1234008599738265,-11.686769277563231,269.01406401332514,52.54476083933405
761,38.15620079134144,-260.91546322190817,-52.7427939463878,-49.705282268160744,-1.4842556201327546,-11.430574334621886,268.93735638256834,51.14940920770336
762,38.340019471063385,-260.8228462276231,-52.6279647091191,-48.40635450597437,-1.7573251809663322,-11.142417491038847,268.8515165719001,49.801682098353176
763,38.5248297318893,-260.7213812284757,-52.51450222312427,-47.17756377837184,-1.9373228146662649,-10.826340955928211,268.7574874203411,48.52647197377832
764,38.70644500459503,-260.6122772035621,-52.40513571456176,-46.04251126596661,-2.0210750092141,-10.4865958694935,268.65638112480923,47.34846091360755
765,38.880608646888724,-260.49693722505606,-52.302478114252054,-45.023867164066864,-2.007608229363484,-10.127558475596384,268.54946601445573,46.29136904604635
766,39.043100741858666,-260.37693265330455,-52.20897369321758,-44.14263687816669,-1.8981761256540954,-9.753653320310248,268.43814637458024,45.37720789822164
767,39.18984537719625,-260.2539696790174,-52.12684910616057,-43.41746266213944,-1.6962239279584184,-9.369286192340764,268.32393560221107,44.625567569409526
768,39.31701532316937,-260.1298491566089,-52.0580687161202,-42.86398794643674,-1.4072890742743804,-8.97878864743532,268.2084233390018,44.05296474105266
769,39.42113106049566,-260.00642107010503,-52.004294963517054,-42.49430848164167,-1.0388395340805536,-8.586374940585129,268.09323758948796,43.67227556567945
770,39.49915125199869,-259.8855353884757,-51.96685438767791,-42.31653046898457,-0.6000536649458748,-8.196111114981475,267.98000322189404,43.49227367868326
771,39.54855209690662,-259.7689914150191,-51.94670967216593,-42.334451400683754,-0.10154771639551688,-7.8118949885113755,267.8702985879928,43.517289272678234
772,39.56739343453499,-259.65848785403375,-51.94443789879063,-42.547374715896304,0.4449407458218363,-7.437444974833916,267.7656121391881,43.7470006922814
773,39.5543698627127,-259.5555756424319,-51.96021529931331,-42.95006485605992,1.0269032143811627,-7.076295154080688,267.66730082561577,44.176365606423595
774,39.50884559919986,-259.46161525276796,-51.99380924881451,-43.532845028027,1.6314324294549738,-6.731793755449112,267.57655189474076,44.79569462302813
775,39.4308724256678,-259.3777398512325,-52.04457877030726,-44.28183597088264,2.245603240511849,-6.407102204644029,267.4943495910561,45.590866231617866
776,39.32119066440859,-259.30482544909705,-52.11148502718874,-45.179330167059184,2.856848595918221,-6.105192135850299,267.42144815622663,46.5436781172367
