time,ax,ay,az,gx,gy,gz,accmagnitude,gccmagnitude
0,-1.985362617882814,-261.97163431404556,4.808592707538352,-44.17700869077291,27.065518003826924,-11.020314302193155,262.02146463617566,52.966249564560385
1,-1.900259064773345,-261.7445119013891,4.909676381764556,-44.263862531513816,27.15951636359219,-10.697169793925935,261.79767326330347,53.03056790418565
2,-1.8166724659349627,-261.5204891182758,5.024484720241176,-44.34333722315311,27.247544077819438,-10.37495232179248,261.5773666775313,53.085786172966884
3,-1.7354535196276444,-261.3020395532774,5.1514889446768235,-44.414910277061686,27.330028519304808,-10.057619338105281,261.3629815548752,53.13239055244809
4,-1.657418991619955,-261.0914835906534,5.289037288772911,-44.47812201361294,27.407512299457476,-9.74900224729627,261.1567974124784,53.170960174253615
5,-1.5833347850004567,-260.89092816598867,5.435384646858086,-44.532578573494334,27.480641065756608,-9.452719527594505,260.96087696709236,53.20214822928368
6,-1.513901975662239,-260.70221565325465,5.588721824094596,-44.57795697565569,27.550150224148457,-9.17209953581989,260.77701563967486,53.22666584278322
7,-1.4497461075418836,-260.5268835009131,5.747204523507448,-44.61401275233172,27.6168514075362,-8.910115387014752,260.6067018319272,53.24526998876802
8,-1.3914097086006796,-260.36613545612056,5.908982125252395,-44.6405904499451,27.68161945526431,-8.66933362669767,260.4510888191641,53.258756366272316
9,-1.3393477463857886,-260.22082444912496,6.072226057071303,-44.65763679158096,27.745380301816738,-8.45187769396156,260.3109783300385,53.267957432357086
10,-1.2939255714150844,-260.0914464987864,6.235157400292488,-44.66521565560228,27.809099676738583,-8.2594064056253,260.186815167946,53.273744864572315
11,-1.2554187971059445,-259.97814445176056,6.396073410867495,-44.66352344244767,27.873772116814973,-8.093106918357575,260.07869168026446,53.27703490544511
12,-1.2240145814554713,-259.8807201093462,6.553372705469063,-44.652903054932885,27.94040959984184,-7.953700942331213,259.9863606236055,53.278794544472454
13,-1.1998139235093073,-259.7986533864098,6.705578795826345,-44.63385466005634,28.010029096356824,-7.841462480951373,259.9092550611902,53.280046360541995
14,-1.1828347834065909,-259.73112748018855,6.851361488600948,-44.60704158586046,28.083638420515534,-7.75624509586537,259.84651425725536,53.281870003735925
15,-1.173015961080238,-259.6770593617198,6.98955560410865,-44.57329006075404,28.162219890545593,-7.697516626286555,259.79701486604705,53.285398647211316
16,-1.1702216772523808,-259.63513503309844,7.119176588808104,-44.53358195603901,28.246711460068223,-7.664399369583104,259.7594068446368,53.29180920945592
17,-1.17424672972401,-259.6038488890387,7.239432733363495,-44.48904018503192,28.33798516617109,-7.655713891555641,259.73215341413527,53.302305681176456
18,-1.1848220249059824,-259.5815462907303,7.349733678616471,-44.440906896948285,28.436823008469894,-7.670024838908924,259.7135741585619,53.31809547011487
19,-1.2016202490901553,-259.5664682150324,7.4496947797187705,-44.390515061104054,28.5438907442593,-7.705687345598207,259.70189009953043,53.34035929021212
20,-1.2242614155279827,-259.55679665908946,7.539136935281179,-44.339254485366766,28.659710475070938,-7.76089282591342,259.69526940165514,53.370215734565626
21,-1.2523179905926711,-259.5506994644425,7.618081772812304,-44.288533776014894,28.78463317306483,-7.833713109469199,259.69187235690663,53.408682229010545
22,-1.2853193657355315,-259.54637344443734,7.686742532257376,-44.2397401946475,28.91881237969609,-7.922142002828935,259.6898945330292,53.456634503292456
23,-1.3227557067300377,-259.5420850322585,7.745511417105437,-44.194199715516575,29.062180243658524,-8.024133479288654,259.68760732230606,53.514766991770976
24,-1.3640816108818195,-259.5362078796688,7.794944374834674,-44.153139744167824,29.214426944122152,-8.137635824501022,259.6833953479226,53.58355666347152
25,-1.408720344572286,-259.52725684324616,7.835744167474784,-44.117656857669026,29.374984438990158,-8.260621218073698,259.6757901867633,53.66323266599355
26,-1.4560695819080678,-259.5139177052862,7.868742357138009,-44.08869152753524,29.543015410863685,-8.391110412995321,259.66349976485367,53.753753831097306
27,-1.5055094642505014,-259.49507191562867,7.894880601057625,-44.067011124333966,29.717408253720446,-8.527192380618777,259.64543270712494,53.854795561014534
28,-1.5564134029166454,-259.46981569439527,7.915191366145928,-44.053201721948184,29.89677893007322,-8.66703901314771,259.620716965429,53.96574700029759
29,-1.6081613904057506,-259.43747310957986,7.930777777200511,-44.04766850300336,30.079480484390118,-8.80891519687499,259.588712315276,54.085718818746344
30,-1.6601548947676052,-259.3976032495069,7.942792024912868,-44.050644031857686,30.26362086076878,-8.951184745217763,259.5490168198096,54.213561440020314
31,-1.7118319704795246,-259.3500021163248,7.952411892885144,-44.062203327212856,30.447089388922155,-9.092312785194743,259.50146788065126,54.34789313133215
32,-1.76268114757697,-259.29470006028095,7.960815492614673,-44.08228449460151,30.627591854485395,-9.230865255325952,259.44613871139404,54.487136987257294
33,-1.812252898115552,-259.2319553742189,7.969154873315549,-44.11071362253732,30.802693504900116,-9.365506256548793,259.3833308887566,54.629565492831595
34,-1.860167886866341,-259.16224425733344,7.97852955798792,-44.147232669443476,30.969868789738456,-9.494994119585781,259.3135632374184,54.773351082108746
35,-1.9061216296554717,-259.08624697357214,7.989961287490037,-44.1915291242676,31.126556240332555,-9.618177168504314,259.2375569265898,54.916620952262605
36,-1.9498854772444345,-259.00482982907334,8.004371406049616,-44.24326624548372,31.27021670771709,-9.733990192429482,259.15621645719546,55.05751431094136
37,-1.991303984655078,-258.91902264363813,8.022562313759915,-44.3021126605026,31.39839312276024,-9.841452503048357,259.07060626440847,55.194240161885375
38,-2.030288796923333,-258.82999167391955,8.045204098064556,-44.36777011975761,31.50876990025717,-9.939668121260748,258.9819229288191,55.325133665398994
39,-2.06680931412649,-258.73900837623296,8.072826783318037,-44.43999829402628,31.599230023285777,-10.027828182439967,258.89146339772356,55.44870906663456
40,-2.100880653787674,-258.6474148794833,8.105817729247741,-44.518635609377924,31.667907743705268,-10.105215235031947,258.80059007618337,55.563707149758685
41,-2.132549721435789,-258.55658747224317,8.14442288944887,-44.603615165520665,31.71323479132969,-10.171208828957141,258.7106940619539,55.66913515091369
42,-2.161880385368839,-258.4678996906378,8.188750270373932,-44.69497484390587,31.7339780738426,-10.225291628387746,258.62315807425244,55.76429713733827
43,-2.188938787760248,-258.3826866790129,8.238774103482298,-44.792860889620094,31.729267122030674,-10.267055200494832,258.53932071829763,55.8488131446761
44,-2.213779784194777,-258.30221239978823,8.29433871934975,-44.89752454046036,31.69860998083774,-10.296204647908993,258.46044364555416,55.92262585549469
45,-2.236435454656412,-258.2276410230481,8.35516159616278,-45.00931155599743,31.641896809987145,-10.312561391303175,258.38768293625685,55.985994175440325
46,-2.256906564435833,-258.1600134663034,8.420835441000369,-45.128644676655064,31.55939109168609,-10.316063638809137,258.3220656792061,56.03947361370043
47,-2.275157715364631,-258.10022964689455,8.49082950299902,-45.25599916394468,31.45170900220165,-10.306764342228144,258.2644723223529,56.08388390134058
48,-2.29111664788252,-258.04903661965477,8.564490656493792,-45.39187176051714,31.31978809548665,-10.284826683497908,258.2156249837993,56.120264817969854
49,-2.3046777070432154,-258.007022389703,8.641045101100651,-45.536743720260816,31.164846871294458,-10.250517304532995,258.17608153448145,56.14982172250418
50,-2.3157089377353577,-257.974614779645,8.719601748212726,-45.69103896640341,30.988337049279398,-10.204197550009049,258.1462348543425,56.173862763787255
51,-2.3240617785905213,-257.95208439510225,8.799158447899224,-45.855078914356724,30.791890515620082,-10.146312970132282,258.126316325502,56.19373020932873
52,-2.3295820533571345,-257.93955064581405,8.878612117115246,-46.02903602795613,30.577262995551536,-10.077381335208253,258.1164025325045,56.210728807237906
53,-2.332121018353664,-257.93698991902835,8.956773537800835,-46.21288866669306,30.346276511526263,-9.997979522646357,258.11642426954376,56.22605451133295
54,-2.3315455791390507,-257.94424515642373,9.032387096739496,-46.406380066515226,30.10076257350377,-9.908729820549468,258.12617709656814,56.240727094227154
55,-2.327747271969749,-257.9610361398536,9.10415507883343,-46.60898428584754,29.84250782402989,-9.810286354484367,258.14533272406356,56.25553006018473
56,-2.3206500286152156,-257.9869698308473,9.170765422499832,-46.819881689517494,29.573203600844113,-9.70332241153857,258.173450527129,56.27096091478726
57,-2.3102170018194252,-258.02155026575065,9.230921272921343,-47.037946148890676,29.29440067085828,-9.588519399023875,258.2099886294029,56.28719438965087
58,-2.296456803682937,-258.06418780253284,9.283370413798673,-47.26174566502181,29.007470248749154,-9.466558067322904,258.2543142839173,56.30406072062117
59,-2.2794294149475216,-258.1142078356325,9.326932860865766,-47.489557532882756,28.713572273814066,-9.338112469983095,258.30571360652425,56.3210404718246
60,-2.2592517961468537,-258.17085931030545,9.360525500856081,-47.71939839391072,28.41363170635897,-9.203846913315838,258.36340095493,56.33727659022169
61,-2.23610296286704,-258.2333234406883,9.383183357060565,-47.94906859071865,28.108323323367436,-9.064415835972742,258.426528344284,56.35160337999022
62,-2.210228094452838,-258.3007230029485,9.394077542043759,-48.176209248690775,27.798065223688134,-8.920466172192597,258.4941952740674,56.36259103786322
63,-2.1819411649342757,-258.37213247049226,9.392530135955894,-48.39836958362899,27.48302107031222,-8.772641374041601,258.5654592421932,56.36860344263774
64,-2.151625560494271,-258.4465891106878,9.378026235490188,-48.61308118821334,27.163110993557524,-8.62158602089669,258.63934707452495,56.36786615896586
65,-2.119732151108034,-258.5231050139137,9.350223406615388,-48.81793559919433,26.838030982657365,-8.4679499218528,258.7148670496824,56.358541175477484
66,-2.0867743572737063,-258.6006799212293,9.308958793768486,-49.01066133856143,26.50728044598075,-8.31239082037376,258.7910216973275,56.33880476178219
67,-2.0533199381166773,-258.6783146727421,9.254254129085371,-49.18919678519128,26.170197397287822,-8.155575150556047,258.8668211064138,56.306924914015916
68,-2.0199795267985823,-258.75502505333606,9.18631876251077,-49.35175556695081,25.826000408360077,-7.998176649884231,258.9412965330282,56.261335052997225
69,-1.9873922933203587,-258.82985566643293,9.105550621341129,-49.49688164261348,25.47383606494751,-7.840872915511512,259.01351394715215,56.20070091494222
70,-1.9562093840290837,-258.9018932489302,9.012534828668993,-49.62349190069723,25.11283024903546,-7.684340168238174,259.0825869371525,56.123977991631946
71,-1.9270758523695122,-258.970278766253,8.908039623768353,-49.730904920146315,24.742141252886185,-7.5292465771472585,259.14768831565254,56.03045746978943
72,-1.900611699294499,-259.0342178740149,8.79300920033318,-49.818855406746316,24.36101256926489,-7.376244529417773,259.2080600165101,55.91979932349297
73,-1.8773925473546824,-259.0929898041786,8.66855309628658,-49.887494601467125,23.968823193367292,-7.225962208552315,259.26302134167264,55.79205190547132
74,-1.8579304793882316,-259.14595514432534,8.535931871487286,-49.93737755195313,23.565133390579103,-7.078994758065471,259.3119760268991,55.6476579607253
75,-1.8426556374788248,-259.19256313722576,8.39653906168056,-49.96943850315823,23.1497241324626,-6.935895194314638,259.35441875868827,55.487447415422956
76,-1.8318992155578517,-259.2323590153838,8.251879818570298,-49.984955828383235,22.722628811658304,-6.797165185037457,259.38994167369583,55.31261762648201
77,-1.8258784958556542,-259.26499154179703,8.10354709323551,-49.98550799345813,22.28415640997995,-6.663245879793528,259.41824104256443,55.124702109060856
78,-1.824684666700065,-259.2902204251647,7.953196446084071,-49.972922119759126,21.834905912616268,-6.534509112143391,259.43912384595546,54.92552912199048
79,-1.8282743330403877,-259.3079227838676,7.802520491214239,-49.949216772142364,21.37577227597604,-6.411249407171392,259.45251345671795,54.717171791303144
80,-1.8364657176709844,-259.31809758037963,7.653223757051506,-49.91654057823901,20.90794455387411,-6.293677298169028,259.4584533833825,54.50189157901698
81,-1.8489403323365958,-259.3208670861954,7.506998494915583,-49.877108204683964,20.43289686769019,-6.181914495873925,259.457108158932,54.28207688059761
82,-1.8652503734246033,-259.3164749225175,7.365501649339633,-49.83313518312463,19.952372871934717,-6.075991429773254,259.4487609297359,54.060178498422225
83,-1.884831496122137,-259.3052808211337,7.230332759753792,-49.78677317642832,19.468364323972366,-5.97584753566524,259.4338078793487,53.838643801076834
84,-1.907020168725005,-259.2877526774219,7.103012092130508,-49.74004749201374,18.9830843333728,-5.881334416896797,259.41275002881986,53.61985153871344
85,-1.9310745757871577,-259.2644565685119,6.984958035727222,-49.69479890773679,18.498935799470882,-5.792221751976596,259.3861830422717,53.40604946646728
86,-1.9561979661884303,-259.23604523258416,6.877462948456029,-49.65263207791112,18.0184754501394,-5.708205616781751,259.35478548881474,53.1992970478814
87,-1.9815633198596698,-259.2032452277782,6.781667193777623,-49.61487283075377,17.54437383944369,-5.628918728772157,259.3193057470763,53.00141549793152
88,-2.00633816617803,-259.16684279313256,6.698531860128817,-49.58253647012495,17.07937170457033,-5.553941996992714,259.28054756159196,52.81394722332133
89,-2.0297083552145145,-259.1276684039555,6.628811373882465,-49.556308721028515,16.62623324626837,-5.482816705553981,259.23935424927686,52.63812630782473
90,-2.0508996376991084,-259.08658012984745,6.573027867987231,-49.53654022361585,16.187697186466156,-5.415056711996144,259.19659168872266,52.4748610917789
91,-2.0691961139680672,-259.04444610949366,6.531449699301468,-49.523254525531144,15.766426826623864,-5.350160208112667,259.1531304493105,52.32472912938732
92,-2.083954979735985,-259.0021266727063,6.504076666251245,-49.516168444044524,15.364960662506357,-5.287620806010314,259.10982764541006,52.18798391673746
93,-2.0946174512688858,-258.96045675029995,6.490634046416561,-49.51472264346242,14.98566526259634,-5.226937891073236,259.0675092099157,52.064571876076485
94,-2.1007161568663726,-258.9202291624929,6.490576657688222,-49.518119493229115,14.63069200041403,-5.167626285077741,259.026953217925,51.95415731085267
95,-2.1018795423540864,-258.88217925682267,6.503103069718021,-49.52536485777827,14.301938870017581,-5.109225288837617,258.9888747519021,51.85615253679366
96,-2.0978339362377882,-258.84697129487165,6.527179139217161,-49.53531045364964,14.00101813252757,-5.051307133860627,258.95391270803896,51.76975022088711
97,-2.0884038612024916,-258.81518696025176,6.5615693758883555,-49.546693799450054,13.729230078563898,-4.99348479971292,258.9226189001343,51.6939551773518
98,-2.073511002707009,-258.787316295344,6.604874286951397,-49.55817359729258,13.487542846853597,-4.935419122659849,258.8954497403105,51.627613532238975
99,-2.053172055908983,-258.76375126160417,6.655571686709532,-49.56835958956436,13.276578084144,-4.8768251828394975,258.8727606548546,51.56943827084257
100,-2.0274955754875412,-258.7447820465768,6.712059897871141,-49.575837335517015,13.096602299723298,-4.817478070319186,258.85480331699705,51.51803153977768
101,-1.9966779614057941,-258.73059624711794,6.7727008581349875,-49.579189553269025,12.947524005772149,-4.7572182021026865,258.84172578543297,51.471905285686006
102,-1.960998746870745,-258.7212810529615,6.835861446204811,-49.57701624160552,12.828896988461008,-4.69595634105231,258.8335756385951,51.429502414122176
103,-1.9208153455429455,-258.716828459551,6.899951779570817,-49.5679555151161,12.73993014051419,-4.633678358357546,258.8303061084407,51.38922038891285
104,-1.8765573757037501,-258.71714339057803,6.963459661253248,-49.55070607449835,12.67950409372509,-4.570449592711064,258.8317850761932,51.34943815070753
105,-1.8287206527229936,-258.7220544513066,7.024980708221022,-49.52405087698234,12.646194437555147,-4.506418402364293,258.8378066379239,51.30854579060488
106,-1.7778609354744155,-258.73132681756437,7.083244026511345,-49.48688038261063,12.638300725966142,-4.441818250256286,258.84810473631273,51.264975103608144
107,-1.7245874995525603,-258.74467646690334,7.137133620052279,-49.43821318645164,12.653879924593724,-4.376967532904188,258.86236806174355,51.217228459210155
108,-1.6695565637978314,-258.7617846879563,7.185705914258336,-49.37721208735452,12.690782559042958,-4.312266443464006,258.8802551577907,51.16390357665381
109,-1.6134645151180163,-258.7823117039931,7.228203670117787,-49.30319453511202,12.746689670672934,-4.248190422093292,258.90140856091284,51.10371264669862
110,-1.5570407698551403,-258.80590833166497,7.264066153530012,-49.215637599378304,12.819148831373571,-4.185280094039317,258.92546687647433,51.03549547749295
111,-1.501039971518406,-258.8322248099418,7.292934981963683,-49.1141787575858,12.905607920947446,-4.124127920354151,258.9520738947664,50.95822760629579
112,-1.4462330655375208,-258.8609162876589,7.3146549483337,-48.998614600914294,13.003446026149716,-4.065362014123192,258.9808842015891,50.87102528605864
113,-1.3933967181489673,-258.8916449540295,7.329269418224738,-48.86889981028365,13.1100015131363,-4.00962770191098,259.0115652447607,50.77314969569156
114,-1.3433007000271162,-258.924079313098,7.3370103987514845,-48.72514842072472,13.222597911940335,-3.9575674897787856,259.04379635360317,50.66401256747691
115,-1.2966932150408612,-258.9578914892424,7.338283811285784,-48.56763857318335,13.338568627302804,-3.90980017508097,259.0772656127736,50.54318474689034
116,-1.2542845243425393,-258.9927536452489,7.333650736149122,-48.396820816462714,13.455281594521516,-3.866899941642947,259.111665696866,50.410408144222174
117,-1.2167294567826956,-259.0283345905072,7.323805443659562,-48.213328779945,13.570164865471293,-3.829376369530921,259.1466897704342,50.26561031395465
118,-1.1846095382770652,-259.0642974685991,7.309550921957621,-48.017989961592505,13.680733852586295,-3.797656325607299,259.18202836650664,50.108919795177215
119,-1.1584155698625194,-259.1002991096238,7.29177239551959,-47.81183374881442,13.784620667354897,-3.7720686095901494,259.21736784717257,49.940679657043006
120,-1.1385314910489743,-259.13599131566576,7.271409127957333,-47.59609378189649,13.879605671815275,-3.752832019421791,259.25239072884517,49.761456583649334
121,-1.1252202136683798,-259.17102407646826,7.249424823643659,-47.37220236050621,13.963650990818246,-3.7400472630776957,259.28677788554063,49.57204328291789
122,-1.1186118571293575,-259.2050504820705,7.22677722920716,-47.14177560518216,14.034935313968042,-3.7336929588438226,259.3202124218983,49.373452848581486
123,-1.1186946258804211,-259.23773290694294,7.204387868535307,-46.90658925822539,14.091888894307926,-3.7336258273446727,259.35238482485056,49.16690470400119
124,-1.125308557912427,-259.26874993911696,7.183112983185681,-46.668546071800534,14.133227295506096,-3.739585036766361,259.38299890573825,48.95380266540884
125,-1.1381425030116894,-259.29780358590733,7.163716666679572,-46.42963648962505,14.157982217849693,-3.751200488909279,259.41177810044286,48.73570630844127
126,-1.1567348336263892,-259.3246264863093,7.146846977863398,-46.19189474062167,14.165527674034696,-3.768004652039735,259.43847188750794,48.51429717628223
127,-1.1804784353015922,-259.3489890685164,7.13301554681409,-45.95735262133762,14.155599871761762,-3.7894474150111734,259.46286228417966,48.29134152151775
128,-1.2086304343582908,-259.37070667446346,7.122580893349559,-45.727993257283146,14.128309376671409,-3.8149133859446085,259.4847704546561,48.06865133215617
129,-1.240326939708274,-259.3896466031311,7.115735519911378,-45.50570703136231,14.084144492600329,-3.84374105489014,259.5040633893316,47.84804538939043
130,-1.2746028366188822,-259.40573485585134,7.112496950454038,-45.292251604190426,14.023965312863123,-3.875243229896726,259.5206604470535,47.63131199702299
131,-1.3104163415416041,-259.4189621509716,7.112703171187333,-45.089217480973026,13.948988515301025,-3.90872812924086,259.53453934222813,47.42017475151429
132,-1.3466775747983906,-259.42938855711014,7.116013153800212,-44.89799995824502,13.86076359267337,-3.9435204971454247,259.5457409435053,47.216262309705165
133,-1.3822798969161418,-259.437145961728,7.121913179276648,-44.71977769103275,13.761141712651593,-3.978982115203751,259.5543721153686,47.02108269195776
134,-1.416132347148446,-259.44243763127355,7.129729574933104,-44.55549774057083,13.65223870874162,-4.014531074995352,259.560605866637,46.83600237781127
135,-1.4471913702666046,-259.44553433619416,7.138648304169484,-44.40586683782512,13.536393802697146,-4.0496591288479085,259.56467827933034,46.66223034494092
136,-1.4744901728645206,-259.4467668478623,7.147741563841056,-44.271348631642866,13.416125584710382,-4.083946366936744,259.5668820170465,46.50080719188747
137,-1.4971644501556338,-259.4465149908481,7.156001036820013,-44.152166749506996,13.294086584117652,-4.117072448823582,259.56755657749557,46.352599467101555
138,-1.5144737072795176,-259.4451937891221,7.162376768067726,-44.04831347836197,13.173017523126568,-4.148823709351479,259.56707579504524,46.218299227930885
139,-1.5258177898791763,-259.4432375427059,7.165820043004079,-43.95956370408313,13.055702129414353,-4.1790956788490545,259.5658333839453,46.09842863053344
140,-1.5307484590547513,-259.441082889133,7.1653283443346005,-43.885493414972544,12.944923230248468,-4.20789087669661,259.56422752186506,45.993349000878055
141,-1.5289759298231531,-259.43915199970115,7.159990374514665,-43.82550163478044,12.843420777865585,-4.235312098464064,259.5626455629014,45.903273413879106
142,-1.5203703316703707,-259.43783700779454,7.149029050338227,-43.7788342309473,12.75385245841593,-4.261551755760512,259.561449909264,45.828281425829964
143,-1.5049581616718235,-259.4374866010878,7.1318402135671715,-43.744607800327955,12.678757563378255,-4.286878103942699,259.56096589632324,45.768334394547054
144,-1.4829140815342414,-259.4383954842904,7.108024686568875,-43.72183188429722,12.6205247784073,-4.3116193961306895,259.5614723155542,45.72328987120882
145,-1.4545488504713313,-259.44079715182863,7.077411514565911,-43.709428124677814,12.581364451906373,-4.336147124226756,259.5631949419523,45.692913868538525
146,-1.4202946266742587,-259.44486010764433,7.040070940284807,-43.70624555397842,12.563285794230122,-4.36085953452598,259.56630315847303,45.67689033173328
147,-1.3806890812287012,-259.45068736267746,6.996316632536523,-43.711071879393906,12.56807935529999,-4.3861665358941355,259.5709095000889,45.67482773765148
148,-1.3363596152258401,-259.45831877918386,6.946697495473758,-43.72264123315172,12.59730499047351,-4.412476948158473,259.57707170597155,45.686263282989486
149,-1.288008526501755,-259.4677356849378,6.891979819301396,-43.73963929898405,12.652285306367718,-4.440188737942681,259.5847967336259,45.71066546157057
150,-1.2363994819581388,-259.47886721373584,6.833120738339947,-43.760706898417304,12.73410428832546,-4.469682455660449,259.5940462252813,45.747435892100185
151,-1.182345352250783,-259.49159799518816,6.77123412781622,-43.78444304586358,12.843610490843057,-4.501317613267249,259.6047430868045,45.79591107262152
152,-1.1266973757231393,-259.5057769333838,6.707550287022809,-43.80940828959256,12.981423880137806,-4.535431374471085,259.6167789621408,45.85536445969328
153,-1.0703355361827134,-259.5212267416367,6.6433710460049875,-43.834128996131305,13.147945228406519,-4.572338755211019,259.6300223216284,45.92500907010705
154,-1.0141598037698452,-259.53775370917964,6.580022194170729,-43.85710316731435,13.343366925477742,-4.612333547247871,259.6443266967079,46.004000752808295
155,-0.9590815683648777,-259.55515706349064,6.51880518223293,-43.87680836135394,13.567684192503322,-4.6556893249443485,259.6595384805137,46.09144233553672
156,-0.9060143944302443,-259.5732373879004,6.4609498869734505,-43.89171225376451,13.820705902272902,-4.702660086975187,259.67550380405874,46.186388926837914
157,-0.855863296753976,-259.59180380919105,6.4075700783143095,-43.90028629142048,14.102064453222404,-4.753480234387778,259.6920742491098,46.28785468933721
158,-0.8095120973106719,-259.61067990114645,6.3596232605265275,-43.90102278472426,14.411224327778843,-4.808363679727798,259.7091113922382,46.39482138843008
159,-0.767808969467269,-259.6297083202315,6.317876677652826,-43.89245569420388,14.74748904713999,-4.867501980884224,259.7264902487836,46.506248998171884
160,-0.7315508208224684,-259.6487541353014,6.282881258304329,-43.873185321259584,15.110006244391945,-4.931061546583476,259.7441016306819,46.6210886484408
161,-0.7014675264764169,-259.6677067549823,6.254954988400185,-43.84190705321054,15.4977705981352,-4.999180143080414,259.76185336567363,46.738298194316236
162,-0.6782071166375436,-259.68648035728296,6.2341766092664574,-43.797444119554285,15.909624470059345,-5.071963083156739,259.77967031128446,46.85686058147231
163,-0.6623228827232085,-259.7050127786736,6.220389727381782,-43.738783913441566,16.344256300293015,-5.149479566541801,259.7974931311161,46.975804905110536
164,-0.6542630837301923,-259.72326289337434,6.213216621052107,-43.66511687530033,16.800197125496485,-5.231759665133731,259.8152758569842,47.09422966522407
165,-0.654363579466197,-259.7412066064865,6.212080462510186,-43.57587637156308,17.275815948835614,-5.318792405214383,259.8329823395799,47.21132732930921
166,-0.6628433323372404,-259.7588317381493,6.216234353480301,-43.4707775649935,17.76931502556437,-5.410525286060426,259.85058183308837,47.3264090196698
167,-0.6798023771039605,-259.776132281359,6.224795358687453,-43.34985302243135,18.278726350831576,-5.506865401432587,259.8680441548636,47.43892797054829
168,-0.7052216717248285,-259.7931026690504,6.236781564133016,-43.21348274055581,18.801910692447457,-5.607682117674518,259.88533500601335,47.54850033066256
169,-0.7389642679402797,-259.80973270419014,6.251150181610226,-43.06241639332357,19.336560374210265,-5.71281101957135,259.9024120532108,47.65492191193131
170,-0.7807774229901677,-259.82600369892396,6.26683494396033,-42.89778594400607,19.880206706295272,-5.822058590387636,259.919222266754,47.758179640452354
171,-0.8302955385251134,-259.8418861559768,6.282781436778047,-42.72110732311826,20.430232573775818,-5.935206924856421,259.935700804245,47.85845679586549
172,-0.8870441120702363,-259.8573390106016,6.297979494723286,-42.53427057278471,20.983890359921066,-6.052017772908367,259.9517714242928,47.9561316134237
173,-0.9504451362811458,-259.87231008899687,6.3114922768583295,-42.33951855201818,21.53832515652905,-6.172235386301344,259.9673480630224,48.05176935740802
174,-1.019824468307089,-259.88673714568364,6.322482041108605,-42.13941484671551,22.090603054658438,-6.295587888406163,259.98233692131873,48.14610839953526
175,-1.0944215747134518,-259.9005487195608,6.330232909938175,-41.93680187107014,22.637744142712716,-6.4217870841228715,259.99663829216126,48.24004105472457
176,-1.1734017913330734,-259.91366413320463,6.334171065252355,-41.73475032405366,23.17675964738672,-6.550526732602218,260.01014744306184,48.33458996703728
177,-1.255870903539628,-259.9259922408559,6.333882766224745,-41.53650129624482,23.704692474512537,-6.6814793688950225,260.02275414799044,48.43088083311109
178,-1.340891516252813,-259.937428950251,6.329130216158179,-41.345402534132546,24.21866027896686,-6.814291841020687,260.0343408778303,48.53011233606722
179,-1.427500410262422,-259.94785397123974,6.319864703108877,-41.16484069433348,24.715900108631665,-6.948579851663117,260.04478007849804,48.63352437098898
180,-1.514725952992623,-259.95712752423884,6.30623594815571,-40.99817178360229,25.193813572580535,-7.08392195929081,260.05393124062834,48.74236588407443
181,-1.6016046993081967,-259.9650878124783,6.288596413640876,-40.848652276098484,25.65001133229796,-7.219853683471017,260.0616385354633,48.85786380743547
182,-1.6871965406986158,-259.97154998440084,6.267499366214815,-40.7193735331419,26.082355548842514,-7.35586252718854,260.0677297172924,48.98119458838213
183,-1.7705980370085246,-259.97630716633535,6.243689695894197,-40.613202031839876,26.48899885654071,-7.491384806839067,260.0720168530132,49.11345966330095
184,-1.8509538347039098,-259.97913393407714,6.218086942165653,-40.53272749550777,26.868418542598537,-7.625805106045006,260.0742992403346,49.255665905137164
185,-1.9274663381222459,-259.9797922760278,6.19176066404491,-40.48022036320555,27.21944481907575,-7.758458923199577,260.07436857887103,49.408711584517256
186,-1.9994040174545726,-259.97803972039304,6.165899002211729,-40.457599236409365,27.54128223773197,-7.888638716188337,260.0720160977518,49.57337774280445
187,-2.066108802707834,-259.9736389965528,6.141771753903927,-40.46640810550283,27.833523367066725,-8.015603170187994,260.0670410539581,49.750324157776774
188,-2.127002858544435,-259.9663684798729,6.120689434835452,-40.5078024294484,28.096153915517462,-8.138589230737246,260.059259898768,49.94008847095494
189,-2.1815947474854545,-259.9560327057161,6.10395980797092,-40.58254265399473,28.329548666199784,-8.256826293363817,260.04851544602604,50.14308672286514
190,-2.2294847688946473,-259.94247236395734,6.092843407681853,-40.69099355337239,28.53445790498607,-8.369551887083297,260.03468550261715,50.35961355030514
191,-2.270369238427784,-259.92557335970037,6.088509670128104,-40.83312784710026,28.711984393398403,-8.47602817293117,260.0176905979061,50.589840565270805
192,-2.3040435978770395,-259.905274691317,6.091995286586313,-41.00853284305865,28.86355127313516,-8.57555857977284,259.9975006137456,50.83381187742678
193,-2.3304043781308152,-259.8815749676939,6.104166293353599,-41.21641929995742,28.990861552361892,-8.667503940350272,259.97414018302766,51.09143624910031
194,-2.349450074819155,-259.85453733001793,6.125685237449047,-41.455632122578855,29.095850022834043,-8.751297581766753,259.94769266100883,51.36247585583772
195,-2.361280901457436,-259.82429243439105,6.15698456357102,-41.72466276846436,29.180628629645742,-8.826458928981648,259.9183023560532,51.64653197311863
196,-2.366097186237097,-259.791039129654,6.198247201806558,-42.021663326455624,29.247426514277656,-8.892605246992867,259.88617467602074,51.94302811840177
197,-2.3641959700160426,-259.75504261517455,6.249395186873459,-42.34446216363746,29.29852621366597,-8.949461171225723,259.85157398900697,52.25119129745315
198,-2.355965272361329,-259.71663014456294,6.310086928231795,-42.690580894099895,29.33619781980492,-8.99686569164376,259.81481927042006,52.57003209162685
199,-2.341875610686797,-259.67618464705265,6.379723412289944,-43.0572522924648,29.362633233150916,-9.034776295431882,259.7762779056673,52.89832442703736
200,-2.322468685743608,-259.63413686817944,6.457463159796704,-43.44143875286671,29.379882884011913,-9.063270047962725,259.73635823882825,53.234586012547695
201,-2.2983435962026895,-259.5909566936853,6.542245245963868,-43.83985103961053,29.38979735207025,-9.082541507073604,259.69550151160934,53.577060616071606
202,-2.2701413665652614,-259.547144170527,6.632819226265393,-44.24896739214792,29.39397614024495,-9.09289751466742,259.6541736799042,53.923703546219095
203,-2.2385288078968295,-259.5032204390508,6.7277804999053625,-44.665053494295265,29.39372548455907,-9.094749066401596,259.6128572905056,54.27217190128972
204,-2.204182700929957,-259.45971847680954,6.825609491497198,-45.08418432743558,29.390026607218967,-9.088600595867607,259.5720432827836,54.61982133598868
205,-2.167775060974784,-259.4171733379453,6.924712979564411,-45.502269392970916,29.383515397252246,-9.075037118791686,259.5322223592837,54.96371127005348
206,-2.12995996988789,-259.37611149251825,7.023465938574593,-45.915083074098966,29.374474247395813,-9.054709786387816,259.49387548703817,55.300620573517314
207,-2.091362237561282,-259.3370389335533,7.120252420124395,-46.31830190696184,29.362836652466715,-9.028320508540117,259.4574631565804,55.6270757078929
208,-2.052567940879144,-259.3004279404586,7.213504276079385,-46.70755024232787,29.34820500798864,-8.996606402001545,259.42341325293876,55.93939298105298
209,-2.014116610511562,-259.26670276401467,7.3017369082236465,-47.07845529439062,29.329881677669867,-8.960324853410313,259.3921077791268,56.23373597092496
210,-1.9764945429130607,-259.2362249444226,7.383581683037409,-47.42671199658553,29.30691279313583,-8.920239946511648,259.3638691305737,56.506188356118756
211,-1.9401285627983205,-259.20927932139983,7.4578150419071045,-47.74815746037979,29.278143488221843,-8.87711090010427,259.3389469769822,56.7528414421228
212,-1.9053796753793475,-259.1860619194772,7.523384498415231,-48.038854175878484,29.242282491254066,-8.83168299990698,259.31750693777917,56.96989467552351
213,-1.8725363967488666,-259.16667081054885,7.579431638374067,-48.295180431772536,29.19797335665052,-8.784681275175965,259.2996221560071,57.15376649974044
214,-1.8418079565959764,-259.15110084617754,7.625312080386073,-48.513925789829734,29.143869203469514,-8.736806890067019,259.2852686627224,57.30121209388794
215,-1.8133178425645124,-259.1392428393512,7.660612229601991,-48.69238881373745,29.078707635152174,-8.688735946040245,259.27432510681103,57.40944384580695
216,-1.7870982287798174,-259.1308873800367,7.685162522568444,-48.82847361450472,29.001382520795882,-8.64112017743755,259.2665770230574,57.47624983151846
217,-1.7630857723378084,-259.1257330749493,7.69904662003029,-48.920781188830205,28.911009569719607,-8.594588894820678,259.26172540654983,57.50010518094417
218,-1.741119214351207,-259.1233986948865,7.7026056963485505,-48.96869109365193,28.806983171241765,-8.549751501852937,259.25939904215136,57.48027111343282
219,-1.7209392577946436,-259.12343850023836,7.696436833793291,-48.972428805114994,28.689022722168065,-8.507199972692753,259.25916981969925,57.41687665585737
220,-1.7021912178627212,-259.1253598484958,7.681384808604611,-48.93311422506381,28.557207444525556,-8.467510776362836,259.26057010899297,57.31097856821073
221,-1.684430808285359,-259.1286420361132,7.658527216093927,-48.85278730238096,28.41199936467555,-8.431245802785316,259.2631111417062,57.16459577989524
222,-1.667133144185992,-259.1327552222966,7.629153515849852,-48.734407658243214,28.25425464590379,-8.398951859420967,259.266301267611,56.980715688325525
223,-1.6497047669461318,-259.13717829836145,7.594738776764207,-48.58182635250933,28.085223818543476,-8.371158318380049,259.26966297968306,56.76327091512596
224,-1.6314983728926795,-259.1414147481698,7.556912690442456,-48.39972932458546,27.906541564647657,-8.34837257989224,259.2727477811858,56.517086384086646
225,-1.611829968356952,-259.1450058569817,7.517424175857698,-48.19355340999743,27.72020657101285,-8.331073208758834,259.27514827310426,56.24779772436877
226,-1.5899982888328943,-259.14754097626604,7.478101901363774,-47.96937706096024,27.528551706428214,-8.319700853159633,259.2765071898574,55.961742973945505
227,-1.5653064022081724,-259.14866485511385,7.4408112851084915,-47.7337889465336,27.33420462538741,-8.314647306443717,259.2765234196641,55.66583042142083
228,-1.5370853758775551,-259.1480822696203,7.407408812850551,-47.49373848338746,27.140038984180457,-8.316243283624416,259.27495527239626,55.367386244337666
229,-1.5047196754863235,-259.1455603451905,7.379694660098232,-47.256373073854064,26.949116776095845,-8.324745639924894,259.27162142210574,55.07398639767368
230,-1.4676736284776766,-259.1409291088865,7.359364573234062,-47.0288674001027,26.764622775765478,-8.340324855195071,259.26640008853684,54.793277939696026
231,-1.4255179532373714,-259.1340808992667,7.34796187032819,-46.81825045779339,26.58979263078327,-8.363053644457255,259.2592271063564,54.53279553525481
232,-1.3779550978728965,-259.12496922522746,7.346830487484507,-46.6312359594499,26.427836655812726,-8.392897527286976,259.25009349518285,54.29977907393156
233,-1.324841947177427,-259.1136074876569,7.357070323207438,-46.474061213593586,26.28186180591006,-8.429708094627603,259.2390429742914,54.100998079217405
234,-1.2662083703281914,-259.1000677208426,7.379496552375822,-46.35233868240954,26.154794608680927,-8.473219552757454,259.2261696196687,53.94258793213111
235,-1.202270195846893,-259.0844792445329,7.414604821791846,-46.27092336174298,26.049308002282004,-8.523048916957285,259.2116156004045,53.82990207174647
236,-1.1334355795772497,-259.0670268740676,7.462544204429957,-46.23379815110688,25.967755013620362,-8.578700026728887,259.19556868673527,53.767383455462564
237,-1.0603043014006135,-259.0479481217912,7.523099554746649,-46.24397867287193,25.912111960923514,-8.63957142973303,259.1782590032012,53.75845780681094
238,-0.9836601095562705,-259.02752867709745,7.595684537432783,-46.3034386532789,25.8839333524591,-8.704968133409718,259.15995434749465,53.80545062209658
239,-0.9044566810255324,-259.0060954757812,7.679346120112192,-46.413056966723836,25.884319923550404,-8.77411715644841,259.14095340848667,53.909529536336976
240,-0.8237980283203469,-258.98400694498395,7.7727807853055655,-46.572587637785155,25.9139004189791,-8.8461866320075,259.12157647954984,54.07067338892851
241,-0.7429142454914764,-258.96164049730936,7.874362198937667,-46.78065430304218,25.972826924971784,-8.920307924796129,259.10215373769415,54.28766907967777
242,-0.6631333740488962,-258.9393778925893,7.982179592394384,-47.03477063854212,26.06078290505053,-8.99559991293588,259.08301169252974,54.558136946512306
243,-0.5858500028987582,-258.917589537068,8.094085665647183,-47.331387868116884,26.177002677758512,-9.071194348667293,259.0644588494751,54.8785848177162
244,-0.5124911489242678,-258.89661908292067,8.207752404053059,-47.665969595069996,26.320300913209188,-9.14626109988542,259.04677191272333,55.244490042343934
245,-0.44448003331753627,-258.876769808469,8.32073284316626,-48.033092865440786,26.48911075568081,-9.220032071692444,259.03018395762047,55.65040767199542
246,-0.383198502115313,-258.8582941599601,8.430526567933848,-48.4265726803206,26.681529250487795,-9.291822661681723,259.01487589074725,56.09010156520858
247,-0.32994899543771944,-258.8413874911918,8.534646643560908,-48.83960535917308,26.895368694178615,-9.361049699669806,259.0009721640875,56.55669362332356
248,-0.28591715014234353,-258.8261865076624,8.630685720954054,-49.2649245933453,27.128212257025545,-9.427244996099839,258.9885411775854,57.04282493202685
249,-0.2521362744147795,-258.81277232904745,8.716379204936837,-49.69496312498494,27.377471829026412,-9.490063873808703,258.97760021340554,57.5408216642882
250,-0.2294549767614788,-258.8011775360914,8.789663650483245,-50.122012986337836,27.64044572575371,-9.549288313867653,258.9681242051858,58.04285849867772
251,-0.21850917327204805,-258.7913961399381,8.8487289278187,-50.53837811303249,27.914373853496617,-9.604824545404371,258.960057229852,58.54111308473061
252,-0.21969961488504527,-258.7833951573537,8.892062985982669,-50.93651466244674,28.196488218666335,-9.656695076340037,258.9533253651928,59.02790656321209
253,-0.23317595809898617,-258.7771264391862,8.918488139765332,-51.30915621524943,28.48405715636903,-9.705025368703886,258.94784952403154,59.49582701311972
254,-0.25882813509637137,-258.7725375987546,8.927187865951597,-51.64942291999063,28.774422174454006,-9.750025636421986,258.94355707786593,59.93783461718678
255,-0.2962853435399985,-258.7695812400347,8.917723359333543,-51.950915280019295,29.065026756533896,-9.791968548294323,258.94039144683137,60.347349017615215
256,-0.3449225327291226,-258.76822201375126,8.890039597811693,-52.207794442943545,29.353436846183005,-9.831163902630168,258.93831918190307,60.71832056442779
257,-0.4038739996522559,-258.768441214391,8.8444611933822,-52.414851394645595,29.637353120676963,-9.867931576042945,258.9373342726815,61.04528785309498
258,-0.47205367129688475,-258.7702387206588,8.781678652072223,-52.567567363632335,29.91461562285773,-9.902574225196888,258.937459517855,61.323424123508474
259,-0.548181723629556,-258.77363218430787,8.702725831753245,-52.66216711142817,30.18320184649798,-9.93535130707783,258.93874490236334,61.548574831810576
260,-0.630817205440765,-258.77865352377296,8.608949524671386,-52.695665834606345,30.441219880777805,-9.966455933088492,258.9412630777441,61.71728814306723
261,-0.7183962075843546,-258.7853429569511,8.501972290516761,-52.66590940852923,30.68689861031261,-9.995995860843912,258.9451022222295,61.826839403235766
262,-0.8092748651757974,-258.79374099647345,8.383649864557864,-52.571606926457086,30.918577155670498,-10.02397958227562,258.95035674853654,61.875250021423
263,-0.9017761432692248,-258.80387902882933,8.256024554961456,-52.41235411242431,31.13469566542061,-10.050308048618312,258.9571165244121,61.86130076542339
264,-0.9942389609688086,-258.8157692800962,8.12127602938555,-52.18864624077183,31.333789223678018,-10.074772151890375,258.96545544804906,61.7845392770417
265,-1.0850678457415748,-258.82939506893103,7.981670895910318,-51.90187953959459,31.514486083282684,-10.097055731337871,258.97542031468873,61.64528157188291
266,-1.172781132202483,-258.8447021861873,7.839512530698783,-51.55434047663035,31.67551076624819,-10.116743644132862,258.9870208480785,61.444607268757075
267,-1.2560557860964598,-258.8615919958397,7.697092528642847,-51.14918266884644,31.81569184875424,-10.13333432570585,259.00022152258583,61.18434818955575
268,-1.3337671371485635,-258.8799164938206,7.556644866517314,-50.69039137300042,31.933973538877627,-10.146256212731307,259.0149354358918,60.867069768028244
269,-1.4050219972775644,-258.8994752438116,7.420303553692325,-50.182735643378514,32.02942959640846,-10.154887363260908,259.03102016642805,60.4960445007243
270,-1.469183767081442,-258.9200139756176,7.290064388194658,-49.63170838239053,32.10127785766142,-10.158577564214797,259.0482754116327,60.0752166080235
271,-1.5258882392607662,-258.9412246833683,7.167751340307922,-49.043454754715945,32.148893619031575,-10.156672155815027,259.06644225030675,59.60915723073496
272,-1.5750490066209062,-258.9627471688734,7.05498785991016,-48.42468979733722,32.17182031663593,-10.148536709315513,259.08520397231496,59.103009835218394
273,-1.616851804877756,-258.9841720777383,6.953173067946928,-47.78260645705964,32.16977624331744,-10.133581568704894,259.1041885127,58.562425937553314
274,-1.6517378045808466,-259.0050456352642,6.863462535938265,-47.124775629709795,32.142656430304704,-10.111285160839788,259.12297268445394,57.99349169745779
275,-1.6803766587495896,-259.02487648781846,6.786753295057842,-46.459039996930116,32.090529242054146,-10.081214973288633,259.14108860743175,57.402646312773825
276,-1.7036307407923545,-259.04314511948644,6.7236728254532165,-45.79340351567541,32.0136276337271,-10.043045219439664,259.1580328013882,56.79659340743541
277,-1.722512314658486,-259.05931614042186,6.674572003019113,-45.135918307566484,31.91233537244598,-9.99657038068511,259.1732782428279,56.18220671939315
278,-1.7381354685696424,-259.07285343271457,6.639522249676632,-44.49457047898601,31.78716882354087,-9.941713944270056,259.1862893792842,55.56643139184145
279,-1.7516647455131162,-259.08323783496166,6.618317285004566,-43.87716617533058,31.6387551475544,-9.878531755881271,259.1965397933325,54.95618213086037
280,-1.7642626332643232,-259.089986772211,6.6104797905042645,-43.29121902241884,31.46780792266091,-9.807209584287886,259.2035319337905,54.35823949423507
281,-1.7770383708852144,-259.09267495458937,6.615273070725471,-42.743840090527044,31.275101271246296,-9.72805481328863,259.2068180445369,53.77914565873746
282,-1.7910007532157077,-259.0909550032167,6.63171762145102,-42.24163163175445,31.061443527340092,-9.641482582519291,259.20602115260215,53.22510116546474
283,-1.807017605775044,-259.0845767010044,6.658612433174307,-41.790586020153555,30.827651400993155,-9.547997094857973,259.20085481337287,52.70186432942207
284,-1.8257841775762225,-259.0734035585719,6.694560797030518,-41.395991480996834,30.57452558510906,-9.448169122190683,259.1911403026815,52.21465520067612
285,-1.84780183357728,-259.0574255362279,6.738000316357736,-41.0623463075204,30.30282885759156,-9.342610942224148,259.1768200982901,51.768066182864224
286,-1.873367395223061,-259.0367670571868,6.7872367264222,-40.79328336520989,30.01326787359873,-9.231950035505657,259.15796678907384,51.365981631279865
287,-1.9025726558055043,-259.0116898189364,6.840480911556433,-40.59150679590161,29.706479856050716,-9.116802900264815,259.13478691751135,51.01150889539542
288,-1.9353131554913288,-258.9825902355855,6.895888225308439,-40.458742931272326,29.383025172757733,-8.997750334941484,259.1076195763497,50.70692326333298
289,-1.9713051302365263,-258.9499915346054,6.951599036093531,-40.39570745560475,29.04338637354595,-8.87531550382047,259.07692975982394,50.453629088823384
290,-2.0101094156088877,-258.9145306222035,7.0057794214978975,-40.4020907470123,28.687973780955858,-8.749946033152328,259.0432965529818,50.25213904824881
291,-2.0511608069607825,-258.8769399611296,7.056661042249242,-40.47656297158841,28.317137304796496,-8.62200125723851,259.00739636670625,50.10207296939804
292,-2.09380094133781,-258.83802498782,7.1025793616538095,-40.61679982171156,27.931183841884152,-8.491745505006156,258.9699817039363,50.00217695354802
293,-2.1373123494332633,-258.79863799543847,7.142009534932954,-40.81952881244457,27.530399408778333,-8.35934796828899,258.9318563385831,49.95036259021688
294,-2.1809511961454984,-258.7596497426357,7.173599440603263,-41.08059497067759,27.115074962262685,-8.224889248054268,258.8938481221991,49.943765049673274
295,-2.223976592588935,-258.72192017566226,7.196199359532501,-41.39504382033784,26.68553463371291,-8.0883741866928,258.8567807666479,49.97881790423152
296,-2.2656751598261726,-258.68626962731025,7.20888770630915,-41.757218952015414,26.242164865656637,-7.949750133303845,258.8214459363853,50.0513418357845
297,-2.3053803986150454,-258.65345178911014,7.2109920874979005,-42.160871205335795,25.785442770942733,-7.8089294364522015,258.7885769267745,50.15664402481777
298,-2.342487040350176,-258.62412962105134,7.202104875745997,-42.59927652886683,25.315961999868392,-7.665814768943453,258.75882507770183,50.289624983563684
299,-2.3764608855481324,-258.5988551109058,7.182092440554944,-43.06535980564357,24.83445452430197,-7.520325841944448,258.732739818171,50.44488981478317
300,-2.4068447885528657,-258.57805350615445,7.151097191558392,-43.55182222026413,24.341807035464125,-7.372426081123751,258.71075294479425,50.616861236253854
301,-2.433261459621282,-258.56201244992405,7.109531767911705,-44.05126998924646,23.83907108649981,-7.222147847053565,258.6931675461325,50.79989209952688
302,-2.4554136482749973,-258.55087635696185,7.058065129951022,-44.55634240515636,23.327466626394425,-7.069614786758489,258.6801518995063,50.98837545207024
303,-2.4730821519009574,-258.54464623844797,6.997600915945663,-45.059837125971114,22.808379051938594,-6.915059964243051,258.67173855874944,51.17685036805965
304,-2.4861220477428323,-258.5431849339507,6.929249015521756,-45.55483049896821,22.28335025043276,-6.758838603668477,258.66782862177945,51.360101786877244
305,-2.4944575172366537,-258.5462273745402,6.854291728572678,-46.034790526532966,21.754064316967778,-6.601434611048701,258.66820084772866,51.53325252553607
306,-2.498075552979122,-258.55339519305795,6.774146138140006,-46.49367997081975,21.222328784767438,-6.443460469661058,258.6725249938935,51.6918456012284
307,-2.497018796034383,-258.5642147817073,6.690324478260612,-46.926047130733984,20.690052356566618,-6.285650540278466,258.6803785317877,51.83191509394423
308,-2.4913778451191697,-258.57813776584044,6.604394274523182,-47.32710201864469,20.159220247960402,-6.128848168285325,258.6912657713473,51.950043990240246
309,-2.4812835434995373,-258.59456279970345,6.51793980343308,-47.69277600340537,19.631868313384057,-5.973987285530551,258.70463835369577,52.043407752918874
310,-2.4668998313939077,-258.6128576096257,6.432526010083273,-48.01976347690521,19.11005711392507,-5.822069405871101,258.7199160808862,52.10980276746832
311,-2.448417651490313,-258.63238032314126,6.349665627420384,-48.30554474293502,18.595847003701856,-5.674137057025254,258.7365071507162,52.147659331371315
312,-2.4260501027875905,-258.65249930998704,6.270790014330056,-48.548390067872134,18.091275144258766,-5.531244767173683,258.75382704158534,52.15603942903351
313,-2.4000286742487598,-258.6726110042447,6.19722417257722,-48.74734557227714,17.598335088284248,-5.3944287334333305,258.77131552902824,52.13462007863094
314,-2.37060016532318,-258.6921554591917,6.130166375594567,-48.902202287788846,17.118959222004953,-5.264676242704016,258.7884515938107,52.08366346983463
315,-2.3380239021573375,-258.7106296380525,6.070672694152442,-49.01345023166541,16.655003996469038,-5.14289581107892,258.80476622881343,52.00397544036758
316,-2.3025689640910976,-258.7275985571131,6.019646385031333,-49.082219808746096,16.208237613966887,-5.02988891300082,258.8198532579994,51.896854147954365
317,-2.2645112107847543,-258.7427043519637,5.977831693538388,-49.11021327289444,15.780329721562039,-4.926324155487172,258.8333782249196,51.76403113925235
318,-2.2241299517369,-258.75567323765677,5.945811234716411,-49.09962932019239,15.372842683733289,-4.832714823709914,258.84508529781533,51.60760734834137
319,-2.181704197394983,-258.76632025770164,5.924005867513567,-49.05308404714444,14.987224114942375,-4.749400798082864,258.8548020551976,51.429986757472335
320,-2.137508596217943,-258.7745516258615,5.912675946196642,-48.973531423757976,14.624800504359687,-4.6765358134925314,258.8624419236177,51.233810433285456
321,-2.0918093384995817,-258.7803643402047,5.911923080836702,-48.86418609374746,14.28677190925266,-4.614080856638393,258.868003921157,51.021893382010596
322,-2.044860400705634,-258.78384272109435,5.921692017459243,-48.728450752834526,13.974207772972441,-4.561804204848936,258.8715693441901,50.79716616025708
323,-1.9969004568854345,-258.78515176682305,5.941772779488571,-48.569849655257656,13.688043891600643,-4.519288243972268,258.8732952889727,50.56262250357976
324,-1.9481506235545287,-258.78452771857724,5.971803611971149,-48.39196909413955,13.429080417637557,-4.485942801351995,258.8734054053957,50.321273527210195
325,-1.8988130216635062,-258.78226670597684,6.0112754582707915,-48.19840511777707,13.197980622908602,-4.461024331324109,258.8721787628911,50.076108454064624
326,-1.8490700314915298,-258.77871250617534,6.059538624483017,-47.992718329383685,12.995270021961515,-4.443659944330518,258.869937869326,49.830061405036396
327,-1.7990841369057227,-258.77424426035395,6.115811934113148,-47.77839534117837,12.821335399691726,-4.4328750319012755,258.86703669052457,49.58598352486745
328,-1.748998385579972,-258.769264650813,6.179194236669124,-47.55881624422805,12.676423281098154,-4.427623147696751,258.8638491737082,49.3466195452362
329,-1.6989376478003364,-258.76418872845227,6.248677912854348,-47.33722724691241,12.560637431207867,-4.42681685639584,258.86075846555724,49.11458774183693
330,-1.6490109399430892,-258.7594333594753,6.323164081923216,-47.116717402447684,12.473935080446092,-4.429358411973886,258.85814679896583,48.89236209591144
331,-1.5993150293470662,-258.75540715406254,6.401479379467519,-46.90019812231116,12.416121711030968,-4.434169313506747,258.85638591936817,48.68225534157308
332,-1.5499393536868398,-258.75250074431284,6.482394311630449,-46.690384031802914,12.386844392155435,-4.440217957951932,258.8558279255864,48.48640152845894
333,-1.500972033374649,-258.7510773542371,6.564643315478677,-46.48977374813589,12.385583818109115,-4.446544740172806,258.85679647338276,48.30673683125922
334,-1.4525065373783417,-258.7514637185154,6.64694674106654,-46.3006294088948,12.411645392324292,-4.452284049822237,258.8595784002652,48.14497765260799
335,-1.404648470840328,-258.7539415323247,6.728034915617884,-46.124954258322546,12.46414990813571,-4.456682705265428,258.8644159492278,48.00259560334859
336,-1.357521992785984,-258.7587397087209,6.806674178198418,-45.96446824935936,12.542024584303276,-4.459114463667579,258.87149985270213,47.88078964209367
337,-1.311275454078313,-258.7660277778547,6.881694280813049,-45.82058232248937,12.643995380131358,-4.459090380054573,258.8809635813382,47.78045639328717
338,-1.2660858840461777,-258.7759108227841,6.952015914080022,-45.69437265921212,12.768581589890008,-4.456264981775767,258.8928791069585,47.702160314624294
339,-1.2221619795598333,-258.78842639581535,7.016676562564803,-45.58655669537503,12.91409367164859,-4.450438449377247,258.9072545681785,47.646105860793845
340,-1.1797453478343787,-258.8035438212247,7.074852760045765,-45.49747295760985,13.0786351318276,-4.441555174583876,258.9240341931214,47.61211403351699
341,-1.1391099279826205,-258.8211661242459,7.1258772175111,-45.42706681620173,13.260109146014928,-4.429699154660553,258.94310068563954,47.599605698111354
342,-1.100559690837713,-258.84113456082366,7.169249970396412,-45.374884033660905,13.456230530219514,-4.415086692653666,258.9642800373179,47.607593811716676
343,-1.0644248192115,-258.8632354216409,7.204643273519403,-45.34007356890338,13.664543696075294,-4.398056842776751,258.98734844046606,47.63468629279881
344,-1.0310565774167242,-258.8872085228976,7.231900372008792,-45.321400536018025,13.882447243456374,-4.379060000036998,259.01204072251596,47.679100706956866
345,-1.0008210183155941,-258.9127566361594,7.25102868234896,-45.31726961613359,14.107225734571923,-4.35864498711595,259.03805956896684,47.73869131300869
346,-0.9740915976121994,-258.93955506709807,7.262188472117661,-45.325758703707436,14.33608887141078,-4.3374449213766395,259.0650847731354,47.81098839880677
347,-0.9512407000455047,-258.9672606629118,7.265678646095591,-45.344662215077136,14.566217779467912,-4.316162048595858,259.09278183600645,47.8932493197225
348,-0.9326300412902772,-258.99551972025705,7.261921353432192,-45.37154329139968,14.79481748446721,-4.295551642171841,259.12080943590576,47.9825202596962
349,-0.9185999121586456,-259.0239745540365,7.251446678335754,-45.403794008255325,15.019174092563595,-4.2764050288498305,259.14882556460526,48.07570742983164
350,-0.9094573312541545,-259.0522687585714,7.23487790229727,-45.438702554004855,15.2367147777304,-4.259531832373267,259.1764923763198,48.16965614115041
351,-0.9054634039029812,-259.08005133875446,7.212917095555305,-45.473526103105954,15.445068506991413,-4.245741624918016,259.203479921216,48.26123590386285
352,-0.9068204796773038,-259.1069799227763,7.186330344610864,-45.505567822870816,15.64212545270192,-4.235825332131157,259.22946895517117,48.34742943523255
353,-0.9136599298384298,-259.1327232737649,7.155931803646873,-45.53225617683357,15.826093132070293,-4.230536912246994,259.2541530184346,48.42542322374264
354,-0.9260314673907006,-259.1569633320243,7.122565889065814,-45.55122444019184,15.995547360811413,-4.2305759559998135,259.2772399927955,48.49269707155136
355,-0.943894902761535,-259.17939702062796,7.087087212591498,-45.56038810062903,16.149476063554957,-4.2365718703937505,259.29845335502625,48.54710978028599
356,-0.9671150492277997,-259.199738027861,7.05033826826848,-45.558017580741065,16.28731390110531,-4.249070180525528,259.31753333618326,48.58697787275398
357,-0.9954601694180759,-259.21771876882957,7.013125509591836,-45.542803526492804,16.408965682297996,-4.268521216693754,259.33423820175676,48.61114403764966
358,-1.0286039737962316,-259.23309272160566,6.976195187712649,-45.51391183159703,16.51481676086056,-4.295271144131793,259.348345881086,48.61903196688107
359,-1.0661308464436223,-259.24563726646306,6.940210879558657,-45.471025686126616,16.605729148753596,-4.329555108395165,259.35965612446336,48.61068453572097
360,-1.1075437248791855,-259.2551569911303,6.905734724844475,-45.41437227530574,16.68302287455891,-4.371492303976722,259.36799320592576,48.586782875969845
361,-1.1522739251585021,-259.2614872261759,6.8732139575873825,-45.34473227472799,16.748443032912434,-4.421082924444616,259.37320898235936,48.548644717145464
362,-1.199692230815613,-259.2644974702118,6.8429735639369085,-45.26343094466401,16.8041138172938,-4.478207022302185,259.37518599762376,48.498201291050954
363,-1.2491207542057434,-259.26409442772734,6.815215120870564,-45.17231040163979,16.852481463423835,-4.542625223881368,259.3738403645492,48.43795303864779
364,-1.2998453446664473,-259.2602245611901,6.790021289860771,-45.07368352299352,16.896248382521364,-4.6139811193979,259.36912432144345,48.37090529470584
365,-1.3511285568518605,-259.2528762178737,6.767365103859831,-44.970270843390395,16.93830079585147,-4.691805117807472,259.36102850858344,48.30048598532582
366,-1.4022233476835715,-259.24208142890365,6.747122985147747,-44.86512260302391,16.981631924406102,-4.775519642535241,259.3495840397094,48.23044804941293
367,-1.4523877393863185,-259.2279174048231,6.729090270650419,-44.76152872361443,17.029262398870305,-4.864445675623724,259.334864363563,48.16475975729305
368,-1.5009006759170407,-259.21050766111904,6.712997972931538,-44.66291994361424,17.084159270938088,-4.957810755246409,259.31698681620543,48.10748644075426
369,-1.547079175219537,-259.19002267644964,6.69852969338059,-44.57276368996809,17.149154990063696,-5.054758552729021,259.2961137377507,48.0626674690982
370,-1.590296625494242,-259.16668001852463,6.685337970878753,-44.49445847590179,17.226867957903526,-5.154360106856902,259.27245306855883,48.03419258518534
371,-1.630001781662623,-259.140743910094,6.673059666946139,-44.431230590321405,17.31962665489511,-5.2556267293282914,259.24625838602293,48.02568182095199
372,-1.6657378038430912,-259.1125241911519,6.661330117987494,-44.386036485465226,17.429399687982144,-5.357524575917265,259.2178283305575,48.04037300104667
373,-1.6971605599890802,-259.082374552629,6.649795830662701,-44.36147355905378,17.55773432425549,-5.458990894554319,259.187505289577,48.08102025934657
374,-1.724055346800933,-259.0506898049666,6.638125645539299,-44.35970108015136,17.705706106343396,-5.558951923354746,259.1556730989784,48.149806115587666
375,-1.7463511502368196,-259.0179018324428,6.6260205511090176,-44.382372070396556,17.87388196560873,-5.656342254723251,259.12275341356303,48.24826870046097
376,-1.7641315590923772,-258.9844737820927,6.613222513716663,-44.43057629717548,18.06229881848962,-5.750125267629777,259.08920029779193,48.37724492438545
377,-1.7776414210863276,-258.9508919702771,6.599522676709469,-44.50479429933483,18.270458925171386,-5.839314084262708,259.05549251896474,48.5368298913585
378,-1.7872882952762312,-258.91765503308227,6.584769106589007,-44.60486250543789,18.49734234809325,-5.922992486016955,259.0221230604531,48.72635264606163
379,-1.7936378283325545,-258.88526011252435,6.5688739738564275,-44.729949892605795,18.741435794154132,-6.0003352854391085,258.9895856297187,48.94436833092296
380,-1.797402469893506,-258.85418642692434,6.551819660659268,-44.8785471346838,19.000776153108564,-6.070627721604234,258.95835848399236,49.18866695098987
381,-1.7994233600871508,-258.8248772986956,6.533662880793177,-45.04846967304333,19.273006345523765,-6.133283478099638,258.92888661488286,49.45629913644464
382,-1.800645600999665,-258.7977222954559,6.514535695352598,-45.23687651102969,19.555440743828225,-6.187860911494586,258.90156391425506,49.743619489237425
383,-1.80208743366783,-258.77304132294677,6.4946424643124345,-45.4403066849324,19.845137378947406,-6.234077048305711,258.87671713278945,50.046348201854386
384,-1.804804187038174,-258.7510722887569,6.474252249754404,-45.65473513134905,20.13897429593863,-6.271818865577832,258.85459323789036,50.35965146285254
385,-1.8098483150617666,-258.7319635117615,6.453686836470345,-45.875648849384184,20.43372767449847,-6.301151293562318,258.8353513539593,50.678240496904955
386,-1.818227338497033,-258.71577155050636,6.43330521048705,-46.09814278360512,20.726149574497374,-6.322321280405856,258.819059988262,50.99648783085263
387,-1.8308618926541083,-258.70246464454755,6.413485835752223,-46.31703293509576,21.013043316231713,-6.335757198751917,258.8056997829763,51.308557688300866
388,-1.8485461535219279,-258.6919315226633,6.394608184959306,-46.52698226030286,21.291334549520105,-6.342062905875892,258.795171598765,51.60854566937243
389,-1.8719125877160818,-258.6839949313284,6.377034687300587,-46.72263341083207,21.55813606806364,-6.342005919073883,258.7873093276599,51.89062152080444
390,-1.901402386547971,-258.67842889393626,6.361093755394573,-46.89874167087496,21.81080447481129,-6.336499452759234,258.7818964772107,52.14916821646776
391,-1.9372424014235583,-258.6749784602475,6.347064082495984,-47.050301703775865,22.046986980470173,-6.326578459445198,258.77868530405925,52.37891090790702
392,-1.9794291200884429,-258.67338057632156,6.3351601150358325,-47.17266280364508,22.264656959272195,-6.313370242235234,258.7774171370761,52.57503046474471
393,-2.02772018826885,-258.6733846938428,6.325518626242485,-47.26162898022281,22.462137359624588,-6.298060588881631,258.777842517243,52.73325802855809
394,-2.0816339983869097,-258.67477178600416,6.318186693509705,-47.313542067383686,22.638111602482482,-6.281856708613598,258.7797398363515,52.84994893507889
395,-2.1404577587922162,-258.67737048528517,6.3131119762514025,-47.32534782599405,22.791622169425313,-6.265948535878751,258.7829312157014,52.922136227438244
396,-2.2032641562846704,-258.6810691308812,6.310136712954232,-47.29464642674898,22.92205768792478,-6.2514701392850025,258.78729444672484,52.94756552720288
397,-2.2689362985733488,-258.6858226949568,6.308997037306515,-47.219729536781145,23.029129916174238,-6.239462956259953,258.79276999745025,52.92471403141837
398,-2.336200218350001,-258.6916539012322,6.309328935061436,-47.09960639859322,23.112842524933477,-6.230842366077193,258.79936242448093,52.852796739840116
399,-2.4036639175087733,-258.6986483576612,6.310681471972599,-46.93402084024455,23.17345392006065,-6.226368811515372,258.8071360217452,52.7317627309339
400,-2.469861687544783,-258.706944137806,6.3125369695728395,-46.72346030471105,23.21143655680061,-6.2266243791562195,258.81620512782484,52.56228360302442
401,-2.533302219550821,-258.71671681976534,6.314336818711444,-46.46915700937741,23.227435290361218,-6.23199548904875,258.82672006455016,52.345735337173394
402,-2.5925188492728886,-258.72816138249595,6.31551088711502,-46.173080479781945,23.222227301429893,-6.242662119062286,258.8388500523444,52.08417403571462
403,-2.6461201958273217,-258.74147252982334,6.315508205440361,-45.83792010905534,23.196686022495676,-6.258593775618407,258.85276460973927,51.78030538545472
404,-2.6928394076704385,-258.75682498394616,6.313826804697289,-45.46705615887831,23.151751228092287,-6.279552208618931,258.8686149172171,51.43744734235474
405,-2.7315801772315758,-258.7743550725371,6.310041054350446,-45.06451773777221,23.08840698430763,-6.305100653894909,258.8865164153262,51.0594854118
406,-2.7614576293072814,-258.7941445966493,6.303825384004447,-44.634926727670404,23.0076684630466,-6.334619170945065,258.90653357879836,50.65081996442657
407,-2.781832205003777,-258.81620765704866,6.294973646395271,-44.183427342949024,22.910577764906716,-6.3673254413955105,258.92866750435223,50.2163052736367
408,-2.7923348700430637,-258.8404808924251,6.283413501855974,-43.715601929681334,22.798207987642165,-6.4023002453602516,258.9528467280018,49.76118038391343
409,-2.7928823971492074,-258.8668173447746,6.269215209193926,-43.23737459956933,22.671674004185718,-6.43851676943414,258.9789214534191,49.29099246261696
410,-2.783681954234331,-258.89498384214176,6.25259433579808,-42.75490515115164,22.532147917025316,-6.4748729052523135,259.00666105740737,48.811513836138126
411,-2.765224620669241,-258.9246614967332,6.233908198831996,-42.274476324334024,22.380876950845224,-6.51022572168053,259.03575445978885,48.328654344570126
412,-2.738267827315361,-258.9554488609461,6.213646136543988,-41.80237774845679,22.219201544280857,-6.543427287372398,259.0658129027587,47.84837091418778
413,-2.703807259841372,-258.98686749085533,6.1924138657573415,-41.34479006084313,22.04857150374111,-6.573360962596072,259.0963749049484,47.37657637393035
414,-2.663039470942115,-259.0183699206094,6.170912302080052,-40.90767267898541,21.870558233514387,-6.5989771963510515,259.12691342426916,46.91904959018418
415,-2.6173170921382676,-259.0493501468709,6.149911430606184,-40.4966586059235,21.68686126412875,-6.6193278087610565,259.1568453740206,46.48134897839968
416,-2.5680989419354066,-259.07915668453836,6.130220120364143,-40.116959325876174,21.499307620578232,-6.633597725059258,259.1855436098494,46.068731308066056
417,-2.516897483766358,-259.10710821133847,6.112653103709174,-39.773282182667835,21.309843046626636,-6.641133123530397,259.21235146760824,45.68607736157286
418,-2.465226043749778,-259.13251176211446,6.097996637874446,-39.46976166056865,21.12051470131007,-6.641464956826285,259.2365998773836,45.33782545075372
419,-2.414547975832566,-259.1546832579972,6.0869745885716675,-39.20990496109785,20.933445578346415,-6.634326859049166,259.25762690162446,45.02791321778058
420,-2.3662296102130576,-259.1729698674669,6.080216762553616,-38.996551512632394,20.750801469745177,-6.619666612176487,259.2747992514321,44.759727782285275
421,-2.321498477697875,-259.18677343318933,6.078231225414897,-38.831845721167994,20.574751731527925,-6.597650595171268,259.28753506255225,44.53606424176467
422,-2.281408072526823,-259.19557405706223,6.081382080371361,-38.71722228474915,20.40742538701622,-6.568660908001135,259.29532705924254,44.359092692450744
423,-2.246810217915337,-259.1989528864404,6.08987375051647,-38.653403536012746,20.250864236945294,-6.533285097579612,259.2977651704262,44.23033412969452
424,-2.2183357781990973,-259.1966131104468,6.103742198071074,-38.640408372221735,20.106974681149666,-6.4922986146265,259.29455761126263,44.15064568379501
425,-2.1963840221490507,-259.18839813915275,6.122852842483331,-38.677572328183224,19.977479969282225,-6.446640350883813,259.285549388531,44.12021564936017
426,-2.18112050866528,-259.1743059521144,6.1469044149730285,-38.763578292179986,19.863874658310824,-6.39738190939004,259.27073718554914,44.138568759258774
427,-2.172482997014625,-259.15449871243277,6.17543774518428,-38.896497322040595,19.767383148078274,-6.345691675438893,259.2502796807778,44.204582191730324
428,-2.1701945768283686,-259.1293069502719,6.207848496387611,-39.073838987971975,19.6889241793868,-6.292795240326069,259.2245025568441,44.316512822558835
429,-2.1737830070646216,-259.09922791158345,6.243403028020902,-39.29261058943851,19.629083002034797,-6.239934157676175,259.1938977483422,44.472036120996755
430,-2.1826051706519056,-259.06491800606045,6.2812567207595045,-39.549384401391286,19.588092551521473,-6.188325203320826,259.15911681652636,44.66829675667482
431,-2.1958755150831646,-259.027179585385,6.3204741627553265,-39.840371765400086,19.56582450649728,-6.139122141624938,259.12095863569704,44.90197042946409
432,-2.212697271134361,-258.98694245965714,6.360050605982821,-40.16150236513492,19.561790627892716,-6.0933815257955875,259.0803517510168,45.169335713753185
433,-2.2320951450103617,-258.94524064477076,6.3989341871593775,-40.50850649193602,19.575154339333857,-6.052033478700206,259.0383318537468,45.46635393492105
434,-2.253048158798434,-258.90318495897594,6.4360486412303555,-40.876997637601576,19.60475208998158,-6.015857906436324,258.99601495393756,45.78875440153289
435,-2.2745214303210655,-258.8619323424906,6.470316511933391,-41.26255247652705,19.64912363544892,-5.9854662488100585,258.9545670993536,46.13212182269143
436,-2.2954959409038795,-258.82265306503075,6.500682977301539,-41.660785336189875,19.706549989406643,-5.961288613277833,258.91517179119086,46.491982551698264
437,-2.3149957004607766,-258.78649710550644,6.526140268615532,-42.06741466905162,19.77509747266099,-5.943565920141816,258.8789963712975,46.8638864832269
438,-2.332112062372227,-258.75456084032,6.545752371498959,-42.47831978095021,19.85266605602892,-5.932346544719115,258.84715850790116,47.243481968480346
439,-2.3460250817068764,-258.72785487620575,6.558679410234247,-42.889586981460134,19.937040071910246,-5.927486957141315,258.8206936039943,47.62658187364798
440,-2.356021677461164,-258.70727362452766,6.564200879514705,-43.297545223483354,20.025939362526483,-5.928656046304521,258.80052370999397,48.009219736167516
441,-2.361510125407534,-258.6935671750696,6.561736660876484,-43.69879209360181,20.11706906567314,-5.935343086494946,258.78742848100427,48.387695781797326
442,-2.3620303460124163,-258.6873161532069,6.550864585881712,-44.09021167918094,20.20816653170953,-5.9468695402881595,258.78201884829843,48.75861332665496
443,-2.3572596556063994,-258.68891038140185,6.531333382984673,-44.468986347613225,20.297044290826523,-5.96240499882232,258.7847142260396,49.11890675773778
444,-2.3470139889938606,-258.69853220746376,6.503070308058154,-44.83260475351274,20.38162847209442,-5.980987513250407,258.795724141007,49.46586276287194
445,-2.3312449280236307,-258.71614532898116,6.466183456717377,-45.178868346392974,20.45999251887623,-6.001548397976795,258.8150351688548,49.7971366447925
446,-2.3100331291953404,-258.74148989190263,6.4209593588415315,-45.505898227625096,20.530386364982686,-6.022941336928386,258.8424040316028,50.110765323160784
447,-2.2835789140116893,-258.7740845567645,6.367856742999578,-45.8121434353692,20.591261412632875,-6.043975336879161,258.8773576376841,50.40517802848647
448,-2.2521908248890057,-258.8132360511325,6.307497316397951,-46.096390750400396,20.641291756137342,-6.063450778012299,258.91920067104934,50.6792048724891
449,-2.216272831074344,-258.85805644084974,6.240654130394412,-46.35777508705546,20.67939221777393,-6.08019755196194,258.96703104212486,50.932082639089366
450,-2.1763106540683435,-258.907487969027,6.168237725167194,-46.59578863093579,20.704733920755015,-6.093114095386587,259.01976311776974,51.16345644228922
451,-2.1328574872607504,-258.9603348336056,6.091279908112709,-46.81028626635442,20.716758243981765,-6.101206058151425,259.0761581563006,51.37337545612966
452,-2.086519274964146,-259.01530072145056,6.010914827621506,-47.00148460711091,20.715190001601254,-6.103623401788643,259.13486080953635,51.56228079939467
453,-2.03793968904149,-259.07103038141526,5.928357047755639,-47.169952083061915,20.700050534827632,-6.099694868796517,259.194440012364,51.730983817688504
454,-1.9877849983631255,-259.12615314322346,5.844876713635519,-47.31658790802348,20.671671106124446,-6.088958915507258,259.25343220988754,51.8806333221681
455,-1.9367291804695084,-259.17932618983355,5.761772619298358,-47.44258823952343,20.63070660015459,-6.0711903006452035,259.3103847916266,52.01267071896172
456,-1.885439824142222,-259.2292755968507,5.680344762178114,-47.54939842585934,20.578149147851065,-6.046421580685427,259.3638978303971,52.12877241739051
457,-1.8345654668018194,-259.2748335764093,5.601868357778856,-47.638650988127516,20.515340960474123,-6.01495883553684,259.4126626560322,52.23077952778572
458,-1.7847248625182717,-259.31497084012824,5.5275710932583735,-47.712089950756265,20.44398539004951,-5.977391064355862,259.455496257473,52.320615695776596
459,-1.736498307358335,-259.34882338859865,5.45861475772142,-47.771483288904534,20.36615499630611,-5.934592845169052,259.4913708684471,52.40019493472197
460,-1.6904207340529056,-259.37571331513425,5.3960815820208365,-47.818526534027626,20.284295187667023,-5.887720035678022,259.5194383339397,52.47132243911007
461,-1.646975995195628,-259.3951634323182,5.340964922983533,-47.854741864676896,20.201221826082023,-5.838198517385453,259.53904903789095,52.5355924956705
462,-1.6065916566005167,-259.4069057123327,5.294163495101525,-47.88137812426838,20.12011107504178,-5.787706250267101,259.54976532251237,52.594288597143546
463,-1.5696337341787159,-259.41088363724475,5.2564781363008155,-47.8993179062267,20.044479770497425,-5.73814914625243,259.5513694082864,52.64829148931252
464,-1.5364010837957185,-259.4072486035573,5.228609933544001,-47.9089979694522,19.97815472908139,-5.691631374865424,259.543865849322,52.69800099371425
465,-1.5071194709032727,-259.39635062216695,5.211158381820507,-47.91034882267655,19.92522966553474,-5.650420631433516,259.52747863455585,52.7432770628245
466,-1.48193559378369,-259.37872374150913,5.2046181873319854,-47.90275849736906,19.89000874717576,-5.616908702642853,259.50264321124257,52.78340478019653
467,-1.460911508260707,-259.3550668273556,5.209373428474028,-47.88506446753666,19.87693623892091,-5.593567486473814,259.4699938933803,52.81708705692506
468,-1.4440200661071547,-259.32622047783536,5.225688088213435,-47.855576459692266,19.89051213414318,-5.5829005404951495,259.4303472470801,52.84246766509081
469,-1.4311421591502977,-259.29314088940504,5.253692433868181,-47.8121315572827,19.935194063466152,-5.587390240610802,259.38468207136714,52.85718599097373
470,-1.4220666987969999,-259.2568714182181,5.293365211520008,-47.75218157397842,20.015286111363533,-5.609440675722065,259.33411651388474,52.85846350598999
471,-1.41649426505394,-259.2185124936507,5.344512015950591,-47.672911235859104,20.134815484955595,-5.6513164181983475,259.2798827660563,52.84322053074379
472,-1.414045209445539,-259.1791905607033,5.406740532943456,-47.5713843739725,20.29739831804578,-5.71507728930357,259.2232997979331,52.808220521323044
473,-1.414272760234392,-259.14002688514745,5.479433817504705,-47.444714129667034,20.506096303436678,-5.802509269849675,259.1657447554312,52.75023791169309
474,-1.4166813958384468,-259.1021072595425,5.561723467726963,-47.29025210268299,20.76326635882454,-5.915051910833855,259.1086238655081,52.666244523970015
475,-1.4207503867002944,-259.06645375320704,5.652465267868735,-47.10579041589243,21.070406122560197,-6.053723019313543,259.05334382632805,52.55360870250229
476,-1.4259619500569196,-259.03399955810295,5.750220198358722,-46.88976986271919,21.427998674809363,-6.219041934827133,259.001284593122,52.41030063231625
477,-1.431833007820759,-259.00556776599035,5.8532434084553,-46.64148671043357,21.835360419992593,-6.410953200583409,258.9537742724475,52.235096785114834
478,-1.4379492049963791,-258.9818547610326,5.959482936377059,-46.36129042388172,22.290496500456445,-6.6287527693874795,258.9120667017732,52.02777613421588
479,-1.4439996723631943,-258.96341890640633,6.066588952307134,-46.05076457408434,22.789968391238325,-6.871019096928887,258.8773223032541,51.78930070910395
480,-1.4498109285153669,-258.95067522154557,6.171933361531735,-45.712883451330384,23.32877841383122,-7.135551637229352,258.8505928427564,51.52197317731593
481,-1.4553782271216693,-258.9438966323988,6.2726388996099,-45.35213731574164,23.900275833342604,-7.419319374619466,258.8328106451784,51.229564383677186
482,-1.4608925844538656,-258.9432220934592,6.36561644990817,-44.974619721875875,24.496089081911766,-7.71842206171861,258.82478258027567,50.917404136273774
483,-1.4667617522308942,-258.9486715048824,6.447609167275605,-44.588070957205154,25.106088578915294,-8.028066770188017,258.82718881659827,50.59242906189216
484,-1.473623531664973,-258.96016700227807,6.515241943346218,-44.201872425004545,25.718384560541658,-8.342562233646815,258.8405860625931,50.263182136733136
485,-1.4823499517900232,-258.97755996392857,6.5650746697669335,-43.82698787811647,26.319364143610635,-8.655333311734983,258.8654148525358,49.93975956942655
486,-1.494040920372947,-259.00066295356856,6.593657664724445,-43.47584877692381,26.893771413627775,-8.958957756340403,258.90201038377666,49.63370203759832
487,-1.5100061591704246,-259.02928573384696,6.59758763122711,-43.16218258918352,27.424833641782143,-9.24522732067437,258.95061641145554,49.35782876019942
488,-1.5317347567132558,-259.06327440271053,6.5735626343138645,-42.9007844026273,27.894435877705167,-9.505235095604938,259.01140171476226,49.12601440944897
489,-1.560852473593009,-259.1025526185254,6.51843473122125,-42.70723364614895,28.283345208364494,-9.729490717227202,259.08447865535953,48.95291033012331
490,-1.5990677600898366,-259.14716379351955,6.429259009712587,-42.59755896868862,28.571484940821687,-9.908064658412018,259.16992334871725,48.85361289366998
491,-1.6481080920633429,-259.1973130499397,6.303337898927142,-42.587855459784265,28.738257843657955,-10.030762119402736,259.2677969578745,48.843283093386695
492,-1.7096486916930946,-259.25340765300444,6.138259687920698,-42.69385952320486,28.7629163613312,-10.08732610650054,259.3781675975386,48.936722773284494
493,-1.7852360662882307,-259.31609455432033,5.931930172310861,-42.93048798895068,28.62497640620802,-10.067668261932358,259.5011322979725,49.14791431874961
494,-1.8762091278997513,-259.3862935909511,5.682596292756966,-43.31134963481153,28.30466992557573,-9.962124990696696,259.636838414846,49.4895323587818
495,-1.9836209521653865,-259.46522479693283,5.388860613313287,-43.848239262419554,27.78342990924152,-9.761735457324974,259.7855037910425,49.97243807400675
496,-2.108164493506042,-259.55442820957273,5.0496855129123555,-44.55062674687803,27.044399878734293,-9.458537095436991,259.9474348907433,50.60516898140953
497,-2.2501057416878414,-259.65577449712373,4.664386007981966,-45.425155842957686,26.07295832505831,-9.045873375997727,260.1230420367152,51.3934394208049
498,-2.4092277010204812,-259.77146471506313,4.232610282556087,-46.475169740993856,24.857247227360862,-8.518707696877337,260.3128508053924,52.33966922968529
499,-2.58478803894565,-259.9040175721518,3.754307373228762,-47.70028222130006,23.388692803103233,-7.873936379352733,260.51750862770075,53.44256009495817
500,-2.7754924087084274,-260.0562428125399,3.2296818964762415,-49.09601465168117,21.6625060072172,-7.110692924813141,260.7377857605405,54.696740680169995
501,-2.979484643660674,-260.2311996828859,2.6591359557783303,-50.653520002260485,19.67814994085759,-6.230634968689651,260.97457001509383,56.092502772362046
502,-3.1943544586072146,-260.43213987317887,2.0431984636122427,-52.359415543329945,17.43976117862473,-5.238204830071797,261.2288548724638,57.61565132901357
503,-3.4171629086656714,-260.66243471958575,1.382442380888015,-54.195745922057384,14.956512065875762,-4.140854227773192,261.5017208125305,59.24749136541878
504,-3.6444854721336286,-260.9254867973061,0.6773909768418607,-56.14009779790107,12.242901355732323,-2.9492236383779726,261.7943097923589,60.96497402443644
505,-3.8724721109318034,-261.2246263083485,-0.07158501356631977,-58.16588607167428,9.318961282419318,-1.6772669314056443,262.10779283326724,62.741022859676164
506,-4.096922964901146,-261.56299293681286,-0.8643767594149396,-60.24282990043982,6.210370394524103,-0.34231233264771393,262.44333066432023,64.54505928182773
507,-4.313377497392998,-261.94340418285265,-1.7012501616641762,-62.337634044901264,2.9484631829407246,1.03494859482682,262.8020274085763,66.34374313477001
508,-4.51721407779386,-262.3682115763252,-2.5829587434541366,-64.41488753788532,-0.42987036706880066,2.4305514334776026,263.1848773751628,68.10194032853737
509,-4.703756329544211,-262.83914646475927,-3.510852931137345,-66.43818717580378,-3.882399822500297,3.8174353187501326,263.5927049974616,69.78392430839376
510,-4.868382154564322,-263.3571571970762,-4.4869817825977885,-68.37148798831473,-7.361886011410605,5.165710516416689,264.0260977732835,71.35481194197966
511,-5.006631127177219,-263.9222396175011,-5.514182992657822,-70.18067668179495,-10.816529057501635,6.443021023594327,264.4853318570895,72.78222723431998
512,-5.1143059182601185,-264.53326298428146,-6.596156838863312,-71.83535706162085,-14.1905302587285,7.615004484507355,264.97028987709814,74.03817819091404
513,-5.187563627360596,-265.18779370192476,-7.737519602586497,-73.31082855142951,-17.424763587880737,8.645849939702327,265.4803705804236,75.10112320054013
514,-5.222993423652553,-265.88191947442317,-8.943831925578532,-74.59023005695292,-20.457551290615378,9.498951899075163,266.01438993135514,75.95819356803733
515,-5.217677723945891,-266.6100765153005,-10.221597596339448,-75.66681158211694,-23.225537121672975,10.137656933945422,266.57047317941147,76.60752845908125
516,-5.169235214128567,-267.36488220964503,-11.578228497779001,-76.54628554924092,-25.664650102441502,10.526096449956665,267.1459371097577,77.06066798815961
517,-5.075845234164486,-268.1369752640763,-13.021972053289055,-77.24919953771445,-27.711151234094483,10.630096581317881,267.737161353604,77.34494035959649
518,-4.936254254146323,-268.9148652829929,-14.56179858429499,-77.81326331632145,-29.302755251286495,10.418153294506128,268.3394476589176,77.50577098302499
519,-4.749766274671072,-269.68479417042676,-16.20724733176986,-78.29555673785435,-30.37981897654651,9.862457857065653,268.94686669302,77.60883631220788
520,-4.516219924055931,-270.430612774441,-17.96823106817433,-78.7745419114523,-30.886586687761156,8.939954865532144,269.55209324982087,77.74198322270041
521,-4.235955702504754,-271.13367756084364,-19.85480001186463,-79.35180289131671,-30.772480781538462,7.633412109565299,270.14623245297724,78.01683573455458
522,-3.9097771549113256,-271.77277360292896,-21.876866334615208,-80.15343808496308,-29.993422932888965,5.93247877560512,270.7186414718616,78.57001396262638
523,-3.5389097540720775,-272.32407165482493,-24.04389125845744,-81.33103371040373,-28.513167276759365,3.8347059596017696,271.2567532726264,79.56389444307263
524,-3.1249610431746455,-272.76112846099926,-26.364537744798856,-83.06215025868649,-26.304623188412613,1.346501256470113,271.7459109488966,81.18684583082248
525,-2.669885210081347,-273.05494068851067,-28.84629300711439,-85.55025777022004,-23.35114107528118,-1.5160125649018357,272.1692231545746,83.6528790791291
526,-2.1759547706390543,-273.1740638236917,-31.49506628910978,-89.02405973976482,-19.64773020422542,-4.72626598297379,272.5074529434885,87.20065646061528
527,-1.6457413906693683,-273.0848077775494,-34.31476839610351,-93.73614968791293,-15.202173250593063,-8.246669940695908,272.73895361607396,92.09180920651505
528,-1.0821070527860959,-272.75152043056545,-37.30688050002641,-99.96094919236866,-10.035998604622485,-12.028233320818396,272.83966562844125,98.60851947309514
529,-0.4882058372266669,-272.1369686090917,-40.470021062815164,-107.99188217838015,-4.185269212666563,-16.01040105389499,272.7831879499492,107.05032954102703
530,0.13250435285918966,-271.2028229386963,-43.799521487378485,-118.13774863643782,2.2988537140098515,-20.121141160755574,272.54093538565763,117.73015070430873
531,0.7762416769730478,-269.9102489499317,-47.287023224173815,-130.7182729539853,9.349812414881505,-24.27730584180322,272.0823905717242,130.969457414238
532,1.4388742410490793,-268.22060226935,-50.920111289819424,-146.05881885408698,16.885657105928203,-28.385287368004196,271.3754560992102,147.0926699434745
533,2.1158911029788223,-266.0962211669291,-54.682001137440686,-164.4842852059658,24.809386620757135,-32.341984058165444,270.3869088937393,166.42075172072086
534,2.8023740624345472,-263.5013053210423,-58.55129720387773,-186.31222462449097,33.00965342061115,-36.036085161640834,269.0829556545889,189.264075431511
535,3.4929741808562844,-260.4028654577157,-62.501842000048946,-211.8452587326449,41.36185514019845,-39.34967613305688,267.42988481198995,215.91464390190822
536,4.181897046653178,-256.77172462431196,-66.50267414700365,-241.3628982954874,49.72962748473156,-42.16015769305849,265.39480712702533,246.63778575595413
537,4.862900699035993,-252.58354835551282,-70.51811221967587,-275.1129109489504,57.9667445230111,-44.342463292687995,262.94647376417225,281.6634796668887
538,5.529309833319702,-247.8198778782085,-74.50797870005202,-313.30241208861014,65.91942230478092,-45.77155022991492,260.0561573767575,321.1774928499014
539,6.174049448762335,-242.46913781538345,-78.4279748900556,-356.088884350449,73.42901051972015,-46.32512989428492,256.69857847572297,365.3125479724943
540,6.789700529656064,-236.52758780092645,-82.23021345284134,-403.57135707597087,80.33504490838138,-45.88659275228574,252.8528563043655,414.1397569715189
541,7.368579645165751,-230.00018627846578,-85.8639105298372,-455.78199834524173,86.47862057108632,-44.34807409948792,248.5034608844136,467.6605795205137
542,7.902843418877587,-222.90133461993037,-89.276234201591,-512.6783875608002,91.70603332734449,-41.613597633016944,243.64114090254463,525.7995770754641
543,8.384617661995478,-215.25547048451512,-92.41330031845844,-574.1367449852518,95.87262293210694,-37.60222583333321,238.26380053749875,588.3982393566895
544,8.806149738434968,-207.0974809843093,-95.22130036628954,-639.9463949583909,98.8467384770126,-32.251139296340725,232.37729709332197,655.2101576972276
545,9.159981615948931,-198.472908766678,-97.64773929194457,-709.8057308989478,100.51373323761659,-25.518561878108688,225.99613049296838,725.897808107002
546,9.439140115852064,-189.43792769176193,-99.64275454104536,-783.3199320091621,100.77988438567087,-17.386445164583876,219.14399553628095,800.0311856268252
547,9.637340021590035,-180.059069559256,-101.16048137302649,-860.0006533531337,99.57612320081985,-7.862824709762611,211.85416863649726,877.088500169976
548,9.749194833440441,-170.41268941819888,-102.16042413259903,-939.267872423816,96.86145433610065,3.0162379553420022,204.16970273498865,956.4591023903571
549,9.77042902359881,-160.58416422193756,-102.60878888274382,-1020.4540266825594,92.62593878781907,15.185209088108254,196.14340726743288,1037.448756448873
550,9.698084683614256,-150.66682761952703,-102.47973002562189,-1102.8105186309808,86.89311492152055,28.54820637063208,187.8375943111739,1119.2873156810706
551,9.530714569828636,-140.76065219187794,-101.75646266029395,-1185.5165989463596,79.72173572727199,42.978756111292235,179.32357735787943,1201.1387883265143
552,9.268552934692542,-130.97069926228323,-100.43219373372386,-1267.6905656124932,71.20670908592567,58.32023449356382,170.6809156074634,1282.1137052704878
553,8.913655378139913,-121.40536533579822,-98.51082859481808,-1348.4031398528405,61.47914198122341,74.38702756349859,161.99640426476523,1361.2836223190031
554,8.469999304182155,-112.17446285888184,-96.00741522999027,-1426.6928007016108,50.70540993722177,90.96642657440849,153.36281979370273,1437.6975086635564
555,7.943537276196186,-103.38718079639959,-92.94829603036824,-1501.5827823794166,39.085199767550826,107.82125535740799,144.87743802565547,1510.3996941178636
556,7.342196486967262,-95.14997704332946,-89.37094617704565,-1572.0993656353205,26.848506656576443,124.69320524129898,136.64035205806235,1578.4489738170143
557,6.675818730632785,-87.56445968801638,-85.32348832708976,-1637.2910293755237,14.25160456266106,141.30683170302808,128.75262577117337,1640.9384038415842
558,5.956036792503013,-80.72531742322424,-80.86388482154463,-1696.2479758238176,1.572050040782461,157.37414645473794,121.31432724170449,1697.0152682245537
559,5.196085052977358,-74.71836061925607,-76.05882061762775,-1748.1215045509666,-10.897178816198661,172.59971993785464,114.42249386027261,1745.9006603895818
560,4.410544238766637,-69.61873339802194,-70.98230205256118,-1792.1426904905493,-22.854267595826162,186.68619288158033,108.16908702534347,1786.9081028211408
561,3.6150226074496254,-65.4893533691047,-65.71400784886517,-1827.6398194510923,-33.99570070102632,199.34008230091248,102.63899844378535,1819.4606287733832
562,2.8257784263183736,-62.37962956922671,-60.33743892926474,-1854.0540508518852,-44.0237463069512,210.27775760060294,97.90817192482947,1843.105768595376
563,2.0592913680945744,-60.32450070231839,-54.93792218586344,-1870.952809765945,-52.65407399249452,219.23145670775116,94.04190378241142,1857.5279194579794
564,1.3317933389289625,-59.343825271845,-49.60053016785416,-1878.0404574904,-59.623279840078496,225.95521052948726,91.093381461499,1862.5576298767257
565,0.6587722257189341,-59.44214309092636,-44.40798370612684,-1875.1658515781771,-64.69609427691265,230.2305463486017,89.10251384731524,1858.1773994277949
566,0.05446493584589096,-60.6088143827581,-39.43860760986643,-1862.326483463693,-67.67205608917783,231.87184643629053,88.09509776323837,1844.523680371441
567,-0.46864142346110643,-62.81852850715807,-34.76441026527678,-1839.6689755725697,-68.39145070512174,230.7312462167675,88.08235295025831,1821.884872422255
568,-0.9002796491210276,-66.03215963937376,-30.449355668373798,-1807.4858300446626,-66.74033059216566,226.7029657313538,89.0608420952893,1790.6952242349225
569,-1.2328224725451333,-70.19793228622723,-26.54789082184666,-1766.2084460481103,-62.654458981758786,219.72697816975932,91.01277391781295,1751.5246930306778
570,-1.4616314632895362,-75.25284650358384,-23.103782641670463,-1716.3965588037863,-56.12204393820102,209.79192954083848,93.90666774864228,1705.0649634271417
571,-1.585315322284414,-81.12430225329096,-20.149307032991466,-1658.7243964771462,-47.185157416200006,196.93723414039343,97.69833989061527,1652.1119831210954
572,-1.6058811624586085,-87.73185546417842,-17.704819246281343,-1593.9639950320582,-35.939763610009344,181.25428139495978,102.33215759560362,1593.5455301849113
573,-1.5287671208751032,-94.98903569411375,-15.77871965240305,-1522.9662474883544,-22.5343137385618,162.88670080936396,107.74249718072198,1530.3064754730951
574,-1.362750833419497,-102.80515717262685,-14.367813248405358,-1446.6403817391988,-7.166902403470323,142.02964290230162,113.85533918065255,1463.3725325933442
575,-1.1197351623957592,-111.08706138322418,-13.458045000966965,-1365.9326479454578,9.91897412027859,118.92804523155692,120.5899352565622,1393.7333845569235
576,-0.8144189694579337,-119.74073961935206,-13.025577033435903,-1281.8050414054844,28.439964054798168,93.87386465230607,127.860487954192,1322.3661291365502
577,-0.4638656778618522,-128.67279703147142,-13.038158379550604,-1195.2148817944483,48.07955802789618,67.20227130361094,135.5777939723175,1250.2119856653885
578,-0.08698549515476965,-137.79173427454523,-13.456724540778257,-1107.0960115151668,68.49572694570566,39.286818008496255,143.65081290181539,1178.1551502923996
579,0.2960511545281902,-147.0090376171568,-14.237153328210594,-1018.3422666535877,89.32923782509195,10.533621399004272,151.98813504362226,1107.0045755048727
580,0.6644503885953058,-156.24008195001701,-15.33209606075154,-929.7937207995805,110.21235302271447,-18.625382590868305,160.4993326692773,1037.47928968042
581,0.9974620755460456,-165.40486239098928,-16.692799537800013,-842.2260157727599,130.77760906814507,-47.740017669077616,169.0961880019643,970.1976754834812
582,1.2750563509105504,-174.4285784156535,-18.27083479596222,-756.3428877329604,150.66638562702218,-76.35016000905284,177.69379784159327,905.670907698236
583,1.4785869329963655,-183.24209939197146,-20.019654083082496,-672.7717882403325,169.53700766795285,-103.99459540607262,186.2115592442891,844.3005286999232
584,1.5914178338490528,-191.78234207115253,-21.89590810534201,-592.0623058646894,187.0721659558681,-130.22026390484547,194.5740433881928,786.379930056199
585,1.599489976500797,-199.99258912071411,-23.860471240205978,-514.6869341048751,202.98548375198686,-154.59169082977033,202.71176611933825,732.099327275144
586,1.4918053325421121,-207.82277349742125,-25.879142180747426,-441.04362239598424,217.02709512284912,-176.7003832388928,210.56186395649442,681.5536747538392
587,1.2608087911223016,-215.2297469496705,-27.923009828805476,-371.4594994893481,228.9881307030203,-196.17395606680125,218.06868368678104,634.7528788769944
588,0.9026520109835181,-222.17754311223783,-29.968497129809233,-306.19517482023696,238.70403191088295,-212.68474347977238,225.18429218024716,591.6336324243222
589,0.4173285480897321,-228.63763754554228,-31.997116711252794,-245.4490975529687,246.05663837894167,-225.95764931403627,231.86891077566133,552.0722094934644
590,-0.19132493004067413,-234.58919954587404,-33.99498962417486,-189.3615719728535,250.97501967947431,-235.77699702234102,238.09127565512924,515.8976172846754
591,-0.9157608751275089,-240.01932408119748,-35.95219069009656,-138.01817474631068,253.43505349980725,-241.9921551204963,243.8289221523397,482.9045853592361
592,-1.7449804696169078,-244.92322684457287,-37.861990111200846,-91.45247568861316,253.45778802524242,-244.52173896053264,249.0683870427765,452.8659689228519
593,-2.664909258038784,-249.30438104749928,-39.72006095919318,-49.648111024047175,251.10666433316445,-243.35622346291967,253.80531873846195,425.5442361946092
594,-3.658872759337185,-253.1745712400095,-41.52371630223311,-12.540380744270252,246.48371206482565,-238.5588434759901,258.04448137456853,400.70179083385455
595,-4.708152225342029,-256.5538374454934,-43.271228908255345,19.982373195567263,239.72486528784148,-230.26470756899732,261.7996356533512,378.10994460585937
596,-5.792597876163453,-259.4702826077961,-44.961272014135446,48.077311941123895,230.9945725654164,-218.6781058243111,265.0932775882304,357.55640605921747
597,-6.891275006330116,-261.95971801003327,-46.59250337628532,71.94528187730499,220.47989444614493,-204.06805081447826,267.95621632934797,338.85119704140214
598,-7.98311729029797,-264.06512503108263,-48.16329880014721,91.8284024037731,208.38429338276592,-186.76215140229473,270.4269742193023,321.8309609718867
599,-9.047561550877747,-265.8359173165603,-49.671627569639725,108.00691677663579,194.92132729806093,-167.1389788619157,272.5509961861979,306.36169077687106
600,-10.065139360197273,-267.3269949554016,-51.11505209165541,120.79526952453674,180.30846021893507,-145.61914120215872,274.3796614875187,292.33997714735125
601,-11.018003116190053,-268.5975912331349,-52.49082819764358,130.53747698870646,164.7612013992722,-122.65533133433634,275.9690985076303,279.6929477064889
602,-11.890367511410044,-269.70992260571853,-53.79608057231987,137.60193795436754,148.48777593929415,-98.72165474905292,277.3788125194004,268.3771195323123
603,-12.66885152301189,-270.7276633888207,-55.02802862544509,142.37587496201834,131.68451215632763,-74.30256959902569,278.67014670850944,258.37640903544514
604,-13.342711278942165,-271.71427808431173,-56.184240309651926,145.2595990653432,114.53210191858305,-49.88178353198076,279.90460797143203,249.69953048419384
605,-13.903960223621095,-272.7312561179166,-57.262893685484904,146.66075799585713,97.1928497579624,-25.93144496554108,281.1421006904524,242.3769735347284
606,-14.347379294053324,-273.83630564668897,-58.263027915790154,146.98867526007473,79.80897678743743,-2.9019413556609646,282.4391233405425,236.45769449081874
607,-14.670425602239552,-275.08157402940276,-59.184766833399145,146.6488346983316,62.50199010117832,18.787424348156943,283.846993377628,232.0056017214106
608,-14.87305295170184,-276.511970954073,-60.02949937354078,146.03752850213442,45.373072628567655,38.756661018924795,285.4101738404562,229.09587656720552
609,-14.957461165461513,-278.1636742906718,-60.80000214518746,145.53667735217877,28.504397714271267,56.67206193260751,287.1647787506123,227.8111558992337
610,-14.92779349548344,-280.0628969821819,-61.50049062191583,145.50885154771868,11.961231130798177,72.25182462281003,289.1373323616757,228.23761322519
611,-14.789802234324396,-282.2249849423764,-62.136587430621574,146.29256574198823,-4.205347128015513,85.27027673910524,291.343849020852,230.4610065544752
612,-14.550502144244073,-284.65390130884526,-62.715199409403844,148.19797481721852,-19.955287891603547,95.56071577442631,293.7892863260237,234.56280175353544
613,-14.21782966160776,-287.3421328867018,-63.244299528926845,151.50314924927812,-35.25617978960147,103.01690949431985,296.4674057936438,240.61651571258605
614,-13.800323230788033,-290.27103221147837,-63.732615156062025,156.45114062081086,-50.0798124081913,107.5933313994357,299.3610542888557,248.684441991773
615,-13.306836760959607,-293.4115854204436,-64.18923008744733,163.24805125497807,-64.39888082138465,109.30422154816155,302.44285787864806,258.8149166851583
616,-12.746294382466564,-296.7255738479819,-64.62311393676858,172.06229148913528,-78.18400057564993,108.22156873778991,305.67629915852484,271.0402564864472
617,-12.127490886284816,-300.167077425279,-65.04259848673212,183.0251453454592,-91.40118022299147,104.47210773936291,309.0171307840899,285.37546295012095
618,-11.45893892066365,-303.6842518022705,-65.45482599286414,196.23267724979175,-104.00987185199057,98.2334183107318,312.4150629670695,301.81774505692965
619,-10.748761407362375,-307.2212996850104,-65.86519844074041,211.7489097664327,-115.96169001490428,89.72920474363195,315.8156519421934,320.34686905188516
620,-10.00462575719799,-310.72055102231076,-66.27685879133762,229.61009741312972,-127.19985731316542,79.22382897217332,319.16231058856823,340.92629743888443
621,-9.233715352074618,-314.1245668200915,-66.69023489464881,249.82982646621633,-137.65940192876158,67.01616905137884,322.3983619365642,363.5050255676941
622,-8.442733466599375,-317.3781874112051,-67.10267370822785,272.4045958516091,-147.26809975648564,53.43287928351966,325.4690611779222,388.01996793659254
623,-7.637935211655644,-320.4304571992272,-67.50818770732756,297.3194889292205,-155.9481228314049,38.82113862957419,328.32352136526123,414.3986977371186
624,-6.825183817827749,-323.23637269846404,-67.89732767973439,324.55353750716915,-163.61832789765188,23.54098961834465,330.9164908881596,442.5623157474995
625,-6.010028102547982,-325.75841691730113,-68.25718799400667,354.0844109863631,-170.1970953225794,7.957389143010406,333.209945106178,472.42822802808803
626,-5.1977978386002475,-327.9678583927356,-68.57154343369834,385.89213169589357,-175.60560930282168,-7.56788722342355,335.17446806395077,503.91264681145395
627,-4.3937128183827125,-329.8458055303154,-68.82111164074568,419.96161185334375,-179.7714543798424,-22.684327432334197,336.7904112293687,536.9326873524412
628,-3.6029998693154703,-331.38401524092285,-68.98393221605603,456.2839135715946,-182.6323886827132,-37.06057793109666,338.04882366215344,571.4080018406129
629,-2.831010373832881,-332.5854590429415,-69.03585209039927,494.8562359343422,-184.1401393107742,-50.39197017261532,338.9521517434486,607.2619556849426
630,-2.08332961584342,-333.46465043872143,-68.95110597288564,535.6807199580415,-184.26405011448486,-62.407497090989274,339.5147070493356,644.4224004446337
631,-1.3658690956381783,-334.0477355658642,-68.7029795866004,578.7622251744081,-182.99440003717578,-72.87606463878903,339.7628990477917,682.8221253721642
632,-0.6849340573994563,-334.37234610619424,-68.26454161212415,624.1052676241023,-180.3452064651397,-81.61185622609472,339.7352261919145,722.39907564082
633,-0.04726061064546116,-334.4872103804004,-67.60942800312151,671.7103199721298,-176.3563377897074,-88.47866552827116,339.48201586576266,763.0964141611973
634,0.539980570920329,-334.4515163981881,-66.71266008231835,721.569665244413,-171.09478505736536,-93.39307491092421,339.0649015091731,804.8624819209174
635,1.0692144743182548,-334.33401991092444,-65.55147585342559,773.6629729846103,-164.65498291669255,-96.32638263087861,338.5560246740299,847.6506851971999
636,1.5325242385471547,-334.2118914268771,-64.10615235523083,827.9527375322599,-157.15812066685461,-97.30521209818474,338.03695095023716,891.4193114821237
637,1.921742495942089,-334.1692988557956,-62.36079577080187,884.3796892674725,-148.7504387853412,-96.41077011674714,337.5972918197702,936.1312525715839
638,2.228566867807182,-334.2957271044859,-60.30407555723189,942.8582661671918,-139.60055794453191,-93.77675629814193,337.3330297292539,981.7535945383378
639,2.4446943432564185,-334.6840423418471,-57.92987911186416,1003.2722174044271,-129.8959302135466,-89.58596035674135,337.3445508087244,1028.257020453623
640,2.5619696244095174,-335.4283161406116,-55.23786451859732,1065.470402733217,-119.83853269010848,-84.06561591410826,337.7343980696984,1075.6149621829534
641,2.57254387540844,-336.6214326910406,-52.23389111516657,1129.2628491140808,-109.6399429226295,-77.48160819897569,338.6047670652162,1123.8024319509127
642,2.469042574548953,-338.3525106526275,-48.93031144018139,1194.4171276216593,-99.51594688818128,-70.13165903646706,340.05477583886886,1172.7944631198197
643,2.2447441308897287,-340.70418013665005,-45.34611350684971,1260.6551184882294,-89.68083832413316,-62.33763640101632,342.1775516646173,1222.564094128599
644,1.893774184574854,-343.74976476750743,-41.50690849593984,1327.6502406935917,-80.34157548834752,-54.437157945237246,345.0571883751678,1273.0798415848371
645,1.4113232471733481,-347.5504282626852,-37.444764578985506,1395.0252360641334,-71.6919678449766,-46.77467827825501,348.76563924166743,1324.302629950988
646,0.7938963800900147,-352.1523537123791,-33.19789161282066,1462.3506177929216,-63.907068594541535,-39.692267540695354,353.35962041678664,1376.1821777331565
647,0.0396019512772451,-357.58403105838187,-28.810183557297695,1529.1439200505088,-57.13794689901915,-33.520302176691835,358.87760818590147,1428.6528840804463
648,-0.8515181396032525,-363.85373388589045,-24.330625890055842,1594.8699168342494,-51.5070047945777,-28.568295471474386,365.3370195008363,1481.6293132970977
649,-1.8771214378933239,-370.9472706346093,-19.81257436622652,1658.9420092566934,-47.10398862683681,-25.11609396491585,372.7316696716205,1535.0014330103925
650,-3.0321739670858574,-378.826097991565,-15.312909535299426,1720.72500434976,-43.98282523141412,-23.405656563395283,381.02960396700104,1588.6298179774903
651,-4.308555959715144,-387.4258858193067,-10.891068968871107,1779.539519446504,-42.15939098725605,-23.63361800212993,390.1714014696716,1642.3410799024539
652,-5.694691142826681,-396.6556234454535,-6.607956917028121,1834.6682411851327,-41.61029826019321,-25.94482001196296,400.06904977679386,1695.923820617687
653,-7.175230477556377,-406.39735589129253,-2.524730104393877,1885.364245889837,-42.272758559740076,-30.426974746773286,410.6054874460859,1749.125429565177
654,-8.73082291268295,-416.50663466439613,1.2985403678611356,1930.8615472455328,-44.045554649413695,-37.10660757537763,421.6349065120146,1801.6500544580226
655,-10.338005008860176,-426.8137601059866,4.804326934791089,1970.3879757063667,-46.79112492795208,-45.946410891365716,432.9838989732152,1853.1580630614906
656,-11.969238438277248,-437.1258801710934,7.9392123197639135,2003.180409953127,-50.33873307107783,-56.84412646160586,444.45351806175836,1903.2672808539328
657,-13.593119666716595,-447.22999325082515,10.655544952068997,2028.5022737503073,-54.4886649070557,-69.63305920547432,455.8223066196546,1951.5562321918244
658,-15.174779810735261,-456.8968796609535,12.91315184809502,2045.6630845787654,-59.017363834789094,-84.08430774747741,466.85032041243693,1997.569532637425
659,-16.676484867136427,-465.88595728849884,14.681065180554475,2054.0396990838713,-63.683387227986515,-99.91077414966307,477.2841432259812,2040.8254811098818
660,-18.058437376048968,-473.9510211633052,15.93920480677285,2053.098751646498,-68.23404084710799,-116.77298483686377,486.862852636472,2080.825787490642
661,-19.279770273166058,-480.84678392237373,16.679943894238647,2042.419632630689,-72.41252746343963,-134.28671549322118,495.3248498914892,2117.067248575014
662,-20.29971235160695,-486.3360840545705,16.909468894919776,2021.7172065999328,-75.96542954772168,-152.03236401467748,502.4154141370827,2149.0550551938713
663,-21.07889255427876,-490.1975718524095,16.64882968857029,1990.863330880208,-78.65033224902997,-169.56595740234383,507.8947806607771,2176.3172765797135
664,-21.58073764933704,-492.2336206605704,15.934564031000363,1949.9061051525819,-80.24337912755632,-186.43161098508406,511.54647665265105,2198.41992623111
665,-21.772905497839545,-492.278147419229,14.818778624602151,1899.0856738012908,-80.54653617900031,-202.17518174601642,513.1855811327736,2214.9818749153837
666,-21.628685227281046,-490.20397012335457,13.36858380041599,1838.8453369843905,-79.39431771201639,-216.35877176121323,512.6665177164458,2225.6887613511008
667,-21.128287479880395,-485.92929261981294,11.664813076082696,1769.8367361866017,-76.65970183446518,-228.57564297393975,509.8899524179026,2230.3049899002704
668,-20.25994416895526,-479.422900828104,9.800011627075506,1692.9179976462844,-72.25894055449608,-238.46500263256198,504.80836543020564,2228.6829279087538
669,-19.020739944728067,-470.70768706812277,7.875745364718736,1609.1439661744391,-66.15496476448062,-245.7260164707968,497.4299034209927,2220.7685460759058
670,-17.41710844734326,-459.86219342051294,5.999356474493819,1519.7480524250188,-58.35912024120655,-250.13032005222928,487.8201988445454,2206.602994830946
671,-15.464945574818,-447.0199761771233,4.280354774242343,1426.115731784799,-48.93106837155156,-251.5322555156103,476.1019583190033,2186.319966468584
672,-13.18931868256671,-432.3667285636333,2.82666602374691,1329.7503110180946,-37.976844856281595,-249.87609496514304,462.4522592516148,2160.139103433126
673,-10.623783642646442,-416.13524182141987,1.7409481072305215,1232.2321210253644,-25.64525564325767,-245.19964476189867,447.0976372517633,2128.356086812747
674,-7.809357710151354,-398.5984225959041,1.117144797635124,1135.1727161059196,-12.12294238841468,-237.6338499919724,430.30718451769667,2091.3302929992215
675,-4.793228398980393,-380.06070828155896,1.037399892056082,1040.1659461072704,2.371476085624758,-227.39830071573576,412.3840012769397,2049.471017197469
676,-1.6272987281652458,-360.8483214116864,1.5694222499330501,948.7379686556606,17.59378824446239,-214.7928366311847,393.65543709505636,2003.2232666110249
677,1.6333284134881587,-341.29886764944,2.764376883235034,862.2984409459855,33.28076254734519,-200.18571648057022,374.4626156568436,1953.0540667953733
678,4.931839175021708,-321.7508012269953,4.655366585719864,782.0952761720412,49.156649628676675,-183.99903598624988,355.1497508072214,1899.4401027879192
679,8.211109872476788,-302.53325620160484,7.2565497355794,709.1754050907103,64.93943525955184,-166.69222551694915,336.0537370651511,1842.8573015364436
680,11.414988549151346,-283.9566785813399,10.562908815557769,644.3538556521971,80.34674214493012,-148.7445271036173,317.49444394883363,1783.7726550426296
681,14.489449546796783,-266.3046053597666,14.550646119883373,588.1930808730451,95.10134948670286,-130.63734184189136,299.7660702860787,1722.638262799952
682,17.38362862527847,-249.82683609131797,19.17814769538999,540.9938124240268,108.93635863598878,-112.83726608827627,283.12982997276504,1659.8873537557674
683,20.05075060455772,-234.73414381538555,24.387432379096776,502.7978508487374,121.60007224992684,-95.78051805389264,267.80815101920405,1595.9319923138896
684,22.448957401587407,-221.194583850141,30.105993758871957,473.40223994496364,132.8606634237574,-79.85931663352936,253.98048277552667,1531.1622330261482
685,24.54203572340772,-209.33138568340433,36.248947300659935,452.3833624477275,142.5106854301042,-65.41062963506859,241.78072946932764,1465.946548204483
686,26.300034864753158,-199.2223562581375,42.72140706241256,439.1287807049661,150.37141815563487,-52.707571040972134,231.29626611817284,1400.6333134339723
687,27.69975910370056,-190.90068199314683,49.4210296053294,432.874229311364,156.2969807641548,-41.95360164207586,222.56844593264597,1335.5529918811073
688,28.72511741023642,-184.3569898122076,56.240671765353596,432.7430778577918,160.1780803879866,-33.27957412570768,215.59447409799526,1271.0204992734157
689,29.367315494026382,-179.54251032411184,63.07111157905158,437.7857836263684,161.9452261508935,-26.743560451455842,210.33049747688653,1207.3371676175818
690,29.624880653671283,-176.373174296739,69.8037782382707,447.01726334143234,161.57122036458892,-22.33330527962539,206.69573917695314,1144.7918046039022
691,29.50351703867066,-174.7344630296104,76.33342950273101,459.45063381325923,159.07274321178775,-19.971065276475766,204.57748806806697,1083.6605377096805
692,29.01579639446134,-174.48682307090908,82.56070635763948,474.12631801826336,154.5108715450479,-19.520521724029983,203.8367356281865,1024.205372796843
693,28.18069619889329,-175.47144732031148,88.39448810718358,490.13602039634884,147.9904140569109,-20.79539397090802,204.31423794206316,966.6716260548394
694,27.023003016032185,-177.5162202876107,93.75396979603607,506.64149811123644,139.65799966072066,-23.569334828592186,205.83677263990117,911.2845626640095
695,25.572603906814056,-180.44162701497632,98.57039023641715,522.8883693751297,129.69891743211022,-27.58665769408518,208.2233619656962,858.2456724407463
696,23.863692660601856,-184.066433727032,102.78835349462304,538.2154018556475,118.3327691156907,-32.57343117035486,211.29124521023738,807.729028873413
697,21.933919854603413,-188.21296364472417,106.36670773632454,552.0598272077963,105.80805477390254,-38.248482197964684,214.86140569234854,759.8781271639531
698,19.823515641592248,-192.71181316453394,109.27896954348653,563.9592556175097,92.39586558536553,-44.33387397276644,218.7634872594663,714.8035022793359
699,17.574411514424277,-197.40588117230695,111.51330547454442,573.5507426664516,78.38290218840574,-50.564469390609446,222.83997045845177,672.5813136108079
700,15.229382653801485,-202.15361692153638,113.07210260191326,580.5675120713885,64.06406922652539,-56.69625238143061,226.94951696210035,633.2529682405078
701,12.831226974131107,-206.83142853243908,113.97117412095044,584.8337784758262,49.734914331041246,-62.513155472399085,230.96943074421998,596.8257537129579
702,10.421991908168627,-211.3352327731766,114.23865457276598,586.2580555051325,35.684181786225174,-67.83222845965268,234.79722407312627,563.2743718103467
703,8.042256250955715,-215.58116461143717,113.91364290923336,584.8252822836018,22.18673867047114,-72.50707478137515,238.35131367759598,532.543210564112
704,5.730472384673543,-219.5054993543671,113.04465232807063,580.5880596747024,9.497106548049045,-76.4295723071902,241.57090563899214,504.5491621015042
705,3.5223737249944196,-223.06386913171985,111.68792491686902,573.6572562426295,-2.1562029917739864,-79.52997693008089,244.41515541278432,479.1847858845567
706,1.4504526543314815,-226.2298780605896,109.90566729284893,564.1922224141542,-12.575393421215324,-81.77557502453897,246.86171115012036,456.3216265621241
707,-0.4564852111515711,-228.99323627300373,107.76426068245291,552.390838159772,-21.597021756100908,-83.16810104958975,248.9047637624361,435.8135195739173
708,-2.1736844344248616,-231.3575419684315,105.33249512254442,538.479613427448,-29.09451387121196,-83.74016802203931,250.55273572214742,417.49975310025303
709,-3.6807154398792994,-233.33784287220774,102.67987261428152,522.7040599467297,-34.97954957358485,-83.55097180259887,251.8257424439106,401.20799919995375
710,-4.961658295563345,-234.95810436239594,99.87501823040014,505.3195550641765,-39.2023552169965,-82.68152693308559,252.75295565012863,386.7569761497715
711,-6.0051921528754235,-236.24870184820648,96.98423162177505,486.58291862759916,-41.75097891730808,-81.22967465735437,253.36998818594142,373.95885266083957
712,-6.804590050031848,-237.24404076016296,94.0702044637928,466.74491737277737,-42.649651137870045,-79.3050757785791,253.71640538132806,362.62144647105174
713,-7.357621363154959,-237.9803899085872,91.1909226361733,446.0438928258447,-41.95635114912739,-77.02436572223607,253.83345051494885,352.55029882593186
714,-7.66636700181872,-238.49399427278402,88.39876583677837,424.7006749105187,-39.75970898977414,-74.50661056590462,253.7620525679511,343.5507181703
715,-7.736955114028801,-238.81951283993766,85.73981204505547,402.91489325358356,-36.1753755490077,-71.86916475847535,253.54116452200685,335.4298791989728
716,-7.5792273156550145,-238.98880712136173,83.25334946665636,380.8627339091715,-31.341992754022566,-69.22399696359132,253.20646091347052,327.999038841566
717,-7.206347207339917,-239.03008732085362,80.97159383573819,358.6961163099979,-25.416893283513662,-66.67452196738495,252.78940484027473,321.0758936320211
718,-6.634364137109703,-238.9674063798058,78.91960396539928,336.5431909768364,-18.57165535331757,-64.31295475586647,252.31667757946062,314.48706006537526
719,-5.881745751943004,-238.82047763972736,77.11538328088226,314.5099901754866,-10.987632652376634,-62.21818763227922,251.80994881172182,308.07061793806804
720,-4.968892889678406,-238.6047798935257,75.57015005462169,292.68300727954016,-2.851571770350593,-60.45418190155801,251.28595254718834,301.67862201471183
721,-3.917649904758776,-238.33190430390513,74.2887546084825,271.1324402829684,5.648581004102392,-59.06886100301292,250.75682353150407,295.1794636309417
722,-2.7508226612304094,-238.01009115315003,73.2702181759837,249.9158133304609,14.327594659654672,-58.0934904268954,250.2306414113719,288.4599534062797
723,-1.4917151608231458,-237.64490067931624,72.50836555441654,229.0816885764972,23.006516193091304,-57.54252943110673,249.71212534134875,281.4270001434398
724,-0.1636941435311776,-237.2399612605304,71.99252223587706,208.6731990276271,31.515822746318804,-57.41393855043434,249.2034199850505,274.00877894687324
725,1.210210854069207,-236.79773978079618,71.70824659773282,188.73116947429935,39.69812050427051,-57.68992352896615,248.70491493684855,266.15531181983266
726,2.607666403018436,-236.32028298730333,71.63806910416787,169.29664355184485,47.41036300162477,-58.33808970640278,248.21604336792097,257.8384231177085
727,4.007349312042153,-235.80988480934772,71.7622132497201,150.41269516927437,54.52557628249539,-59.31297116939763,247.73601196249297,249.0510755123548
728,5.38921393522934,-235.26964265892613,72.05927690406823,132.1254659388909,60.93409269971202,-60.55788721114024,247.2644226096939,239.8061341262234
729,6.73471205159465,-234.7038753662144,72.50685741130923,114.48443091325001,66.54430887603593,-62.00706649841079,246.80175645544713,230.13464202891683
730,8.026965901177748,-234.11838623231645,73.08210880882399,97.54194808396296,71.28299600215578,-63.5879686431002,246.349702302481,220.083715350959
731,9.250896034653605,-233.52056607580207,73.76222447150188,81.35218964938215,75.09520161572001,-65.22372513252861,245.91132326751674,209.714178774775
732,10.393306754283172,-232.91934223925557,74.52484308133621,65.96958377373306,77.94379080822713,-66.83561770116242,245.49106716373348,199.09806213614547
733,11.442933081481637,-232.3249894126771,75.34837983410468,51.44691462406769,79.80868107978837,-68.34551250140227,245.0946363566453,188.31606807452098
734,12.390454089145207,-231.74882607978194,76.21228800221904,37.83323686930713,80.68582845597778,-69.6781726710432,244.7287410639958,177.45510196579866
735,13.228477751057715,-231.202825842858,77.09725823610702,25.171759751709992,80.58602269246677,-70.76337962207033,244.40076565250388,166.6059321025888
736,13.951502210301902,-230.6991755132603,77.98536426842085,13.497846353349145,79.53354637236555,-71.53780389340731,244.1183801127767,155.86102363868721
737,14.55585793669569,-230.2498117325784,78.8601640259041,2.8372567527146164,77.56474689817561,-71.94657887773353,243.88912865527882,145.31256729193478
738,15.039634925191068,-229.8659654632003,79.70676469176921,-6.795259420483232,74.72656284456208,-71.94454425184541,243.7200247459512,135.0507057218721
739,15.402598827788859,-229.5577395543306,80.51185927697972,-15.396943407391689,71.07503826314701,-71.49713963050151,243.617177544629,125.1619484189389
740,15.64609948706983,-229.33373930278466,81.26374112107334,-22.977533788418196,66.67385144925922,-70.58094205461883,243.58546925506909,115.7277601752153
741,15.772974624707784,-229.20077003061064,81.95230171706112,-29.55928355594858,61.59287877996445,-69.18385288937479,243.62829693412922,106.82330794332881
742,15.787450504611508,-229.16360982450496,82.56901633286266,-35.17650266443773,55.90680927022028,-67.3049503143728,243.74738643152014,98.5163546609408
743,15.695040450360471,-229.22486039334868,83.10692090591074,-39.87466824699544,49.69382114768887,-64.95403277060811,243.942680916925,90.86629475849189
744,15.502441331693415,-229.3848749973359,83.56058255500476,-43.70916738741303,43.034327974388454,-62.15088643033019,244.21230234786657,83.92333299270953
745,15.217427551603501,-229.64175968401617,83.92606491933819,-46.74375419357391,36.00979879478833,-58.924315920515824,244.55258137042563,77.72781464641764
746,14.848741585262305,-229.99144233289624,84.20088853721934,-49.04881330695473,28.701654581439925,-55.31098216240708,244.95814927914554,72.30972011231748
747,14.405979774063518,-230.42780285388713,84.38398562338733,-50.699525851596,21.190241890076965,-51.35409432420138,245.42208440871502,67.68833992220021
748,13.899472002923249,-230.9428570663412,84.47564787218924,-51.774031449707174,13.553884063061881,-47.10200451926825,245.936104459992,63.87214708546347
749,13.340154185818387,-231.52698623957454,84.47746539283871,-52.35167176197139,5.868010439570818,-42.606753968754944,246.49079574765386,60.85888195019979
750,12.739433102168947,-232.16920397282578,84.3922547312608,-52.51138777210631,-1.7956352425601674,-37.92261784883852,247.0758702153438,58.63586060043153
751,12.109043839547432,-232.8574519270066,84.22397423326642,-52.330325888263516,-9.369704828254594,-33.104693020473206,247.68044120804274,57.180511088127666
752,11.460900622496746,-233.57891571170367,83.97762573402487,-51.882688458015515,-16.79187012426731,-28.207568487008196,248.29330922307884,56.46113270061877
753,10.806942044930118,-234.32035189872173,83.65914264054736,-51.23884421444505,-24.005356161715934,-23.284113008442322,248.90324906983977,56.43786230288757
754,10.158971853528849,-235.0684168699502,83.2752657099055,-50.46469504315007,-30.959376769254924,-18.384408076646814,249.4992901721232,57.063819378747326
755,9.528496695416214,-235.80998833690668,82.83340889384634,-49.62127855988473,-37.60946565403677,-13.554847661141848,250.07098234908455,58.28638923100331
756,8.926562703365613,-236.53247101354475,82.34151831536614,-48.764572371707494,-43.917696945815784,-8.8374190212092,250.6086403563492,60.048593799833114
757,8.363593299480458,-237.22407890164402,81.80792783275977,-47.94545640038897,-49.852790877895,-4.269171712846319,251.10356160536244,62.29049337121371
758,7.8492309704762855,-237.87408769916803,81.24121485173053,-47.20978480912725,-55.39010281699608,0.11812503991404551,251.54821259755695,64.95056097503796
759,7.392185949411341,-238.47305184057856,80.65006001438043,-46.598519035117825,-60.51149699639024,4.298142922371839,251.9363805761717,67.96697461082213
760,7.000094828349324,-239.01298163701028,80.0431140395054,-46.14787788021463,-65.20510977284962,8.249985086629668,252.26328770304934,71.27878003846634
761,6.679392234718589,-239.48747698974753,79.42887439786465,-45.88946875889405,-69.46501072796055,11.958023416932443,252.525665827327,74.8268877247151
762,6.435198802787238,-239.89181531052623,78.81557385921413,-45.85037486490911,-73.2907732284256,15.411602773914202,252.72179079099263,78.55488037070401
763,6.27122864530818,-240.22299263316475,78.2110823306477,-46.05318482119966,-76.68696894634462,18.604634915313,252.85147627455012,82.40962090912275
764,6.189719349090674,-240.47971836741763,77.62282277708258,-46.5159629736568,-79.66260309390928,21.535106250736998,252.91602834195857,86.34166366180676
765,6.191387258650001,-240.6623656251911,77.05770128909073,-47.252168759524686,-82.23050850259457,24.204524265793953,252.9181629788612,90.30548242264831
766,6.275410519466703,-240.77288045676224,76.52205050664347,-48.27054180435485,-84.40671700825958,26.617327490548195,252.86188994474307,94.25953790333442
767,6.439441942616278,-240.81465454720222,76.02158472105212,-49.57497528642044,-86.20982589475969,28.780283317785404,252.7523670903704,98.16621302694328
768,6.679653072940868,-240.79236680339847,75.56136428956093,-51.16440366558217,-87.66037557294112,30.70189671157247,252.59572986107514,101.99164808945036
769,6.990809876007387,-240.71179978276638,75.1457667332029,-53.03273227435154,-88.78025249205643,32.391850808206236,252.39890105578291,105.70550912270892
770,7.366379434893551,-240.5796371820614,74.77846214229758,-55.16883577432259,-89.59212875813736,33.860497644148644,252.16938617502828,109.28072224479828
771,7.798666231147507,-240.40324875592566,74.46239119727176,-57.5566503783079,-90.11894726594126,35.118413883644074,251.91505997751963,112.69320470595027
772,8.278975974864554,-240.19046914959284,74.19974499699057,-60.17538121040506,-90.38345845389183,36.176032582331665,251.64395018035583,115.92161993711325
773,8.79780432323626,-239.949377190407,73.99194676165945,-62.99984120647023,-90.40781215834953,37.043357802273874,251.36402449712816,118.94717927743163
774,9.345047036206488,-239.6880820884481,73.83963629965412,-66.00093139257261,-90.21320563908998,37.72976444531043,251.08298729984773,121.7535073180961
775,9.910227208723656,-239.41452265075515,73.74265893720795,-69.14626415235989,-89.81958689285106,38.24388128249541,250.8080920361387,124.32658119944871
