time,ax,ay,az,gx,gy,gz,accmagnitude,gccmagnitude
0,-7.043647917370088,-220.0550407244047,-137.95728138681318,-2.108455484112078,73.19817768424993,3.341560566068116,259.81814420715705,73.28411016428997
1,-6.768551703694424,-219.8545347899407,-137.7971957958121,-1.9201686693745805,73.63145761639997,3.090252381406285,259.55886346036,73.71182699432241
2,-6.494366765547513,-219.65456135961796,-137.6415690473044,-1.7367063873226984,74.03867669924398,2.8327140162278823,259.30244229195836,74.113869696677
3,-6.2225402326456125,-219.45736292870566,-137.4917305989615,-1.5600768495928015,74.41463738684932,2.570040266502204,259.0515046512169,74.48512393703083
4,-5.954466780533126,-219.26508541022272,-137.3489173404248,-1.392179098545871,74.75489116369992,2.303145647175194,258.8085425732983,74.82122152459068
5,-5.691469736263162,-219.07973527154715,-137.21425100785748,-1.234770422927484,75.05588347783136,2.032734336284032,258.57586769151834,75.11868419441011
6,-5.434785473889947,-218.90314210500776,-137.08871860737003,-1.0894412069934272,75.31507378061241,1.7592782340085942,258.3555689965259,75.37504268994438
7,-5.1855515748084455,-218.73692692774202,-136.97315615693174,-0.957597654042996,75.53102565527045,1.483004229447437,258.14947726195084,75.58892616876848
8,-4.94479872218649,-218.582476247614,-136.86823574523174,-0.8404519965332112,75.70346329341348,1.2038915210964565,257.95913616259566,75.76011822162384
9,-4.713445913656451,-218.44092195607556,-136.7744556510632,-0.7390192483164544,75.83329192894467,0.9216794313910962,257.7857799898188,75.88957713332108
10,-4.492298511373136,-218.31312739905144,-136.69213312219446,-0.6541193568248923,75.92258108736259,0.6358856631365277,257.6303180380975,75.9794192499936
11,-4.282048768265013,-218.1996803660356,-136.62139945856123,-0.5863837059173289,75.97451059481297,0.34583448509882836,257.493326094992,76.03286539167391
12,-4.083278492467443,-218.10089392982863,-136.56219733589438,-0.5362651465392065,75.99328025344343,0.05069392428501723,257.37504578660463,76.05415120038258
13,-3.896463386457516,-218.01681589511642,-136.51428076339567,-0.5040509083788058,75.98398503743002,-0.2504793873714385,257.2753926248302,76.04840325015412
14,-3.721978519683451,-217.94724713453974,-136.4772184839452,-0.48987770620986226,75.95245870214292,-0.5586895303217355,257.1939734156658,76.02148376989395
15,-3.5601044963174457,-217.89176845969428,-136.4504017739671,-0.493748013710502,75.9050898292193,-0.8749470095627437,257.1301132341857,75.9798079449508
16,-3.4110340764483222,-217.8497750157277,-136.43305733544435,-0.5155458669335047,75.848615475193,-1.2002133315754093,257.08289147771035,75.93013889276071
17,-3.274879147914055,-217.82051661564194,-136.42426534640845,-0.5550498418501189,75.7898986845533,-1.5353469013599774,257.0511856948936,75.87936648669424
18,-3.1516779606247223,-217.80314205789713,-136.4229820727416,-0.6119403116564143,75.73569710719184,-1.8810524018651151,257.0337212212698,75.83427716827896
19,-3.0414024253405043,-217.79674532412176,-136.42806610013068,-0.6857980321590417,75.69243071323544,-2.23783528634202,257.0291243421765,75.80132263126785
20,-2.9439650970564806,-217.8004115260724,-136.43830726408626,-0.7760916680199625,75.66595699469697,-2.605962359511276,257.0359766860345,75.78639565547766
21,-2.8592253458680537,-217.8132604281702,-136.4524574994129,-0.8821529860690048,75.66136200461135,-2.9854288070996513,257.0528685865563,75.79462134048556
22,-2.786994290117595,-217.8344852933231,-136.46926288658508,-1.0031399329259383,75.68277510730908,-3.3759315764869458,257.07844911359103,75.83017153913227
23,-2.727038284637478,-217.86338481071346,-136.4874960872589,-1.1379894968910969,75.73321444435201,-3.7768487407239903,257.1114704366475,75.89610946247338
24,-2.6790809616421045,-217.89938613908552,-136.50598816066932,-1.285363892711872,75.81446891666347,-4.187224369262527,257.15082431277807,75.9942702696405
25,-2.6428039599435804,-217.9420577123289,-136.5236585061056,-1.4435949080482628,75.92702100582,-4.605758468383525,257.19556888071025,76.12518201713716
26,-2.6178466465361065,-217.9911112951807,-136.53954150812348,-1.610631969731121,76.0700130808445,-5.03080172965208,257.2449445688771,76.28802968984525
27,-2.603805366872817,-218.04639361163564,-136.55280849960752,-1.7839995504617359,76.24125803015373,-5.460355078977562,257.298378656905,76.48066324068212
28,-2.6002329105398307,-218.1078685178053,-136.5627839560983,-1.9607690276304066,76.43729318109057,-5.8920742676286,257.3554787426664,76.6996486923252
29,-2.6066387885828677,-218.17559114752797,-136.56895532403502,-2.137549171618642,76.653474623756,-6.323279944216037,257.41601601532744,76.94035951068267
30,-2.6224905979315536,-218.24967579707683,-136.5709763941475,-2.310498204716503,76.88410741024006,-6.750973811497848,257.4798997898754,77.19710381990822
31,-2.6472163638371082,-218.33025953245945,-136.568664479049,-2.4753589344479368,77.12260582865095,-7.171861631745825,257.54714512435,77.4632817684576
32,-2.6802074977660775,-218.41746355252312,-136.56199178196746,-2.627516952124086,77.36167716387835,-7.582383975103706,257.6178354489146,77.73156658029976
33,-2.7208219865356438,-218.51135426515773,-136.55107137062507,-2.7620804564914816,77.59352207751073,-7.978755636522689,257.6920820856919,77.99410254932762
34,-2.7683876115402537,-218.61190593147566,-136.53613827614225,-2.873979059250129,77.8100448949372,-8.357014512210087,257.76998250898146,78.24271337881753
35,-2.822205279814995,-218.71896663830006,-136.51752648636213,-2.958078057253065,78.00306752115625,-8.713080408126984,257.8515792497584,78.46911467550973
36,-2.881552784061998,-218.83222923922546,-136.49564293446772,-3.0093041717681226,78.16454124447546,-9.04282380053907,257.9368214239609,78.665124914976
37,-2.945689348054585,-218.95120872406264,-136.47093988836153,-3.0227786473166223,78.28675122009213,-9.34214406389656,258.0255308723274,78.82286970255048
38,-3.013861113208113,-219.07522720962842,-136.4438872944708,-2.9939537768334774,78.3625089372181,-9.607056171003054,258.11737474940793,78.93497464884095
39,-3.0853074013855353,-219.203407343567,-136.41494654036705,-2.918749240953133,78.38532850955909,-9.833784359965186,258.211846008638,78.99474270254268
40,-3.159267347760788,-219.3346743248778,-136.38454683687888,-2.793685005790482,78.34958323814026,-10.018860764645149,258.30825259007423,78.99631238099106
41,-3.2349864635201784,-219.46776602245416,-136.35306512606255,-2.616007835555116,78.2506395731479,-10.159226543460504,258.40571534894616,78.93479400390385
42,-3.3117228318572707,-219.60125003663578,-136.32081017095504,-2.383808656441977,78.08496627509112,-10.252332617972641,258.50317409212875,78.80638169149215
43,-3.388752831350895,-219.73354625168588,-136.28801125364512,-2.0961279633411913,77.85021716324125,-10.296236739969814,258.5994007173813,78.60843944841098
44,-3.4653764144275634,-219.86295355791322,-136.25481165921317,-1.7530461668346187,77.54528634060075,-10.289693263639029,258.69301843018576,78.33956012057126
45,-3.54092202686859,-219.98767987868726,-136.22126686819107,-1.3557553469333268,77.17033529363911,-10.23223177316088,258.7825262662748,77.9995964858389
46,-3.61475126627616,-220.10587522987436,-136.1873471874066,-0.9066085177043877,76.72679187411788,-10.124220693882814,258.86632854941786,77.58966432847423
47,-3.686263370907731,-220.21566805726604,-136.15294445837898,-0.4091423957604959,76.21732187269423,-9.966912256620718,258.94276930626177,77.11211805527908
48,-3.7548996319608388,-220.3152053511584,-136.11788244838047,0.1319300945168291,75.64577458608761,-9.762465686246466,259.01017185723947,76.57050013856316
49,-3.8201478561843922,-220.40269691629422,-136.08193047696602,0.710760721940981,75.017104353386,-9.513946197234336,259.06688367183807,75.96946630468571
50,-3.881547047218542,-220.47646367794925,-136.0448197559567,1.3204424092425713,74.33727046348027,-9.225298245385105,259.11132611375467,75.31468888911427
51,-3.9386924564737273,-220.53498913133416,-136.00626191500473,1.9531221217056105,73.61311813904663,-8.90129247471594,259.1420480395661,74.61274116484476
52,-3.99124105811032,-220.5769721883529,-135.965969318888,2.6001495736034763,72.85224346765524,-8.54744689506788,259.1577815578787,73.87096569712382
53,-4.038917377602761,-220.60137897279716,-135.92367695242564,3.25225957953087,72.06284512502282,-8.169924001463214,259.15749774543093,73.09732982172271
54,-4.081519493579946,-220.60749070720726,-135.87916561637286,3.899784298626309,71.2535655483991,-7.775406741861077,259.1404597509045,72.30027120259993
55,-4.118924939706331,-220.59494474227265,-135.8322858153326,4.532890039446197,70.43332403318571,-7.370957353949081,259.1062704469753,71.48853624387563
56,-4.151096135462313,-220.56376596769945,-135.78298115678518,5.141831758223295,69.61114423778716,-6.963863984843279,259.05491165504026,70.67101408705402
57,-4.178084858887259,-220.51438626692797,-135.73130956974148,5.717217057975457,68.79597888486398,-6.561480551891302,258.9867720583173,69.8565691034796
58,-4.200035171983868,-220.44765026274615,-135.67746034468288,6.250270608882407,67.99653498716772,-6.1710654440992005,258.90266125436915,69.05387515254726
59,-4.217184169574839,-220.36480628148223,-135.62176493543447,6.733089611162102,67.2211035098449,-5.799624439542803,258.803807944031,68.27125525736503
60,-4.229859955722257,-220.26748225576736,-135.56469969639582,7.158881186944483,66.47739774726465,-5.453762724067237,258.6918410485831,67.51653052352057
61,-4.238476363228672,-220.15764720831967,-135.50687927805023,7.522173214877204,65.77240467217827,-5.139550266937998,258.56875361917696,66.79688193848664
62,-4.243524158425679,-220.0375598842645,-135.4490401720389,7.8189908345968275,65.11225315999346,-4.8624041399715905,258.43685059397427,66.11872818384067
63,-4.24555881719606,-219.90970680053866,-135.39201474955,8.046991511726493,64.50210249690171,-4.62699065987413,258.29868250708483,65.48762196155558
64,-4.245185327894441,-219.77673234698352,-135.33669701345383,8.205552319709682,63.94605407715114,-4.437149416322452,258.15696803235744,64.9081667357301
65,-4.243040750391759,-219.6413637124501,-135.28400211951845,8.295804297590536,63.44708865586776,-4.295840316411299,258.01450880785114,64.38395525500054
66,-4.239775392091194,-219.50633349366208,-135.23482234881334,8.32061062508181,63.007030874086915,-4.205113845300925,257.8741003902277,63.91753072726485
67,-4.236033507024118,-219.37430289377184,-135.18998244921278,8.284487887280708,62.626541999503516,-4.16610392439724,257.7384433529032,63.5103710615591
68,-4.232434442805028,-219.24778832594592,-135.1501970668782,8.193472610863807,62.30514095996371,-4.179042066550541,257.61005835829593,63.162896152190065
69,-4.229555111753933,-219.129093995533,-135.11603253143568,8.054938170673015,62.04125279526024,-4.243290988171659,257.49120858670085,62.874497684972226
70,-4.227914448691707,-219.0202527718195,-135.08787482698577,7.877369733121971,61.83228260931734,-4.357395470690766,257.38383245176493,62.643590306838014
71,-4.227960146326701,-218.92297744958398,-135.06590533246012,7.670106841463053,61.674712012100045,-4.519148065465292,257.2894892198733,62.46768220077067
72,-4.2300576078390755,-218.838624236592,-135.0500857501763,7.443064389443943,61.564214041554926,-4.725667145145574,257.209319838456,62.34346226270428
73,-4.234480916327991,-218.76816984314982,-135.0401533555692,7.206443019618159,61.49578186185036,-4.973484744198669,257.1440247385169,62.26690040143694
74,-4.241405702078974,-218.71220292265065,-135.03562719466262,6.970439468798683,61.46386630877227,-5.25864155677436,257.0938595812776,62.2333571680809
75,-4.250903944813344,-218.6709299812647,-135.0358251634349,6.744966229907239,61.46251760819171,-5.576786387524799,257.0586490228696,62.23769902036779
76,-4.262940869540239,-218.64419530499816,-135.0398911050177,6.539388399664305,61.48552719234766,-5.923277344665861,257.0378176696117,62.27441594548169
77,-4.27737417020183,-218.6315138557578,-135.0468302281058,6.362284087632696,61.526566300784886,-6.293282154745615,257.0304364522489,62.337738754848004
78,-4.293955791698449,-218.6321154138596,-135.05555037675575,6.221233531521527,61.57931884973819,-6.681875111600491,257.0352816665064,62.42175401013915
79,-4.312336358297586,-218.64499757552605,-135.06490615459887,6.122641155903927,61.63760679612958,-7.084128292827738,257.0509030780907,62.520515152912175
80,-4.33207211282782,-218.6689846641905,-135.07374284623833,6.071594138443169,61.695506805340514,-7.495194836994169,257.0756969872505,62.6281488886099
81,-4.352634078648146,-218.70278925080595,-135.0809375327644,6.071760487137428,61.74745737367412,-7.910382390021885,257.10798007559606,62.73895614315953
82,-4.373419142099734,-218.74507286067845,-135.08543555577893,6.125329058972738,61.78835567601676,-8.325215341311623,257.14606015679016,62.84750698245908
83,-4.3937628160011215,-218.7945026254597,-135.0862812475107,6.232993197605551,61.81364340896926,-8.73548510777264,257.1883005098244,62.948728845861574
84,-4.412953501835002,-218.84980109555735,-135.0826424415057,6.393978553043332,61.81938088710347,-9.137288385030853,257.23317517650804,63.03798738035487
85,-4.430248081042509,-218.90978708308464,-135.0738286919171,6.606114100963679,61.80230869920153,-9.527053891513548,257.2793133778951,63.11115913246873
86,-4.444888622453026,-218.97340619649924,-135.05930340473824,6.865943527989456,61.75989638164188,-9.901558626962624,257.32553201870934,63.16469539408694
87,-4.456119902349238,-219.03975056278074,-135.0386902610162,7.168872229662336,61.69037782904302,-10.257935030264866,257.37085604726826,63.19567662069428
88,-4.463207350904254,-219.10806795309838,-135.01177439326293,7.509343395960346,61.592773525843015,-10.5936706671487,257.41452708941284,63.20185704279766
89,-4.465455023325318,-219.1777610271094,-134.97849875206435,7.881035192818289,61.466900094653596,-10.906602220991392,257.4560011842539,63.18169933322511
90,-4.462223227861486,-219.24837772173754,-134.9389560179938,8.277070038953326,61.3133680227408,-11.194905592079314,257.4949366698017,63.13439939787009
91,-4.452945457978912,-219.31959403592623,-134.89337635755365,8.690226590533001,61.133568652265396,-11.457083819729815,257.5311734286364,63.05990145969947
92,-4.437144256361488,-219.39119070714747,-134.8421113330551,9.11314538574061,60.929651544070914,-11.69195432653165,257.5647049178486,62.95890357762778
93,-4.41444561519656,-219.46302560845265,-134.7856143780465,9.53852012315658,60.70449311797731,-11.898636653057093,257.5956447449366,62.83285356812743
94,-4.384591498380252,-219.53500407349628,-134.724418457673,9.959268085551054,60.461657031605924,-12.076541424202535,257.6241899826837,62.68393497192827
95,-4.347450070844246,-219.60704960141226,-134.65911179349342,10.368675085261055,60.205346129664285,-12.225360803988888,257.65058376003606,62.515042263244396
96,-4.303023303876131,-219.67907731215968,-134.5903127438638,10.760512317012246,59.940345079373316,-12.34506020853042,257.6750797084952,62.32974401467933
97,-4.2514518118248175,-219.7509720599403,-134.5186450297337,11.129124441467384,59.67195216614679,-12.435870608684969,257.69791050379484,62.13223232570533
98,-4.193016941018205,-219.8225724058187,-134.44471446714266,11.469489839329585,59.405898357442354,-12.49828041363609,257.7192621286958,61.927256644635364
99,-4.128140115389116,-219.89366098038576,-134.36908821928122,11.777255073944938,59.148251830438234,-12.533025736397425,257.7392548342518,61.720040304731384
100,-4.05737922876625,-219.96396135252036,-134.29227734638707,12.048746127568657,58.905306773109714,-12.541077824619283,257.75793129858505,61.51617872044459
101,-3.9814216285299917,-220.0331413139941,-134.21472319596484,12.280959061992272,58.683456331493275,-12.523626555861492,257.77525218112015,61.32151919628371
102,-3.901073190033888,-220.10082225498337,-134.13678802655883,12.471532663107105,58.48905090344107,-12.482059082689457,257.79109899358593,61.142023550638896
103,-3.8172432427315517,-220.1665939043617,-134.0587501712059,12.6187056528898,58.328244380805316,-12.417932950450396,257.8052838276626,60.983616119579466
104,-3.730925560272134,-220.23003322368535,-133.98080390006024,12.721261368036215,58.206832290009224,-12.332943331448448,257.81756499759393,60.852021099701055
105,-3.6431760431793108,-220.29072585506515,-133.90306387252718,12.778463367725266,58.130086983530894,-12.228884458018928,257.82766719116864,60.752594526097184
106,-3.5550879761994247,-220.3482883577936,-133.8255737336786,12.789986003122328,58.102595996313674,-12.107605890952154,257.8353044102969,60.6901573221167
107,-3.467765848993251,-220.40238952739668,-133.74831811231934,12.75584426970213,58.12811032276092,-11.970964876937648,257.84020387909754,60.66883665730129
108,-3.382298752758126,-220.45276926124015,-133.67123710714282,12.676327074964494,58.209409649162524,-11.820776633983456,257.84212915415753,60.691923209015414
109,-3.299734354228768,-220.4992536061042,-133.59424232792117,12.551937334916857,58.348191455954826,-11.658764850942525,257.84090080703425,60.76175177490929
110,-3.2210544245176216,-220.541764789047,-133.51723363462082,12.383341150539103,58.544990332033606,-11.486514920409219,257.8364132286933,60.879611980239694
111,-3.1471528484173574,-220.58032526680896,-133.44011581946654,12.17132693938192,58.799132782151524,-11.305432409397463,257.8286463561416,61.045694566209804
112,-3.0788169182028415,-220.61505520445505,-133.3628145978807,11.91677413211926,59.108731271471605,-11.116709011572786,257.8176715019115,61.25907700509313
113,-3.016712519152653,-220.6461633329546,-133.28529143447852,11.620630181365314,59.47071931306422,-10.92129775674344,257.8036510070026,61.51775009951958
114,-2.9613736052927773,-220.67393177318024,-133.20755688722394,11.283894295906238,59.88092720649407,-10.719898653867567,257.7868320607485,61.81868496543296
115,-2.913196201833886,-220.69869601052125,-133.129682204917,10.90760642392258,60.334195784160244,-10.512955322386993,257.7675355654639,62.157937575114524
116,-2.87243702982638,-220.72082161859223,-133.05180881187582,10.492840326628722,60.82452343471436,-10.300662623365548,257.74614122343274,62.53078602807042
117,-2.839216649857332,-220.74067949158902,-132.97415513265554,10.040699830305147,61.34523990698461,-10.082984852551443,257.7230700654482,62.93189402030587
118,-2.8135267243937014,-220.7586212951526,-132.897020096156,9.552317324748104,61.889199031248474,-9.85968364115983,257.69876553546214,63.3554926238642
119,-2.795240657393532,-220.77495670990746,-132.82078272587293,9.028853272217802,62.448981577747524,-9.630354299626465,257.67367416045107,63.795571512558816
120,-2.7841266044830526,-220.78993389031268,-132.74589747572992,8.471495086784314,63.01709908698091,-9.394468989905683,257.6482268316553,64.24607030002701
121,-2.779861729606235,-220.80372434933795,-132.6728853410722,7.881453537694979,63.586189769331796,-9.15142488552705,257.62282173052847,64.70106086616839
122,-2.78204658825092,-220.81641317952096,-132.60232121026476,7.259955060861993,64.14919856410256,-8.900595374821892,257.5978099002755,65.15491255388443
123,-2.790218603594875,-220.82799519709926,-132.53481836615052,6.608229090103255,64.699535112609,-8.641382338172187,257.573484416359,65.60243386517104
124,-2.8038637954935455,-220.83837728252894,-132.47101135802407,5.927490642319708,65.23120550528265,-8.373267574071262,257.550074003802,66.03898652865631
125,-2.822426270641184,-220.84738683529793,-132.4115384929054,5.218919702829645,65.73891588887697,-8.095861612496767,257.5277416632,66.46057021065613
126,-2.845315453634424,-220.8547858359939,-132.35702494176377,4.483640190799562,66.21814807166659,-7.808948472885785,257.50658837846566,66.86387837426285
127,-2.8719114968747474,-220.86028956459046,-132.30806709152117,3.7227021806813556,66.66520890955,-7.512525324460958,257.4866614163187,67.24632758438732
128,-2.901569623635403,-220.86358860697968,-132.26521848416434,2.9370714407468346,67.07725632436362,-7.206836331656328,257.4679662240451,67.60606371033285
129,-2.933624301912127,-220.86437239538853,-132.22897754796716,2.1276301508133404,67.45230522380172,-6.892400089370736,257.4504805305578,67.9419489109904
130,-2.96739411378437,-220.86235220547792,-132.19977729812996,1.295191876394292,67.78921643088424,-6.570029957575483,257.434168962214,68.25353308929763
131,-3.0021879495253874,-220.85728139505167,-132.17797716438324,0.4405325684718647,68.08767119601401,-6.240846394528813,257.418996352002,68.54101290964343
132,-3.03731276798525,-220.8489708732525,-132.16385701687915,-0.4355623283772138,68.3481332032207,-5.906280217495573,257.40493804619575,68.8051807617234
133,-3.0720827946718487,-220.83729840059146,-132.15761328151558,-1.332236408945986,68.57179937120156,-5.568065717732242,257.3919859414945,69.0473654195779
134,-3.1058298053540523,-220.822211244521,-132.1593567737981,-2.248489942520385,68.7605402577642,-5.228222782853836,257.38014964555197,69.26936565170371
135,-3.1379140257822717,-220.80372273138804,-132.16911163524736,-3.1831014670100677,68.91683050273011,-4.889027631114332,257.36945290517065,69.47337767546817
136,-3.1677350773522632,-220.781904065036,-132.18681469460552,-4.134549207531177,69.04366949448084,-4.552972390477527,257.3599261326496,69.66191710912233
137,-3.1947423290739088,-220.75687319963134,-132.21231476540106,-5.100938805955647,69.14449237983376,-4.22271448830516,257.3515963202691,69.83773600551477
138,-3.21844404612933,-220.7287825224679,-132.24537172578738,-6.079944071249306,69.22307173204494,-3.901017580496332,257.3444757789799,70.00373571651733
139,-3.2384148728883284,-220.69780677293977,-132.28565555580258,-7.0687672453076065,69.2834106491823,-3.590686459227242,257.33855102427003,70.16287672542902
140,-3.2543014307779345,-220.66413218621167,-132.33274573708883,-8.064124579517078,69.3296286901537,-3.2944989155962214,257.3337728758286,70.31808709896255
141,-3.265826098399129,-220.62794742330135,-132.38613150801203,-9.062261791155397,69.3658427764294,-3.015137768670624,257.33004851835335,70.47217174853961
142,-3.272789269464702,-220.58943648303864,-132.44521343083144,-10.059002183447978,69.39604594191503,-2.755126161205524,257.3272359390644,70.62772519732484
143,-3.2750704444854764,-220.54877350148192,-132.50930661149377,-11.049827907788424,69.42398755387954,-2.516768833981137,257.32514084809077,70.78705098258543
144,-3.272628401752693,-220.5061191480607,-132.57764572453996,-12.029992205943728,69.45305927427572,-2.3021015318555214,257.3235159197633,70.95209111357337
145,-3.2655005373047556,-220.46161825682938,-132.64939178174888,-12.99465780514909,69.48619148104933,-2.1128500399239942,257.3220620187385,71.12436906759089
146,-3.2538013860821327,-220.41539839400326,-132.72364050623617,-13.939054289035115,69.5257650150807,-1.9503996522262335,257.32043108697945,71.30494956139098
147,-3.2377203390994045,-220.36756921900385,-132.79943234967266,-14.858645521650322,69.57354285083505,-1.8157752067246749,257.31823059082916,71.4944177189663
148,-3.2175185823543915,-220.31822269333819,-132.87576448504024,-15.749297272028803,69.63062553229405,-1.709631252407901,257.31502974715386,71.69287925903399
149,-3.193525277593661,-220.26743436423956,-132.95160523704646,-16.607435181651212,69.69743299252488,-1.6322514982475604,257.3103679612381,71.89998203417062
150,-3.166133015565522,-220.2152659721824,-133.02591123327494,-17.430184104565782,69.7737138170605,-1.5835564503021513,257.30376583517557,72.11495784079445
151,-3.135792606527481,-220.16176939778356,-133.09764716940825,-18.21548145361379,69.85858130072401,-1.5631180621691103,257.29473870408503,72.3366820626663
152,-3.1030072717150907,-220.10699156458307,-133.16580768140676,-18.9621592474825,69.95057396683829,-1.5701802563761957,257.282812108327,72.56374754440256
153,-3.068326188090092,-220.05097962996442,-133.22944056698435,-19.669991804521924,70.04773673865586,-1.603684246180625,257.26753823506766,72.79454821407836
154,-3.032337118226661,-219.993785861578,-133.28767055018213,-20.339708214087814,70.14771782948259,-1.6622976378878846,257.2485123900007,73.02736745479997
155,-2.9956576450353185,-219.9354719924443,-133.33972284453193,-20.972970580509124,70.24787575919242,-1.7444463053278831,257.2253889280514,73.2604660858321
156,-2.9589244796726764,-219.87611332174873,-133.3849457757538,-21.572320367627817,70.3453907405208,-1.8483480270825297,257.1978964798919,73.4921650158402
157,-2.9227804844326064,-219.8158030936492,-133.42283158162516,-22.141095903606338,70.43737495536396,-1.9720469139324253,257.1658524662932,73.7209181017243
158,-2.887859408457898,-219.75465761999988,-133.45303427840787,-22.68332436075031,70.52097685531653,-2.1134477606234587,257.1291767215872,73.94537142292891
159,-2.8547687846913385,-219.69282230201105,-133.47538335187733,-23.20359154352955,70.5934754526274,-2.2703496045223814,257.08790371903234,74.16440601519425
160,-2.8240718623970924,-219.63047833488665,-133.48989214774215,-23.706892815400515,70.65236151269194,-2.4404778955555346,257.0421926396295,74.37716205593614
161,-2.7962697166676374,-219.56784957828225,-133.49676016551143,-24.19846860486836,70.69540355443462,-2.621514740162192,256.9923344424157,74.58304353138216
162,-2.7717847179028765,-219.50520887669495,-133.496368820501,-24.683628235394384,70.72069758414509,-2.8111267114260627,256.93875511091636,74.78170354326258
163,-2.7509464052615984,-219.44288301934654,-133.4892705187571,-25.16756635539926,70.726700500292,-3.0069897888004693,256.88201431117386,74.9730116128952
164,-2.733980583334937,-219.38125555512482,-133.4761711421419,-25.65517694821766,70.71224805181762,-3.206811132800806,256.82279884467806,75.15700553847327
165,-2.7210022100626396,-219.32076684245084,-133.4579063641565,-26.15087064051771,70.67655902647631,-3.408347560025868,256.7619105821414,75.33383142977914
166,-2.7120123929561313,-219.261911020947,-133.43541263602145,-26.658401633132186,70.61922789538608,-3.609420693890417,256.7002490388417,75.50367633480478
167,-2.7068996410975457,-219.20523001191097,-133.4096941554078,-27.180710869989056,70.54020838895353,-3.807928838857073,256.63878935374197,75.66669826932115
168,-2.7054455440680147,-219.15130508453984,-133.38178758857467,-27.719791871350566,70.43979046323729,-4.001855740190078,256.5785570404043,75.82295844063025
169,-2.707335202642357,-219.10074679488335,-133.35272665645707,-28.276584922253864,70.31857293669688,-4.189276601106159,256.52060128797285,75.97236009411468
170,-2.712172726876976,-219.0541840830002,-133.3235087620069,-28.850904124765417,70.17743381380421,-4.368362005377063,256.465968609786,76.11459780799946
171,-2.7195017346846657,-219.01225303524262,-133.29506551327546,-29.441400394265973,70.01749998252068,-4.537380629431554,256.4156782326901,76.24912029250132
172,-2.728830169563825,-218.9755854791812,-133.26823837347354,-30.04556200119156,69.84011758658521,-4.694701713640784,256.3707000058526,76.37510887820228
173,-2.7396582118080013,-218.94479736553066,-133.24376002271805,-30.659752866988217,69.64682397838975,-4.838798186918709,256.3319350878643,76.49147299253052
174,-2.7515077013986886,-218.92047683248077,-133.22224154957578,-31.279287586859994,69.43932180550702,-4.9682511978610915,256.3001993745391,76.59686310096956
175,-2.7639512704381946,-218.90317183682163,-133.20416530358574,-31.898541076842054,69.2194554703784,-5.081756692922756,256.2762094670081,76.68970083718064
176,-2.7766393050189175,-218.89337717553386,-133.18988308648517,-32.51108977551087,68.9891898920835,-5.178134599017612,256.26057084510325,76.76822531315712
177,-2.7893230056465677,-218.89152065451543,-133.1796193537586,-33.10988039721195,68.75059119890315,-5.256341041351942,256.2537678511442,76.83055386431603
178,-2.8018721942777476,-218.8979482635103,-133.17347919709488,-33.68742129116659,68.50580874736983,-5.315483793563944,256.25615523291293,76.8747547801683
179,-2.814286978727928,-218.9129086002767,-133.17146091774669,-34.235990522861506,68.25705773319618,-5.3548408208317015,256.2679513501843,76.89892894007993
180,-2.826702741651913,-218.93653733202945,-133.17347284089945,-34.747853922366176,68.00660161515815,-5.373881396917282,256.28923353722075,76.90129673153618
181,-2.8393881111060355,-218.96884291442214,-133.17935367963884,-35.215485624960934,67.75673359865746,-5.372288918801298,256.3199363071957,76.88028620339168
182,-2.8527357223977607,-219.0096949060146,-133.1888953693281,-35.63178314438272,67.5097565633445,-5.3499842530178014,256.35985298323004,76.83461817832985
183,-2.8672458643093632,-219.0588160249568,-133.20186702397066,-35.99026882023693,67.2679611395043,-5.307148248125509,256.4086410383548,76.76338411044792
184,-2.8835035329890784,-219.1157787576152,-133.21803862433953,-36.28526959568363,67.0336021400536,-5.2442419352195175,256.46583112009336,76.66611284446827
185,-2.9021498774095136,-219.18000699887617,-133.23720319359256,-36.512067546500404,66.8088741136314,-5.162022898604762,256.5308395328708,76.54282302751088
186,-2.9238494226970166,-219.25078291598177,-133.25919639384458,-36.66701446867741,66.59588720843132,-5.061556327650325,256.6029838010658,76.39405861989867
187,-2.949254780761606,-219.32725894655172,-133.28391259418265,-36.74760521917388,66.39664468141066,-4.944219349862611,256.6815007591122,76.22090567374848
188,-2.9789707802195386,-219.40847454488014,-133.31131657896782,-36.75250642281251,66.21302322845997,-4.81169736206629,256.76556642578566,76.02498930011856
189,-3.01352005397236,-219.49337698040455,-133.34145027066222,-36.68153952977911,66.04675692685639,-4.665971213707939,256.8543167624585,75.80845056240864
190,-3.0533121177288685,-219.58084517777752,-133.37443411068978,-36.535619841639814,65.8994250793331,-4.509294323748741,256.94686828478297,75.57390391461576
191,-3.09861779891988,-219.66971529067573,-133.41046301652577,-36.316655768584226,65.77244372580428,-4.34415922788814,257.042337382304,75.32437670142241
192,-3.1495503987966504,-219.75880646965138,-133.44979711816217,-36.02741499548551,65.66706014138819,-4.1732536777625,257.1398571461942,75.06323310374468
193,-3.206054170108583,-219.84694520638234,-133.4927477786137,-35.6713662179058,65.58434935853401,-3.9994071619089957,257.23859059214556,74.79408571023835
194,-3.267899821335956,-219.9329868029226,-133.5396596700694,-35.25250649200697,65.52521168710983,-3.8255294524120105,257.33773944442737,74.52069857177342
195,-3.334686177544657,-220.01583292741068,-133.59088987315766,-34.77518488533323,65.49037035164592,-3.654543391037204,257.436548100486,74.24688607928603
196,-3.405846995910062,-220.09444477257276,-133.64678511681254,-34.24393294032805,65.48036865259961,-3.489314563441232,257.53430294680896,73.97641221288525
197,-3.480662141344014,-220.16785190697385,-133.70765838491414,-33.66331148684864,65.49556637700717,-3.3325807501953837,257.6303277440839,73.71289456998414
198,-3.5582726576087604,-220.2351574284961,-133.77376611991312,-33.03778167863714,65.53613542431002,-3.186884066808031,257.72397624793973,73.45971706465583
199,-3.6376995316135776,-220.29554043726918,-133.84528712344797,-32.37160596997913,65.60205472518817,-3.0545084988308213,257.8146235140629,73.2199543489001
200,-3.717866028337769,-220.3482570427298,-133.92230405254253,-31.668782329300676,65.69310454535304,-2.9374251253873402,257.9016573992399,72.99630997438345
201,-3.797623331413688,-220.3926410305609,-134.00478820023847,-30.933012561833287,65.80886026427699,-2.837246765233639,257.98447157963176,72.79106927414718
202,-3.875778905927092,-220.42810500552562,-134.09258804130337,-30.16770341559944,65.94868577370734,-2.7551931683009805,258.0624610270608,72.6060670591868
203,-3.9511266814273296,-220.45414246603696,-134.18542182820428,-29.375997321718497,66.11172678279019,-2.692067329845891,258.1350204686625,72.44266958134537
204,-4.022478059432769,-220.47033097924444,-134.2828743746155,-28.560828182377072,66.2969045451556,-2.648243103581692,258.2015460320102,72.30176981483359
205,-4.088692913419307,-220.47633644696876,-134.3843980834024,-27.72499646987885,66.50291081002474,-2.6236640179626276,258.2614400861401,72.18379488668272
206,-4.148709944330356,-220.4719183833562,-134.4893182333712,-26.871256960899615,66.72820506612652,-2.617852977340268,258.3141192080067,72.08872433445114
207,-4.201575756898681,-220.45693613138465,-134.59684245570878,-26.002411761491103,66.97101528226096,-2.629932299996162,258.35902516091704,72.01611770296076
208,-4.2464718359553215,-220.43135594269282,-134.70607414345295,-25.121401051297916,67.22934328311636,-2.658653295074867,258.3956386624373,71.96514981017806
209,-4.282738397119205,-220.39525874322783,-134.81602927789214,-24.23138432720348,67.50097566541723,-2.7024343104624466,258.4234954875285,71.93465189506897
210,-4.309894021127343,-220.34884818919525,-134.92565593218248,-23.335805850686896,67.78350085202914,-2.759405904417551,258.4422041428221,71.92315688780555
211,-4.3276501038524895,-220.29245838189206,-135.03385559145119,-22.43843936242121,68.07433256588027,-2.8274615442912023,258.45146407944753,71.92894721775454
212,-4.335919433853149,-220.22656050292835,-135.13950541550585,-21.54340873523361,68.3707396830721,-2.9043120701683893,258.4510833143755,71.95010382203067
213,-4.334818652238838,-220.1517676923407,-135.2414807030112,-20.655182920614802,68.66988207421132,-2.987542124206596,258.44099446283866,71.98455524871947
214,-4.32466495024141,-220.0688376013673,-135.33867711831897,-19.77854517842913,68.96885166370738,-3.074666860917741,258.4212684610385,72.03012591511667
215,-4.3059678831827215,-219.97867208926348,-135.43003256887414,-18.918538082458802,69.26471755637814,-3.1631874978702084,258.3921254920305,72.08458267990969
216,-4.2794172845981455,-219.8823135265649,-135.51454874361804,-18.080387098673835,69.55457375600332,-3.2506445560566593,258.3539427050681,72.14567895131722
217,-4.245867964873197,-219.78093722345648,-135.59131218357,-17.269406565324225,69.8355878025814,-3.334667867600036,258.3072582953847,72.21119562788611
218,-4.206321562377637,-219.67583966560244,-135.65951450965173,-16.490892597822487,70.10504862673508,-3.413022538161054,258.2527715148253,72.27897828396213
219,-4.161905824806336,-219.56842246356734,-135.71847126893144,-15.750007772927397,70.36041205036028,-3.483650071262901,258.1913382816344,72.34697016532172
220,-4.113851600271315,-219.4601721315554,-135.76763885052952,-15.051662468033705,70.5993426147195,-3.5447038892747256,258.1239622248987,72.41324074708302
221,-4.063467728759669,-219.35263595841602,-135.8066289972052,-14.400397561713673,70.81975076164687,-3.5945786237982564,258.0517811557015,72.47600984265958
222,-4.012113916268551,-219.24739431713024,-135.83522049386437,-13.80027295544346,71.0198248052122,-3.6319328208301083,257.9760490482834,72.53366755025566
223,-3.9611717703015406,-219.14602982182848,-135.85336765038338,-13.254766088169413,71.19805756086062,-3.655705033733152,257.8981136827188,72.58479064260148
224,-3.9120145513965725,-219.0500938429655,-135.86120529486692,-12.766684242641155,71.35326786890414,-3.665123551398091,257.81939024177353,72.62815625852586
225,-3.8659766325025613,-218.96107106810658,-135.85905014528134,-12.338093936790802,71.48461747785431,-3.6597101781933956,257.7413313909467,72.66275385125822
226,-3.8243238549512757,-218.88034303227667,-135.84739848162837,-11.97027004759314,71.59162378470862,-3.63927856719179,257.6653946027703,72.68779623490917
227,-3.788225863040129,-218.80915176295116,-135.8269198791526,-11.663666542323849,71.67416876026968,-3.6039276696655174,257.5930075855691,72.70273025161197
228,-3.7587312294929505,-218.74856481196002,-135.79844650118702,-11.417909798073945,71.73250407058813,-3.5540309411126345,257.5255326397458,72.7072471135776
229,-3.736745847294004,-218.69944297727477,-135.76295740387405,-11.231814489454456,71.76725202165711,-3.4902220043230057,257.46423075848014,72.70129193677182
230,-3.7230147374606752,-218.66241200765015,-135.72155766312258,-11.103420979414473,71.77940159942568,-3.413377454004679,257.41022646387705,72.68507147507488
231,-3.718107306832455,-218.63783955389317,-135.6754527131139,-11.030052187842625,71.77029865431837,-3.3245974022594984,257.3644746481414,72.65905870429272
232,-3.7224063281895985,-218.62581856349507,-135.62591873221243,-11.00838720584715,71.74162924336093,-3.225184279867204,257.32773087102834,72.6239927732135
233,-3.7361013246350216,-218.6261582283326,-135.57427006695798,-11.034548583534823,71.69539526714277,-3.1166203756892217,257.3005265771921,72.58087292365371
234,-3.7591872148372403,-218.63838350132565,-135.5218246428379,-11.104200208069134,71.63388176828555,-3.000544608589673,257.2831505962582,72.53094522096603
235,-3.791468742830748,-218.66174398823537,-135.46986826484707,-11.21265285970863,71.55961554772811,-2.8787290389408993,257.27563808230605,72.47568126198037
236,-3.832570444328571,-218.6952325625208,-135.4196188143257,-11.354974765573413,71.47531505777523,-2.7530555850976492,257.2777677089156,72.41674837202618
237,-3.881951052478786,-218.73761340749863,-135.37219158876783,-11.526104709414966,71.38383181767935,-2.625493274892482,257.28906751132615,72.35597112825859
238,-3.93892074454288,-218.78745857001687,-135.32856722895775,-11.720965440260619,71.2880838889171,-2.4980761389488926,257.30882934321505,72.29528436380382
239,-4.002659665035985,-218.84319163005253,-135.28956370323607,-11.934575163873552,71.19098228628897,-2.3728816038967127,257.3361315233261,72.23667814690782
240,-4.072236584413312,-218.90313671643528,-135.2558137228302,-12.16215475047383,71.0953516103776,-2.252009067971476,257.3698688831505,72.18213560975782
241,-4.146627106242155,-218.965570768129,-135.2277488234751,-12.399228004020019,71.0038466591264,-2.137558313266958,257.4087890777053,72.13356492618253
242,-4.224731358190714,-219.02877667102106,-135.20559113030197,-12.641712064012161,70.91886728351892,-2.031607508882459,257.45153368188704,72.09272720162376
243,-4.305391493440799,-219.09109480165432,-135.1893534616923,-12.885994943281617,70.8424742627127,-1.9361906834860632,257.49668232405133,72.06116253929375
244,-4.387409489982365,-219.15097067883775,-135.1788479672087,-13.12899747608978,70.77630945463603,-1.8532746015167267,257.5427980105553,72.04011707131266
245,-4.469565638866434,-219.20699682237898,-135.17370305050488,-13.368217544567376,70.72152387602031,-1.7847349457693733,257.58847189659826,72.03047424019609
246,-4.550637848758549,-219.25794741545852,-135.17338793199264,-13.60175523046158,70.67871759488283,-1.7323316255310992,257.63236596740825,72.03269397899811
247,-4.629421603400141,-219.3028049004148,-135.17724376459068,-13.828318336120859,70.64789527690169,-1.6976829486946259,257.6732523102661,72.04676354004614
248,-4.704750209568998,-219.3407782122145,-135.18451969315223,-14.047208401435357,70.62844084944594,-1.682238376982388,257.7100478706005,72.07216347440257
249,-4.775514917297102,-219.37131289154362,-135.19441182177508,-14.258287857333421,70.61911405859492,-1.6872496702418451,257.74184382149275,72.10785168171778
250,-4.84068452298085,-219.3940936543146,-135.20610295834115,-14.461929341596388,70.61807080434471,-1.7137404318275804,257.7679289147611,72.15226764824078
251,-4.899324046511883,-219.40904007124718,-135.21880125254734,-14.658948538138752,70.62290816376532,-1.7624743592484582,257.7878063779587,72.20335809854384
252,-4.9506119392398595,-219.41629596502796,-135.2317762059128,-14.85052223776391,70.63073400596403,-1.8339228150199487,257.8012040695508,72.25862436619578
253,-4.993855111623967,-219.416213107392,-135.24439077035044,-15.038093696297047,70.63826004801753,-1.9282326205477165,257.8080777029419,72.31519083017089
254,-5.0285010141542426,-219.40932980155583,-135.2561282680423,-15.223267844957652,70.6419160490147,-2.0451952652646455,257.80860695726085,72.3698927348079
255,-5.0541461473706555,-219.39634493283296,-135.26661274158454,-15.407699529966195,70.6379815968006,-2.1842190544506157,257.8031842256612,72.41938062908093
256,-5.0705406780866085,-219.37808811778908,-135.2756213297466,-15.592978700613923,70.6227307315884,-2.3443060704988,257.7923957890828,72.46023763851322
257,-5.077589152080914,-219.35548678272662,-135.2830876316402,-15.780517244912044,70.59258365651155,-2.5240360941165667,257.77699557221956,72.48910497653911
258,-5.0753474671945265,-219.32953136254972,-135.28909580180581,-15.971442857892356,70.54425913257482,-2.721559696448814,257.7578723585258,72.50281059893379
259,-5.064016300930117,-219.30124017590308,-135.29386602556548,-16.166505734502408,70.474920867798,-2.934602490103853,257.7360121305795,72.49849568545247
260,-5.043931237167122,-219.2716256904354,-135.29773271551295,-16.366003801979502,70.3823112741749,-3.160482029374347,257.7124577036827,72.47373364454816
261,-5.0155500257442265,-219.24166376082167,-135.30111713193344,-16.569731503552504,70.2648663986709,-3.3961381645374,257.6882679052266,72.42663657714505
262,-4.979437620649224,-219.21226709577073,-135.30449626138102,-16.776955812228227,70.12180667050289,-3.63817689466494,257.6644783489685,72.35594464667717
263,-4.936249667344362,-219.18426382347113,-135.30836980087804,-16.986421324291374,69.95319933200983,-3.882927035517159,257.64206553155805,72.26109460192514
264,-4.886714913799335,-219.15838163275706,-135.31322702587357,-17.196384154202672,69.75998993853933,-4.126508403028821,257.62191560385185,72.1422647296914
265,-4.831616772512634,-219.1352375713368,-135.31951518897293,-17.40467213931454,69.5440019784617,-4.3649097359804685,257.6047987578568,72.00039466940117
266,-4.771774160814441,-219.1153332001956,-135.3276109506205,-17.60876682216431,69.30790532952588,-4.594074222237235,257.5913497653742,71.83717969930237
267,-4.708021880596762,-219.09905446518874,-135.3377962116404,-17.80590111112336,69.05515578704207,-4.809990212223981,257.58205484977617,71.65504021901965
268,-4.641191084782567,-219.08667538008137,-135.3502395621886,-17.993165680011266,68.78990910954731,-5.008784479497187,257.5772447691839,71.4570681079924
269,-4.572090625591776,-219.07836445862742,-135.36498428311677,-18.167617154774856,68.5169137809325,-5.186815232171103,257.5770937146661,71.24695233282345
270,-4.501490161244049,-219.07419282085186,-135.3819433715276,-18.326381853538916,68.24138695055231,-5.340762005796211,257.5816233744364,71.02888657412461
271,-4.430105830821507,-219.07414302477392,-135.4009014911484,-18.46675004329872,67.96887790542597,-5.467709563877584,257.5907113208509,70.80746181137944
272,-4.3585891457548405,-219.0781178996807,-135.42152323558497,-18.586257067487917,67.70512315004167,-5.565222980845618,257.6041027951955,70.5875468653873
273,-4.2875194916632235,-219.08594894096916,-135.44336673780708,-18.682749073526647,67.45589690181663,-5.6314112210932175,257.6214250141754,70.37415997535517
274,-4.217400292544582,-219.0974041562159,-135.46590144832922,-18.75443231044692,67.22686067693313,-5.664976827414105,257.642203283428,70.17233467228955
275,-4.14865853743514,-219.11219560832345,-135.48852878084335,-18.79990602618706,67.02341567618798,-5.665249813113929,257.6658784329378,69.98698352246217
276,-4.081647128406708,-219.12998716950548,-135.51060425898245,-18.8181798946093,66.85056180969453,-5.632204454456523,257.69182527668795,69.82276368540725
277,-4.016649482510316,-219.15040299998256,-135.53145979984785,-18.808677722912908,66.71276728338954,-5.566458341939987,257.7193717978894,69.68394854557091
278,-3.9538860263383535,-219.17303696089775,-135.5504248622345,-18.771229990136252,66.6138525899482,-5.469253782229394,257.74781855306134,69.57430984081319
279,-3.8935225155283635,-219.19746275222994,-135.5668454113332,-18.706058500656145,66.55689244383372,-5.342422487675063,257.7764575542605,69.49701465930671
280,-3.835680219845811,-219.22324425894024,-135.5801000485048,-18.61375694824524,66.54413866200386,-5.188335405072438,257.80458983855925,69.45454134729239
281,-3.7804477556834644,-219.24994547809322,-135.58961317934313,-18.495271274701153,66.57696624356446,-5.00984036838119,257.8315411140182,69.44861771765474
282,-3.7278938506057164,-219.27713945745853,-135.59486558005247,-18.351883194296366,66.65584401145355,-4.81019083916557,257.85667517145487,69.48018397906847
283,-3.6780799560302095,-219.30441581755065,-135.59540300873235,-18.185199078027953,66.7803302287014,-4.59296923441918,257.87940501836835,69.54938157912353
284,-3.631071642389942,-219.33138654771702,-135.59084357505483,-17.9971446850703,66.94909265556548,-4.362008251646158,257.89920182865876,69.65556777718498
285,-3.5869480268679017,-219.3576898388393,-135.5808845216832,-17.78996431325862,67.15995163600061,-4.121313253507588,257.9156018378941,69.79735438277078
286,-3.5458088207946474,-219.38299183889498,-135.56530894260146,-17.56622121222128,67.4099440711547,-3.874988228369909,257.92821136032467,69.9726678887374
287,-3.507778802656514,-219.4069864474527,-135.54399273225317,-17.32879492090024,67.69540560767537,-3.627167139091366,257.9367101852655,70.17882733824143
288,-3.473009665000888,-219.42939349233492,-135.51691168423156,-17.08087081085934,68.01206802320733,-3.3819516684523516,257.9408536116739,70.4126357478058
289,-3.4416792938793086,-219.4499557210045,-135.48414819862748,-16.825917658402197,68.35516855463577,-3.1433555797968666,257.9404732169944,70.6704807413956
290,-3.4139886270085675,-219.46843498372039,-135.44589665935183,-16.5676504955427,68.71956770419926,-2.915255273227793,257.93547620111616,70.94844016170623
291,-3.3901563401139785,-219.4846078783774,-135.40246634876,-16.309978086551908,69.0998718408103,-2.701345705257287,257.9258429535776,71.24238873122067
292,-3.3704117449001205,-219.49826108800917,-135.35428086569038,-16.056936745171935,69.4905567272545,-2.505100638958885,257.9116225112763,71.54810225811401
293,-3.354986361571093,-219.5091867807931,-135.30187341699124,-15.812614320320804,69.88608803277327,-2.3297361616877175,257.8929259037433,71.86135634833386
294,-3.3441045479131732,-219.51717876131121,-135.24587795043635,-15.581069524174051,70.28103501672047,-2.178176528251791,257.86991796548807,72.17801703943994
295,-3.3379733551096047,-219.52203034969702,-135.1870166800554,-15.366252068611734,70.6701739454573,-2.0530216508226053,257.8428087411707,72.49412120874304
296,-3.3367716157087597,-219.52353491546702,-135.12608495875216,-15.171928368330823,71.04857843927664,-1.95651595336443,257.81184577469736,72.80594507340577
297,-3.3406383117956304,-219.52148952977865,-135.06393464241276,-15.00161616579185,71.41169477819047,-1.8905188169332763,257.77730827765885,73.1100596233047
298,-3.3496605079419592,-219.51570160139852,-135.0014570834981,-14.858529688960397,71.75540111020946,-1.8564773951259728,257.7395036622407,73.40337237825655
299,-3.363861394358418,-219.5059979616317,-134.9395666811174,-14.745535167435012,72.07605039939439,-1.8554030427929638,257.69876647560295,73.68315539129681
300,-3.3831891129811846,-219.49223574406767,-134.87918550985717,-14.66511498099489,72.37049775966472,-1.8878528327457458,257.6554594602395,73.94705990775843
301,-3.4075070163859023,-219.47431446307203,-134.82122906644142,-14.619337660217198,72.63611348789293,-1.9539175746782194,257.6099762602679,74.19311852389157
302,-3.4365859125255374,-219.45218882297567,-134.76659280750084,-14.60983058134894,72.8707835859255,-2.0532174537097805,257.5627452089621,74.41973605749081
303,-3.470098731343344,-219.42588186424447,-134.7161390576533,-14.637752547696287,73.0728998440519,-2.1849059857049706,257.5142336444608,74.62567066764896
304,-3.507617914833478,-219.39549794553304,-134.670684047124,-14.70376446525257,73.24134168279407,-2.347682531932481,257.4649522011365,74.81000707670132
305,-3.548615670904661,-219.36123480242452,-134.63098513091825,-14.8079978086677,73.37545193668343,-2.539813174552466,257.4154584555433,74.97212404021299
306,-3.592467077014323,-219.3233937018499,-134.59772842802624,-14.950022197662767,73.47500863912258,-2.7591593689766865,257.36635921281174,75.1116584288802
307,-3.638455948358463,-219.28238665084496,-134.57151709175506,-15.128814780255595,73.54019470686605,-3.003213501756501,257.31831065273116,75.22846841257176
308,-3.685783432750833,-219.23873969445387,-134.5528602674955,-15.34273495829155,73.57156730337908,-3.2691403126768046,257.2720155389015,75.3225982832466
309,-3.7335794133011198,-219.19309147363143,-134.54216268064286,-15.58950816082755,73.57002858039696,-3.5538230909793636,257.22821675207115,75.39424739691151
310,-3.780916901251326,-219.146186380336,-134.53971481385517,-15.86622191822631,73.53679938538072,-3.853913622405564,257.1876865609159,75.44374550309905
311,-3.8268295781023505,-219.09886189630305,-134.54568377526385,-16.16933666128227,73.47339730521719,-4.165885000052153,257.15121133152843,75.47153634275436
312,-3.870332422914813,-219.05203010143748,-134.56010518804305,-16.494712854146044,73.3816200457049,-4.486086542031289,257.11957183543825,75.47817085851413
313,-3.9104449696254036,-219.0066538498017,-134.58287666004156,-16.83765557008206,73.26353460936078,-4.8108001447282005,257.0935198670839,75.46431071857498
314,-3.9462162924326423,-218.9637186111425,-134.61375349917387,-17.192977388811933,73.12147206331139,-5.136297449564237,257.07375235732417,75.43074212732097
315,-3.976750427180599,-218.92420136971523,-134.65234727573176,-17.555080149781308,72.95802694138763,-5.458897200338502,257.0608844655613,75.37839906001301
316,-4.001230727750052,-218.88903821694788,-134.69812765687095,-17.918055258044518,72.77605956065561,-5.775022079036545,257.0554232467001,75.30839409768446
317,-4.018941761017588,-218.85909234612672,-134.75042773647124,-18.275800859468777,72.57869884031406,-6.081254139066662,257.0577434467805,75.22205403037809
318,-4.029287765051428,-218.83512407547445,-134.80845291565203,-18.622152576841135,72.3693427065499,-6.374387773606761,257.06806683094163,75.12095651892675
319,-4.031807237589775,-218.81776434685833,-134.8712933099967,-18.95102304673544,72.15165293212118,-6.651479023045791,257.08644626240255,75.00696352362957
320,-4.026183649291709,-218.80749290020725,-134.93793966192783,-19.25654452750054,71.92954130836746,-6.909889969728971,257.11275554864164,74.88224700364646
321,-4.012252482348858,-218.80462201838313,-135.00730269168847,-19.53320847826439,71.70714437542811,-7.147327024923527,257.14668578999874,74.7493025951861
322,-3.990004804601646,-218.80928640538517,-135.0782356052141,-19.775996224013202,71.48878455104573,-7.361872110498718,257.187748569562,74.61094760917794
323,-3.9595874891090777,-218.8214394146599,-135.14955913567687,-19.980495558454212,71.27891638188437,-7.552006049809778,257.235285846503,74.47030072808037
324,-3.9213000646127507,-218.84085545925066,-135.22008818226382,-20.14299927953098,71.08205772767873,-7.716623830230852,257.2884859198105,74.330742134008
325,-3.875588085158416,-218.86713804709797,-135.28865894156078,-20.26058300528662,70.90270688506016,-7.855041703146445,257.3464044082844,74.19585431902074
326,-3.823032906602007,-218.8997326123902,-135.35415542525385,-20.33116093375052,70.7452478511488,-7.966996294114038,257.4079889595491,74.06934533053632
327,-3.7643379584129897,-218.93794322388584,-135.41553436959708,-20.353519278624027,70.61384696948976,-8.052635991845312,257.47210638560955,73.95495748735165
328,-3.7003120084226353,-218.98095229233766,-135.47184771894814,-20.32732781435131,70.5123449435089,-8.112504901155027,257.5375710559899,73.85636549123265
329,-3.6318503502943047,-219.02784248953947,-135.5222621142502,-20.25313027655534,70.4441485666956,-8.147519652157184,257.60317359259716,73.77706828113254
330,-3.559915040526857,-219.07762016988136,-135.56607511374742,-20.132314354225826,70.41212652840004,-8.158939433271488,257.66770913479206,73.72027898251136
331,-3.4855151612079633,-219.1292396098332,-135.6027280997581,-19.967061847909754,70.41851339985404,-8.148329799716311,257.7300045797562,73.68881703082634
332,-3.409687718013419,-219.18162736883846,-135.63181587935392,-19.760279498112475,70.4648254890191,-8.117521063106231,257.78894421473507,73.68500615631383
333,-3.3334794490240807,-219.23370610768535,-135.65309289550316,-19.51551123253384,70.5517917658161,-8.0685622889167,257.8434931307445,73.71058154267507
334,-3.2579296437329206,-219.28441733239234,-135.6664758605903,-19.2368332466936,70.67930257906242,-8.003672041803938,257.8927178600468,73.7666092111055
335,-3.184053977521095,-219.33274270932728,-135.67204265163411,-18.928734393732046,70.84637846212087,-7.925187036692164,257.9358038426183,73.85342057431421
336,-3.1128292391492076,-219.37772369822352,-135.67002752177407,-18.59598567656872,71.0511609425717,-7.835509841095181,257.97206952431776,73.97056510614235
337,-3.045178654337297,-219.41847923874147,-135.66081297816936,-18.24350396864281,71.29092685680378,-7.737056783728916,258.00097703551546,74.11678404330647
338,-2.9819573606493326,-219.4542212215074,-135.64491885656506,-17.8762161328405,71.56212714503785,-7.632207256166866,258.022139491848,74.2900078139373
339,-2.9239375730144452,-219.4842675712132,-135.62298908581334,-17.49893019325916,71.86045043223018,-7.52325559284205,258.03532502552457,74.4873793626621
340,-2.8717931826420218,-219.50805288177745,-135.59577644915396,-17.116220017929905,72.1809108746173,-7.412366622499747,258.04045765827175,74.70530467198624
341,-2.826083934365609,-219.52513655113745,-135.56412547615545,-16.732329129386983,72.5179587560043,-7.301535804575354,258.0376150482222,74.93953057356724
342,-2.787239767980328,-219.53520831344272,-135.52895358808556,-16.35109790182253,72.86561117162175,-7.19255465234065,258.027023099887,75.18524847024437
343,-2.755546191708825,-219.53809109971192,-135.49123079442379,-15.97591669573066,73.21759893648307,-7.086981949723686,258.0090475493657,75.43722099595259
344,-2.731131585642213,-219.53374130909114,-135.45195845991088,-15.609705622822748,73.56752474902838,-6.9861211000867565,257.9841828816957,75.68992711764496
345,-2.7139571751855343,-219.52224673674286,-135.41214774760553,-15.254919844018051,73.90902678525696,-6.891003776503779,257.9530391193541,75.93771992349009
346,-2.7038102373978443,-219.5038224556359,-135.372798245153,-14.913577773460801,74.23594143977353,-6.802379835333723,257.91632700962367,76.17499051921985
347,-2.700301032073269,-219.47880487015573,-135.3348771190342,-14.58730839565606,74.54245897112035,-6.720713205479665,257.8748419830552,76.39633118837337
348,-2.702863992084384,-219.44764405668494,-135.29929907891653,-14.277413090384664,74.82326633253788,-6.646183242158274,257.8294471335139,76.59669124990032
349,-2.7107638111958186,-219.41089447843743,-135.26690753486866,-13.984936826258831,75.07367232444568,-6.578690929895397,257.781055499064,76.77151971477004
350,-2.723107148718723,-219.3692041731607,-135.23845750565354,-13.710743276593261,75.28971121136966,-6.517869370739312,257.7306120242478,76.91688971917532
351,-2.7388606014700674,-219.3233024593171,-135.21460092415435,-13.455588345741116,75.46822199939879,-6.463098165447624,257.67907558306024,77.02960069322013
352,-2.756875283986834,-219.27398608687315,-135.19587489998864,-13.220186833284695,75.60690162700298,-6.413521535027968,257.6274012901472,77.1072552759726
353,-2.775917844140728,-219.2221037044683,-135.18269327221407,-13.005267573104177,75.70433132860757,-6.368070286372926,257.57652315545965,77.14830906756731
354,-2.7947071437478646,-219.16853863771618,-135.17534146090594,-12.811613394324263,75.75997631544992,-6.325487933116502,257.52733706511873,77.1520923491044
355,-2.811955267506389,-219.11419023259734,-135.17397422420984,-12.64008363222286,75.77415964571789,-6.284361372826731,257.48068407472664,77.11880385648803
356,-2.826411064340052,-219.0599542644615,-135.17861555869115,-12.49161855890013,75.74801175224229,-6.24315644673057,257.43733401338284,77.04947756606379
357,-2.8369041138202564,-219.0067030376354,-135.18915987887635,-12.36722680529795,75.68339762634423,-6.200258444780492,257.3979694477316,76.94592425904308
358,-2.84238686748693,-218.95526581248782,-135.205373913018,-12.267958373319887,75.58282419512204,-6.15401717629757,257.3631702258943,76.81065040350695
359,-2.841972742628536,-218.90641016845768,-135.22689928631544,-12.194867022002718,75.44933104186842,-6.102795667450744,257.3333990824568,76.64675766359406
360,-2.8349681233572657,-218.86082488417745,-135.25325619522633,-12.148966585869887,75.28636832919022,-6.04502098337866,257.3089889944894,76.45782713787456
361,-2.8208965476588728,-218.81910490232178,-135.28384873861145,-12.131186103817384,75.0976665338931,-5.979235229117929,257.2901330565895,76.24779319542557
362,-2.7995138740202843,-218.7817389774244,-135.31797244654462,-12.142328433328737,74.88710325206578,-5.904144552181181,257.2768776618443,76.02081238599722
363,-2.7708139249768116,-218.7491006801636,-135.35482449270143,-12.18303625967416,74.65857271915164,-5.8186639848636,257.26911982012757,75.78113319420916
364,-2.7350248497451903,-218.7214434708434,-135.39351707048831,-12.25376817730884,74.41586370195962,-5.721956207967601,257.26660948645235,75.53297229411702
365,-2.69259703494748,-218.69890048150373,-135.43309439900295,-12.35478605620232,74.16255102597384,-5.6134627440072205,257.26895771154994,75.28040243755362
366,-2.644183740053215,-218.681489473407,-135.4725536128316,-12.486153472235735,73.90190522933469,-5.492926644583227,257.2756511748826,75.02725623271576
367,-2.5906157938152923,-218.66912319668222,-135.51086924906636,-12.647743734818523,73.63682375164045,-5.360406364038771,257.2860731768005,74.77704891847237
368,-2.5328717431909653,-218.6616250433364,-135.54702035908346,-12.839255012057633,73.36978577087683,-5.216281115223916,257.2995305240938,74.53292190854182
369,-2.4720448465490987,-218.6587494238164,-135.58001884307018,-13.06022923754059,73.10283141423761,-5.061248453602778,257.31528512651045,74.29760747737996
370,-2.4093082535013646,-218.66020576633153,-135.60893767051894,-13.31007098503896,72.83756471341863,-4.896315053552021,257.3325887033969,74.0734136234949
371,-2.345879603098473,-218.6656845722433,-135.63293811321017,-13.58806249969494,72.57517846731112,-4.722781671132666,257.35071884460007,73.86222702948193
372,-2.2829861357866994,-218.67488369360288,-135.65129567470103,-13.893371683056035,72.31649818790937,-4.542223248457388,257.3690147329071,73.66553124819141
373,-2.221831338925731,-218.68753297573718,-135.66342474262564,-14.225050949724432,72.06204154322782,-4.356465086554777,257.38691099259586,73.48443677898626
374,-2.1635641462477557,-218.70341557110132,-135.66890198181056,-14.582026231091522,71.81208913386973,-4.167556001442952,257.40396825937,73.31971946480712
375,-2.109251672367971,-218.72238449059174,-135.66748821449917,-14.963076681391634,71.5667620348788,-3.9777393468360716,257.41989913937357,73.17186355742665
376,-2.059856278169645,-218.7443732754731,-135.65914815253558,-15.3668066282924,71.32610135334261,-3.7894227081623986,257.4345882856406,73.0411058648345
377,-2.016217454497622,-218.76940006923863,-135.64406692370545,-15.79161194156701,71.09014515669057,-3.6051469379437573,257.4481054250732,72.92747765584075
378,-1.97903867913287,-218.79756484138716,-135.62266191716097,-16.23564331993804,70.85899852982003,-3.427555005828233,257.4607103416409,72.83084147560145
379,-1.9488791485396606,-218.8290399718065,-135.5955882239248,-16.696769126689198,70.63289319435833,-3.2593608764891484,257.47284907023044,72.75092071788237
380,-1.9261501713881952,-218.864054743953,-135.56373609412796,-17.172540464584934,70.41223400547909,-3.103318342857204,257.4851409139351,72.68732066821752
381,-1.911115980252586,-218.9028744940473,-135.52821944746404,-17.660161266672965,70.19763060530246,-2.96218950424419,257.49835638483324,72.6395406753611
382,-1.9038986377891032,-218.9457752400021,-135.49035537417475,-18.156466324274486,69.98991342711041,-2.8387124378164845,257.51338670234475,72.60697800632343
383,-1.9044865417818835,-218.99301460622695,-135.45163542748125,-18.6579103514336,69.79013406822288,-2.7355675655005403,257.53120592548606,72.58892474312243
384,-1.9127458670459032,-219.04479985725578,-135.41369007152161,-19.160571340868966,69.59955080136135,-2.6553422710001335,257.55282708196023,72.58455979333782
385,-1.9284342214853665,-219.10125392353052,-135.378247811292,-19.660171530956543,69.41960065758978,-2.6004935293852722,257.5792537947419,72.59293868110542
386,-1.9512158445556327,-219.1623804171509,-135.34709034515328,-20.152119189444175,69.25186001220034,-2.5733087283931284,257.6114288993054,72.61298416758135
387,-1.9806777771977606,-219.2280287481952,-135.32200474365933,-20.631574010852777,69.0979958688997,-2.575865444683073,257.65018145766425,72.64348082213994
388,-2.0163465139220795,-219.29786058519687,-135.30473347072376,-21.093538116024156,68.95971006087797,-2.609991539923297,257.69617358552483,72.6830763878546
389,-2.0577046823246303,-219.37131906364658,-135.29692321190703,-21.5329734514908,68.83867842020672,-2.677227387878769,257.7498487209031,72.73029220060435
390,-2.104207299418632,-219.4476022572089,-135.30007384933947,-21.944944985508645,68.73648667553346,-2.778792234489666,257.8113832530906,72.78354413019261
391,-2.1552971414486626,-219.5256424051109,-135.31548927689417,-22.324787688704834,68.65456448762455,-2.9155566259944043,257.88064359952733,72.84117462696881
392,-2.2104187231745533,-219.60409221671696,-135.34423198263573,-22.668294003533074,68.59411870099692,-3.0880225713808938,257.95715079562655,72.90149559335715
393,-2.269030311831835,-219.68131927881714,-135.38708343036984,-22.971917444858992,68.55606665362706,-3.296312696082149,258.0400544691482,72.96284106398198
394,-2.330613343790672,-219.75540926438345,-135.44451210588997,-23.232987192832738,68.54097028118028,-3.540169132578824,258.12811771147403,73.02362812852552
395,-2.3946786460984013,-219.82417845220297,-135.5166504780498,-23.449927968252194,68.54897176539242,-3.8189623099906074,258.2197138856007,73.0824241421813
396,-2.460769031762652,-219.88519611786003,-135.6032811758595,-23.62247891547995,68.57973156632617,-4.1317091988108,258.3128359738506,73.13801794690222
397,-2.528458079557714,-219.9358175293542,-135.70383184119157,-23.7519044658123,68.63236979569584,-4.477100009204514,258.40511879464077,73.18949247660551
398,-2.597345130985633,-219.97322832921535,-135.81737777001294,-23.841189182058557,68.70541200862564,-4.853531899441591,258.49387429765864,73.23629571615584
399,-2.6670467393204786,-219.9945008568561,-135.94265159792397,-23.895207547464867,68.79674062027485,-5.259147970913614,258.5761400475687,73.27830658748725
400,-2.7371850685887713,-219.9966624689778,-136.07805960081117,-23.92085880919111,68.90355328335413,-5.691879709837424,258.6487407707805,73.3158920207154
401,-2.8073740515045467,-219.97677526648528,-136.2217043941456,-23.927156528216507,69.02232965227164,-6.149491029772039,258.708362421173,73.34995126414474
402,-2.8772043403851595,-219.93202599608063,-136.37141389067259,-23.92526252212417,69.14880799026017,-6.629622101523482,258.7516377372176,73.38194341379226
403,-2.946228155908342,-219.85982438292794,-136.52477640879,-23.92845544047612,69.27797307604234,-7.12983119783114,258.775241863995,73.4138942487248
404,-3.0139451419120493,-219.7579077570321,-136.6791818400076,-23.952025307584947,69.40405687056216,-7.647632859006729,258.77599630573485,73.44837880175524
405,-3.0797903482857207,-219.62444945959845,-136.8318687069202,-24.013087041818174,69.52055342253956,-8.18053085345204,258.75097913289613,73.48847671831687
406,-3.143125425213293,-219.4581680834927,-136.9799767002697,-24.130308231154686,69.62024951558075,-8.726044686169914,258.6976388908657,73.53769837330688
407,-3.2032339326150536,-219.25843414188117,-137.1206039148241,-24.323549257370153,69.6952725576606,-9.28172878262475,258.61390908783983,73.59988088596707
408,-3.2593213873824736,-219.02537040735155,-137.25086764993023,-24.613417064834202,69.73715713590713,-9.845183923261555,258.4983196665614,73.67905449674086
409,-3.3105204093342797,-218.75994207620693,-137.3679674157186,-25.020737251051735,69.73693147136687,-10.414061012603382,258.3501016812449,73.77928113247404
410,-3.3559011666713294,-218.46403311457098,-137.46924869032475,-25.565952507719167,69.68522472669578,-10.986057791609518,258.16928152912203,73.90446831249098
411,-3.3944872466542177,-218.1405055113435,-137.5522659496033,-26.268458591506473,69.57239582319765,-11.558909555144915,257.9567613899311,74.05816282550897
412,-3.4252769681184456,-217.7932385776779,-137.61484351602974,-27.14589180320144,69.38868421478081,-12.130375256163921,257.71438289069533,74.24332985688473
413,-3.4472698816165153,-217.427145878875,-137.65513287185104,-28.21338429192555,69.12438299214726,-12.698220593397982,257.44497143591934,74.46212446646895
414,-3.459497784418604,-217.04816789854033,-137.67166527954717,-29.482805345428133,68.77003469529924,-13.2601998873848,257.1523591692396,74.7156634572134
415,-3.4610591669584125,-216.66323910301165,-137.66339884972163,-30.962008198868485,68.3166501691848,-13.814038826792753,256.84138515092656,75.00380663405444
416,-3.451155739984382,-216.28022861373296,-137.6297595619635,-32.65410281782184,67.75595058108989,-14.357420475430102,256.51787196126895,75.32495711478921
417,-3.4291295753864492,-215.9078541233548,-137.57067610678766,-34.55677563533111,67.08063227264634,-14.88797711396048,256.1885784645505,75.67589065237415
418,-3.3944993555309493,-215.5555689932276,-137.4866086704494,-36.661677443832836,66.28465346603814,-15.403290405678716,255.8611288222301,76.05162388530817
419,-3.3469942154717653,-215.23342270198063,-137.37857185451716,-38.95390063799516,65.36354102020009,-15.900902033176042,255.5439180342531,76.4453311069947
420,-3.286583700072223,-214.95189504371135,-137.2481518105826,-41.411566766383785,64.31471443736491,-16.378336481409622,255.24599437205538,76.84831854701892
421,-3.213502517549751,-214.72170471332797,-137.09751742357992,-44.00554481310976,63.137823150309615,-16.83313711808852,254.9769190832463,77.25006426302693
422,-3.128269111374033,-214.55359315211462,-136.92942507472645,-46.69931972588098,61.83509182242397,-17.262916107469085,254.74660372902713,77.6383305488061
423,-3.0316975426392414,-214.45808480745876,-136.74721628513205,-49.44902937503428,60.41166702448217,-17.665417965854466,254.56512557143859,77.99935428915136
424,-2.924902594298387,-214.44522540544025,-136.55480747281476,-52.2036863065953,58.87595721981335,-18.038595811918928,254.44252170516177,78.31811892687179
425,-2.809298193260278,-214.5243005361449,-136.356671084488,-54.905598255798346,57.239956478902876,-18.380698714566655,254.388563169804,78.57870962132579
426,-2.6865891713378756,-214.7035377887733,-136.15780734674294,-57.4909983176448,55.519540808989596,-18.690368088660858,254.41251099071314,78.76475078100994
427,-2.5587562218836664,-214.98979671224245,-135.9637058124688,-59.8908918727712,53.734724543272705,-18.96674087720108,254.52285686589732,78.85992252089163
428,-2.4280338816476816,-215.38825186842095,-135.78029590983135,-62.03212288492475,51.90986297155049,-19.209557280659357,254.72705200476946,78.84854981866549
429,-2.2968815493362573,-215.90207515074343,-135.61388590105722,-63.83865718119577,50.073786322266514,-19.41927097787144,255.03122843885276,78.71625530390291
430,-2.1679478003922674,-216.53212441916057,-135.47108987513886,-65.23307502765815,48.25984935970675,-19.597160009154518,255.43991793457903,78.45066383267822
431,-2.0440283777359434,-217.27664635766544,-135.358742467045,-66.13825991629665,46.50588036809069,-19.74543665869892,255.9557743586316,78.0421444505327
432,-1.9280181845042625,-218.13100219848477,-135.28380095166298,-66.47926507374147,44.854013334795994,-19.86735474061784,256.5793059168819,77.48457318412737
433,-1.82285749504848,-219.08742553777793,-135.25323436037394,-66.18533382079349,43.35038787356068,-19.96731267349841,257.3086241628058,76.77609843410603
434,-1.7314725823632788,-220.13482198100178,-135.2738994397756,-65.19204461642826,42.04470296031827,-20.050950645294957,258.13921719907717,75.91988965765734
435,-1.6567111024516372,-221.2586208600141,-135.35240368799984,-63.44354650021583,40.98961298141792,-20.1252400626726,259.0637551676661,74.92484961150255
436,-1.6012728331957478,-222.44068964910997,-135.49495633256288,-60.894845743136685,40.23995798826621,-20.19856343248599,260.0719368311172,73.80627071364363
437,-1.5676366049702526,-223.65932177439703,-135.70720879970176,-57.514099787271256,39.85182443326083,-20.280782922309758,261.1503865400035,72.58641701912042
438,-1.5579844022732134,-224.88930810212491,-135.99408688619383,-53.28486993773241,39.881437969784926,-20.383296066563588,262.28261098132066,71.29501473991942
439,-1.5741237509993806,-226.10210142634864,-136.35961760774086,-48.208279766311115,40.38389600638844,-20.519077292375023,263.4490248101738,69.96963599268841
440,-1.6174097893491781,-227.26608173842217,-136.8067546819801,-42.30502187876097,41.41175441855539,-20.70270402431438,264.62705363286005,68.65596236988875
441,-1.688668874561974,-228.3469279863844,-137.33720770064292,-35.61715173963485,43.013489870450165,-20.95036607970213,265.79132180537266,67.40791685968063
442,-1.78812607750881,-229.30809949923614,-137.9512810661062,-28.2096039090653,45.23186628107257,-21.27985693402281,266.91393110051627,66.28765450800883
443,-1.9153393147727782,-230.1114273465165,-138.64772966273014,-20.171363770733635,48.102240826183866,-21.71054525157212,267.96483452295587,65.36540407448072
444,-2.0691430854477995,-230.71781263656263,-139.4236390109378,-11.616227195279226,51.650851302772566,-22.263324818238438,268.91230742294084,64.71915493658358
445,-2.247604824846599,-231.08802501380512,-140.27433818100974,-2.6830821729519796,55.89313251795726,-22.960540618277207,269.7235154062078,64.43418580376138
446,-2.4479967992951397,-231.1835903008076,-141.19335380177168,6.464349199178999,60.832114391595034,-23.82588824248451,270.3651751553028,64.60243453426821
447,-2.666786235015912,-230.96775144847,-142.17241300333802,15.638362389262364,66.4569584289318,-24.884283189193386,270.80430020351037,65.32171159326191
448,-2.899645934102223,-230.40648198818803,-143.20150218161297,24.62875855464288,72.74169185281603,-26.161696072688503,271.0090192188907,66.6947634829522
449,-3.1414869580470706,-229.4695263219742,-144.26898715263673,33.2049969301018,79.64419971433037,-27.684949401771338,270.94944975332385,68.82819672249173
450,-3.3865141419227704,-228.13143666854006,-145.3617985373108,41.11902070349356,87.10553442911538,-29.481471485308784,270.5986058522459,71.83127737564037
451,-3.6283043747760257,-226.37257249501283,-146.46568395653225,48.10874383059987,95.0495990451198,-31.579003169483684,269.933313490889,75.81462523141283
452,-3.859906800908778,-224.1800250724114,-147.56552567259334,53.902161981058356,103.3832547123598,-34.005253512720635,268.93510364140917,80.88882489988897
453,-4.073963324011513,-221.54842783089148,-148.64571862529522,58.22202505425705,111.99689387425768,-36.78750118966746,267.59104920970816,87.16297760933564
454,-4.2628470203324955,-218.48061302213077,-149.69059954515953,60.79098280939264,120.76550827748865,-39.952139444000764,265.8945096677629,94.7432168162074
455,-4.418815404426218,-214.98807735830513,-150.68491332785064,61.337090826482694,129.55026487161155,-43.52416383558584,263.8457465761436,103.7312077332844
456,-4.534175123614724,-211.09122407119978,-151.61429854021645,59.599543135406876,138.20058339940238,-47.526603921253866,261.4523747859773,114.2226462178453
457,-4.601454662477291,-206.8193560964518,-152.46577031738036,55.334481985909406,146.55668798261019,-51.97990249099978,258.7296180737598,126.30576762853791
458,-4.613581893514914,-202.2104043811532,-153.22817667462436,48.32072505090569,154.45258287665285,-56.901249143230615,255.70034424059588,140.05987294958277
459,-4.564063581194538,-197.31038603380716,-153.89260407404217,38.365245396213936,161.71938168237804,-62.30387871226341,252.39486314005458,155.55387880929476
460,-4.447164054792778,-192.17259848809388,-154.45271030187516,25.30823862311666,168.18890147639775,-68.19634897807305,248.85048130691288,172.84490021384192
461,-4.258080133123411,-186.85656723657186,-154.90496708739494,9.027613680734788,173.69741992085758,-74.58181571310298,245.11081808546004,191.97687949247975
462,-3.993108952429066,-181.42677526879376,-155.2488006660721,-10.557250922561533,178.0894850474941,-81.45732616115616,241.224899411171,212.97928152566786
463,-3.6498045358849227,-175.95121170185996,-155.48662473045238,-33.48263369579,181.22166382166512,-88.8131545284014,237.24605584914045,235.86588315820333
464,-3.227117749317752,-170.49978510873726,-155.6237661665648,-59.7386099848098,182.96611587149718,-96.6322052347807,233.23066063637964,260.6336929561149
465,-2.725512926602801,-165.14265361942896,-155.66828916766679,-89.26830749477566,183.21388187461744,-104.88951173952694,229.23675097340214,287.2620450026078
466,-2.1470533276326464,-159.94852864675423,-155.6307275107705,-121.96834065235217,181.87778145866923,-113.55186068806813,225.32258128931286,315.71191574844255
467,-1.4954471425735245,-154.9830115410744,-155.52373795026668,-157.6904375735302,178.8948233739166,-122.57757253618793,221.54516030362123,345.92551427884126
468,-0.7760462402386256,-150.30702210452426,-155.36169000086903,-196.2442175718575,174.2280421956845,-131.91646999976246,217.95882424525527,377.82619205225234
469,0.00420873331483853,-145.97537439524066,-155.16020904934595,-237.4010200372591,167.86769217200674,-141.5100638994819,214.61389656910566,411.3187072139185
470,0.836901178988402,-142.03554861698055,-154.93569075178874,-280.8986329421534,159.831750734051,-151.29198163014104,211.5554800074491,446.2898613053096
471,1.7123109500611489,-138.52669850304906,-154.7048048422822,-326.4467265145858,150.16571122593817,-161.1886562567855,208.82241998706272,482.6095044178125
472,2.6196450199604326,-135.47892228902373,-154.48400564344425,-373.73276847970396,138.94167503680896,-171.12028406477816,206.44646979452787,520.1318814699555
473,3.547321900451537,-132.91281318862715,-154.289064795473,-422.42818316700107,126.25678514332238,-181.00204550436845,204.45167812045153,558.6972703095623
474,4.483302151309993,-130.83929319033507,-154.1346392418567,-472.19451714747845,112.23107333390432,-190.74556950346243,202.85400951631328,598.1338440408856
475,5.415454526773697,-129.25972262501364,-154.03388462214556,-522.6893871988748,97.00481945462589,-200.260605146821,201.66119845596077,638.2596768018276
476,6.33194505828288,-128.16626769734782,-153.99812126308342,-573.5720102704079,80.73554078797892,-209.45684913166045,200.87282858052978,678.8848050975781
477,7.221634705031961,-127.5424992529342,-154.03655723460525,-624.5081477318794,63.594741777011244,-218.24586368733003,200.48062068342546,719.8132563703148
478,8.07447003845868,-127.36418865312237,-154.15607059392167,-675.1743355450695,45.76455813937972,-226.54300912076528,200.46890627789887,760.8449630291403
479,8.881850712324123,-127.6002609539439,-154.36105098608851,-725.2613159511143,27.434425118628425,-234.26930887436205,200.8152583052475,801.7774934325543
480,9.636957248929942,-128.21386181000295,-154.6532991838141,-774.4766325359634,8.797887935884809,-241.35316367137082,201.49124677911152,842.4075504734199
481,10.335023020203721,-129.16349272664863,-155.03198192777472,-822.5463968041663,-9.950345449557224,-247.73183524859286,202.4632849712417,882.53221212881
482,10.973535219958102,-130.40416945631253,-155.49363857268324,-869.216278444753,-28.617032090019116,-253.3526291184675,203.69353113170033,921.9499148929319
483,11.552351088789095,-131.88856042663255,-156.032235553457,-914.2518112174589,-47.012651606372664,-258.17371918893764,205.14081168486175,960.4612084305785
484,12.073717793676906,-133.56806598047112,-156.63926453110577,-957.4381398852029,-64.9532712835277,-262.16457419507026,206.76153428420005,997.869335970793
485,12.542187417410934,-135.39380468902698,-157.30388019249907,-998.5793592082885,-82.26202502312623,-265.3059660194435,208.5105628935038,1033.9807178644298
486,12.964422578049769,-137.3174798085597,-158.01307396102283,-1037.4976124113155,-98.7702392587475,-267.5895622484477,210.34203197058994,1068.6054334866767
487,13.34889313544761,-139.29210679433203,-158.75188019078365,-1074.032122891024,-114.31826203360478,-269.0171286424462,212.21008257026804,1101.5578076618524
488,13.705469951825973,-141.27259126943318,-159.5036116669649,-1108.0383289896129,-128.75606929308995,-269.59939020369745,214.06950939777903,1132.6572108444493
489,14.04492734580564,-143.21615548902824,-160.2501214277289,-1139.3872778887826,-141.94373406061607,-269.354620621411,215.8763141651635,1161.7291769104938
490,14.378371201115613,-145.0826196721741,-160.97208810739397,-1167.9654122957938,-153.7518491750642,-268.3070475158275,217.58816668637516,1188.6069289032841
491,14.71661415944703,-146.83455215721966,-161.64932221896763,-1193.6748543723002,-164.0619928268305,-266.4851738105795,219.16478067143473,1213.1333824761039
492,15.069522636818173,-148.43730871509587,-162.2610911672768,-1216.4342574518394,-172.7673186986295,-263.9201227655529,220.56821589452332,1235.1636706803054
493,15.445362504763363,-149.85898608858162,-162.78646151006615,-1236.1802598580455,-179.77333963898903,-260.6441150065913,221.76312217174558,1254.5682041221926
494,15.850171238796895,-151.0703176618068,-163.20465814965053,-1252.8695389076693,-184.99895598201786,-256.6891798998325,222.7169433157015,1271.236249446
495,16.287184215828706,-152.0445401640768,-163.49544152208856,-1266.4814289961198,-188.37775742039867,-252.086190854207,223.40010085051986,1285.079978543396
496,16.75634168905434,-152.7572597692025,-163.63950493895422,-1277.0210370147124,-189.85960152511913,-246.86429513725648,223.7861776189712,1296.0389124208923
497,17.253900837318515,-153.18634416128,-163.61889451062663,-1284.5227619729465,-189.41244384891766,-241.0507846535192,223.85212033159556,1304.0846582461745
498,17.77217421770379,-153.3118642845771,-163.417453342805,-1289.0541033099325,-187.02436587297265,-234.67142641127603,223.57847759344295,1309.2258158082323
499,18.299411973956964,-153.1161057467756,-163.02129000322532,-1290.7196226064648,-182.7057200343265,-227.7512419342167,222.94968616494165,1311.5129095099298
500,18.819840326299982,-152.58366541966157,-162.41926859479,-1289.664904260238,-176.49128784203504,-220.31569567439655,221.95441332222538,1311.0431825070937
501,19.313863311941486,-151.70164379872955,-161.60351409549622,-1286.0803404101014,-168.44232942324925,-212.39222560027056,220.58595723150037,1307.9650693797703
502,19.758428624651646,-150.4599380225806,-160.5699221270581,-1280.20454328441,-158.64839199802356,-204.01202638787916,218.8427003080062,1302.482142410127
503,20.12755192909683,-148.85163394466088,-159.3186574700578,-1272.3271649882709,-147.22874147008383,-195.2119783389552,216.7286028345357,1294.8563051491853
504,20.392987549655636,-146.8734884241268,-157.85462105710494,-1262.7908828455152,-134.33328564835895,-186.0366039659552,214.25371620629707,1285.409987826829
505,20.525027430498604,-144.526485574253,-156.1878614705457,-1251.9922912595277,-120.14286906478667,-176.53992928995933,211.43468786420226,1274.527085623384
506,20.493405161241643,-141.81644373706894,-154.33390468450145,-1240.3814326996705,-104.8688368476183,-166.78712817596397,208.29522412813833,1262.652376611327
507,20.26827790463403,-138.75464394505872,-152.3139752573132,-1228.4597047794216,-88.75178721902383,-156.8558352304084,204.86647333997448,1250.2891648299653
508,19.821256343580952,-135.35844582263303,-150.15508353546852,-1216.775900681628,-72.05945747314692,-146.8370255025727,201.18729023993419,1237.9949183151657
509,19.12645129799458,-131.65185340442818,-147.88995665981864,-1205.9201785273676,-55.08371558099145,-136.83537680452483,197.30434340359574,1226.3747137878418
510,18.1615053883236,-127.6659913993874,-145.55679608018,-1196.5158125108633,-38.13665801971822,-126.969051977209,193.27203082381484,1216.072359727364
511,16.908578908428687,-123.4394521908119,-143.19885050849427,-1189.2086541738502,-21.54584343549284,-117.36886283261816,189.15217412770406,1207.7591470368302
512,15.355260727594635,-119.0184753462531,-140.86380033956874,-1184.6543240665962,-5.64872084432653,-108.17680373100772,185.01346910451016,1202.1202694032202
513,13.495377324877904,-114.45692448868226,-138.60295722236657,-1183.5032588478289,9.213660161478078,-99.54396977631026,180.93067880132625,1199.8390603978496
514,11.329675666955884,-109.81603094231166,-136.47029043856824,-1186.3838520505947,22.703541667981668,-91.62790140077719,176.9835651013879,1201.5793068523765
515,8.866358308736594,-105.16387961668524,-134.52129968870997,-1193.8840429026334,34.493809591910086,-84.5894225678883,173.25556510379857,1207.966012779512
516,6.121451699559653,-100.57462017219684,-132.8117613024594,-1206.5318208753608,44.27563759854956,-78.58906278977821,169.83222937335077,1219.5650993051793
517,3.1189911590601267,-96.12739553384372,-131.39638134038688,-1224.7752179831568,51.76623122616097,-73.78317249588392,166.79944980056138,1236.86262776751
518,-0.108991749412103,-91.90499005755738,-130.3273942894294,-1248.9624503066743,56.71646035209378,-70.31985600926879,164.24151503092816,1260.2442194719592
519,-3.5226916526162158,-87.99221086106263,-129.65314990814946,-1279.3229392887174,58.918152082320596,-68.33485571697989,162.23904088043213,1289.975411239271
520,-7.074971577381927,-84.47402774197182,-129.4167330580177,-1315.9499874016672,58.21080545401324,-67.9475245138796,160.8668315275947,1326.1837263940401
521,-10.712031887464315,-81.43350927187855,-129.65466193278093,-1358.7858982200287,54.487485091832134,-69.25702126350619,160.19173417104153,1368.8432528705416
522,-14.374308549009326,-78.94960446272493,-130.39570905534984,-1407.6103152315286,47.69965430808807,-72.33885639404363,160.2705549153794,1417.762501426053
523,-17.997597302447,-77.09483024531656,-131.65988695998306,-1462.0325053033944,37.8607203352247,-77.24190282847871,161.148106640949,1472.5762662754785
524,-21.514392446490334,-75.93293431652832,-133.45763669130787,-1521.4882308320782,25.048086687715777,-83.98597243968956,162.85546021289974,1532.7421273447446
525,-24.85541928540678,-75.51661012565778,-135.78925206398904,-1585.2417393931285,9.403541209096707,-92.56004119893313,165.4084681835743,1597.5421181976512
526,-27.95132833325701,-75.88534540340493,-138.64456607799733,-1652.3932524553165,-8.868146067932372,-102.9211878874623,168.80662487769177,1666.089937952204
527,-30.734508008870318,-77.06348744944272,-142.00291819743975,-1721.8921580243004,-29.50248361574606,-114.99429214585543,173.03231847166023,1737.3439116636514
528,-33.140961875812394,-79.05860729440805,-145.83341262303944,-1792.5559098553697,-52.18037803763723,-128.6725181981962,178.050519632834,1810.1257051552889
529,-35.1121875039923,-81.86024074444414,-150.09546842857247,-1863.0944134153615,-76.53503748973442,-143.8185913127826,183.8089378322928,1883.1445815592508
530,-36.59698763300557,-85.43907713768213,-154.73965274244685,-1932.1394430959324,-102.16050476181968,-160.26685531065192,190.23866115102422,1955.0267538649423
531,-37.55314123501354,-89.74665642324656,-159.7087783489099,-1998.2783954808149,-128.6215878594427,-177.82608113249583,197.2552790469514,2024.3491488610962
532,-37.94886287806694,-94.71562199020168,-164.93923747052256,-2060.091451223053,-155.46488353121387,-196.28297797117537,204.76047099101334,2089.6766639732696
533,-37.763983834845185,-100.26056061656276,-170.36253438328484,-2116.1910066145224,-182.23052717399295,-215.40633879138656,212.64402789445975,2149.6017829818093
534,-36.99079769660355,-106.2794420873007,-175.90697126159236,-2165.262059538023,-208.46425546129248,-234.95173052642232,220.78625845285785,2202.7852343102722
535,-35.63452645455006,-112.6556495809114,-181.499434691316,-2206.1021072303774,-233.72933954403834,-254.66661617820927,229.060719323925,2247.996241495096
536,-33.71337932306527,-119.26056814723535,-187.067225214973,-2237.659047384787,-257.617939065159,-274.29577292823745,237.33719669224857,2284.1508429036758
537,-31.25819491264314,-125.95667315530378,-192.5398698109613,-2259.065578416571,-279.7614412866633,-293.5868494261011,245.48485747629758,2310.346756549669
538,-28.31167643365528,-132.60103452755425,-197.85085792781538,-2269.668673407205,-299.83938476224597,-312.2958889729324,253.37548129556563,2325.893340818994
539,-24.927248112080814,-139.0491272978376,-202.93924559971276,-2269.0528543145247,-317.58662159373023,-330.1926351963728,260.88667914326584,2330.3353523960436
540,-21.16757779393266,-145.15881631575684,-207.75107867778632,-2257.0562124465964,-332.7984441816261,-347.06543409961364,267.9050012027269,2323.4694227194345
541,-17.102825041916468,-150.79436492683058,-212.24059447589764,-2233.7783975400735,-345.3334890733545,-362.72555147662183,274.3288344837575,2305.3524534722933
542,-12.808685413508389,-155.83030667959818,-216.37117023532707,-2199.580117096526,-355.1143294217497,-377.01073795530937,280.07099168763403,2276.301455935744
543,-8.364309578367562,-160.15501808258827,-220.11599588047144,-2155.074033215033,-362.1257756230285,-389.78789626273436,285.0608972299534,2236.884711843202
544,-3.8501799433963213,-163.67384085903848,-223.45845704418576,-2101.107297812504,-366.4110167833805,-400.9547379486116,289.24628608519805,2187.904496420756
545,0.6539728552328444,-166.31162387639384,-226.39222233867278,-2038.7363110172969,-368.065847895517,-410.4403600479989,292.5943469507488,2130.3719592842144
546,5.0711359065381565,-168.01458574426866,-228.92103667199788,-1969.1946060546231,-367.2313309873237,-418.2047242618547,295.0922628239814,2065.4750889854586
547,9.32879352235054,-168.7514354355959,-231.05823027653028,-1893.855044330007,-364.0853234127955,-424.2370788091262,296.7471277825816,1994.5409777116724
548,13.360463642827547,-168.51372630147978,-232.82596108187948,-1814.1877358354595,-358.83336325809165,-428.55342243125557,297.5852461580815,1918.9938413846635
549,17.106949272310967,-167.31545498409272,-234.25421619902502,-1731.7152725884787,-351.69942305111164,-431.19316742327936,297.6508470183883,1840.3104261495548
550,20.517279245513514,-165.1919483250524,-235.3796066523827,-1647.9669678919124,-342.9170251544837,-432.21520960975283,297.0042711017671,1759.9745357791378
551,23.549329323982573,-162.19810709224532,-236.2439979288616,-1564.4338255744085,-332.72115694751903,-431.69365237020463,295.7197080117296,1679.4324395450467
552,26.170130982683077,-158.40609526021262,-236.89302675489986,-1482.525918320378,-321.3413373346614,-429.71345359631675,293.8825781007628,1600.0508640311737
553,28.35589019620791,-153.902578526526,-237.3745606516196,-1403.5337336234568,-308.9960775353996,-426.36626492552324,291.5866656553335,1523.0791364149502
554,30.091750901680403,-148.78562655169796,-237.73716004501355,-1328.5948542805122,-295.88885917364485,-421.7467105675575,288.9311171948748,1449.6168360016131
555,31.371346742050537,-143.16140044316364,-238.02860222596775,-1258.6670860744348,-282.20563229562,-415.94931020013536,286.01742040599424,1380.588034766485
556,32.19618990095261,-137.14075027306146,-238.2945221161039,-1194.5088409182017,-268.1137255352453,-409.0661908428811,282.9464753099659,1316.7228809717944
557,32.57494749947739,-130.83584679134466,-238.57721693944674,-1136.6672456395524,-253.76196922255266,-401.1856621654055,279.8158599673906,1258.5469223564726
558,32.5226544702575,-124.35696677880186,-238.9146511768234,-1085.4740941225364,-239.28176621330044,-392.3916551222028,276.71737893202646,1206.3782004021136
559,32.059907441978446,-117.8095424693356,-239.33968554603933,-1041.04941455378,-224.78880778318808,-382.76395194570136,273.73496470052817,1160.3317987808634
560,31.212077448816196,-111.29157200593993,-239.8795403754642,-1003.3121044086461,-210.38512319602023,-372.3790725657857,270.942981832321,1120.331218313694
561,30.008570825732576,-104.89146998645069,-240.555490767999,-971.9968111038002,-196.16116924473044,-361.3116337175144,268.4049616760066,1086.125693252213
562,28.48215808894096,-98.68641517679825,-241.38277938039502,-946.6760187353892,-182.19770625900034,-349.63596634307777,266.17277422029,1057.3123690957907
563,26.668380527077982,-92.74122741971067,-242.37072329528274,-926.7861481343573,-168.56726482742513,-337.4277666224222,264.28622393566746,1033.3621345660874
564,24.60503423517707,-87.10777924974919,-243.52298494808875,-911.6563903240262,-155.3350770997772,-324.7655661770043,262.77303983314,1013.6478390601411
565,22.331722059807607,-81.82492164972679,-244.83797372781007,-900.538969854954,-142.55942161985786,-311.73183573082747,261.64921721242973,997.4736273230054
566,19.889456109393826,-76.91887970389122,-246.30934474318235,-892.6395692003956,-130.29140429809692,-298.41358028708015,260.91966015205253,984.1041781656584
567,17.320287832595376,-72.4040543664881,-247.92656400781325,-887.146731874019,-118.5742635589878,-284.9023383226737,260.5790696946636,972.7927357769236
568,14.666939772036237,-68.28415228832733,-249.67551417701574,-883.2591931355763,-107.44233907163374,-271.29355795717737,260.61302236169973,962.8069626420119
569,11.972413305601034,-64.5535568781566,-251.53912085049345,-880.2102555467059,-96.91987683866405,-257.685384634842,260.9991860916768,953.4518146090124
570,9.279549938497787,-61.19885022934758,-253.49798524072787,-877.2885236317808,-87.01985715767516,-244.17695205894995,261.7086248527736,944.0888329816227
571,6.630529535778617,-58.200396947098014,-255.53101395002935,-873.8545274606939,-77.74302670316366,-230.86631502032984,262.70714827055815,934.1514562256365
572,4.066296635681513,-55.53390716883061,-257.61604029502206,-869.3529879882514,-69.07729401910304,-217.84819455249078,263.9566682158289,923.1561647478302
573,1.6259150151886907,-53.17190695306868,-259.7304338233365,-863.3206959638678,-60.99761228753487,-205.21172026897486,265.4165300868415,910.7094760406738
574,-0.6541397089212208,-51.08505906534018,-261.85169525402176,-855.3901798046969,-53.46642798787335,-193.0383519955061,267.04479210242243,896.5109943776669
575,-2.7407302445273265,-49.2432948257956,-263.9580330911417,-845.289515238355,-46.4347231441623,-181.40014440048813,268.79943085135284,880.3528796545028
576,-4.604822815894529,-47.61673646967726,-266.0289159327132,-832.8387715262584,-39.84362716702683,-170.3584863049641,270.63945525807225,862.1162254788954
577,-6.222232476311237,-46.17640765781078,-268.04559162871226,-817.9436892942769,-33.62652708831774,-159.96340348624437,272.52591393070713,841.7649213274351
578,-7.574308305104449,-44.89474579347881,-269.991561619786,-800.5872408227993,-27.71156699666145,-150.25346393261273,274.42278271788956,819.3376152770745
579,-8.648515386550025,-43.74594229911677,-271.85299655494504,-780.8197361465292,-22.024402165233532,-141.25627238999144,276.29772047602387,794.938393969424
580,-9.438870775505263,-42.70614491220553,-273.6190780343209,-758.74811139894,-16.491062447278765,-132.9894915358397,278.1226818950067,768.726759570072
581,-9.946194602841476,-41.75355894912231,-275.28225140869876,-734.524975571664,-11.040782699316933,-125.46228449721961,279.87437732530015,740.9074163080958
582,-10.178145060552382,-40.86848280592061,-276.8383762742026,-708.3379061711739,-5.608672843988075,-118.67704099054771,281.5345715813526,711.7202903082275
583,-10.149016817387457,-40.03330779272115,-278.2867646501223,-680.3993825739481,-0.1381226411068709,-112.63122945366104,283.09021710024433,681.4311057426262
584,-9.87929575031111,-39.232504960531244,-279.6301014930524,-650.9376381864482,5.417138148644793,-107.31921175486657,284.5334215453362,650.3227380229229
585,-9.394977732265856,-38.452612990293986,-280.8742476476858,-620.188608033128,11.091378315319709,-102.73386597322207,285.86125549082567,618.6874699977242
586,-8.726674283851944,-37.68223253529793,-282.02793105821786,-588.3890546622803,16.90563423130412,-98.86788534017533,287.0754116109861,586.8201969569494
587,-7.90854175713467,-36.91202470347111,-283.1023376842265,-555.7708776720931,22.86692353687857,-95.7146550176698,288.1817323203246,555.0125650064249
588,-6.97708210244384,-36.13470557559038,-284.1106187324014,-522.5565535524672,28.967906040576516,-93.26864923886707,289.1896276587888,523.5479864915267
589,-5.969871193127874,-35.34502547248787,-285.0673351238656,-488.9556129696656,35.18698838710086,-91.52533550135189,290.1114090359392,492.69745429359585
590,-4.924274582394931,-34.53972146812789,-285.9878631665104,-455.1620399845758,41.488866422499235,-90.48061608698758,290.9615669833248,462.7160706568927
591,-3.8762104152436683,-33.717434243517076,-286.88778692456873,-421.35246887804715,47.825496988288414,-90.12987633601179,291.75602220048233,433.8402114492142
592,-2.8590154597080586,-32.87858498854001,-287.7823027287888,-387.68505591406614,54.137486652344336,-90.46674029848766,292.5113789397864,406.2852590504087
593,-1.9024634814142698,-32.025213402469554,-288.6856598664059,-354.29891216652476,60.35587703504688,-91.48165506430625,293.2442083191243,380.24385241950773
594,-1.031976033667608,-31.160782618701642,-289.61065909302675,-321.3139963280246,66.40429392090388,-93.16043414926469,293.9703867255109,355.88461800833676
595,-0.2680546286468157,-30.289960212227633,-290.56822749727854,-288.83138056129724,72.2014098229583,-95.48288825562541,294.7045112790537,333.3513575961665
596,0.3740493808571331,-29.418386069876966,-291.5670845187399,-256.93381595754187,77.6636477913835,-98.42166013062484,295.4594104572688,312.7626771183482
597,0.8844244557702078,-28.552438087732835,-292.613509570421,-225.6865356828335,82.70803069854072,-101.94136110356408,296.24576346449544,294.21204307902724
598,1.2583588519606335,-27.699005954182663,-293.7112167546706,-195.13824282187716,87.25505948076827,-105.99808214246131,297.0718367709973,277.7682499463059
599,1.4959939450854662,-26.86528206996212,-294.86133666860997,-165.3222366564649,91.23149047177226,-110.53932405285161,297.94334045444555,263.47627415332664
600,1.6018037074393738,-26.058576963008115,-296.0624995605833,-136.25763667243152,94.57287879609427,-115.50436219228501,298.8634007571006,251.3584802500907
601,1.5839400012943567,-25.286164251471803,-297.3110086944478,-107.95066859887434,97.22576234994006,-120.82503319860517,299.8326391807366,241.41613471824303
602,1.4534872924762492,-24.555157361617454,-298.6010883845875,-80.39598102169579,99.1493785400222,-126.42690658965051,300.84934323067677,233.6311747629704
603,1.2236715130622107,-23.87241708337102,-299.925188245282,-53.577964231540975,100.31683273824962,-132.230783780257,301.90971016390046,227.96817453408886
604,0.909066098111074,-23.24448594096337,-301.2743238293244,-27.472045121337842,100.71567190718581,-138.15445136398543,303.00814297092626,224.37645079516602
605,0.5248337970482405,-22.677542702552756,-302.63843378649284,-2.045933533908612,100.34785642802785,-144.11460406790198,304.13757718912996,222.79225380274482
606,0.08603628132641243,-22.1773688919465,-304.0067346270702,22.73920307844201,99.22916379853709,-150.028845239875,305.28981775966,223.14099519450616
607,-0.3929641789071633,-21.74931952271604,-305.36805586068414,46.92765753243554,97.38809480713581,-155.81766944902097,306.4558667625039,225.3394706435714
608,-0.8989946238020732,-21.3982922514978,-306.7111405518701,70.5682096842574,94.86438171001558,-161.40633388183008,307.6262252835233,229.29803942677478
609,-1.4204440425351126,-21.128691806224023,-308.02489916496285,93.71327105443551,91.70721604808566,-166.72653355786593,308.7911557321656,234.92272569162833
610,-1.947516719253742,-20.944388998911954,-309.2986079666622,116.41814674818315,87.97332011412053,-171.7178097401855,309.9408945508522,242.11720784646448
611,-2.47237033571375,-20.848675461459845,-310.522047179291,138.74040408492817,83.72498115333632,-176.32864004907555,311.0658093690608,250.7846642440175
612,-2.989147978307937,-20.844216317730652,-311.6855784719559,160.73932822670383,79.02815255605854,-180.51718093800275,312.1564991900382,260.8294459964889
613,-3.4939170928749013,-20.93300324994064,-312.78016602624785,182.47543759711658,73.95070416853156,-184.25165616434887,313.20384093717075,272.15855139642974
614,-3.984531037108557,-21.116309841301266,-313.7973497306979,204.01002652898458,68.56087810494635,-187.51040590997894,314.19899004945347,284.68288034264566
615,-4.460430227098632,-21.39465003394925,-314.72918230169756,225.40470062571546,62.925980962574926,-190.28162719724378,315.13334608728604,298.31825077512724
616,-4.922400078655769,-21.76773975385804,-315.5681438964494,246.72087367434978,57.11132115943758,-192.56284499912206,315.9984961353981,312.98616280739367
617,-5.372302295017675,-22.234461835417257,-316.30704804704726,268.01920444014496,51.17938292627572,-194.36015503540247,316.7861491788603,328.61430127457675
618,-5.812794962748326,-22.792835379206547,-316.93895153443793,289.3589654836477,45.18921642449805,-195.6872764255778,317.4880736169904,345.13677466598324
619,-6.247055632089046,-23.439992123047396,-317.45707827770764,310.7973502073489,39.19601528433472,-196.56444951885777,318.09604777768885,362.4940974898266
620,-6.678519928467078,-24.17216360684195,-317.8547640158639,332.38873455852917,33.250847010897736,-197.0172151755796,318.60183022459734,380.6329327289181
621,-7.110645934027787,-24.98468329675252,-318.1254254635775,354.18391450237505,27.400497836784297,-197.07511724755716,318.99715371819815,399.50561987457394
622,-7.546711571728373,-25.872007262289838,-318.2625555598651,376.2293410773076,21.68739301659966,-196.77037686496638,319.27374471047847,419.0695213202262
623,-7.989648970885523,-26.827755817491227,-318.2597456497911,398.56637458254824,16.14955783744107,-196.13659102573374,319.4233694887256,439.2862255571695
624,-8.441916820081557,-27.844777308996985,-318.1107355388999,421.23057998625893,10.820593594818483,-195.2075068948205,319.4379081684609,460.1206497434399
625,-8.90540924307087,-28.915234406415664,-317.8094926236537,444.2510863010288,5.729654103384872,-194.01591821267482,319.3094579866493,481.5400863818385
626,-9.381397745297033,-30.030713005040365,-317.35032126228623,467.6500314565154,0.9014190147663327,-192.59272320007838,319.0304673159863,503.51323792946005
627,-9.870501285133477,-31.182354100424227,-316.72800320593063,491.4421097199178,-3.643931431298278,-190.96617527145096,318.59390150628775,526.0092782572794
628,-10.37267864827163,-32.36100938159385,-315.93796937056663,515.6342312708041,-7.8907296536849545,-189.16134895239077,317.9934411487378,548.9969713899018
629,-10.887237140416909,-33.557421253201646,-314.9765023945296,540.2252948829621,-11.827807107187589,-187.19983394548407,317.22371250910265,572.4438677226358
630,-11.41285215373386,-34.762427090101696,-313.8409680854674,565.2060670175914,-15.448435675761809,-185.0996604748209,316.28054844395496,596.3155881863511
631,-11.94759335598306,-35.96718581222472,-312.5300718934387,590.5591556603949,-18.7502038227652,-182.87544852544858,315.1612759879846,620.5751991763282
632,-12.488955015322071,-37.163422886512336,-311.0441339808552,616.2590655973422,-21.734806887228814,-180.53876221802798,313.865024058601,645.1826761392066
633,-13.03389010958437,-38.34368816421988,-309.3853735713266,642.2723233109837,-24.40773338454207,-178.09863931327646,312.3930416861528,670.0944517118164
634,-13.578850022256775,-39.50161971790164,-307.5581906048489,668.5576636160524,-26.77783523767569,-175.56225665995993,310.7490144005663,695.2630452247377
635,-14.119833365335595,-40.632205904071576,-305.5694309074293,695.0662756694664,-28.85677939959941,-172.9356869349761,308.93936445404927,720.6367738798601
636,-14.65244843032317,-41.73203706379897,-303.4286204720189,721.7421121293718,-30.658390098723885,-170.22470078288268,306.97351977469964,746.1595511464953
637,-15.17199377504556,-42.79953755905253,-301.1481551117763,748.5222710817659,-32.1979030791007,-167.4355709195261,304.8641369905603,771.7707837412592
638,-15.673560516190797,-43.83516833397112,-298.7434334573232,775.3374652174829,-33.491163934497216,-164.57583984415783,302.6272653311325,797.4053838857255
639,-16.152158155485544,-44.84158999279068,-296.23292357590987,802.1125962923237,-34.5538107463129,-161.65501919979502,300.28244028148146,822.9939176310883
640,-16.602863433520387,-45.823776552009036,-293.63815593334795,828.7674550166292,-35.40048615358627,-158.6851952586571,297.85269809941735,848.4629124502641
641,-17.020989034619895,-46.789070637066004,-290.98363770774006,855.2175670002572,-36.0441255220433,-155.6815205943918,295.36450444946513,873.7353476542822
642,-17.40226624970844,-47.7471720955398,-288.29668547679125,881.3752038442724,-36.49536601925759,-152.66257642283674,292.8475923784285,898.7313491125233
643,-17.743033243377777,-48.71005384096711,-285.60717505593857,907.1505745677725,-36.76211626858732,-149.6505934703974,290.3347066991635,923.3691050025482
644,-18.04041864314759,-49.691801083472676,-282.9472088728022,932.4532062177769,-36.84931821759003,-146.67152180628398,287.861253666505,947.5660119420717
645,-18.292509032619392,-50.70837273456442,-280.35070277839327,957.1935139619627,-36.7589225699468,-143.75494203994796,285.4648566645776,971.2400511879806
646,-18.49848879821813,-51.77728655574825,-277.85289553123357,981.2845506209151,-36.49008737061081,-140.93381181764906,283.18482039399026,994.3113831093876
647,-18.658741663519514,-52.91723247050214,-275.48978527212176,1004.6439140722912,-36.03959677600705,-138.2440429484228,281.0615076703756,1016.7041355396309
648,-18.774904899768675,-54.14762127461887,-273.2974982333052,1027.1957791528466,-35.402484196436816,-135.72390618057634,279.1356344878819,1038.348348863223
649,-18.8498693616363,-55.48807863394502,-271.311595883837,1048.873009682301,-34.57283137147283,-133.41326305492413,277.44749060764013,1059.18202895053
650,-18.887721139249024,-56.957896619094114,-269.5663278258854,1069.6192970850193,-33.544703189395214,-131.3526276331935,276.03609469893246,1079.1532494010492
651,-18.893623869699287,-58.57545695784377,-268.0938391211073,1089.391265666664,-32.31316799363975,-129.58206532590688,274.9382950679515,1098.222237884063
652,-18.8736445546694,-60.35764158430959,-266.923342489709,1108.1604815160651,-30.875345557071327,-128.13994154740215,274.1878293690401,1116.363378287508
653,-18.834529642821256,-62.31924695451149,-266.080268072135,1125.9153023831786,-29.231420562941405,-127.06153950974793,273.81435944552123,1133.5670610576376
654,-18.783441514804988,-64.47241915446762,-265.58540602275457,1142.6625092273036,-27.385558838855445,-126.3775740528568,273.84250041253773,1149.8413180479404
655,-18.727667901717336,-66.8261272107284,-265.4540597660392,1158.428665329803,-25.346667046565585,-126.11263674956497,274.29086591774757,1165.2131842916592
656,-18.674318106085355,-69.38569218071312,-265.69523002456503,1173.2611544746708,-23.12894403449515,-126.28361618868772,275.1711539219501,1179.7297358905842
657,-18.63002035723122,-72.15238931398308,-266.3108518150591,1187.2288543010122,-20.752183215301162,-126.89814576537984,276.48729938213904,1193.4587591891527
658,-18.600634376259407,-75.1231395998338,-267.29510881900916,1200.4224035169411,-18.241799305142678,-127.95313889098918,278.2347221625971,1206.489010467303
659,-18.59099225909013,-78.29030528006007,-268.6338519071375,1212.9540219208393,-15.628568350770514,-129.43347764946452,280.39970036877077,1218.9300270902165
660,-18.60467910968081,-81.64160151195597,-270.30415062515345,1224.9568405663406,-12.948085762632575,-131.31092490421926,282.95890062100756,1230.9114507085646
661,-18.643862656577667,-85.16013348052498,-272.274007413531,1236.583697032564,-10.239961664637866,-133.5433309948607,285.8790969055121,1242.5818216651235
662,-18.709178668080913,-88.82456497015576,-274.50226380939887,1248.00534908071,-7.546785090748351,-136.07420382049196,289.11710817520265,1254.1068025888862
663,-18.799676506879244,-92.60942071009997,-276.93872579992143,1259.4080605348774,-4.912897632608736,-138.83270483710314,292.6199817676841,1265.6667897483828
664,-18.912826597782527,-96.48552072561814,-279.52453184381966,1270.9905175134245,-2.3830228313736885,-141.73412312701254,296.3254449500481,1277.453874607132
665,-19.044588901342312,-100.42054057732146,-282.1927816958388,1282.9600426214542,-0.0008003218934854957,-144.68086541939257,300.16264037787784,1289.6681267052722
666,-19.189538848763156,-104.37968690177082,-284.86943700818364,1295.5280907839951,2.1927254960098574,-147.5639823829058,304.0531529732313,1302.5131839615785
667,-19.341044858553918,-108.32647316380304,-287.47449606981183,1308.9050340595181,4.160612443561326,-150.2652316299753,307.91232603831213,1316.191158848429
668,-19.491489700330614,-112.22357604160295,-289.9234355232985,1323.2942741524346,5.871473312138826,-152.65965663080092,311.6508538773998,1330.8968988394283
669,-19.632526604280777,-116.03374852396688,-292.1289019005829,1338.8857592855916,7.300824441691875,-154.6186388805283,315.17662726352825,1346.8116759568368
670,-19.75536003289711,-119.7207619664848,-294.00262566318463,1355.8490241460756,8.43228095550632,-156.01335878022437,318.3967971891973,1364.0964207371703
671,-19.851040325134324,-123.25034655110088,-295.4575205028096,1374.3259145619613,9.258552026209145,-156.7185793661954,321.2200120303632,1382.8846573155824
672,-19.910760954539608,-126.59109822012951,-296.4099212897519,1394.4231993032636,9.782194652683781,-156.61664690097894,323.5587740004299,1403.2753355602788
673,-19.92614698357296,-129.71532033051867,-296.7819052558361,1416.205307662722,10.01609234538404,-155.6015841435333,325.3318526569039,1425.32579106842
674,-19.889523597430024,-132.59977001761558,-296.5036324649874,1439.687462029112,9.983635428842378,-153.58313671342938,326.46668602547714,1449.0450932035744
675,-19.794154515158112,-135.22628273854332,-295.51563313464146,1464.829499041335,9.718591232244194,-150.49062149575528,326.9016935404844,1474.3880648198374
676,-19.634441693643883,-137.5822539578987,-293.7709611814627,1491.5306908156092,9.26466354271888,-146.27641996839523,326.5884198536372,1501.250274706699
677,-19.406080058459615,-139.66096445358315,-291.2371264312478,1519.625888261354,8.674749570091052,-140.91896032537474,325.4934255054451,1529.4643143629246
678,-19.106163904307834,-141.46174456947793,-287.8977139404989,1548.8833092400548,8.009908230816444,-134.42504171720265,323.5998406518639,1558.797672267476
679,-18.733244866618797,-142.98998147106957,-283.7535998932272,1579.0042809709294,7.338055951397214,-126.8313723086327,320.90850263119916,1588.9525072081676
680,-18.287344583425373,-144.2569804123391,-278.82368124792197,1609.6252130944322,6.73240676601692,-118.20521929399025,317.4386078766952,1619.5675918983904
681,-17.76992781929986,-145.27969513520466,-273.1450513770928,1640.3220200724381,6.269674264398022,-108.64410148556898,313.22782366452856,1650.2226437663642
682,-17.183843355912106,-146.08034367234578,-266.77257591622026,1670.6171265040928,6.028056043835067,-98.27449100425733,308.33182501436426,1680.445178461381
683,-16.53323999179374,-146.68592456268817,-259.7778506065873,1699.989077704202,6.0850285185960304,-87.24952733768063,302.82324579676936,1709.7199140969458
684,-15.823463590623051,-147.1276456396256,-252.24755411023767,1727.8846458743594,6.514992359303551,-75.7457824932912,296.7900592852444,1737.5006254982131
685,-15.060938832030804,-147.44027399862006,-244.28124116098985,1753.7331779930819,7.386826445145322,-63.959149091993126,290.33343012061215,1763.2242060795022
686,-14.25303700415349,-147.66141239193567,-235.9886523824894,1776.9627855483438,8.76142924007326,-52.09995406803181,283.56510489215725,1786.3265507174226
687,-13.40792960450623,-147.83070505218564,-227.48664420274375,1797.0178392542466,10.68934714918622,-40.387429829558386,276.6044304765831,1806.259736880548
688,-12.534427069187364,-147.98897564330903,-218.8958634562473,1813.377114314656,13.208604521556293,-29.043702801793295,269.5751065475693,1822.5098636986575
689,-11.641802577360092,-148.17730212106875,-210.33730485741884,1825.5718431100945,16.34285485572737,-18.28748580567371,262.6017903008092,1834.6148191433167
690,-10.739602306692428,-148.43603761814754,-201.92889439534608,1833.2028806195688,20.099965184834716,-8.32768387403883,255.8066767847319,1842.1811923991716
691,-9.837445462435863,-148.80379252886203,-193.78223745214117,1835.956179732627,24.471126415401177,0.6428601885859603,249.30617720784556,1844.899538282496
692,-8.944819547438444,-149.31640013098865,-185.9996579225233,1833.6158121598469,29.430554521802947,8.453247191341584,243.2078110119213,1842.55723669683
693,-8.070878220192709,-150.00589558843356,-178.67163579542114,1826.0738554713018,34.935814518463935,14.959801557026834,237.60741675883622,1835.0482723723883
694,-7.224250167885234,-150.89954497523883,-171.8747278001657,1813.3365938754844,40.92876438485427,20.050539368971048,232.5867731367511,1822.3793847232025
695,-6.412867348123529,-152.01896582379686,-165.67003052956161,1795.526642991095,47.33708261152319,23.64864386136469,228.2117050851068,1804.6721980435775
696,-5.643819777560171,-153.37938260354727,-160.10221913787706,1772.8807984456394,54.07631338364745,25.714808267205065,224.53073124589898,1782.161129940023
697,-4.923242177711033,-154.98905891407261,-155.1991684115604,1745.7436145295078,61.05233959900369,26.24835459901946,221.5742879585305,1755.1870807565372
698,-4.256235697675154,-156.84894291972475,-150.9721379370152,1714.556930983106,68.16417704811367,25.287090853467518,219.35454249230065,1724.1871174071596
699,-3.646825894257449,-158.9525539440396,-147.416480456673,1679.8457710792259,75.3069733491549,22.905925043974996,217.86578514160104,1689.6805691657871
700,-3.097956254022843,-161.2861268201327,-144.51281343377255,1642.2012198305579,82.37509201342925,19.214308742234188,217.0853674317392,1652.252137771441
701,-2.6115148609769867,-163.8290174367797,-142.2285791663888,1602.2610449306937,89.26516430625948,14.352631717934461,216.97513324489924,1612.5327770432286
702,-2.18839045761477,-166.55435888397113,-140.51990881287637,1560.6889336863173,95.87899843175065,8.487729612894688,217.48327211527945,1571.179206719276
703,-1.8285531903763874,-169.42994368792327,-139.33370025188933,1518.1532780706043,102.12624638865793,1.807696245093115,218.5465098642057,1528.852982827124
704,-1.5311547506835115,-172.41929493312975,-138.60981845231848,1475.3064423176359,107.92674315875487,-5.4837898105267815,220.09254164945648,1486.200047942601
705,-1.294642312647975,-175.48287871960264,-138.28332961756306,1432.7653931202537,113.21245004401744,-13.173408060978511,222.04260687685516,1443.8316294210613
706,-1.116880510537092,-178.5794033325712,-138.28668639566038,1391.0944665621148,117.92895293245728,-21.044195616283336,224.31410459878418,1402.3072474585097
707,-0.9952756563562358,-181.66714726833052,-138.55179044541484,1350.7908982565853,122.03648577472559,-28.88140271736901,226.8231520448512,1362.1204477298572
708,-0.9268965178580842,-184.7052589735382,-139.01187021532067,1312.273567249045,125.5104683572627,-36.47802237466936,229.48699758247773,1323.6876989031666
709,-0.9085863151961047,-187.6549755179054,-139.60312559698352,1275.8752155595546,128.34156459774093,-43.63983602901145,232.2262122512031,1287.340708929514
710,-0.9370612034091816,-190.48071477351755,-140.26610649515015,1241.8382193856094,130.53528252467606,-50.18984417389285,234.9666001382763,1253.3222309656069
711,-1.008991462595549,-193.15100507304666,-140.94680798571238,1210.3138181728157,132.1111496602917,-55.971979332295845,237.6407856962014,1221.785262974325
712,-1.1210629392514018,-195.63922677652104,-141.59747912359995,1181.3645627324881,133.10150771185653,-60.854027596667905,240.18945393494718,1192.7954029490534
713,-1.2700178592683435,-197.92415087936715,-142.17715477730744,1154.9696274391,133.54997848580078,-64.72971409696875,242.56223609600522,1166.3360083550883
714,-1.4526757683257974,-199.99027001558935,-142.65192993115838,1131.0325454289882,133.50965925610984,-67.51993752270943,244.71824826724514,1142.315724973383
715,-1.6659368617642245,-201.82792622882255,-142.99500365272772,1109.3908693786282,133.04111106333758,-69.17316874993197,246.62630283898287,1120.5778965981049
716,-1.906771195869238,-203.43324723289282,-143.18652522684076,1089.8272325412388,132.21020798169693,-69.66505740292112,248.26482228601347,1100.9113415277313
717,-2.1721980971042063,-204.80790852064317,-143.21327773916653,1072.0812827818386,131.08591918858616,-68.99731615098226,249.62149142121632,1083.0619818137804
718,-2.4592604262371975,-205.9587427913765,-143.06823481361278,1055.8619828958522,129.73809814903694,-67.19597419844474,250.6926882542827,1066.74483311184
719,-2.7649982710831025,-206.8972209358769,-142.75002470264326,1040.8598094542772,128.23535353657869,-64.30910769253283,251.4827353059664,1051.6559024969933
720,-3.0864263303795987,-207.638830412968,-142.2623330518689,1026.758435454551,126.64307382024573,-60.404165139163275,252.00301313213416,1037.483594365818
721,-3.4205188765430967,-208.20237748599425,-141.61327182724392,1013.2455447292425,125.02167123220228,-55.565010461577224,252.2709763197807,1023.9192861490565
722,-3.764205726781188,-208.60923967654557,-140.8147373412212,1000.0224940088858,123.42510098358323,-49.88880553140219,252.30910964382153,1010.6668017504933
723,-4.114381956054608,-208.88259405296336,-139.88177527442934,986.812607816674,121.89969842153921,-43.482848370202596,252.1438586446827,997.4505776182127
724,-4.467933048641694,-209.04664561084925,-138.83196538896425,973.3679589084431,120.48336104107128,-36.46147315398411,251.80456478889664,984.0223812126857
725,-4.821775836657912,-209.12587805715935,-137.68483369705595,959.4745508199686,119.2050850130401,-28.943104050519963,251.32243087511648,970.1665025790403
726,-5.1729140014746875,-209.14434696639668,-136.46129570492994,944.9558785022327,118.08484869484695,-21.04753746078429,250.72953789420782,955.703396189282
727,-5.518505228456777,-209.1250327825884,-135.18313138729604,929.6748981294336,117.13382026445993,-12.893507492739506,250.05793057201961,940.491802495475
728,-5.855935492439337,-209.08926856319133,-133.8724907401286,913.534487953449,116.35485468263253,-4.596568836315999,249.3387853713644,924.4294268805439
729,-6.182894659498555,-209.05625456954527,-132.5514278544278,896.4765273400747,115.74323710587932,3.732688819155313,248.6016715690201,907.452296758232
730,-6.497446860710361,-209.04266869527942,-131.2414614166437,878.4797585208819,115.28762508879413,11.990098500500176,247.87391306300404,889.5329530974226
731,-6.798089107313737,-209.06237833198506,-129.9631605429743,859.5566230591642,114.9711397571315,20.079063750012857,247.18005595416602,870.6776585295173
732,-7.083792406397582,-209.1262557281805,-128.73575684526622,839.7492818690424,114.77255635083635,27.911424439883525,246.54144477424825,850.9228197662788
733,-7.3540210246774915,-209.24209535461583,-127.57678612709974,819.1250344741823,114.66754694321219,35.40807424268593,245.97590835886186,830.3308279596472
734,-7.60872727616845,-209.41462842989117,-126.50176543452035,797.771351387292,114.62993219034229,42.49936553582402,245.49755455493036,808.9855181884676
735,-7.848321122221882,-209.64562679601747,-125.52391283963196,775.7907245785202,114.63290384638265,49.125337034447355,245.11667111028453,786.9874399384149
736,-8.07361592046766,-209.93408595597103,-124.65391820414986,753.295526432727,114.65018476480036,55.235797119874775,244.83972832899042,764.4491156353067
737,-8.285753749717824,-210.27647543353504,-123.89977335557388,730.4030486337639,114.65709767128828,60.79029213375169,244.66947757869443,741.490445209131
738,-8.486115627780638,-210.66704376961562,-123.26666963162675,707.2308701709183,114.6315177919826,65.75798412211621,244.60513859913254,718.2343923859672
739,-8.676223296885086,-211.09816543426348,-122.75696947913991,683.8926791658835,114.55468734400709,70.11745683495415,244.64266773130137,694.8030639572357
740,-8.857639848263922,-211.56071759786485,-122.3702565978251,660.4946474651001,114.41187224443983,73.8564624312934,244.77509851152175,671.3142677318367
741,-9.031876285009725,-212.04447578984232,-122.10346599153297,637.1324309927131,114.19284384710315,76.97161471936495,244.9929453245952,647.8786094549087
742,-9.200310292434638,-212.53851857711618,-121.95109143828215,613.8888438699229,113.8921718166391,79.46802860856515,245.28465974938965,624.5971650339723
743,-9.36412208704755,-213.03163217309933,-121.90546379406896,590.8322312697619,113.50931883934447,81.35890064414004,245.6371277907899,601.5597431142886
744,-9.524250352292832,-213.51270621931036,-121.9570897829638,568.0155452513749,113.04853374836962,82.66502267926705,246.03619454140608,578.8437348423652
745,-9.681369164908462,-213.97111198317583,-122.09503784156564,545.4761089573315,112.5185464778789,83.4142201635391,246.4672012210268,556.513532121769
746,-9.835884785927096,-214.3970541410674,-122.30735524171794,523.2360367007008,111.93207561309828,83.64070821874927,246.91551825807196,534.6204819183395
747,-9.987949510561704,-214.78188739942655,-122.58149916467528,501.30325994146506,111.30516676435231,83.38436249114949,247.36705734413601,513.2033314728951
748,-10.137488600463856,-215.11838954458378,-122.90476381996564,479.6730918476532,110.65638725827425,82.68990720312799,247.8087453885801,492.28910736054723
749,-10.28423573935998,-215.40098310739663,-123.26468625516182,458.3302466056123,110.00590946507448,81.60602894620662,248.2289441152206,471.89436045820025
750,-10.427772483483773,-215.62589876751423,-123.6494151520289,437.2512149295854,109.37452114270255,80.18443050661,248.6178007357699,452.026699695333
751,-10.567567726867043,-215.7912750866756,-124.048029353048,416.4068855147508,108.78260598491059,78.47884356775042,248.9675177091541,432.68653073036126
752,-10.703014051610976,-215.8971911965348,-124.45079569265607,395.7652945166052,108.24914056925613,76.54402206417772,249.27253287156452,413.86891208268844
753,-10.833458797443633,-215.9456314449675,-124.84935863776786,375.2943823083463,107.79075473510854,74.43473925550282,249.52960485183135,395.56544130545535
754,-10.95822871880159,-215.94038342727814,-125.23685724637994,354.9646392934816,107.42090094711952,72.20481155993768,249.73780239919648,377.76608792820997
755,-11.076648191018197,-215.88687320945792,-125.60796812571489,334.7515305607974,107.14917443735847,69.90617127025588,249.89840001884843,360.4608982288943
756,-11.18805192117934,-215.79194400406752,-125.95887640301488,314.63760215546495,106.98081993949863,67.58800876112203,250.01468621876637,343.64150887613863
757,-11.291793749302393,-215.663587131443,-126.28718005186055,294.6141885578304,106.9164527423134,65.2960027460696,250.0916946623389,327.30242092493324
758,-11.387253255488096,-215.51063659300047,-126.59173604819811,274.6826602055962,106.95201180970506,63.0716545642873,250.1358723176008,311.4420011099722
759,-11.473841594572162,-215.34244064030514,-126.87245957737632,254.85517034600295,107.0789512069982,60.95173950763404,250.15470189525269,296.0631926410011
760,-11.551007427579071,-215.16852499342014,-127.13008968186284,235.15488127972415,107.28466358097002,58.967885060504116,250.15629808126468,281.1739319182764
761,-11.61824318698621,-214.998262634892,-127.3659361632988,215.61567052062196,107.55311670523312,57.14628277732801,250.1489980381893,266.7872801940608
762,-11.6750913728178,-214.84056439063346,-127.58162311560058,196.28133706362797,107.8656720688825,55.50753736591495,250.14096632736022,252.92128986123294
763,-11.721150244096373,-214.70360298087664,-127.77884407651615,177.2043464773816,108.20204418895075,54.06665326555166,250.1398329009188,239.59863361093628
764,-11.756078210537947,-214.59458105034847,-127.95914242538184,158.4441706712231,108.54135165033547,52.83315549718176,250.15238026759428,226.8460311965705
765,-11.779596483105605,-214.51955096869253,-128.12372847124902,140.06529369700664,108.86320638507179,51.811337796848534,250.1842925156908,214.6935130839789
766,-11.791490046793184,-214.4832910903146,-128.27334196558715,122.13496848520933,109.14878663916366,51.00062709149273,250.23997486703897,203.17356293534854
767,-11.791607586022774,-214.48923995093747,-128.4081658535238,104.72082039079773,109.38184139704967,50.396049374657935,250.32244822179663,192.32018160343736
768,-11.779861433660713,-214.53948680663564,-128.5277941522538,87.8884009933469,109.54957939692684,49.98877820538317,250.43331904530962,182.16791389493093
769,-11.756228840433415,-214.63481408362193,-128.63125396950156,71.69879879639939,109.64340364767283,49.76674370896697,250.57282104963423,172.7508756035577
