time,ax,ay,az,gx,gy,gz,accmagnitude,gccmagnitude
0,-0.17496479915836305,-248.52730396463969,30.902430799375047,-117.08259180356437,8.584560989849784,-46.57160170760445,250.43866302211026,124.41375947555055
1,0.028244485047228686,-248.38814638586214,30.826090577227696,-106.88565762543656,5.840406142434765,-45.42505184015712,250.29377139179513,116.73938009875701
2,0.24498163096101372,-248.26374764011214,30.746349522165524,-96.76712254159847,3.2188863670398,-44.29372699906597,250.16333244978986,109.13125206185958
3,0.47385490356783966,-248.1536946232103,30.66364046585218,-86.79277212138756,0.7519929864906674,-43.18646834453514,250.046966974191,101.65589577841045
4,0.7132241895145687,-248.05757637287323,30.578505782157944,-77.02529270906375,-1.5304628380649865,-42.11215091422511,249.94430754071485,94.37830964882254
5,0.96120805726252,-247.97502512078066,30.491592138036573,-67.5233056734876,-3.6015281036782434,-41.07958720507487,249.85503886452366,87.3608418687628
6,1.215694775199902,-247.9057429286995,30.403644089788028,-58.34047867007024,-5.4377465757402685,-40.09741715874048,249.77892372486372,80.66211048401253
7,1.4743579325704272,-247.84951150110496,30.31549644980879,-49.52473324878021,-7.0197397673342,-39.17398554100414,249.71581207597532,74.33599712864475
8,1.7346772789771052,-247.8061839998534,30.228064645884665,-41.117569034001846,-8.332711355992682,-38.31720958012328,249.66563209274636,68.43073927248089
9,1.9939652102409695,-247.775659124476,30.14233178935469,-33.15352463268253,-9.366856372083287,-37.53444119619288,249.6283632693608,62.98814371228811
10,2.249399083666734,-247.75783929478337,30.05933113125149,-25.659794022263164,-10.117657915736743,-36.83232905742684,249.60399324610574,58.04294038268835
11,2.4980593899779517,-247.75257630943818,29.980122988883135,-18.656014146252243,-10.586056745829458,-36.216686034043754,249.59246161182114,53.622290547938704
12,2.736973791815341,-247.75960917198597,29.90576588498355,-12.154234684007731,-10.778482690202772,-35.6923674628272,249.59359531502068,49.74545756697839
13,2.9631670645098644,-247.7784997446047,29.837282392014455,-6.1590745954274135,-10.70674123326394,-35.263165081436426,249.60704136648383,46.42364242368479
14,3.173716905505942,-247.80857237671722,29.775620887830318,-0.6680624498524298,-10.387753598315415,-34.93172064503286,249.63220308195378,43.65998083954411
15,3.365815328578243,-247.8488635131453,29.72161501009076,4.327850702505109,-9.843153896734552,-34.699462222558616,249.66818603696578,41.449694600230764
16,3.5368349035645923,-247.89808646300642,29.67594301279954,8.84362535447955,-9.09875221026208,-34.56656510658873,249.71375913136674,39.7803869325785
17,3.6843984788817092,-247.95461514739827,29.63908949317065,12.899341235176378,-8.183877578499565,-34.531938228173566,249.76733483087372,38.632470179685505
18,3.806450334122871,-248.01648904754055,29.611312046065322,16.519311179749625,-7.130619565046137,-34.593235945434955,249.82697106899687,37.97971319609117
19,3.901326078191804,-248.0814400596487,29.592615228312724,19.731137338391893,-5.972991117444219,-34.746894046749944,249.89039575736263,37.789895333606616
20,3.967818139697447,-248.1469406738137,29.58273375411983,22.564747380276987,-4.746038519840744,-34.988187802473384,249.9550535090626,38.02555327947801
21,4.0052334833344,-248.21027179360482,29.581126233554475,25.05144795079291,-3.4849261274175083,-35.31130900333909,250.01817300864144,38.64480625635366
22,4.013440308820254,-248.2686075181446,29.586980158500065,27.223030805432636,-2.2240242254272835,-35.70945823571886,250.0768524014649,39.60224430464167
23,3.992900956250675,-248.31911329146143,29.599228210603,29.110964174302747,-0.9960279238953295,-36.174948229531026,250.12815909590012,40.84986370736312
24,3.944688943274431,-248.3590530231484,29.61657521761704,30.745698206754113,0.16886630234157712,-36.69931400886649,250.16923949980946,42.33803318472559
25,3.8704888117415877,-248.38590018743216,29.637534300544342,32.15610877916504,1.243701827758022,-37.2734257890922,250.19743354158953,44.01647426671431
26,3.772578126562895,-248.39744760047577,29.660470168337074,33.36909830219689,2.205398891157484,-37.8876010943849,250.21038846409476,45.83523915804539
27,3.6537915506812393,-248.39191057130859,29.68364722447599,34.40936508343974,3.03526874036245,-38.53171338537263,250.20616635034162,47.74566931849062
28,3.517467521696847,-248.3680183460993,29.7052800441291,35.299343965233895,3.7193901438734596,-39.195295484930405,250.183340059086,49.701317738367365
29,3.3673787153439205,-248.32508910414504,29.723583825184093,36.059310403737264,4.2488379697721035,-39.86763711724051,250.14107260053953,51.65881734669569
30,3.2076480764166706,-248.26308414160445,29.736822728284956,36.707628592113274,4.619758440445549,-40.537876824803035,250.07917540521046,53.57867712228625
31,3.042652596737001,-248.1826373548812,29.74335460737437,37.26111302068042,4.833290924573524,-41.19508938754448,249.9981414883427,55.425986474819716
32,2.876917278834929,-248.0850569091847,29.74167127883553,37.73546362908234,4.895341584011642,-41.8283706567728,249.89915036066924,57.17100773635357
33,2.7150020013083673,-247.97229721064002,29.730433985200335,38.14572883058533,4.816219595608503,-42.42692239589654,249.7840428222502,58.78963672933754
34,2.5613843155986533,-247.84690093750365,29.70850407894793,38.50674905221667,4.610151685903831,-42.980140159383765,249.65526544682135,60.26371297122133
35,2.4203414457000614,-247.71191272084585,29.67496926070084,38.83353630827321,4.294695055818347,-43.477707274072955,249.51578642237374,61.58116460807515
36,2.2958348970564297,-247.57076791235568,29.629165913012287,39.14155237085023,3.8900721909795384,-43.90969750830519,249.36898627069368,62.735978762142516
37,2.191401164581186,-247.42716158177484,29.570698061701293,39.44685845173982,3.418453311530349,-44.266688040381005,249.2185286579572,63.72799530251148
38,2.110052063732657,-247.28490423708323,29.499453285580348,39.76612174597765,2.903213115397212,-44.53988298708834,249.0682178216347,64.56253039373917
39,2.0541881014233945,-247.14777154993277,29.41561561329385,40.11647733912588,2.3681879526544978,-44.721246200868286,248.92184988462714,65.24984463011728
40,2.025527975574069,-247.0193555638538,29.319675125334115,40.51525652288252,1.836957729029378,-44.80364049761491,248.78306547633773,65.80447821997552
41,2.0250567565780635,-246.90292460268432,29.212433537948215,40.97960339075944,1.3321738869355995,-44.78096914962401,248.65521076233185,66.24448183544165
42,2.052994642136774,-246.80129849138956,29.095004528038583,41.52600987506228,0.874951092780209,-44.648314527682224,248.54121331563633,66.59057592222982
43,2.1087874722378652,-246.71674473878338,28.96880723974921,42.16980457597598,0.48433618049487626,-44.40206825464847,248.44347826464383,66.86527321268393
44,2.1911194938496283,-246.65090001582934,28.835551562128163,42.92463256660226,0.1768638081066517,-44.040047107846,248.36380885996215,67.09199888066429
45,2.297948197239022,-246.6047197252488,28.697214369545616,43.80196196734564,-0.03379555894491153,-43.56158911526906,248.30335414261364,67.29424046607203
46,2.4265604164075305,-246.5784568781815,28.55600671856909,44.81064893759214,-0.13709302664692802,-42.96762476304499,248.26258491677132,67.4947558005825
47,2.5736482803500214,-246.5716699979013,28.414332729123835,45.956586477584715,-0.12576419715414286,-42.260718915375115,248.24129782534422,67.71486214067052
48,2.735402979038623,-246.58325843323928,28.27474139348059,47.242454807844446,0.004100509528366773,-41.44507993190119,248.2386460519702,67.9738240187345
49,2.907623657763955,-246.61152233272358,28.13987285279943,48.66758293536028,0.253075134104381,-40.52653358261083,248.2531940749134,68.28835144984096
50,3.085838142809276,-246.65424362964166,28.01240086460183,50.22792322015579,0.6185029751873493,-39.51246072195149,248.2829930148231,68.67221457048508
51,3.265431732533659,-246.70878374502544,27.894973347022706,51.916134117078386,1.0946815255911735,-38.41169921154405,248.32567248777272,69.13597592173359
52,3.441780017236721,-246.77219334827623,27.79015303796653,53.72176128180616,1.6731206193957326,-37.234412085526614,248.37854451825817,69.68683761581721
53,3.61038159569278,-246.84132937500726,27.70036040782313,55.631503997517115,2.3428652169255306,-35.99192520884478,248.43871493132866,70.32859753558407
54,3.766986571952212,-246.91297450097161,27.627820922100227,57.62955217159727,3.090872739590851,-34.69653852936956,248.5031976316998,71.06170636847389
55,3.9077168041272263,-246.98395439796607,27.574518456943686,59.69797859198201,3.9024336681612524,-33.361315448750844,248.5690272676371,71.88341550422558
56,4.029174041529152,-247.0512484226809,27.542156133120734,61.81717136942715,4.7616232886450645,-31.999854954058964,248.63336604019455,72.78800453396076
57,4.128532358495833,-247.11208993255107,27.532125228088102,63.96629228230577,5.651771933227578,-30.626051166303597,248.69360089352065,73.76707627263643
58,4.203611732854261,-247.16405307534725,27.545482334717313,66.12374790622752,6.555940742236806,-29.25384506323326,248.74742792197924,74.80990688771772
59,4.252930280052267,-247.2051235012858,27.582934574038287,68.26766174642056,7.457389869861158,-27.896973400512028,248.79292139774972,75.90383874671652
60,4.275733506400255,-247.23375093878013,27.644832328655532,70.37633685253627,8.34002621401866,-26.568720216264595,248.8285852874242,77.03470376897481
61,4.271999865150531,-247.24888207766162,27.731168589371244,72.4286994089617,9.18881820490974,-25.28167660327559,248.85338559936866,78.18726517742338
62,4.242422812298829,-247.24997290246944,27.841583678175024,74.40471455435001,9.990165977648589,-24.047514548132288,248.86676257705062,79.34566555938301
63,4.188370506837748,-247.23698056869506,27.97537396290179,76.2857663294118,10.732216444566449,-22.87678053815264,248.86862269832343,80.4938692018884
64,4.111825315993061,-247.21033599900585,28.131503305000535,78.05499434523001,11.405114443771634,-21.778714345428092,248.8593115507666,81.61608695594275
65,4.015306246994798,-247.17089941243248,28.30861638322374,79.69758061313972,12.001183297803719,-20.761097904908176,248.83956974504434,82.69717252768041
66,3.901778098329514,-247.11990182753593,28.505053630102765,81.20098105689384,12.51503068687268,-19.83013846269005,248.81047492911213,83.72298014715705
67,3.7745513478587416,-247.05887610424824,28.71886816660954,82.55509763094511,12.943578565786913,-18.990389158139557,248.77337356194445,84.68067508149389
68,3.637176638349789,-246.98958131927282,28.94784565615927,83.75238874100468,13.286018800001875,-18.244708967389972,248.72980638965706,85.55899046287405
69,3.4933374271814213,-246.91392429668915,29.18952825385468,84.78791768219142,13.543699158421603,-17.59426257005306,248.68143161422947,86.34842626447735
70,3.346744139770379,-246.83388199007862,29.441243681572754,85.65934080672625,13.719947089467501,-17.03855929282205,248.62994959712273,87.041388682445
71,3.2010330003834606,-246.7514281004922,29.70013994008429,86.36683884756468,13.819841029974134,-16.57552888909725,248.5770325665999,87.63227035081074
72,3.0596724704548595,-246.66846677629817,29.96322551900018,86.91299611159805,13.849940582113975,-16.201630573075576,248.52426218470615,88.11747352367236
73,2.9258798277348634,-246.5867755052387,30.227414506007456,87.30263309070394,13.81798762138777,-15.911990516512654,248.47307704044675,88.4953795547748
74,2.8025499147749926,-246.50795845996922,30.489575824966504,87.54259849512644,13.732590334099275,-15.700562075163871,248.4247312634541,88.76626878264298
75,2.692197532482804,-246.433410688143,30.746585745159237,87.6415269332406,13.602901517257804,-15.560302462860804,248.38026456635114,88.93219546685278
76,2.596914368401206,-246.36429274411586,30.99538258192418,87.60956858561096,13.438301426191876,-15.483359443880463,248.34048319646382,88.99682287774063
77,2.5183407596316365,-246.30151477658276,31.233022159048094,87.4580973164422,13.24809420291546,-15.461261794723079,248.30595064445734,88.96522408438499
78,2.4576520755520703,-246.2457288507987,31.456732298576668,87.19940371858902,13.041225588844902,-15.485107749342697,248.27698667551834,88.84365440051543
79,2.415559122766023,-246.1973284101474,31.66396450356774,86.84637957527896,12.826028319317931,-15.545746400502313,248.25367335288445,88.63930181925646
80,2.3923216861659395,-246.1564540970145,31.85244117744058,86.4122001870509,12.610000408650494,-15.63394807681804,248.2358670524866,88.36002214230658
81,2.387774022336422,-246.12300539290865,32.02019717086637,85.91001107734863,12.399620536253268,-15.740560947286875,248.2232157580292,88.01406598868041
82,2.4013607581497367,-246.09665753810714,32.16561503040649,85.35262584201,12.200203941650042,-15.856652340592873,248.21518099696962,87.60980549793435
83,2.4321812791859383,-246.07688299913997,32.287453796752075,84.75224225099579,12.01580155158901,-15.973634326574073,248.2110636439764,87.15546918330467
84,2.479040440650602,-246.06297655676764,32.38487139477498,84.1201838783773,11.84914438464331,-16.08337387404699,248.21003264470238,86.65889374630774
85,2.540503368877669,-246.05408305724458,32.45744061861315,83.4666742896584,11.70163452216591,-16.178288323024493,248.21115567404217,86.12730148627008
86,2.6149522420050006,-246.0492270648193,32.5051585790122,82.80065011020909,11.57338305285056,-16.251427021852358,248.21343091689357,85.56711118775
87,2.7006432081749785,-246.04734401672545,32.528449311797026,82.12961827362695,11.463294345075553,-16.29653989081605,248.21581949828044,84.98378920168476
88,2.795761925847397,-246.04731285225398,32.52815906647336,81.4595615843587,11.36919469982807,-16.308133483000123,248.21727843530164,84.38174604494368
89,2.8984764173448045,-246.0479902613692,32.505543644145774,80.79489549823133,11.288001827600956,-16.281514830383454,248.21679413670262,83.76428230176663
90,3.0069858777383107,-246.04824657122225,32.462247080185826,80.13847765489817,11.215929703738409,-16.212822980076787,248.2134163377726,83.13358585635228
91,3.1195638636723393,-246.047002920075,32.40027104172985,79.49167008702126,11.148721309892242,-16.099047737900435,248.20629199951048,82.49078045700416
92,3.23459420479817,-246.04326887904605,32.32193465666951,78.85445219722429,11.08189975460973,-15.938034906622171,248.19469826409363,81.83602337868533
93,3.3505982976761035,-246.03617919610372,32.22982514996738,78.22558066058795,11.011026545415932,-15.728477326224517,248.17807317509505,81.16864768586305
94,3.466253119307094,-246.02502803797128,32.12674046886279,77.6027905120569,10.931954674214737,-15.469891301722242,248.15604269805237,80.48734248081348
95,3.5804000551074844,-246.0092991521129,32.01562579783203,76.98302991450906,10.841063953848687,-15.16257853930908,248.12844273318697,79.79036270411115
96,3.6920452671069057,-245.98869066941663,31.89950638534706,76.36271955072722,10.735466828234745,-14.807574465528306,248.0953351859065,79.07575863906938
97,3.8003528187582094,-245.96313351069898,31.78141938849163,75.73802631193895,10.613174611231686,-14.4065846342829,248.05701744343835,78.34161431099149
98,3.904632121598546,-245.93280236124963,31.66434742030213,75.10514006798769,10.47321660920439,-13.961911644944117,248.01402460717784,77.5862835081006
99,4.004321375039471,-245.89811806407562,31.551156125973208,74.46054194433593,10.31570760750941,-13.476375479838888,247.96712367142655,76.80861226101456
100,4.098968469912453,-245.85974031361565,31.444537507998685,73.80125284058546,10.14186247591442,-12.953230394559435,247.9172987880776,76.00813738041191
101,4.188210432120837,-245.81854984614543,31.346960041350368,73.1250519733785,9.95395988381946,-12.396081482833461,247.86572697434272,75.18525208291504
102,4.271752109742907,-245.77561991816754,31.260626036858614,72.43065695605156,9.7552600308359,-11.808803806857751,247.81374412817144,74.34133173075286
103,4.349344579047939,-245.7321776824549,31.187436315379195,71.71785915111977,9.549883630123375,-11.195466540434452,247.76280197000236,73.47881505322165
104,4.4207636301409545,-245.68955697899318,31.128962034415235,70.98761051491071,9.34266092616703,-10.560263957962004,247.71441739516104,72.6012386660253
105,4.485788649197273,-245.64914481885572,31.086423419561957,70.24206071406937,9.138960188770078,-9.907454413929228,247.6701164595499,71.71322509877349
106,4.544182326040415,-245.6123242475842,31.060675183972496,69.48454580078987,8.944504926766484,-9.241307790217375,247.63137563030145,70.82042679164472
107,4.595671967814536,-245.58041632667576,31.052198503356568,68.71953202032,8.7651881327431,-8.566061284383224,247.5995630028568,69.92943050350732
108,4.639933642425823,-245.55462384064364,31.061099422768425,67.95252017146065,8.606890410457932,-7.885882897053103,247.5758820685869,69.0476281033204
109,4.676580607012004,-245.53597918390477,31.087113529658332,67.18991721099937,8.475307117545547,-7.2048416161068,247.56132046772103,68.18306069207212
110,4.705157383178035,-245.5252987595788,31.12961683817283,66.43888252274319,8.375787955093319,-6.526883140136929,247.55660605571444,67.34424348674348
111,4.72514056014261,-245.52314610433166,31.18764312586741,65.7071565473884,8.31319099138517,-5.855809968008965,247.5621725274739,66.53997898533031
112,4.735947040636849,-245.52980572997723,31.259908165660562,65.0028792662779,8.291752088316539,-5.195264671701314,247.57813664122514,65.77916559616793
113,4.736949929042917,-245.54526921151768,31.344841152365163,64.33440526872565,8.314970173757565,-4.54871513396328,247.60428859853306,65.07060807874684
114,4.727501551349616,-245.56923436447522,31.440623178439935,63.710120841252795,8.385508736031984,-3.9194405770307186,247.64009638549936,64.4228348498773
115,4.706962304213008,-245.60111758876275,31.545232044493858,63.138266892004836,8.50511421158138,-3.310517429766395,247.68472403280973,63.843925653044806
116,4.67473339030191,-245.64007870294847,31.65649211492969,62.6267698369796,8.674552466702288,-2.724804456580742,247.7370629190628,63.34135152102975
117,4.630291273404662,-245.6850568763482,31.77212744039302,62.183081091176355,8.893565167914643,-2.1649270088233794,247.79577446460942,62.92182760820322
118,4.573221993800923,-245.73481568833108,31.889816068363462,61.814024752166496,9.16084828715632,-1.6332606662143856,247.85934195828247,62.591178511230105
119,4.503254092294116,-245.78799501058265,32.007243437801634,61.525652610537506,9.474055114626747,-1.1319148487891675,247.9261289395135,62.35421527788267
120,4.420289348149565,-245.84316725442858,32.122153072902655,61.323105873719236,9.829825838184622,-0.6627171753853144,247.99444146161358,62.21462351314073
121,4.324430583083855,-245.89889542584297,32.23239340597278,61.21048393921209,10.223844962204321,-0.2271994191508613,248.06259155383617,62.174862826449626
122,4.216005548745557,-245.9537904087123,32.33596018833498,61.19072204725923,10.65092665269829,0.17341415693207504,248.12895926697158,62.23607918543905
123,4.0955856950439635,-246.0065650319941,32.431034284906815,61.26548138212473,11.105126670490055,0.5382155134238814,248.19205086907496,62.39803326898288
124,3.9639986015005064,-246.0560827177998,32.51601467887114,61.43505677249483,11.57987807182483,0.866618301227208,248.25055100250538,62.65904926328354
125,3.8223330497631194,-246.10139876955324,32.58954644691696,61.69830813866978,12.06814647415441,1.1583599924968448,248.30336686440359,63.015989314102335
126,3.67193599471178,-246.14179267341663,32.65054346574492,62.05262192268654,12.562599546302259,1.4135006374843915,248.34966278278858,63.464258737661524
127,3.5144009011264985,-246.17679018377964,32.69820572418397,62.49390782921541,13.055784596039494,1.6324181186272377,248.38888396633405,63.99784603899494
128,3.351547011169232,-246.20617434879765,32.73203130779646,63.01663447382344,13.540307726454213,1.8157996223234711,248.420768607908,64.6093999785996
129,3.1853892296478277,-246.22998494588333,32.75182328807834,63.61390530244329,14.009007979483378,1.9646289234288155,248.44534785033161,65.29034369132869
130,3.0180986610855847,-246.24850619896768,32.757691784932106,64.27757375466769,14.455120131213015,2.080169030981582,248.46293352539925,66.03102353615347
131,2.8519544620800366,-246.26224334724455,32.75005136330734,64.99839439127534,14.872420321529267,2.163939798371163,248.47409425878476,66.8208882361299
132,2.689288428739266,-246.2718895736195,32.729613722024176,65.7662047882041,15.255349499484904,2.217690252731157,248.47962144256604,67.64869215342326
133,2.5324244084259098,-246.2782856348415,32.697375404753835,66.57013148454197,15.599110786474158,2.243365611102464,248.48048737685053,68.50271531653114
134,2.383615085838829,-246.28237490266196,32.65460009748602,67.3988121805555,15.89973831176505,2.2430691828624165,248.47779822415507,69.37099209784894
135,2.2449789216190488,-246.28515635153522,32.60279508010341,68.24062578779615,16.154136754925723,2.219019607691346,248.4727442458712,70.24154027118108
136,2.118440057085459,-246.28763760920884,32.5436816443317,69.08392196961108,16.360092532028776,2.1735041689615433,248.46654940368217,71.10258262988125
137,2.005673912821722,-246.2907899132894,32.47915970709109,69.91724255329405,16.516259085307965,2.1088292276081004,248.46042218906874,71.94275443285814
138,1.9080610060232726,-246.29550679191422,32.41126725409359,70.72952855299042,16.62211994349985,2.0272690744820383,248.4555095679018,72.75129154291956
139,1.8266510761484063,-246.30256830002452,32.342135571664734,71.51030827487926,16.677934025015915,1.9310146955712413,248.452855977584,73.51819598080246
140,1.762138874215372,-246.312612469348,32.27394155916406,72.24986382488655,16.68466801152526,1.8221241571483078,248.4533691820225,74.23437748620083
141,1.7148521051785137,-246.3261152109616,32.20885877085234,72.93937512091956,16.643920552765895,1.7024765702885947,248.45779441764768,74.89177138787623
142,1.6847512774967213,-246.34337930548233,32.149009043631146,73.57104209128764,16.557842675534257,1.573731779355079,248.46669768805407,75.48343452915364
143,1.671440703391544,-246.364532431208,32.09641650110085,74.13818698004697,16.429058172148686,1.4372978806484478,248.4804583708489,76.00362205973231
144,1.6741895393307291,-246.38953352569138,32.05296543159545,74.63533946562298,16.260587004543137,1.2943083422892483,248.49927060494002,76.44784849447493
145,1.6919614966803826,-246.4181862442468,32.02036306861928,75.05830758934923,16.055773920755517,1.1456099201846495,248.5231523305384,76.81293652456866
146,1.7234516735430534,-246.45015794935625,32.00010764272039,75.40423727745558,15.818223600517282,0.9917618792105657,248.5519604363114,77.0970566520636
147,1.76712884256326,-246.48500259533503,31.993461379098235,75.67166250324284,15.551742813991552,0.833046360147957,248.585410307288,77.29975980354081
148,1.821281440561511,-246.52218598942332,32.0014277836039,75.86054688098282,15.260289379399069,0.6694891561489217,248.6230981455634,77.42200368508982
149,1.8840654342767633,-246.5611119827469,32.02473281538173,75.97231579875174,14.9479271961222,0.5008897019098814,248.66452455642923,77.46617186743774
150,1.9535522448778473,-246.60114804160648,32.06381008239402,76.0098762758255,14.618786330976578,0.3268587378109324,248.70911788256828,77.43608262948251
151,2.0277751036978167,-246.64164854983034,32.11879050952186,75.97761986394855,14.27702704575616,0.14686189197169905,248.7562557305909,77.33698272700913
152,2.1047726083918357,-246.68197438261734,32.189496850536685,75.88140244181801,13.926806734687357,-0.039732682919857064,248.80528332354865,77.17551981669325
153,2.182628762357763,-246.7215078531918,32.27544314390974,75.72849395575189,13.572248897364467,-0.23360450443945122,248.85552783833376,76.95968650586062
154,2.2595092846400546,-246.75966292102905,32.37583901611118,75.52749118777648,13.217413406416904,-0.4354306617829876,248.90630864303256,76.69872904423858
155,2.3336943575408635,-246.79589134784885,32.489598759002185,75.28818755372059,12.86626740459321,-0.6458372983685522,248.9569441416386,76.40301458665898
156,2.4036081292215616,-246.82968608753353,32.61535528987249,75.02139578221626,12.52265620694454,-0.8653545709606897,249.0067565480375,76.08385277542854
157,2.4678451744861856,-246.8605834222733,32.751479248120894,74.73872206571542,12.1902736111443,-1.094376966118939,249.05507614764704,75.75327008961828
158,2.525193840580388,-246.88816513500936,32.89610347726419,74.45229372571109,11.872631032829995,-1.333130702200591,249.10124637589755,75.42373880884372
159,2.574656143803115,-246.91206144432462,33.04715302853278,74.17444624827301,11.573024902460626,-1.5816495644396238,249.14463046091973,75.10786620109091
160,2.6154637577815874,-246.93195479110258,33.20238067046829,73.91737928685534,11.294501846057088,-1.8397599054532496,249.18461971999295,74.81805324617498
161,2.647089653357294,-246.94758414463325,33.35940772035665,73.69279448194254,11.039821390822274,-2.107074803710076,249.22064315466918,74.56613544727534
162,2.669255050924266,-246.9587494054231,33.51576986756827,73.51153036986244,10.811416311987092,-2.3829966795880773,249.25217787788156,74.36302072792434
163,2.6819314433237453,-246.96531559019706,33.66896757037501,73.383210989667,10.61135124199009,-2.6667271603544624,249.27875999956944,74.21834080459848
164,2.685337472079924,-246.96721655450142,33.816520494093446,73.31592488811805,10.441280739392306,-2.9572827273567066,249.2999956483473,74.14013260258713
165,2.679930399642331,-246.9644579267102,33.95602515838264,73.31595002863348,10.302408590603775,-3.2535146704783138,249.31557168216438,74.13456519688143
166,2.6663918968625433,-246.95711877523502,34.085214440141435,73.38753775450836,10.195450610669642,-3.55413204855316,249.3252654178633,74.20572551923478
167,2.6456079337816143,-246.94535145577203,34.20201701940261,73.53276573984715,10.12060353149824,-3.8577266099311505,249.32895255940886,74.35547295666896
168,2.6186427660847253,-246.92937915250607,34.30461450681156,73.75146615703935,10.07752265141817,-4.162798909247722,249.32661252499435,74.58336933264587
169,2.5867073746064095,-246.90949079390253,34.39149395430277,74.0412314141498,10.065310773444748,-4.467785164056717,249.31833053643507,74.88668692447038
170,2.5511231925151256,-246.8860332166885,34.4614936350612,74.39749602277813,10.082520635521847,-4.771084704653802,249.3042960555573,75.26049338822894
171,2.513282386498505,-246.85940064305888,34.51384022449968,74.81368970392943,10.12717255476737,-5.071088097160912,249.2847973804712,75.69780899031501
172,2.474606192136968,-246.83002175409266,34.54817574213814,75.28145398050982,10.196788353210783,-5.366206083746886,249.26021246398068,76.18982862820646
173,2.4365028150314285,-246.79834492802695,34.56457287194105,75.79091240705662,10.288441835927118,-5.654899386243663,249.23099633352447,76.72619893212119
174,2.400326262779878,-246.764822560851,34.56353764713602,76.33098327008095,10.39882524010043,-5.935709237557711,249.1976658852198,77.29533930911676
175,2.367337238595719,-246.729895704159,34.54599897571275,76.88972295159945,10.524330224414383,-6.207288312529372,249.1607832035841,77.88479503110587
176,2.338666990916492,-246.6939803922369,34.51328502771882,77.4546880238948,10.66114112333186,-6.468431520720915,249.12093876763566,78.48161021925921
177,2.315284890848209,-246.6574569112785,34.467087021939996,78.01330436987918,10.805337349486617,-6.718105840060638,249.07873585760802,79.07270867127781
178,2.297970561855617,-246.62066296714087,34.409411405720434,78.55323206431781,10.953001054744165,-6.95547801232008,249.03477724784375,79.6452707874432
179,2.2872915301641137,-246.58389136716627,34.34252186924011,79.06271534382341,11.100325601007565,-7.179938580791965,248.98965499814744,80.1870953378101
180,2.2835874261075166,-246.54739248202551,34.268873138981206,79.53090775626606,11.243720195872859,-7.391120523864278,248.94394388099133,80.68693552114165
181,2.286961633824299,-246.5113813646153,34.191038988695716,79.94816354627324,11.379906264510433,-7.5889106753259945,248.89819866591193,81.13479974217057
182,2.297280977672336,-246.47604898960162,34.11163720281667,80.306287494927,11.506001682720743,-7.773452271900705,248.85295511412087,81.52220876835186
183,2.3141836373399665,-246.4415766657485,34.03325423613585,80.59873676146582,11.619589764866756,-7.945137394336074,248.80873412852276,81.84240238642766
184,2.33709507534878,-246.40815226508326,33.95837214317951,80.82076976874252,11.718770775294931,-8.10458877381654,248.76604807232522,82.09049034550384
185,2.3652513791045937,-246.37598657281836,33.88930013360815,80.96953885692065,11.802194613930586,-8.252631294467426,248.72540789606333,82.26354424383888
186,2.3977290844038865,-246.34532791021346,33.82811286294079,81.04412531865644,11.86907413276016,-8.39025432675737,248.6873295216328,82.36062907295853
187,2.433480258885798,-246.3164732674687,33.776597283252045,81.04551746693753,11.919179242031554,-8.518566633253345,248.65233797114774,82.38277529884579
188,2.4713713639502872,-246.28977445925787,33.73620958439649,80.97653441420017,11.952812590516777,-8.638746003445206,248.62096795691627,82.33289448336565
189,2.5102241934712497,-246.2656382031411,33.70804341535019,80.84170006737453,11.970768177950925,-8.7519860657636,248.59375998373244,82.21564335317763
190,2.5488570777595894,-246.24451944371617,33.69281010802279,80.64707334227629,11.974274774039714,-8.859442918426195,248.57125136922417,82.03724278650975
191,2.5861245964055315,-246.22690766989754,33.69083109362726,80.40004172557724,11.964926473033414,-8.9621843154297,248.55396193846428,81.80525936377691
192,2.6209542189057964,-246.21330642922672,33.702042259302196,80.10908604516975,11.944603123596803,-9.061144131142386,248.54237454618558,81.52835790032695
193,2.652378495742048,-246.20420677037595,33.72600965925227,79.78352463164799,11.915383753667374,-9.157084650297163,248.5369110630456,81.21603372740336
194,2.679561632813689,-246.2000559359758,33.761955705129935,79.43324496775942,11.879456432114434,-9.250568815412413,248.53790501351554,80.87833340236077
195,2.7018195479003597,-246.2012232179533,33.80879476875108,79.06843048075241,11.839028200017022,-9.341943925849742,248.5455726147736,80.52557205210044
196,2.71863286534237,-246.20796538100916,33.865177099393115,78.69928943322311,11.79623868443231,-9.431337545509201,248.55998445342755,80.16805478111966
197,2.729652755615247,-246.22039436816988,33.92953994630274,78.33579203750608,11.753080750501812,-9.518665662940604,248.5810403446439,79.81580863978553
198,2.7347000464574482,-246.23845003242715,34.00016456534841,77.9874210897005,11.711331097372701,-9.603652491801043,248.60844992437146,79.47833069078246
199,2.7337585219229688,-246.26188031477167,34.075237353849246,77.66294070940506,11.672493129122923,-9.685860681382849,248.6417211498457,79.16435685710965
200,2.726963598760265,-246.29023066679434,34.152912897628944,77.37018725399089,11.637753777299853,-9.764730149276046,248.68015820548027,78.88165556604031
201,2.7145875014035816,-246.32284375824062,34.23137645447337,77.1158861512997,11.607955221447089,-9.839623325558176,248.7228695214576,78.63684972871751
202,2.6970217439926536,-246.35886971155335,34.30890342587446,76.9054981829869,11.583581657976207,-9.909874352376578,248.7687858188169,78.43527024272579
203,2.6747574344069083,-246.39728629696233,34.38391362515388,76.74309853329028,11.564760484441676,-9.97483969047433,248.81668732296592,78.280843866113
204,2.6483638436412247,-246.4369278013797,34.455018524865814,76.63129158316472,11.551276622334832,-10.033947606656804,248.86523862172731,78.17601788948967
205,2.618465818357741,-246.47652075521202,34.52106008144003,76.5711639090065,11.542598273207735,-10.086744131359913,248.91302917535546,78.12172346912801
206,2.5857207921894965,-246.51472433400926,34.58114016562074,76.56227723139837,11.537912176583308,-10.132933268913641,248.95861718078842,78.11737876876182
207,2.550796238674735,-246.55017299428033,34.63464005512708,76.60270217611821,11.536166354336292,-10.172409515288784,249.0005742956599,78.16093220773412
208,2.514348377662914,-246.58151888096853,34.68122979595509,76.689092659179,11.536118325743645,-10.205281105953077,249.03752875454418,78.24894512567455
209,2.477002838703746,-246.60747194350398,34.7208674582108,76.816799471002,11.536386834947258,-10.231882888152622,249.06820483811634,78.37671202930207
210,2.4393378710282305,-246.6268364214195,34.753788513842764,76.98002021971115,11.535505273224912,-10.252778276647629,249.09145740511676,78.53841529645916
211,2.401870635843544,-246.63854303051778,34.78048590993761,77.1719812761215,11.531975233572293,-10.268750372377712,249.10630091279654,78.72730985053445
212,2.365047108658283,-246.64167653015437,34.80168186069395,77.3851458986563,11.524318971690258,-10.280782913803126,249.11193276202386,78.9359320181334
213,2.329236053082807,-246.6354984363365,34.818292739082416,77.61144149609038,11.511129865372414,-10.29003218853842,249.1077509347854,79.15632569831497
214,2.294727329560098,-246.6194646445652,34.83138863259845,77.84249815268164,11.491120180046506,-10.297791328051725,249.09336591231263,79.38027822425606
215,2.2617345154119333,-246.5932377215072,34.842149200498156,78.06989014372158,11.463165561357709,-10.305448605717709,249.06860686213471,79.599557946439
216,2.2304015127571595,-246.5566936085344,34.851817488937215,78.28537219466006,11.426345723046218,-10.314441537815618,249.03352206400487,79.80614561435662
217,2.2008125211679705,-246.509922474009,34.86165334925555,78.48110265240977,11.379980780534074,-10.326208757984936,248.988373531858,79.99245205427039
218,2.173004444554416,-246.4532235189078,34.87288811165137,78.64984651641716,11.323662592746526,-10.34214173836924,248.9336258511162,80.15151540002749
219,2.146980543564915,-246.3870937240008,34.88668220576948,78.78515239147639,11.257280365297195,-10.363538396035267,248.86992943188946,80.27717220325312
220,2.122724051436767,-246.31221084043267,34.90408737688877,78.88149882394015,11.181039689086553,-10.391560422779753,248.79809867945704,80.36419808360293
221,2.100210628927172,-246.22941137592784,34.92601484916984,78.93440708096202,11.095474137207164,-10.427195838540932,248.7190859897695,80.40841509757513
222,2.079418896415279,-246.13966485190429,34.953210239729955,78.94051911493028,11.001448530815654,-10.471227869789727,248.63395292746472,80.40676460447212
223,2.060338660895688,-246.04404602498718,34.986235496107334,78.89764110063385,10.900153093004112,-10.524210874904615,248.5438402945092,80.35734599095362
224,2.042976689813594,-245.9437069166754,35.02545785209717,78.80475443012001,10.793088011453262,-10.58645370122444,248.4499389153975,80.25942308453816
225,2.027360001301508,-245.83985036691647,35.0710456874471,78.66199731846693,10.682038404144702,-10.658010530994458,248.35346282695076,80.11340135512542
226,2.013536770240282,-245.7337064972641,35.12297099954426,78.47062115051787,10.569040230627776,-10.738678958581788,248.2556262127965,79.92077999857166
227,2.001575105750878,-245.62651299376807,35.18101789342561,78.23292631960454,10.456338206511324,-10.828004818281203,248.15762491390691,79.68408364907776
228,1.9915600389570822,-245.51949958590743,35.24479617391281,77.95218253690383,10.346337190926995,-10.925293201826285,248.06062277549023,79.40677873659902
229,1.9835890267932612,-245.41387662626127,35.31375886492698,77.63253845447429,10.241548805018878,-11.029625090356703,247.96574258660382,79.09317940787113
230,1.977766184985708,-245.3108272832677,35.38722235735543,77.27892501712167,10.144535213541634,-11.139878951563743,247.87406096035153,78.74834751983819
231,1.9741953839976167,-245.21150248639952,35.464387981347464,76.89695629487554,10.05785207741562,-11.2547564952652,247.78660614395133,78.37799054813172
232,1.9729723235304548,-245.1170174490663,35.54436410215108,76.49283069582238,9.983992654175607,-11.372811623671382,247.7043574781949,77.98836038832843
233,1.9741757683678816,-245.02844844794038,35.626188227968946,76.07323449451695,9.925334836576349,-11.49248153152813,247.62824513487027,77.5861550442511
234,1.977858269820037,-244.9468285910965,35.70884896116133,75.64524863209454,9.884092540402856,-11.612118918713714,247.5591488621015,77.17842419007259
235,1.9840368648303564,-244.87314154965605,35.79130781164698,75.2162588213426,9.862272329894214,-11.730024366150145,247.49789473377464,76.77247863645268
236,1.9926843659436426,-244.8083126434822,35.8725208371503,74.79386815360465,9.861635620504167,-11.84447808508084,247.44524930228457,76.37580286710269
237,2.003721856776209,-244.75319716005464,35.95145979746998,74.38581068223988,9.883666313994933,-11.95377043954824,247.401910995743,75.99596907199752
238,2.0170128840400876,-244.70856619716992,36.02713218846565,73.99986390401176,9.92954332598955,-12.056230807849378,247.36849895872814,75.64055053569815
239,2.032359687717533,-244.67509062069502,36.09859941216116,73.6437577388134,10.00011719949389,-12.150254472380293,247.34553981402678,75.31703191014445
240,2.0495017392519905,-244.6533239855818,36.1649926090317,73.32507755529177,10.095889957640061,-12.234327330505113,247.3334531141174,75.03271386305897
241,2.0681168436036974,-244.64368547516128,36.225526252955156,73.0511590042049,10.21699758986223,-12.307048322967374,247.3325365385572,74.79460985435115
242,2.0878249993821347,-244.64644397667607,36.279510170277725,72.82897289589539,10.363194993662729,-12.367149573146325,247.34295203662526,74.6093333313821
243,2.108195061521447,-244.66170430826296,36.3263608667713,72.6649991201701,10.533843635034987,-12.41351430121651,247.36471404336797,74.48297444889025
244,2.1287540786898482,-244.6893964295794,36.36561287589368,72.56508971131315,10.72790252767531,-12.445192615398811,247.39768068862077,74.42096654821107
245,2.1489990514647452,-244.72926827259565,36.39693048546659,72.53432261033221,10.943923337272397,-12.461415274560382,247.44154867061337,74.42794407040643
246,2.1684107798126315,-244.7808826308488,36.42011984113021,72.5768493426226,11.18005051695878,-12.461605425915186,247.49585221548315,74.50759520166908
247,2.186469412858869,-244.84361836064457,36.43514104428076,72.69574150045976,11.434027423255293,-12.445388133003332,247.55996630438702,74.66251415436795
248,2.202671253763198,-244.91667597903577,36.44211937856789,72.89284242800656,11.703209392857657,-12.412597280939787,247.63311411170218,74.89405942399459
249,2.2165462769468824,-244.99908754075472,36.4413542977814,73.16863175402119,11.984584771280739,-12.36327928984852,247.71437832372115,75.20222555163981
250,2.2276756798451727,-245.089730423503,36.43332453495891,73.52211128129237,12.27480480838954,-12.297693054164933,247.8027157178732,75.58553674525234
251,2.235708664388181,-245.18734443670664,36.41868782449459,73.95072102884383,12.570223115110094,-12.21630561262945,247.89697419257274,76.04097096720997
252,2.240377591465998,-245.29055159517773,36.39827420412741,74.45029375994005,12.86694502514208,-12.119783142970277,247.99591143922117,76.56392259825914
253,2.241510715308289,-245.39787796262084,36.37307247430674,75.01505507501412,13.160886794413555,-12.008976944665562,248.0982146051138,77.14821050622015
254,2.239041868823205,-245.5077770644986,36.34420999405588,75.63767421643945,13.447844156451929,-11.884904200959172,248.20252048145304,77.78613641434535
255,2.2330166718680626,-245.61865439128636,36.312926543350294,76.30936833525666,13.72356935842167,-11.748723572537903,248.30743585495313,78.46859610418338
256,2.223595011577722,-245.72889245658234,36.28054343132558,77.02006034292826,13.983855443123684,-11.601706069707658,248.4115576724304,79.18524343152131
257,2.2110496632237635,-245.83687582816015,36.24842929960307,77.75858779011972,14.224626211968202,-11.445202113673744,248.51349266129796,79.92470454017483
258,2.1957609637995326,-245.9410156115175,36.21796415906094,78.51295759501903,14.442029974560112,-11.280606135494189,248.61187612151258,80.67483711723614
259,2.1782074523018777,-246.03977307417028,36.190503185379384,79.27063902087221,14.632534860401135,-11.109320373451608,248.70538980751618,81.42302715911336
260,2.1589524562514306,-246.13168239181354,36.16734171053805,80.01888525328381,14.793023185769847,-10.93271964202268,248.7927790951086,82.15651368057598
261,2.1386268183939374,-246.2153727119811,36.14968264135479,80.74507238647098,14.920882157547274,-10.752118750097742,248.87286981189624,82.86273023472465
262,2.1179082864274927,-246.28958973152967,36.1386072438944,81.43704362803898,15.014088008365627,-10.568744025143934,248.94458507083468,83.52965105926116
263,2.0974984121322104,-246.35321678786758,36.13504997225781,82.08344605660456,15.071280462737834,-10.383710187142167,249.00696221631955,84.1461291213842
264,2.0780980264398257,-246.40529518916858,36.13977783445687,82.67404732071117,15.091824297356707,-10.198003692867106,249.05916969387187,84.70221332887235
265,2.060382452078843,-246.4450432678303,36.153374614412414,83.2000202870601,15.07585478680945,-10.0124735903883,249.10052338969203,85.18943275835996
266,2.044977615043072,-246.47187350390524,36.17623008307865,83.65418484077277,15.024304076973207,-9.827830745334992,249.13050182156047,85.601036928222
267,2.0324381495793307,-246.48540703949723,36.208534186457285,84.03119773569713,14.938906014168012,-9.644655914768297,249.14875951420174,85.93218283116462
268,2.02322846566234,-246.48548493953322,36.25027611725947,84.32768344285579,14.822177676075063,-9.46341656352145,249.1551379125372,86.18006150008867
269,2.0177075565172684,-246.4721755886964,36.30124813338393,84.5423012088924,14.677376771257936,-9.28449165344917,249.14967321171548,86.3439591790402
270,2.0161180584594387,-246.44577762399769,36.361053978262845,84.6757459268456,14.508435125590509,-9.108203018881806,249.1326004890173,86.42525062367591
271,2.0185797542345636,-246.40681782624597,36.42912175844791,84.7306828817342,14.319869558069444,-8.934851469813626,249.10435354458494,86.42732459770761
272,2.025087413899636,-246.35604351749276,36.5047210228062,84.71161889424448,14.11667247386835,-8.764755479954824,249.06555996353524,86.35544418243951
273,2.035512703128665,-246.29440926682886,36.586983517804704,84.62471475224888,13.904185411695934,-8.598290183567366,249.01703112567873,86.21654696887447
274,2.049609898907799,-246.22305802200466,36.6749268335316,84.47754597020484,13.68795954321727,-8.435924330743092,248.9597471637687,86.01899242277469
275,2.067025261826894,-246.14329707851502,36.76748010098099,84.27882072208727,13.47360767252505,-8.278252781367266,248.8948371544783,85.77226556200634
276,2.0873099871592324,-246.05656955333083,36.863511036683136,84.03806516833127,13.266652527229605,-8.12602210518223,248.823555097456,85.48664746846343
277,2.1099365847680227,-245.9644222484495,36.961853781315924,83.76528732659783,13.07237603924228,-7.980147003696564,248.7472524721988,85.17286406583196
278,2.134318272143834,-245.86847094845444,37.0613370025488,83.47063116144335,12.895673990117901,-7.841715651178412,248.66734831850934,84.84172509572939
279,2.1598305367277635,-245.77036428177482,37.16081160378382,83.16403276570023,12.740920015908234,-7.711982692768214,248.58529784661246,84.50376542491709
280,2.185833595437881,-245.67174730904136,37.25917716755052,82.85489046139496,12.611842644913537,-7.592349510712123,248.50256058036098,84.16890081411458
281,2.2116943018229613,-245.57422601824035,37.35540607901962,82.55176039590715,12.511418795948062,-7.484332359059584,248.4205690241266,83.84611009810018
282,2.2368062475085844,-245.4793339111129,37.44856424609777,82.26208869483624,12.441786950061902,-7.389519902226364,248.34069884662344,83.54315528571732
283,2.2606072269679274,-245.38850181950167,37.53782754467712,81.99199034805731,12.404182959653035,-7.309522437797169,248.26424156686588,83.26635025486905
284,2.282593637151382,-245.30303192367006,37.622493525603225,81.74608366267067,12.398901122008752,-7.245915567275929,248.19238063015328,83.02038739125585
285,2.3023316852358904,-245.22407661835405,37.70198833027281,81.52738728468975,12.425282697275845,-7.200181272233571,248.12617150654256,82.80822966517727
286,2.3194655422634476,-245.15262246498284,37.77586903135338,81.33728449375802,12.481733482408083,-7.173649280435547,248.06652608650435,82.63107328341123
287,2.333722799369639,-245.08947913760286,37.84382181894366,81.17555678754209,12.5657713216226,-7.167441354214236,248.01420135531612,82.4883832713037
288,2.3449176439802035,-245.0352730916074,37.90565671441993,81.04048580394445,12.67410347697406,-7.1824208102507505,247.96979219254794,82.37800124362067
289,2.352952041269513,-244.99044560155417,37.961299752846514,80.92901950273746,12.802732577941113,-7.219149250019439,247.93372809974218,82.29632133574998
290,2.3578150000302274,-244.95525473902183,38.010783670329076,80.83699538948095,12.947088471648494,-7.2778521554032665,247.9062735971414,82.23852694170768
291,2.3595798539474355,-244.9297807552185,38.054238008369374,80.7594105845531,13.102181810233882,-7.358394676847389,247.88753190365276,82.19887772351724
292,2.358399434077675,-244.91393422500175,38.091879264276336,80.6907258947084,13.26277377279136,-7.4602685789886625,247.87745136219425,82.17103350621778
293,2.354499026655372,-244.90746626627708,38.124001393573046,80.62518891222109,13.423555102833447,-7.582590842563485,247.87583398010307,82.14839934895903
294,2.3481670739123324,-244.90998019581917,38.15096673892156,80.55715973023854,13.579326839773167,-7.724113812499963,247.8823454653429,82.12447449084469
295,2.33974364285304,-244.92094407900794,38.17319736823609,80.48142229384028,13.725174852749673,-7.883246106249933,247.8965262203034,82.09318720447088
296,2.3296067427717944,-244.93970375261526,38.191166779463956,80.39346485427767,13.856630537800399,-8.058082926755567,247.9178028705231,82.04919801243777
297,2.3181566721882354,-244.96549607847012,38.20539188766829,80.28971456812005,13.969810725022834,-8.24644410795252,247.945500075157,81.98815533994339
298,2.3057987884191835,-244.99746244030808,38.216425134332155,80.16771399170071,14.061530890629689,-8.445918178246067,247.9788526064719,81.90689049112343
299,2.2929253983646984,-245.03466275700626,38.224846461289,80.02623089918862,14.12938717000993,-8.65391087295846,248.0170179306315,81.80354268048464
300,2.2798977486797685,-245.07609042029628,38.231254800451666,79.86529714345937,14.171804403720797,-8.867696755904172,248.05908964415568,81.67760936445953
301,2.2670292315443623,-245.12068850361064,38.23625871025064,79.6861767157653,14.188049400270032,-9.084472857648006,248.1041120589113,81.52992181783898
302,2.254570902889961,-245.1673674022546,38.24046590046899,79.49126730787087,14.178210559032985,-9.301413483329668,248.1510960621337,81.36255031854911
303,2.242700292271244,-245.21502386646324,38.24447163289773,79.28394324837981,14.143146767778966,-9.515725580092818,248.19903621885805,81.17864711937145
304,2.2315143074039714,-245.26256119860724,38.24884631811397,79.06835056697321,14.084409965049401,-9.7247042338828,248.24692894564527,80.98223846682087
305,2.221026800215504,-245.30891018353395,38.25412295356269,78.84916716324479,14.004146891661941,-9.925787883525112,248.2937914321334,80.77797928289989
306,2.2111710664172066,-245.35305016192365,38.2607852504987,78.63134263517838,13.904986276497915,-10.116612624369653,248.33868085742466,80.57088575002054
307,2.201807221938601,-245.39402961971686,38.26925733609201,78.4198331265146,13.789917898017574,-10.295064570969586,248.38071341343357,80.36606179393671
308,2.1927340721592516,-245.4309857300838,38.279895830260635,78.21934635266007,13.66216959034886,-10.459328802986567,248.41908269167178,80.16843513022563
309,2.1837047855808267,-245.46316234104168,38.292984885719804,78.03411062576879,13.525087444048127,-10.60793308822456,248.45307700879707,79.98251703536262
310,2.1744453977717293,-245.48992588036438,38.30873441880498,77.86767932810214,13.382023418918626,-10.739784452005354,248.4820951661069,79.81219747989323
311,2.164674902455563,-245.51077859371682,38.3272813516833,77.72277921205435,13.23623352801181,-10.854196721066574,248.5056600191954,79.66058407368311
312,2.1541254932849876,-245.52536858034048,38.348693425642125,77.60120755965052,13.090788746454194,-10.950907326748432,248.52342924308266,79.5298898388331
313,2.1425615110570826,-245.53349632877132,38.37297506024795,77.50377997783178,12.948499876045673,-11.030081879816608,248.53520290423964,79.42137150363325
314,2.1297958622996758,-245.53511776869868,38.40007469085856,77.4303276509648,12.811856822243234,-11.092305395824923,248.54092775920165,79.33531703164691
315,2.115702987255483,-245.53034402408795,38.42989299855618,77.37974028163124,12.682982224191226,-11.138559611910434,248.5406983677853,79.2710785528742
316,2.10022772140583,-245.51943799255707,38.46229157315892,77.35004872232815,12.56359919150178,-11.170186545385976,248.53475507165413,79.22714475009595
317,2.0833896254758306,-245.50280769506625,38.497101805783345,77.33853948144015,12.455012982109567,-11.188839190151821,248.52347875166066,79.20124508930918
318,2.0652826887196687,-245.48099621138584,38.53413398978038,77.34189202847956,12.358106626578532,-11.196420970266116,248.50738218142294,79.19047717601855
319,2.046070785300683,-245.45466806653855,38.573186579855886,77.35632931065189,12.273350587791978,-11.195016304841747,248.48709784349606,79.19144812474565
320,2.025979748836412,-245.42459216078433,38.61405537525756,77.37777219864772,12.200826437502549,-11.186815407834288,248.4633622747022,79.2004212084796
321,2.005287237758723,-245.39162159122836,38.65654220623729,77.40198959158921,12.140264178799894,-11.17403713876821,248.43699723256205,79.21346007802205
322,1.9843116135422816,-245.3566708382601,38.70046264816275,77.42473739275488,12.091092216901615,-11.158854104619715,248.40888808911595,79.22656424518186
323,1.963400895518277,-245.32069079084894,38.74565240805008,77.44188127950761,12.052498118038693,-11.143324075914055,248.37995987544238,79.23579105539062
324,1.9429225785393192,-245.28464211274687,38.791972229034194,77.44949996679749,12.02349732999647,-11.129331065277384,248.35115145590854,79.23736088677462
325,1.9232547505073359,-245.24946762864036,38.83931127244704,77.44396742318266,12.003006147676713,-11.11853828344094,248.32338850072017,79.22774377017784
326,1.9047785611396595,-245.21606470213112,38.88758888029196,77.42201420375567,11.98991456087355,-11.112353943128216,248.297556203583,79.20372704802388
327,1.887871765497863,-245.18525882605945,38.93675445431623,77.38076963528611,11.983154339022477,-11.111909802272375,248.27447291027312,79.16246504673899
328,1.8729029118508893,-245.15777969265517,38.98678503332337,77.31778784184684,11.981757832510297,-11.118051537448611,248.25486584693593,79.10151286921847
329,1.8602257881039486,-245.13424082508735,39.03768010016549,77.23106129761379,11.984903475478712,-11.131339494546708,248.23934994686348,79.01884708945008
330,1.8501738940648413,-245.11512353704705,39.08945325516527,77.11902559185555,11.99194480806864,-11.152058021930786,248.22841048120353,78.91287620243851
331,1.843054845485633,-245.1007656613195,39.142120663495554,76.98055844651081,12.002420945742443,-11.180231411310709,248.22238992041585,78.78244319802386
332,1.8391446657911434,-245.09135520218513,39.195686583160715,76.81497497536085,12.016047751681683,-11.215644436188771,248.22147923295407,78.62682180880545
333,1.8386818950776027,-245.08692884499501,39.25012673964123,76.62202000849224,12.032690436976111,-11.257865603590918,248.22571367991543,78.44570710530513
334,1.8418614321404683,-245.08737512574612,39.30537075463955,76.4018572816888,12.052319808996948,-11.306271548578971,248.23497310365852,78.23920040701755
335,1.8488281141333798,-245.09244200747867,39.36128518577546,76.15505460431399,12.074955747718944,-11.36007147649986,248.24898670737954,78.0077881019701
336,1.8596702302474635,-245.10174855048794,39.417658927903695,75.88256389600969,12.100602543785316,-11.418331080550121,248.26734229389587,77.75231399202067
337,1.8744133665205676,-245.11480022132568,39.47419271608151,75.58569524407503,12.129181392782012,-11.479995770562404,248.28949978961697,77.47394518935737
338,1.893015092985459,-245.13100719342637,39.53049424010121,75.26608479265622,12.160465599000617,-11.543913239128337,248.31480865275336,77.17413228573353
339,1.9153609995292455,-245.14970488365896,39.58607995424797,74.92565716072828,12.194023880133475,-11.608855408380752,248.342528589194,76.85456534487086
340,1.9412624763453994,-245.17017599560242,39.64038408756269,74.56658398115597,12.229176543959674,-11.673539805239987,248.37185293310918,76.51712804199781
341,1.9704564687861372,-245.19167340777122,39.69277469706383,74.19124084911043,12.264968272252384,-11.736650524132276,248.40193400984725,76.16385281379156
342,2.0026073119556873,-245.2134432815627,39.74257596667909,73.80216531870235,12.300159953886405,-11.79685911943916,248.43190973236298,75.79688005932645
343,2.0373107559258163,-245.23474778905134,39.78909546346721,73.40201852455777,12.333240640197094,-11.852845877682,248.46093062921352,75.41842418277695
344,2.0741004105012597,-245.25488687867107,39.83165478534254,72.99355251802241,12.36245937859248,-11.903321822268824,248.4881864764742,75.03074857639396
345,2.112456923556267,-245.27321848631823,39.8696219083952,72.57958452388254,12.38587548134756,-11.947051493298313,248.51293167629302,74.63615054275834
346,2.151820099052358,-245.28917659863458,39.90244343554048,72.16297813931793,12.401424717513917,-11.982876141740451,248.53450850652948,74.23695576342713
347,2.191603836914582,-245.30228663586624,39.92967481134723,71.7466302018499,12.406997980786391,-12.00973664478127,248.55236740131693,73.83552045021123
348,2.2312133598606527,-245.3121777044212,39.951006477027825,71.33346088003722,12.400528255684204,-12.026695292318436,248.56608348567076,73.43423802298308
349,2.2700638212978035,-245.31859130406576,39.966284021531685,70.92640367564486,12.380081282317994,-12.032955623397674,248.5753686314643,73.03554624485518
350,2.307599122031442,-245.32138609190565,39.975520754705435,70.52839158328194,12.343945226969138,-12.027879651324897,248.58007837711494,72.64193031765154
351,2.343309589837337,-245.32053839424162,39.97890181217006,70.14233570803515,12.29071484657093,-12.011002028182423,248.5802132514774,72.25591754952794
352,2.376747094996915,-245.31613833690184,39.97677973770739,69.77109323489464,12.219366056171571,-11.982040877412988,248.5759143553293,71.88005987470409
353,2.4075362620247103,-245.30838168890284,39.96966220599237,69.41742276023312,12.129317440906803,-11.940905098862045,248.56745339219697,71.51690170235717
354,2.4353807803475718,-245.29755776693514,39.95819300000744,69.08392654943057,12.020476005096652,-11.887697918090884,248.55521766525234,71.1689321968471
355,2.460064381438569,-245.2840340408414,39.94312762652842,68.77298112573727,11.893265210827112,-11.822716387390935,248.539690893796,70.83852299090985
356,2.4814466728434588,-245.268238361265,39.92530520360067,68.48665952969453,11.748634087817265,-11.746446570503618,248.52143102553993,70.52785433122823
357,2.4994545411977613,-245.25063989966557,39.90561850836857,68.226650391484,11.588046921504958,-11.65955433321744,248.50104643265382,70.23883455139776
358,2.514070204810251,-245.23172994022255,39.88498415695216,67.99418037419035,11.4134537790204,-11.562871973678533,248.47917194465614,69.97301931104732
359,2.5253172349252737,-245.2120036688363,39.86431461320561,67.78994730964877,11.2272429183118,-11.457381221006019,248.45644613566432,69.7315379537428
360,2.5332459863659365,-245.19194403936476,39.84449313678904,67.61407125541277,11.032176913715528,-11.344193299500544,248.4334911278133,69.51503439830628
361,2.53791985913173,-245.1720085399068,39.826352167806135,67.46606968133074,10.83131506426644,-11.224526794954269,248.41089582113034,69.32362910914478
362,2.53940363333395,-245.15261925198743,39.810655248522075,67.34486114158463,10.627925279676585,-11.099684024462237,248.3892029703774,69.15690698193022
363,2.537754811297033,-245.13415618751569,39.798082402405186,67.24879932936942,10.425389139445528,-10.971026549125535,248.36890009415504,69.01393365394803
364,2.5330185390448863,-245.11695363497896,39.78921880887828,67.17573665414191,10.2271041653194,-10.839950412423603,248.35041393406487,68.89330010191954
365,2.5252263351323623,-245.1012991047852,39.78454656482449,67.1231137670403,10.036387494238678,-10.707861645585714,248.33410803020948,68.79319274989525
366,2.514398559987095,-245.08743435871472,39.78443926601998,67.08806910259915,9.85638506683807,-10.576152524556651,248.32028286256073,68.71148397368792
367,2.5005503221398406,-245.0755579456498,39.789159035324374,67.06756074077258,9.689990159573751,-10.44617895870007,248.30917792542198,68.64583608604222
368,2.48370032833519,-245.0658286637891,39.798855555129926,67.0584918715084,9.53977458360937,-10.319239256313088,248.30097508641785,68.59381077257854
369,2.463882008359027,-245.05836939400788,39.81356677931871,67.057830924806,9.407935143488322,-10.196554396767977,248.29580262166763,68.5529755949968
370,2.4411560630334628,-245.05327076537864,39.83322128693296,67.06271799400805,9.296257005602955,-10.079249889150175,248.2937393776902,68.52099958157291
371,2.4156234199006836,-245.0505941375815,39.85764249839102,67.0705504691072,9.206094500858413,-9.968339334072018,248.29481857227105,68.49573103840032
372,2.3874374779823153,-245.05037344317464,39.88655507107746,67.0790427130304,9.138368642412587,-9.864709899828632,248.299030817462,68.4752524477447
373,2.3568145215094507,-245.05261551873656,39.91959375797618,67.08625697881203,9.093579424258522,-9.769110004008292,248.30632602765266,68.45790950050463
374,2.324041324963704,-245.0572986624354,39.95631490039374,67.09060531363161,9.071829990103385,-9.682139510932531,248.3166139670021,68.44231368949568
375,2.289479262133342,-245.0643693416592,39.9962105054826,67.09082463715905,9.072859191696935,-9.60424273212567,248.3297633425396,68.42732020404284
376,2.2535645872498486,-245.07373729149742,40.03872451631521,67.08592926150705,9.096078942050347,-9.53570448108905,248.34559961137492,68.41198487686623
377,2.2168048656583386,-245.08526960534024,40.08327048580453,67.07514663998813,9.140613073931497,-9.476649361405853,248.36390196650362,68.39550544523188
378,2.1797717603474576,-245.09878462304795,40.129249554279646,67.05784297796353,9.205335059901929,-9.427044314221744,248.38440012101304,68.3771532777011
379,2.143090537026624,-245.1140463764223,40.17606755296116,67.03344551133821,9.288902826953851,-9.38670424204128,248.4067714566442,68.35620197649469
380,2.1074267082800673,-245.1307601641547,40.223150235985926,67.00136785127434,9.389789870205986,-9.355300345396365,248.430638949083,68.33185897811289
381,2.0734702057741257,-245.14856965720136,40.269955934056014,66.96094394357428,9.506312801606455,-9.33237070381111,248.45557016042733,68.30320555999161
382,2.0419174354710052,-245.16705584025817,40.31598519463678,66.91137504312971,9.636656234421634,-9.317332593215434,248.48107753778345,68.26914963968191
383,2.013451588620895,-245.1857380721044,40.36078726632158,66.85169280771018,9.778896373264448,-9.309496059526474,248.50662027998735,68.22839455269153
384,1.9887216432133359,-245.20407761713105,40.403963655807246,66.78074031833985,9.931024772473455,-9.308078381282845,248.53160816208205,68.17942575052217
385,1.9683206121132208,-245.2214841619816,40.44516931133647,66.69717165505674,10.09097349582885,-9.312219236587815,248.55540792000042,68.12051619396172
386,1.9527637861612734,-245.23732594779,40.48411206803037,66.5994696711206,10.256642519039092,-9.320996576440717,248.57735292875685,68.04975021528597
387,1.9424679098108855,-245.25094399327946,40.52055084047535,66.48598084905282,10.425929801474021,-9.33344332448268,248.596756733028,67.96506482905085
388,1.9377323178156731,-245.26167037618745,40.554292900865114,66.35496557637684,10.596764060125283,-9.348565028650592,248.61293046526816,67.86430687364066
389,1.9387230274510732,-245.26884986739228,40.585190581897834,66.20466177733213,10.767139906751384,-9.365358475263303,248.6252035209054,67.74530389545772
390,1.94546063615095,-245.27186366577706,40.61313777998949,66.0333594726691,10.935154671176702,-9.382831066892093,248.6329463235023,67.60594624653278
391,1.9578126423500777,-245.27015372354634,40.638066542261406,65.83948341878803,11.09904594899213,-9.400020537158689,248.63559373909695,67.44427737597626
392,1.9754905681254578,-245.26324615158995,40.65994383504546,65.62168045800134,11.257228687201366,-9.416014423026345,248.63266766600321,67.25858872910122
393,1.9980521345146505,-245.25077233907712,40.678768484119004,65.37890763761877,11.408330456805047,-9.429968661118854,248.62379745092608,67.04751507083546
394,2.0249087323523374,-245.2324866313617,40.69456831339294,65.11051665690698,11.55122345039237,-9.441124655560488,248.60873699593608,66.81012553867647
395,2.055338387973997,-245.20827966809603,40.70739761833348,64.8163299201219,11.685051666397463,-9.448824136708565,248.58737769312248,66.54600543490368
396,2.0885042009374284,-245.1781868028819,40.71733524114974,64.49670348000049,11.809251690071743,-9.452521122811884,248.55975665847618,66.25532375918733
397,2.123477869435916,-245.14239140594046,40.72448364137174,64.15257244239878,11.923565480550662,-9.451790350550421,248.52606012891343,65.93888176530584
398,2.159267578659206,-245.1012232221765,40.72896938480535,63.78547495804618,12.028043676689103,-9.446331668386293,248.48662225311563,65.59813840004183
399,2.194849295009452,-245.0551521942403,40.730945293757394,63.39755179061137,12.123038193482921,-9.43597010171893,248.44191970814495,65.23520939802056
400,2.2292003190388368,-245.00477821292748,40.7305941158994,62.99151967055338,12.209183320005321,-9.420651596564136,248.39256256055043,64.85283811532526
401,2.261333716216803,-244.95081722179938,40.72813313377241,62.57061818788837,12.287365124510375,-9.400434758367,248.33928168262352,64.45433784013086
402,2.290332018377878,-244.89408411222365,40.72381881462731,62.1385317038079,12.358679661523455,-9.375479130674993,248.28291298885088,64.04350715947638
403,2.3153785010213626,-244.83547292888926,40.717950399339664,61.69928948585557,12.424381199527406,-9.346030680048461,248.22437880613913,63.624521793382925
404,2.335784438610304,-244.77593499517272,40.71087120329849,61.25714881822227,12.485822392101548,-9.312405222112988,248.1646667600703,63.20180795745847
405,2.3510109841900992,-244.7164555990731,40.70296645525641,60.81646706443387,12.544388927935104,-9.274970607104326,248.10480660340932,62.779903639094556
406,2.3606846944979987,-244.6580298695254,40.69465689620686,60.38156947269385,12.601431643480305,-9.234128611341069,248.04584547411702,62.3633150707224
407,2.364606205155244,-244.60163848225378,40.6863880720247,59.95661986550278,12.658199328471213,-9.190297618652524,247.98882220394617,61.95637609597018
408,2.362752037937761,-244.54822387898903,40.678616034035805,59.54550120622154,12.715775484514642,-9.143897231715101,247.93474147753875,61.563117997335205
409,2.355269851154978,-244.4986677167269,40.67179073592422,59.15171236188639,12.775022108611969,-9.095335837675625,247.8845487720116,61.18715665055103
410,2.3424676062508265,-244.45377026521456,40.66633866583575,58.77828621555638,12.836533214507357,-9.045001838675947,247.83910704922278,60.831602627774494
411,2.3247972357851543,-244.41423247854266,40.66264623216336,58.42773272657774,12.900600368072563,-8.993258798581316,247.7991761748217,60.49899821599948
412,2.3028335695178654,-244.38064147507288,40.66104519340799,58.10200874875356,12.967192040993082,-8.940444263718263,247.76539600733932,60.19128342416047
413,2.277249505519223,-244.35346006449086,40.66180097163239,57.802514573607255,13.035948010106305,-8.886871618093272,247.7382739326833,59.90979110140375
414,2.2487886245373523,-244.33302067151064,40.66510406196209,57.530115429042226,13.106189255861695,-8.832834118437011,247.71817723265295,59.6552694299535
415,2.218236562046802,-244.31952357367948,40.671064171893114,57.28518463323216,13.176942875535307,-8.778610211737792,247.70533015620433,59.42792839018459
416,2.186392438264061,-244.31303894230723,40.679706428576466,57.06766385133067,13.246980597889367,-8.724469287150994,247.69981509119427,59.22750541236797
417,2.154041525363252,-244.31351186762802,40.690968993625404,56.87713503957575,13.314868746265597,-8.670677084941198,247.701576929571,59.053344460398456
418,2.1219301792918643,-244.32076941386185,40.704701579629216,56.71289830708179,13.37902701683846,-8.617500059948792,247.7104296085305,58.90448236528304
419,2.0907439494617837,-244.33452880344822,40.72066458264672,56.57405009783741,13.437793178092216,-8.565208095181026,247.72606389653902,58.77973635381274
420,2.0610896933634866,-244.35440606977684,40.73852881479715,56.45955668829425,13.489490680331349,-8.514075117804325,247.7480557715841,58.677787289232235
421,2.0334823781852815,-244.37992489750638,40.757876108801824,56.36831886837958,13.532496141008249,-8.46437741436635,247.77587515828208,58.59725401462328
422,2.0083369653214755,-244.41052575258928,40.77820132543144,56.29922470704308,13.565303741346847,-8.416389746304233,247.80889520828873,58.53675524805478
423,1.9859653562069506,-244.44557561872494,40.798916461183055,56.25118839384119,13.58658376363131,-8.370379621445586,247.84640254513022,58.49495661303841
424,1.9665779331811792,-244.4843786464197,40.819357546983525,56.22317422018383,13.59523283839299,-8.326600177340387,247.88760888131824,58.470601515358446
425,1.9502888696628469,-244.52618787429748,40.838794839934344,56.21420579865972,13.590413931832655,-8.285282096469054,247.9316642390845,58.46252567560653
426,1.9371241854554262,-244.57021801564963,40.85644652410816,56.22336162562893,13.571584635476425,-8.246624924651794,247.97767179455647,58.46965620981217
427,1.9270315419002382,-244.61565918836956,40.87149584873344,56.24975904099471,13.538512895632767,-8.21078818255052,248.02470420546737,58.490997194998734
428,1.919891003814391,-244.661691447627,40.88311138410078,56.29252943091992,13.491279936995833,-8.177882709850184,248.07182122513808,58.52560456235478
429,1.915526310036328,-244.70750005972067,40.890469842567974,56.350788033705776,13.430270772670736,-8.147962683605716,248.11808844811907,58.57255379650492
430,1.9137164082901919,-244.7522915551414,40.89278068892905,56.42360188185589,13.356153307099085,-8.121018670031145,248.16259709787178,58.63090420705228
431,1.9142070497174077,-244.79531059334246,40.889311658105974,56.50995926891541,13.269847591403842,-8.09697192077901,248.2044847471262,58.69966349448669
432,1.9167221822003038,-244.83585747692888,40.879414382034206,56.6087437589845,13.172487265696333,-8.075669966830768,248.24295668555732,58.7777560473912
433,1.9209748535991729,-244.87330579992533,40.862549456147214,56.71871526590233,13.065375594071034,-8.056883466513819,248.27730732388892,58.86399798708737
434,1.9266773956380285,-244.90711933925,40.838310259556295,56.838500168458985,12.949938699550612,-8.040304271939098,248.30694065181888,58.9570814589689
435,1.9335507599184687,-244.93686705275616,40.80644472081358,56.96659177194606,12.82767856169383,-8.025544784835015,248.33138850573727,59.05557001476774
436,1.9413329200407852,-244.96223503661224,40.76687416615817,57.10136164965949,12.700128041269275,-8.012138846424051,248.35032538250027,59.15790610784051
437,1.949786209446639,-244.98303454847647,40.71970846082802,57.241081543554095,12.568809731853733,-7.999544597156998,248.36357879593942,59.26243078967804
438,1.9587034093567481,-244.999205608879,40.66525678844511,57.38395465872539,12.43519992240651,-7.987149869031049,248.37113459264373,59.367414749698916
439,1.967912397903611,-245.0108160292112,40.60403350989619,57.528154438460355,12.300698461009564,-7.974280652790155,248.37313698853177,59.471098970990575
440,1.9772791934080203,-245.01805586312645,40.53675853960731,57.67186832489744,12.166604870953883,-7.960213002282007,248.36988323190505,59.57174255567068
441,1.9867092317139827,-245.02122733337427,40.464351644140294,57.81334363865385,12.034100711181528,-7.94418846899659,248.36181284657764,59.667674763158054
442,1.9961467329420055,-245.02073038523525,40.38792019669394,57.95093256707362,11.90423791525818,-7.925432873406125,248.34949152687142,59.75734803568084
443,2.0055720765622937,-245.01704420662307,40.308740297743945,58.083133341875744,11.777932685453566,-7.903177919306557,248.3335900038544,59.83938876650544
444,2.014997197590577,-245.01070535431813,40.2282316414179,58.20862500573945,11.655964431599234,-7.876684822783857,248.3148585734129,59.9126427838353
445,2.024459096775424,-245.0022835415985,40.147926835637904,58.32629366304261,11.538979187883196,-7.845268819784819,248.29409843863735,59.97621292856739
446,2.0340116415234113,-244.99235656717806,40.06943598177023,58.435248692721764,11.427496891605617,-7.808323272001298,248.27213145123432,60.02948662293113
447,2.0437159852813376,-244.98148611309784,39.99440726843536,58.534828009722006,11.321921873701033,-7.765342190667969,248.2497700703091,60.072151912010725
448,2.053630136434834,-244.97019610064226,39.924484286314616,58.62459210703336,11.222555901720904,-7.71594028609991,248.22778930890686,60.10420111802975
449,2.0637983530790107,-244.9589549869083,39.86126089098787,58.704307328114815,11.129613109528762,-7.659869983467039,248.2069021539379,60.12592199091876
450,2.074241063941438,-244.9481628948169,39.80623487112482,58.77391959512369,11.043236111249076,-7.597035087578444,248.18773953094643,60.1378770317665
451,2.084945959447539,-244.9381438995183,39.76076239193403,58.8335205713494,10.963512538145743,-7.527500893819276,248.1708354405369,60.14087242776431
452,2.0958607971364613,-244.92914325635329,39.726015854402156,58.88330884216577,10.890491205296103,-7.451500610695823,248.15661747531573,60.13591866719117
453,2.106888310499756,-244.9213289439927,39.70294799400563,58.923549020083385,10.824197147519001,-7.369438068053935,248.14540255362922,60.12418528443611
454,2.1178834262282247,-244.91479664774795,39.6922645379797,58.95453163743095,10.764644848254235,-7.281886798161948,248.13739738316218,60.10695223362471
455,2.128652870043105,-244.909577211756,39.69440675336177,58.97653634595694,10.711849080214574,-7.1895856012806485,248.1327029183011,60.08556014490442
456,2.138957225737795,-244.90564562825267,39.7095441761888,58.989800467688035,10.66583286834915,-7.093430655755643,248.13132195206074,60.06136134616837
457,2.1485155483374894,-244.90293076140495,39.73757702462432,58.99449448942803,10.626632202347379,-6.994464225033053,248.13316898735775,60.0356732050963
458,2.1570126144507404,-244.90132512310382,39.77814727409788,58.99070572375303,10.59429729594517,-6.893860118558934,248.13808156517328,60.009735132170235
459,2.1641087606940648,-244.90069408850968,39.83065697944533,58.97843105210452,10.56889039934661,-6.7929062187161815,248.14583222895467,59.98467045229941
460,2.1694520235400048,-244.90088408021685,39.89429216716113,58.95757935768243,10.550480375372517,-6.69298449308943,248.1561403959085,59.96145421682113
461,2.172692001408278,-244.90172960693585,39.968050617920895,58.927983894625335,10.539134417482092,-6.595548934641694,248.1686837515202,59.94088782565171
462,2.1734945715728426,-244.90305955482677,40.05077213147489,58.889424438964944,10.534907408634432,-6.502101833017148,248.1831093269292,59.92358107375469
463,2.1715563846212937,-244.90470351850894,40.14117022297718,58.8416586822751,10.537829498809892,-6.414168715046059,248.19904485542907,59.90994198468649
464,2.1666180402998543,-244.90649896201808,40.23786445074823,58.78446198025132,10.547892541227577,-6.333272240945637,248.21611104669003,59.90017457151185
465,2.1584750699658946,-244.90829959820803,40.33941272986466,58.71767421922707,10.56503610259899,-6.260905337582838,248.23393504862156,59.89428444150676
466,2.146986163325353,-244.9099847947825,40.44434315088849,58.641252167199895,10.589133841116764,-6.198503898811801,248.2521648255027,59.892091885375216
467,2.1320782859107212,-244.91146933877585,40.55118497797064,58.55532521957373,10.619981080455826,-6.147419462636792,248.27048373899376,59.89325173701357
468,2.1137484797073713,-244.91271267630785,40.65849851067061,58.460251975320084,10.657284377056378,-6.1088923537035,248.28862440923407,59.89727888564582
469,2.0920624179346157,-244.91372677166973,40.764903313152615,58.356674671145555,10.700653811102256,-6.084025833588309,248.30638093276548,59.9035779497789
470,2.067150219546722,-244.91458186976013,40.869104055007675,58.245568246986124,10.749598663110246,-6.073761817982328,248.3236186337944,59.911475368271915
471,2.039200416208794,-244.91540958236482,40.96991302362771,58.12828076779871,10.803527055092527,-6.078858703763198,248.34028063341674,59.92025207355179
472,2.008453114242112,-244.91640282827993,41.0662683749002,58.006562090471945,10.861749976573497,-6.09987182634237,248.35639063149608,59.929174981076144
473,1.9751932825418137,-244.91781230022775,41.157247456490275,57.88257802173176,10.923489821682107,-6.137137073222671,248.3720514789886,59.93752573005009
474,1.9397448142534055,-244.91993939184545,41.242075016876996,57.75890773643422,10.987893149700685,-6.190758227101524,248.38743945062993,59.944625418807995
475,1.90246567834485,-244.92312590749668,41.32012660319604,57.63852287658609,11.054046959324278,-6.260598665959569,248.40279458865027,59.94985446906187
476,1.8637442129719222,-244.92774127401842,41.39092776503722,57.52474747686572,11.120997468826634,-6.346278031817164,248.41840792697826,59.952667188129524
477,1.8239964534350612,-244.9341681837779,41.454149808376144,57.421198605633485,11.18777028674969,-6.447174327838144,248.43460663073236,59.95260102748974
478,1.7836642651993215,-244.9427875001246,41.50960285816874,57.33170832847133,11.253390929348114,-6.562431612082002,248.4517379894255,59.949280918119705
479,1.7432138983949295,-244.95396291530594,41.55722689966242,57.260228291336624,11.316904833781063,-6.690973100385482,248.4701528504519,59.94241939587319
480,1.7031344229331145,-244.96802552126442,41.59708129457354,57.21071892107034,11.377396248704082,-6.831519191296509,248.49018872525838,59.931813552648194
481,1.6639354094719077,-244.9852583879313,41.62933312803137,57.18702598660078,11.434005582947805,-6.9826097712415285,248.51215271288834,59.91734019571209
482,1.626143211766943,-245.0058814658784,41.65424471206568,57.19274803908847,11.485944929365777,-7.142630126662225,248.53630460095772,59.89895095288488
483,1.590295292254002,-245.03003744671966,41.67216056453958,57.231098983385834,11.53251157607743,-7.309839773747869,248.56284081711192,59.876669358517276
484,1.5569322531548178,-245.05777942716531,41.683494104543314,57.304770628518966,11.573099419441853,-7.482403449340028,248.59188010350434,59.85059211069339
485,1.5265875778626161,-245.08906126813056,41.688714221017236,57.41580042937815,11.60720834335068,-7.658423428838541,248.6234518212027,59.82089663763926
486,1.4997754409238344,-245.12373145581418,41.68833191007896,57.56544970297476,11.634451822192489,-7.835972315823905,248.65748771773715,59.787856809439354
487,1.476977185215843,-245.16153108973973,41.68288734080184,57.75409735955395,11.654563178813849,-8.01312549567717,248.6938178407683,59.7518680630059
488,1.4586271497811694,-245.20209632147498,41.672937866074584,57.981153658223356,11.667401015546536,-8.187992531764229,248.73217100994995,59.71348239718818
489,1.4450984954120583,-245.24496513257475,41.65904753656195,58.24499774867767,11.672954307375413,-8.358746877028377,248.77217983539524,59.67345271401589
490,1.4366895868169367,-245.2895878612424,41.641778606727904,58.54294189270924,11.671347504128944,-8.523653354919741,248.81338978495992,59.63278493838078
491,1.4336114353888567,-245.33534053829536,41.62168538548795,58.871224369025136,11.66284573582457,-8.681092912484695,248.85527143344274,59.59279534931277
492,1.4359767380417883,-245.38153998510413,41.599310586438044,59.225032211948275,11.647859856157648,-8.829584157149043,248.8972348856613,59.55516967360667
493,1.4437911266979966,-245.42745972014973,41.57518407083224,59.598554118647144,11.626950638963693,-8.967801195568219,248.93864541294604,59.522019754929346
494,1.4569472707579607,-245.47234591746172,41.54982356212957,59.98506304903308,11.600831072873541,-9.09458738394358,248.97883948243356,59.49593303403467
495,1.4752223904161479,-245.51543291342495,41.52373654359833,60.37702723812031,11.57036550650124,-9.208964837525391,249.01714054519903,59.4800097020123
496,1.4982795532372455,-245.55595804163423,41.49742217075878,60.766247605338904,11.53656442395459,-9.3101399109321,249.052874164003,59.47788229146648
497,1.5256728703484257,-245.59317581073498,41.47137181859659,61.14401896319423,11.500573809763107,-9.397505255603917,249.08538225822207,59.49371270784438
498,1.5568564138174126,-245.626371552846,41.44606704896632,61.50131204422777,11.463658293824484,-9.470639369722614,249.1140363836491,59.53216228167525
499,1.5911964120374833,-245.6548746653087,41.42197429873719,61.828973169814795,11.427177512521073,-9.529304701450016,249.1382500477564,59.59833130878827
500,1.6279861141181267,-245.6780714912596,41.39953617738776,62.11793833694326,11.39255540503717,-9.573445350326047,249.15749008382605,59.697665698417524
501,1.6664626428434914,-245.69541776261104,41.37915970158284,62.359458562976194,11.361242511391222,-9.603185290772856,249.17128705982478,59.83582973538028
502,1.705825139045578,-245.7064504007427,41.36120209673584,62.5453334700557,11.334671759929568,-9.618827863852449,249.17924462072682,60.01854554250845
503,1.745253532667598,-245.71079840500693,41.34595504806798,62.668150256627,11.31420872682265,-9.620857071767006,249.18104764025213,60.251401533117274
504,1.7839273432159855,-245.7081926002235,41.33362846058989,62.72152531380621,11.301097898617128,-9.609940995972819,249.17646912818313,60.539633867308545
505,1.8210439552205349,-245.69847413882997,41.324334836477306,62.70034570479288,11.296407016900528,-9.586937474580775,249.16537597044126,60.88788654067992
506,1.8558358103361923,-245.68160181356976,41.318075373670666,62.601007446516235,11.300972059217793,-9.552901977553775,249.1477337358008,61.29995709496121
507,1.8875859745091617,-245.6576583952772,41.314728942070566,62.421646972812944,11.315345758769805,-9.509097316999965,249.12361094797026,61.77853594105053
508,1.9156416530098543,-245.62685631851895,41.31404514201591,62.162361362485036,11.339752769700139,-9.457004416159354,249.09318333747024,62.3249479189033
509,1.9394254342639299,-245.58954302020382,41.315642498429725,61.82541198322718,11.374054634492635,-9.398332939057967,249.05673854793986,62.93890504703815
510,1.9584442622501126,-245.54620601594462,41.3190124537322,61.41540521101121,11.4177275590924,-9.335030238290555,249.01468149325947,63.618279465625385
511,1.9722962781170474,-245.4974773594236,41.32352940572483,60.93944285760041,11.469855582961953,-9.269286819004337,248.96754006278803,64.35890531187782
512,1.9806757359651783,-245.4441366048149,41.32846677617426,60.40723389838161,11.529141013781103,-9.203536356232709,248.91597031342437,65.15441765191798
513,1.9833762694471033,-245.3871110428988,41.33301893060976,59.83115813621225,11.593933001330361,-9.14044829270303,248.8607599174444,65.99613568737068
514,1.9802928755537144,-245.32747197640745,41.3363285491376,59.2262717397361,11.662273916584192,-9.082911214736438,248.8028285959383,66.87299639657213
515,1.9714229635307656,-245.26642605744385,41.33751874939589,58.61024432474625,11.73196188900083,-9.034005538036658,248.74322447395198,67.77154369278631
516,1.9568666069669542,-245.20530103396993,41.33572897872367,58.00321751464755,11.800626565860705,-8.996964506450274,248.6831155664984,68.67597716700794
517,1.9368258393717708,-245.14552554313804,41.33015348959671,57.427575808546,11.865814002177462,-8.975123074347628,248.62377585645848,69.56826359339541
518,1.9116026253143121,-245.0886028608264,41.32008105701202,56.90762217908628,11.92507568027203,-8.971854825477621,248.56656566537112,70.4283136676032
519,1.8815951094058188,-245.0360788137734,41.30493442334014,56.46915313045247,11.976056141304028,-8.990497606976392,248.51290628078613,71.2342259395999
520,1.847291878520763,-244.9895044082021,41.2843077986925,56.13893090537145,12.016573730085126,-9.034269032454967,248.46424912068164,71.96259956376949
521,1.8092641809081245,-244.95039409828587,41.2580007280999,55.94405401558669,12.044689576899069,-9.106173471170717,248.42204007903644,72.58891724555417
522,1.7681562045809547,-244.9201809227667,41.22604679773653,55.91123108641685,12.058761109146081,-9.208902570971727,248.38768002616473,73.08799945370563
523,1.724673565066406,-244.90016990030534,41.18873586778981,56.06596687287776,12.057477921958615,-9.3447316909627,248.36248263348506,73.43453032950401
524,1.679570151185054,-244.89149109001397,41.146628660360584,56.431672929834214,12.03987951326821,-9.51541481715455,248.34763072973777,73.60365449593382
525,1.6336335240561035,-244.89505366685756,41.10056258873039,57.028718618452416,12.005356018358802,-9.722080643232783,248.3441323465879,73.57164202775594
526,1.5876691851536777,-244.91150234959795,41.05164777538284,57.873440915895856,11.953634530004225,-9.965132567901462,248.35277760674364,73.31661628093138
527,1.5424841895204644,-244.94117764064427,41.00125237673509,58.97713403331761,11.884754759593864,-10.244155396889022,248.3740977526785,72.81933636213277
528,1.4988707395639678,-244.98408155305512,40.950976655541076,60.34504230473978,11.799038594017366,-10.557831530212757,248.40832787686543,72.06402303088274
529,1.457590509368341,-245.0398506273969,40.90261566135671,61.97538218021193,11.697058447502332,-10.903869372483191,248.45537510557136,71.03921391139497
530,1.4193604661732804,-245.10773789147464,40.85811081091773,63.858421227113105,11.579609125431302,-11.278946649281336,248.5147939073272,69.73863101211248
531,1.3848408448749614,-245.18660496070962,40.81949104684183,65.97564350487669,11.447687211821673,-11.678671238632951,248.585769806546,68.16204059854579
532,1.3546257057585485,-245.27492487172648,40.78880456370167,68.29903129403014,11.302480892049749,-12.097561980901068,248.66711223085213,66.3160824178957
533,1.3292362128869417,-245.37079568641985,40.76804236860505,70.79049289469708,11.145371832285422,-12.529051686494281,248.75725671251013,64.21504232229945
534,1.3091164860557316,-245.47196448523363,40.75905531700565,73.40146522973406,10.977949429051415,-12.965514283167947,248.8542763077604,61.88153987437803
535,1.2946316619534721,-245.57586105464813,40.763466787257556,76.07271849286161,10.80203653210086,-13.398317826058186,248.95590187060392,59.34710095583549
536,1.2860676456007636,-245.67964033795562,40.78258369545792,78.73438809278633,10.619724759988618,-13.817904943309506,249.05955067001815,56.652584947787346
537,1.2836319174134145,-245.7802325870401,40.81730892066419,81.30625647145933,10.433416904225865,-14.21390212145822,249.16236276653322,53.84843668140965
538,1.2874547088819088,-245.87440013301406,40.86805834345756,83.69830380649285,10.24587369829167,-14.57525893131025,249.26124456167398,50.99473497388091
539,1.297589926191399,-245.958799744538,40.93468562403094,85.81154209470981,10.060262347419906,-14.890417786504562,249.35291896765705,48.16101218821146
540,1.3140154089440337,-246.03004962631547,41.01641758944452,87.53914174425857,9.880204567358971,-15.147514140643747,249.4339816841501,45.42582301025054
541,1.3366324037489152,-246.08480019255822,41.11180273278202,88.76785364067155,9.70982234441943,-15.334606246063036,249.50096309244347,42.876045579237775
542,1.3652643882625206,-246.1198077673742,41.21867501898192,89.37972267016062,9.553780058205366,-15.439932726821985,249.55039524848917,40.605904134970515
543,1.399655527293838,-246.13201025350847,41.33413508896643,89.25408083769004,9.417321847021988,-15.452195170410702,249.5788833347475,38.715709254400345
544,1.4394691294803292,-246.1186035555255,41.45455097631394,88.26979941727767,9.306303028449674,-15.360861665273992,249.5831806858614,37.310319340357324
545,1.4842865632523516,-246.07711715837218,41.57558033960532,86.30777009245855,9.22721397185432,-15.1564857779786,249.56026610782556,36.49733511632559
546,1.5336071291104854,-246.00548679146627,41.6922157895111,83.25357495896621,9.187194089785978,-14.831033977435364,249.50742167935985,36.385047327514705
547,1.5868492782459498,-245.90212164588738,41.798854190926136,79.00029489605598,9.19403267702835,-14.378213013230576,249.42230865657305,37.08016656832725
548,1.6433533559110842,-245.7659632851745,41.88939001171919,73.45139564186456,9.256152343359693,-13.793787272085197,249.3030386509312,38.685373134455354
549,1.7023859108815758,-245.59653336069417,41.95733198724368,66.5236214514776,9.382569936469904,-13.075874774627826,249.14823709791497,41.29673399697549
550,1.7631456791757787,-245.3939676939221,41.99594153578638,58.14981792386812,9.582829286308169,-12.225209415889942,248.95709635957897,45.00104324601757
551,1.8247715473383601,-245.15903521438022,41.99839042644569,48.28159883135633,9.86689995512252,-11.245356518112919,248.7294165941209,49.873151346715154
552,1.8863529222624076,-244.89314125370123,41.95793431651135,36.89176696613655,10.245036576207355,-10.142868937715566,248.46563341340632,55.97335692944186
553,1.946942832600302,-244.59831529786584,41.86809823441308,23.976396599141108,10.727594388979485,-8.927371926893352,248.1668318832933,63.34494222280033
554,2.005573756254831,-244.27718337526807,41.72286994637228,9.55648565017131,11.324798224029436,-7.611566666731098,247.83474649101154,72.01193922142821
555,2.0612757163875783,-243.9329250892227,41.516897127772395,-6.3209103603157315,12.046464412841885,-6.211144751508874,247.47174654204102,81.97721780193072
556,2.113095791487559,-243.56921521331037,41.24568403118838,-23.582142571188758,12.90167785747187,-4.744608725571487,247.08080632510269,93.22098870659504
557,2.1601180203163577,-243.19014995711242,40.90578275261938,-42.127099020781365,13.898429726873573,-3.2329968621214062,246.66545947516818,105.69981286806278
558,2.201482809600852,-242.80015860292818,40.494973269320056,-61.83005205612298,15.043224767410454,-1.6995136347405626,246.22973740032447,119.34620297631713
559,2.2364052515837005,-242.40390219892174,40.01242533678179,-82.5412533144364,16.340670749099065,-0.1690707819953068,245.77809243704903,134.06889236742924
560,2.2641920135753995,-242.00616210126492,39.45883446190168,-104.08928195654606,17.79306582800442,1.3322524699555507,245.31530735209435,149.75382912524674
561,2.284256527078281,-241.6117220102051,38.836523898755495,-126.2841235898109,19.400002310944853,2.777817644076077,244.8463936036937,166.2659288187988
562,2.2961321055262864,-241.22524760385016,38.14950500712812,-148.92092629747867,21.15800716629399,4.1410875533311735,244.37648127987217,183.45158724060443
563,2.2994824891236103,-240.85116807508106,37.403489146820775,-171.78434758766244,23.060240347922015,5.39631956812935,243.9107039439526,201.14191584591174
564,2.2941092554071747,-240.4935639382165,36.60584543908062,-194.65337353471983,25.096271389525963,6.519269261482303,243.4540818362064,219.15662004721185
565,2.2799555758331205,-240.15606538136166,35.765500387154546,-217.3064609577629,27.251952719315753,7.487880138484602,243.0114070286309,237.3083981606695
566,2.25710593610167,-239.8417651816099,34.89277775401383,-239.52682761381826,29.50940480822138,8.282934062218438,242.5871342355063,255.40770102564247
567,2.225781641867307,-239.5531497453479,33.99918029189437,-261.10769688574277,31.847123795681892,8.88863671323637,242.1852810264153,273.26766310154676
568,2.1863321536506244,-239.2920510684021,33.09711866674405,-281.85729527981886,34.240216957551496,9.293113019282185,241.80934101195817,290.7089985797949
569,2.139222492801871,-239.0596212408641,32.19959675375745,-301.6034058188647,36.66076568711068,9.488789190765894,241.46221300098017,307.5646533935017
570,2.085017110995981,-238.85632966426115,31.319865841526376,-320.1972994943706,39.07830990859323,9.47264114537793,241.1461481775553,323.684017267997
571,2.0243607279977756,-238.6819817098462,30.471062690806125,-337.5168995498026,41.460442233661524,9.246293979532323,240.86271624262415,338.9365282443406
572,1.9579567885210722,-238.53575644281224,29.665847568388983,-353.4690763096632,43.77349479553181,8.815963741279857,240.6127904913815,353.21454209341425
573,1.8865444689102677,-238.41626042101956,28.916058238749176,-367.9910187011271,45.98329680408848,8.192240708460192,240.39655111681293,366.4353857347342
574,1.8108755763256388,-238.32159436109038,28.232394455506768,-381.0506774844402,48.05597712694714,7.389721945717689,240.21350558671708,378.5425620056948
575,1.7316930632002363,-238.24942942684964,27.624144845851795,-392.64632042721627,49.958784585091394,6.42650913557583,240.06252454927252,389.50611871244365
576,1.6497130211017186,-238.1970899304938,27.098964583085564,-402.80527840819104,51.66089986658311,5.323594641122712,239.94189132404134,399.3222349331644
577,1.5656118196271274,-238.16163944605657,26.662708531371646,-411.5819918329465,53.134216850960065,4.104163881812753,239.849362794607,408.0121100292141
578,1.4800195353799532,-238.1399677938853,26.319321244409643,-419.05548748741023,54.35407656519788,2.792845171429768,239.7822395696822,415.62026423911067
579,1.3935200748481902,-238.12887694668092,26.07078267123431,-425.32642629747386,55.299942305121704,1.4149391775091797,239.7374435394736,422.2123730580925
580,1.3066576240605612,-238.1251644614321,25.91710674599039,-430.5138623973559,55.95600807264588,-0.004340763046380837,239.71160126205092,427.87276054737663
581,1.2199484523499675,-238.12570347004166,25.856389032884298,-434.75184435322353,56.31173331691357,-1.4405888223551013,239.70113186659364,432.7016699617456
582,1.1338967006614604,-238.1275184976209,25.88489891038065,-438.1859722498194,56.36229475670797,-2.8708625264979015,239.7023382552387,436.81241541998133
583,1.049012523368545,-238.1278563393242,25.99721108954424,-440.97000242764074,56.10894152354433,-4.274254059151167,239.71150020909425,440.32849857924253
584,0.9658308251812688,-238.12425091434142,26.186370454244603,-443.2625683250505,55.55923458315052,-5.6323618784492115,239.7249675456222,443.38075289244875
585,0.8849289385330602,-238.11458057479788,26.444083394169525,-445.2240644660573,54.72714736705793,-6.929652704051056,239.73925089084622,446.10455852861935
586,0.806941943648839,-238.0971159936256,26.760928176277666,-447.0137237274964,53.63300359437989,-8.153708969202317,239.7511071564948,448.6371561806355
587,0.7325747721369963,-238.070556626305,27.126576584114755,-448.78690697627707,52.30323148339907,-9.29536141913161,239.7576165971221,451.11507924984187
588,0.662610507478976,-238.0340538233716,27.530019065968492,-450.69261901672337,50.76992102168142,-10.348710472033313,239.75624835396962,453.6717213189054
589,0.5979143203784804,-237.987218895222,27.959786018859116,-452.87126441711786,49.07018179259649,-11.3110431947446,239.74491161010405,456.43505816468854
590,0.5394324114169912,-237.93011482731393,28.404158660756096,-455.45265931370784,47.24531155071715,-12.18265537170172,239.72198992424387,459.52554871799873
591,0.4881853766266047,-237.86323102598314,28.851364166495333,-458.5543186116606,45.33979868672387,-12.966590286891721,239.6863570887188,463.0542449948626
592,0.4452556000148207,-237.7874414404838,29.28975123771549,-462.28004031158684,43.400193510904266,-13.668307598509,239.63737395520232,467.1211451015045
593,0.4117685263187093,-237.70394743697264,29.707943922051268,-466.71880874180965,41.47389269520747,-14.29529716723279,239.57486686052246,471.8138245720781
594,0.3888679278588019,-237.61420763376736,30.09497314061831,-471.94403557877763,39.60788714792655,-14.856653949339162,239.4990892869827,477.2063787692456
595,0.37768556327640623,-237.51985744041718,30.440386800662896,-478.01315155445104,37.84752526222234,-15.362630970195095,239.4106690763995,483.35870273076836
596,0.3793059256068411,-237.42262131301192,30.73434035192873,-484.9675531584927,36.23534076434844,-15.824187695256025,239.31054389518408,490.31612525847044
597,0.3947270492603369,-237.32422081818407,30.96767013350911,-492.83289847706556,34.80998796915175,-16.25255058006247,239.1998877856307,498.1094024223793
598,0.42481858312450266,-237.22628156872503,31.131951946681294,-501.61973592270425,33.60531833464741,-16.65880113505667,239.08003162929413,506.75506352732316
599,0.470278597589295,-237.13024202699438,31.219547088116176,-511.3244403567466,32.64962214195325,-17.05350460306019,238.95238027981628,516.2560914615428
600,0.5315909117770431,-237.0372670856317,31.22363769142496,-521.9304240106749,31.965049140707176,-17.446389563214915,238.8183290270081,526.6029103397324
601,0.6089850263624222,-236.94816919068663,31.1382528583253,-533.4095851444206,31.567213060874902,-17.84608569903825,238.67918192089866,537.7746470045511
602,0.7024008803263182,-236.86333954062746,30.958286944097324,-545.7239554803924,31.46497764561185,-18.25992376893311,238.53607431380553,549.7406292569226
603,0.8114605301392195,-236.782691600174,30.679511510795294,-558.8275077262231,31.660416622757282,-18.69379862773615,238.38990179534156,562.4620822960114
604,0.9354485154925706,-236.70561888751735,30.298582653866596,-572.6680863232233,32.14893674462937,-19.152093204275946,238.24125754601272,575.8939851752207
605,1.0733022400613925,-236.6309688216071,29.81304542068803,-587.1894270952083,32.919551191483976,-19.63765899361178,238.09038008371877,589.9870503001894
606,1.2236132589455337,-236.557034386694,29.221336818583346,-602.3332338144593,33.95528946002434,-20.151847149967352,237.9371134504354,604.6897901942596
607,1.3846399589002514,-236.48156539011026,28.522788561213293,-618.0412811423662,35.23372864186148,-20.694583682451768,237.78088200308,619.950636218511
608,1.5543317082960428,-236.40180097857527,27.717630396455963,-634.2575135978966,36.727629442853534,-21.264482297205607,237.6206819759245,635.7200733092842
609,1.7303641049372782,-236.3145246946536,26.806994670427034,-650.930109106286,38.40565850038761,-21.858988698328815,237.4550917352837,651.9527530417055
610,1.910184498061948,-236.21614263353672,25.79292260213469,-668.0134734122313,40.233176817043784,-22.47455037475993,237.28230206881332,668.6095445883955
611,2.09106658307147,-236.10278419005718,24.67837240527809,-685.4701285257923,42.173072768177,-23.106806086240898,237.10016690678623,685.6594797623992
612,2.2701725841868314,-235.97042353627188,23.46722882731994,-703.2724549804163,44.186617378380035,-23.750789648737143,236.90627361910313,703.0815449116288
613,2.4446213063063396,-235.81501853538242,22.164312925010726,-721.404244800498,46.234319494259424,-24.40114337149974,236.69803066510593,720.8662697615445
614,2.611560135297239,-235.63266254594745,20.775390117865946,-739.8620204819002,48.27675919731187,-25.052337599365504,236.47276917322864,739.0170621701262
615,2.76823896755182,-235.4197437277679,19.30717398408238,-758.6560755656707,50.2753794387657,-25.69889413666128,236.22785423938598,757.5512387492465
616,2.912084129157563,-235.17310611413387,17.76732299077589,-777.8111948545521,52.19321850331881,-26.335612693784007,235.96080145036126,776.5007047329262
617,3.0407705217887155,-234.8902067640296,16.16442725013315,-797.3670170742187,53.99556936068075,-26.957800710487874,235.66939424393217,795.9122423976529
618,3.1522903075667044,-234.56926354901333,14.507982282249584,-817.3780096708331,55.65055584108291,-27.561507788273637,235.35179798402842,815.8473755678135
619,3.2450163518082693,-234.20938846525362,12.808346639746004,-837.9130340340672,57.12961939776841,-28.143766340418907,235.0066669528335,836.3817877826798
620,3.317758543017263,-233.81070189975912,11.076680231031569,-859.0544890672255,58.4079136958108,-28.70283984553901,234.633240958643,857.6042828412144
621,3.3698111917851614,-233.37442416997396,9.32486032116554,-880.8970309703668,59.4646073686667,-29.23847932289228,234.23142908134602,879.6152879300797
622,3.4009900013788052,-232.9029418704195,7.565372474722499,-903.5458767899323,60.283098127748936,-29.75218749313785,233.8018791957653,902.5249107960809
623,3.4116575095418393,-232.39984790128213,5.811174185185968,-927.1147083476026,60.85114404914326,-30.247488679645016,233.3460331275573,926.4505730513736
624,3.402736327735785,-231.8699553225691,4.075529695580456,-951.7232013132218,61.160920182602055,-30.73020090979093,232.8661684087019,951.5142513780871
625,3.375709892064045,-231.31928627554396,2.371815524401221,-977.4942111709194,61.20901038187822,-31.20870493204613,232.36542850770027,977.8393668136184
626,3.332610752961792,-230.75503809602162,0.7132973337732547,-1004.5506534813097,60.99634519337181,-31.69420300408787,231.84784406123978,1005.5473692303405
627,3.2759966376471787,-230.18552931281502,-0.8871201022736083,-1033.0121202747519,60.52809667362391,-32.2009583828708,231.3183479265723,1034.754069637396
628,3.208914599520312,-229.62012834016485,-2.4171670257519215,-1062.9912780524703,59.81354024578725,-32.74650457075046,230.78278667031907,1065.5657774275264
629,3.1348535582205423,-229.06916735304222,-3.865503225795258,-1094.5900962734622,58.86589230962269,-33.351811679807874,230.2479304334308,1098.075303691276
630,3.0576855653517327,-228.54384335137337,-5.222028600380694,-1127.8959587582633,57.70213034279039,-34.041395876069636,229.72148224477849,1132.3578955848536
631,2.9815963531135927,-228.05610806062634,-6.4782048504843806,-1162.9777143520207,56.34279972530063,-34.843356795693474,229.21208709499305,1168.467170639488
632,2.911006144429893,-227.61854809757713,-7.627382894778178,-1199.8817276741502,54.81180877546469,-35.78932702633525,228.72934045286425,1206.4311240324228
633,2.8504821671649827,-227.24425656757543,-8.665129975939625,-1238.627996122894,53.13621100161118,-36.914317159659205,228.28379523125213,1246.2482864769945
634,2.8046446578714805,-226.94669686088386,-9.58954967114023,-1279.2064056000484,51.34597168098856,-38.25643974917997,227.88696540101796,1287.8841156282047
635,2.7780683013734593,-226.73955896783602,-10.401587128432533,-1321.5732043076787,49.47371448323457,-39.856496269930425,227.55132360470213,1331.2677093691314
636,2.7751810321781316,-226.63660826078862,-11.105310875888748,-1365.6477806591615,47.55444261928993,-41.75741332953079,227.29028937287308,1376.2889342473986
637,2.800161974344211,-226.65152650215583,-11.70816160313741,-1411.309836958329,45.625227689930405,-44.00351795557437,227.11820401713936,1422.7960657787723
638,2.8568401641043657,-226.79774495481445,-12.221157532706272,-1458.3970542374125,43.72485804395068,-46.63964653271434,227.05028810448422,1470.5940385358763
639,2.9485957095096715,-227.0882699083318,-12.659045478414729,-1506.703344705517,41.89343714542002,-49.71008778646474,227.1025776389714,1519.4434021196175
640,3.0782651229842464,-227.5355014715245,-13.040386512200559,-1555.9777857965962,40.17192129318386,-53.257367284137956,227.29183548499353,1569.0600734706636
641,3.248052528953084,-228.15104684782352,-13.38756545566708,-1605.9243231751182,38.601585219526186,-57.320889400367335,227.63543490896043,1619.1159659363168
642,3.4594482437040655,-228.9455294760835,-13.72671431820734,-1656.2023191459014,37.22340399438533,-61.935462406496384,228.15121238641441,1669.2405610162953
643,3.7131559928444124,-229.92839559663537,-14.087541407023137,-1706.4280081743025,36.07734073321556,-67.12974276617727,228.8572872506475,1719.0234702828482
644,4.0090299636553715,-231.10772017464595,-14.503060151171185,-1756.1769033526614,35.201532203453894,-72.92464515134091,229.7718465472613,1768.0180133653723
645,4.346023063216561,-232.49001467162972,-15.009214614491043,-1804.9871772937197,34.63136877823543,-79.33177440326214,230.91289460071084,1815.7458138201937
646,4.722148114711046,-234.08003978864616,-15.644401953237052,-1852.3640187099622,34.39847145263425,-86.3519438336577,232.2979681615119,1861.7023888649628
647,5.134454175783728,-235.88062690993576,-16.448895370236325,-1897.784942565896,34.52957681148557,-93.97384986703675,233.94381945403447,1905.363682132018
648,5.579020632726884,-237.8925124403203,-17.464174253652935,-1940.7060078489408,35.04535061044802,-102.17297501785545,235.86607085244455,1946.1934615385712
649,6.050972162140853,-240.11418943069603,-18.732171174049668,-1980.5688730937043,35.959161355365794,-110.91078887676258,238.07884614893726,1983.651477570262
650,6.544517993136516,-242.54178079146442,-20.294448238829816,-2016.808595990494,37.27585605446519,-120.1343099508666,240.59438440099214,2017.2022510125757
651,7.053019033278792,-245.1689380621028,-22.19131784372781,-2048.862060069848,38.990590234955924,-129.77608001850822,243.4226431838542,2046.324333921321
652,7.56908614306021,-247.98676916053617,-24.460924979810496,-2076.176889464627,41.08777245851921,-139.7545874989179,246.57089872121392,2070.5198644113684
653,8.084711952474377,-250.98379778426536,-27.138309890226147,-2098.220693380796,43.540188967919,-149.9751578486412,250.04335079592244,2089.3242160655486
654,8.591437096993781,-254.1459563528426,-30.254471056060048,-2114.49046623932,46.30837562701211,-160.3313081958011,253.84074070565325,2102.315527643112
655,9.080549859695177,-257.45661392085947,-33.83544933978448,-2124.5219579274594,49.340300943781166,-170.70654166644852,257.9599911609937,2109.1238888908647
656,9.5433162464194,-260.8966405358894,-37.90145473150934,-2127.8988211401306,52.571415221207964,-180.97653562531926,262.3938780897986,2109.4399537086692
657,9.971235618614912,-264.44450981037966,-42.46605751377324,-2124.2613393138618,55.92510720123728,-191.01165868864834,267.13074552218023,2103.0227527574034
658,10.356315152621255,-268.0764415469308,-47.53546568772833,-2113.3145394754597,59.31359225587669,-200.67973492582894,272.15427556869116,2089.7064842633486
659,10.691354639813316,-271.7665858328189,-53.107910149722905,-2094.835500154032,62.63923699943549,-209.84896093723225,277.4433256651114,2069.4060750629724
660,10.970231646275064,-275.4872490880153,-59.17315845567092,-2068.6796760348047,65.7963057941418,-218.39087313429172,282.9718447082436,2042.121324594086
661,11.188175904449437,-279.20916109656554,-65.71217712190868,-2034.7860785241164,68.67309610980813,-226.18325917431582,288.70887840989303,2007.9394728524728
662,11.342020957712613,-282.90178001514334,-72.69696116006997,-1993.1811745171115,71.15441264141931,-233.11290959606052,294.6186720381913,1967.0360689450135
663,11.430420453655431,-286.5336299079307,-80.09054770668918,-1943.9813935273476,73.12431477222037,-239.0781134628316,300.6608758002526,1919.6740588118964
664,11.454016200822412,-290.07266302708393,-87.84722804899748,-1887.394164518635,74.46905860699364,-243.99081520512152,306.79085491922973,1866.2010573820298
665,11.415545552674901,-293.48663739929736,-95.91296896514234,-1823.7174364099549,75.08014365953035,-247.77836859457284,312.96010349106126,1807.0448197811456
666,11.319877285435142,-296.74349950734853,-104.22604985162253,-1753.3376684764849,74.85736598450713,-250.384847052539,319.11675862777724,1742.7069760525317
667,11.173967908320748,-299.81176188519976,-112.71791629335499,-1676.726307567769,73.71177532955477,-251.77189544870845,325.2062090277966,1673.755142440514
668,10.986733801333067,-302.6608662244367,-121.31424348236195,-1594.4347979093352,71.56843519761337,-251.91913427346088,331.17178984474197,1600.813568529926
669,10.768838218766662,-305.2615242421424,-129.9361945905518,-1507.0881965032875,68.3688923308924,-250.8241492848293,336.9555537204404,1524.5525227220649
670,10.532395933402915,-307.58603118298976,-138.50185046925864,-1415.3774930753184,64.0732756741003,-248.50211569341474,342.4991063438454,1445.676657939459
671,10.290602283499938,-309.6085502654339,-146.92777843165928,-1320.0507579622792,58.66196297969713,-244.98511410587244,347.74449391933075,1364.9126340010193
672,10.057297619455657,-311.3053701738522,-155.13069980722082,-1221.903263357472,52.13677381705703,-240.32119569932047,352.63512921175055,1282.9963010662439
673,9.84648231807549,-312.6551411229111,-163.02920888477306,-1121.7667412438843,44.52166832025973,-234.5732476514733,357.11674190787716,1200.6597675609694
674,9.671801219465044,-313.63909725487747,-170.54549035784348,-1020.4979532848399,35.86294912782495,-227.81769869419784,361.13833743247505,1118.6186836467923
675,9.546019290364296,-314.241273608016,-177.60697918660685,-918.9667527731845,26.22897805152051,-220.14309102413782,364.65314599902547,1037.5600660050889
676,9.480512416068642,-314.4487245613095,-184.14790655107083,-818.0438167862914,15.709428741795856,-211.64853099041704,367.6195409775995,958.1309715102916
677,9.484798193250759,-314.25174782539864,-190.11067850633395,-718.5882198886646,4.414102760307023,-202.44201938840243,370.0019032030747,880.9282981035782
678,9.566130912504049,-313.6441140561781,-195.44703984583725,-621.4350121702458,-7.528659660847309,-192.63865513662515,371.77140603092204,806.4899540060537
679,9.729182161070199,-312.6232973514464,-200.1189842244225,-527.3829576333308,-19.973939942193095,-182.3587052417555,372.9066950918842,735.2875949161684
680,9.97582368573234,-311.1906967914129,-204.09938249267108,-437.18258718275655,-32.76253517229452,-171.72553957552336,373.39443722205687,667.7210861229229
681,10.305022883300397,-309.3518346156202,-207.37231388316968,-351.5247260708296,-45.72354434969699,-160.86343991200008,373.22971536106684,604.114804439033
682,10.712854401262343,-307.11651344443015,-209.93309815208428,-271.02966937577895,-58.677200374388825,-149.89530675547596,372.4162504195618,544.7158536961322
683,11.192624725670438,-304.49891372781656,-211.788039790139,-196.23719953351613,-71.43789616886814,-138.94030251342213,370.9664369252723,489.69422544426584
684,11.73510093615962,-301.5176135046669,-212.95390698402582,-127.59766332942354,-83.81734928992735,-128.11148389780874,368.9011861716105,439.1448899678097
685,12.328830286442601,-298.19551539801023,-213.45717755582538,-65.46434656740693,-95.6278475012125,-117.51348904393618,366.2495780982486,393.09174767876783
686,12.960533938249121,-294.55967015575885,-213.33309127435328,-10.087396703045052,-106.68551831133503,-107.24035491984239,363.0483306848152,351.49330470468425
687,13.615555978931127,-290.64099150130806,-212.62455238145824,38.39045857079497,-116.81356809113981,-97.3735472578308,359.3411026571341,314.2498605638013
688,14.278347729714463,-286.47386313476915,-211.38092772705537,79.93616958891306,-125.8454403549359,-87.98028743038901,355.17765131703874,281.2119180182548
689,14.932967185593009,-282.0956450162863,-209.65678474511225,114.62641388512444,-133.6278472625423,-79.11225744224032,350.6128720731211,252.1894585400253
690,15.56357403165579,-277.5460921738508,-207.51061010677503,142.64531152088892,-140.02363247980975,-70.8047549062209,345.7057497007089,226.96168458452658
691,16.154901911818133,-272.8667047405104,-205.0035448406149,164.27975997050936,-144.91442643647392,-63.07635450220087,340.51825341960466,205.28681991127982
692,16.692691440502806,-268.1000320994,-202.19816568720552,179.91243198851512,-148.20305624021677,-55.92911168260792,335.1142083797823,186.91158171947805
693,17.164069834111533,-263.28895621873556,-199.15733616684093,190.01257525059262,-149.8156720119176,-49.3493196418831,329.5581749121529,171.57998750019414
694,17.55786597212544,-258.47597916373843,-195.94314481851518,195.1248459637182,-149.7035497073419,-43.30880363955999,323.91436395938365,159.04122624159686
695,17.864853106433955,-253.70253765211564,-192.61594259351716,195.8564928027507,-147.84452852088185,-37.76670971224904,318.24561283637814,149.05639824322648
696,18.07791514444301,-249.00836408257533,-189.2334866190033,192.8632760741584,-144.24403982429766,-32.67171967485163,312.6124405493854,141.40400153591588
697,18.19213615195283,-244.43090947795926,-185.85019362179287,186.8345552730737,-138.93568522657904,-27.964602883262348,307.0721970112126,135.88410910987136
698,18.204816139813353,-240.00483978869426,-182.51650331284523,178.4780036867472,-131.98132437085164,-23.580998796289563,301.6783160950716,132.32123596616887
699,18.115419054454332,-235.76161321080554,-179.2783499763366,168.50441098637387,-123.47063886127538,-19.45431365630335,296.47967871776086,130.56593753152964
700,17.925461041549852,-231.72914252282598,-176.1767392308703,157.61301507215057,-113.52014748535413,-15.51860992935021,291.5200888793836,130.4952129124552
701,17.638348479215885,-227.93154283723118,-173.24742616068127,146.47776527694106,-102.27165983725374,-11.711368628332602,286.8378625655428,132.01181119311727
702,17.259176094774034,-224.38896175799508,-170.52069048009253,135.73486390556977,-89.89017045302914,-7.976012233986354,282.4655266120547,135.04256015123661
703,16.7944958706583,-221.117486167893,-168.02120391212986,125.97186625038965,-76.56121301148441,-4.264089249634483,278.4296222842443,139.5358567825672
704,16.252067518329582,-218.12911803314077,-165.76798451058505,117.71854519998098,-62.487712845698375,-0.5370396369836767,274.7506066613034,145.4584781649623
705,15.640601003229644,-215.43181060122868,-163.77443239478905,111.43964966505438,-47.88639445962154,3.232517812777246,271.44284395390093,152.79188773186556
706,14.969500825806012,-213.02955596217907,-162.04844143269244,107.52961018558564,-32.98381754128378,7.0600113279827035,268.5146785302421,161.5282230165379
707,14.248620458699442,-210.9225151801879,-160.59258167141442,106.30917371005052,-18.01212906274846,10.948666306596241,265.96858164019505,171.66615310691012
708,13.488033557849919,-209.10718320616036,-159.40434748434782,108.02388566868997,-3.204629852218358,14.889768010297441,263.801364543744,183.20678471872435
709,12.697826453462461,-207.57658238348694,-158.47646631082586,112.84428365227441,11.20873874248098,18.863404588920282,262.00445174611315,196.14977395727485
710,11.887914268302255,-206.3204801333335,-157.79726254044087,120.86762522413619,25.005878829949058,22.839640844740085,260.56420901357694,210.48976848406411
711,11.067881155504592,-205.32562801079587,-157.3510706484846,132.1209438116762,37.97688111683478,26.780059167316704,259.46232160265953,226.21326715808564
712,10.246843821421624,-204.57602063468974,-157.1186911948067,146.5652114496804,49.92812482398806,30.63959359545863,258.6762186390303,243.2959479395533
713,9.433336716622703,-204.05317396285304,-157.07788279757364,164.10038458469546,60.68603230952004,34.36857602899883,258.1795398240826,261.7004852214378
714,8.635216965138897,-203.73642292552168,-157.2038827541836,184.57111755024994,70.10038783573049,37.91491020692494,257.9426406032797,281.3748571628055
715,7.859587225584895,-203.603238455971,-157.4699486484787,207.7729454672005,78.04714226604405,41.226289045519714,257.933131563794,302.25113183475
716,7.112735222307163,-203.62956349499976,-157.84791297844268,233.45876169305902,84.4306400065509,44.25237393268757,258.11644711461275,324.24471640896354
717,6.400089537219864,-203.79016676544825,-158.3087424684665,261.3454419348189,89.18522043520015,46.94686008893868,258.4564375167491,347.2540540293724
718,5.7261921768982225,-204.0590122160207,-158.82309336389133,291.1204952685448,92.27616271500378,49.26935962055934,258.9159772688128,371.1607561916946
719,5.094689157581677,-204.4096411150039,-159.36185377905994,322.4486493955796,93.69995974251543,51.18704298632152,259.45758186542355,395.8301624357166
720,4.508340676713749,-204.81556281559227,-159.89666410056347,354.9783017026514,93.48392362071523,52.67598995483546,260.0440240262873,421.1123222657826
721,3.969052267057337,-205.2506491548447,-160.40040646096733,388.34778764355053,91.68514113088622,53.72221253396064,260.6389395515009,446.84339511363595
722,3.4779276896357936,-205.6895262530694,-160.84765433652166,422.1914326201904,88.38881291226537,54.32232462305003,261.2074119361007,472.8474618662643
723,3.0353433198126396,-206.10795620128243,-161.21507342282982,456.1453624980545,83.70602407463633,54.48384591021933,261.7165238446053,498.9387354661212
724,2.6410425310384094,-206.48319993315644,-161.48176531372488,489.85305139256127,77.77100639261765,54.22514024546891,262.13586277252,524.9241483579397
725,2.2942472246918784,-206.79435171793673,-161.6295464016802,522.9705841742071,70.73796293466529,53.575000887476286,262.437968052379,550.6062816876534
726,1.993782372852149,-207.02263536133586,-161.64315585788333,555.1716063303202,62.77753508808802,52.571906409434156,262.59870694964775,575.7865861838445
727,1.7382083967453403,-207.1516524034238,-161.51038836120594,586.151926636439,54.07299942283127,51.2629814300824,262.5975688596083,600.2688287914949
728,1.5259555041263444,-207.16757336423734,-161.22214934248464,615.6337298463417,44.81628727265901,49.70270527872084,262.41786851325287,623.8626835850523
729,1.355453790690241,-207.0592644899962,-160.77243295222306,643.3693485497736,35.20392277558986,47.951418691974894,262.0468517273169,646.3873713915921
730,1.2252529166606545,-206.8183445478495,-160.15822569977405,669.1445366175393,25.43297515755856,46.07368331063752,261.47570060108814,667.6752410398716
731,1.1341254109860552,-206.43916885597437,-159.3793415157716,692.7811823937612,15.697118385389738,44.13655097107838,260.6994389048883,687.5751774297191
732,1.0811481363741504,-205.91874057605276,-158.43819665690083,714.1393990629747,6.182886307860231,42.2077996614873,259.7167423271099,705.9557188250974
733,1.0657572677412328,-205.25655201889444,-157.33953535383074,733.11893308139,-2.93379553671899,40.35419082095185,258.52966196883176,722.7077686075497
734,1.0877733661224165,-204.45436123625717,-156.09011931302265,749.6598392504841,-11.490728768304734,38.63979878577472,257.1432728800059,737.7467951780792
735,1.1473947283522907,-203.51591158800431,-154.69839582752036,763.7423824144977,-19.342148809413384,37.12445798432216,255.5652624165513,751.0144271484016
736,1.245159009964206,-202.4466043197386,-153.17415994354474,775.3861401516532,-26.36096756836107,35.8623671876635,253.8054755566733,762.4793685371213
737,1.38187496531305,-201.25313632907364,-151.52822564915968,784.6482975951214,-32.44051288941165,34.9008829067564,251.87543580878585,772.1375795973406
738,1.5585278811424317,-199.94311701699112,-149.77211948258943,791.6211443343391,-37.49573935733401,34.27952609612275,249.78786084594907,780.0116926172649
739,1.776163809805069,-198.52467919712228,-147.91780759986355,796.4288040223481,-41.46389994610041,34.029218025426836,247.5561915159219,786.149658137207
740,2.0357589230179585,-197.00609931893356,-145.97746450735687,799.2232495056402,-44.30468333402872,34.17175301734592,245.19415146356567,790.6226449199131
741,2.3380810371032563,-195.3954417323676,-143.963288559024,800.1796793147842,-45.999836749315115,34.71950827902779,242.71535236750563,793.5222457543695
742,2.6835505086371905,-193.70024051793584,-141.88736607477205,799.4913542236612,-46.55230824906593,35.67538468901596,240.1329569246896,794.9570695329775
743,3.072107372053939,-191.92723073322702,-139.7615827395769,797.3640141693875,-45.98495475282926,37.03296725707602,237.45940849115618,795.0488266572835
744,3.503091019573862,-190.08213892217975,-137.59757807672253,794.0100149471945,-44.33887248756157,38.776889896065825,234.70623298552746,793.9280383309545
745,3.9751380636145988,-188.16954042185517,-135.40673653247558,789.6423395579442,-41.6714144191976,40.883385857126626,231.88391546867064,791.729519346426
746,4.486103274183158,-186.1927883884908,-133.20020720615918,784.4686497011214,-38.053964474911865,43.321002371298476,229.00185081754276,788.5877972689703
747,5.0330075825815515,-184.1540166256362,-130.98894351311426,778.6855475864036,-33.56954077176512,46.05145542433443,226.06836517731088,784.632637326167
748,5.612016063531561,-182.05421533775979,-128.78375399578593,772.4732161548553,-28.310299835426346,49.03059806431404,223.09080244011614,779.9848410026244
749,6.218447611891821,-179.89337594352435,-126.59535594107695,765.9905966044003,-22.375011411449524,52.20947342461912,220.07566783968167,774.752477042772
750,6.846816845920649,-177.67069819749602,-124.43442424511214,759.3712460730637,-15.866569568524607,55.535422191230815,217.02881887133904,769.0276866747143
751,7.490907712832865,-175.38485029074073,-122.31162899434968,752.7199962190479,-8.889600859246825,58.95321399106154,213.95569225434102,762.8841813117672
752,8.143877328009854,-173.03427052220113,-120.23765645520518,746.1105062870465,-1.5482245227371723,62.40617336200329,210.8615546737212,756.3755219708526
753,8.798387587954755,-170.6174976640685,-118.22320948839891,739.5837733394276,6.05598701518299,65.83727355878861,207.75176460385237,749.5342366155373
754,9.446760959687152,-168.13351630317462,-116.27898473485182,733.147629269633,13.825806973220333,69.1901751969973,204.6320325829592,742.3717963715684
755,10.08115568516224,-165.58210316966043,-114.4156252251099,726.777220883053,21.669881151312854,72.41019126506599,201.5086678163945,734.8794361274936
756,10.693754652851402,-162.9641606880959,-112.64364830642957,720.41643760522,29.50396199949516,75.44516496724783,198.38879986144414,727.0297714659447
757,11.276961466220165,-160.2820246766112,-110.9733498957072,713.9802228439602,37.251839756256366,78.24625187152284,195.28056533332764,718.7791339035283
758,11.823596757835979,-157.53973428823792,-109.41468704066087,707.3576808467075,44.845971494347644,80.76860260402351,192.19325107628399,710.0705213155046
759,12.327087547298243,-154.74325393698453,-107.97714164188955,700.4158718220137,52.22781908020677,82.97194649114832,189.13738708964388,700.8370410242898
760,12.781642464561383,-151.90063902423745,-106.66956896004031,693.0041745502784,59.34791588921219,84.82107970997694,186.12478464957817,691.0057098025042
761,13.182406006706183,-149.02213957429817,-105.50003518331117,684.9590876602775,66.16568922821371,86.28626337376917,183.16851734642023,680.5014679995821
762,13.525585666111835,-146.12023805521483,-104.4756488661277,676.1093376392407,72.6490705947365,87.34353752748542,180.2828448835273,669.251263663182
763,13.808546728684622,-143.209619502875,-103.6023915011908,666.2811625289165,78.77392913721228,87.97495652832177,177.48308130732903,657.18806604514
764,14.029870789792488,-140.30707374634707,-102.88495284232403,655.3036440719802,84.52336518561302,88.16875013456492,174.78541098748616,644.2546752931304
765,14.1893755912392,-137.43133134156818,-102.32657676914417,643.0139668469021,89.8869008711531,87.91941316679703,172.2066573333931,630.4072055456793
766,14.288095582356148,-134.60283681818836,-101.92892342521624,629.2624898858262,94.85960399256739,87.22772510486806,169.76401093183495,615.618131319959
767,14.328224468268433,-131.84346485804204,-101.69195316711932,613.9175238185286,99.44117956932504,86.10069969445354,167.47472541493423,599.878801388731
768,14.313022723227398,-129.176186867051,-101.61383768063729,596.8697143613668,103.63506094086532,84.5514637930956,165.35579082650386,583.2013398296227
769,14.246694498134062,-126.62469693068803,-101.69090343396851,578.0359409152453,107.44752883933633,82.59906441814651,163.42359540697424,565.6198703918292
770,14.134239508490996,-124.21300719092487,-101.91761224519755,557.3626473963272,110.88688275634172,80.26820323952089,161.69358731006614,547.1910178115868
771,13.981286348671851,-121.96502315274968,-102.28658297202124,534.8285316085563,113.96268442911864,77.58889842801402,160.1799476233075,527.9936583833297
772,13.793914234590524,-119.90410941836481,-102.78865720029955,510.44652991113406,116.68508862464792,74.59607461405841,158.8952852787227,508.12791208843225
773,13.578470417643864,-118.05265602969024,-103.41301042442578,484.26504604273856,119.06427171493993,71.32908258611403,157.85036321605057,487.7133899537044
774,13.341390393518987,-116.43165503255365,-104.14730861823003,456.36838705203735,121.10996390320722,67.83115125584123,157.05386357122103,466.8867330057244
775,13.08902748865145,-115.06029609313875,-104.97790827252588,426.8763854078795,122.83108655826142,64.1487754034829,156.51219772413404,445.79850289673925
776,12.827497470908558,-113.95558920253461,-105.89009598534287,395.9432042531702,124.23549217648382,60.3310438034571,156.22936495721186,424.60950835630797
777,12.562542636577438,-113.13202190867042,-106.86836172923383,363.7553419963392,125.3298011716171,56.42891348200173,156.20686155806737,403.48667523389605
778,12.299418504780249,-112.60125798474292,-107.89669825790489,330.5288725370198,126.11932699619656,52.49443709832511,156.44364054413708,382.5985901424919
779,12.042804900120684,-112.371883608013,-108.95891798672507,296.5059777146579,126.60807894130338,48.57995186459482,156.93612068261012,362.11086748839017
780,11.796741965163976,-112.44920583740597,-110.03897815513217,261.9508479106513,126.7988303308048,44.73724007560394,157.67824207376228,342.18150548382005
