time,ax,ay,az,gx,gy,gz,accmagnitude,gccmagnitude
0,-8.981176363121646,-251.63426458537887,-46.49301960686426,-6.2445188027731335,67.40922681319589,-2.9519052951772675,256.04769994587537,65.2639423194872
1,-8.902316672991143,-252.04288250977953,-46.386704205779914,-6.187066762768581,67.1551677253345,-2.539459997518017,256.43586944873186,64.66582817280424
2,-8.827922431711862,-252.4235391147976,-46.26340053639649,-6.154843415701645,66.91265336665322,-2.1276643061923184,256.793662279557,64.10714757843536
3,-8.758073453500288,-252.7721296649123,-46.12355254941423,-6.171770458181288,66.68644138262238,-1.7185393217417453,257.117000740069,63.61034350520462
4,-8.69271739934466,-253.0849642096944,-45.967811697576614,-6.264389884562678,66.48131089888479,-1.3140691592064506,257.4022523857286,63.19933415485589
5,-8.63166315812879,-253.35885662064686,-45.79705362066073,-6.46148268573783,66.30196474211692,-0.9161768880017471,257.6463231985075,62.89913350213764
6,-8.574581553091551,-253.5912081149339,-45.61239360745135,-6.793588942397357,66.15292866711536,-0.526701292025169,257.84674513005154,62.7354111828977
7,-8.521013228226236,-253.78008331954584,-45.41519948944542,-7.292432283750811,66.03844935896105,-0.14737472262025228,258.00175577962494,62.73399632776315
8,-8.470382741402041,-253.92427684579093,-45.20710064320278,-7.990254515189629,65.96239284399614,0.2201978023134111,258.1103678607878,62.92033155870156
9,-8.422017292360064,-254.02336813897514,-44.98999197326711,-8.919069188908022,65.92814489325158,0.5745582155904888,258.17242592093686,63.318885153052896
10,-8.375168212027866,-254.07776207627396,-44.76603221182908,-10.109845957587972,65.93851500349483,0.9144137387503217,258.18864757048163,63.95253126617542
11,-8.329033448336132,-254.08871251594783,-44.53763661824737,-11.591640680803568,65.99564555338202,1.238653859390074,258.1606463744921,64.84191001273685
12,-8.282779841578414,-254.05832601113818,-44.30746473890949,-13.390689473487235,66.10092775571928,1.5463656750523467,258.0909337347768,66.00478111153654
13,-8.23556485014835,-253.98954334802025,-44.07840368375113,-15.529488234098569,66.25492609018238,1.8368471007095901,257.98289757620927,67.4553866996125
14,-8.186558189336672,-253.8860972806752,-43.85354645142233,-18.025882619107705,66.45731301983325,2.109617204166343,257.8407562620535,69.20384078047574
15,-8.134964162028893,-253.75244555743313,-43.636163925167914,-20.892196785829473,66.70681593440533,2.3644226851223937,257.6694867489191,71.25556447095182
16,-8.080045214124237,-253.59367904556777,-43.4296687979123,-24.134432298131085,67.00117835131347,2.6012392553542667,257.47472662264596,73.61078757866433
17,-8.02114676346878,-253.41540558765868,-43.237569840816604,-27.751571126230928,67.33713739422011,2.8202664894827967,257.2626504689975,76.26413791052408
18,-7.957722975615388,-253.22361123240032,-43.06341545439774,-31.73501832514239,67.71041945265165,3.0219147077213644,257.03982208874817,79.20433992174591
19,-7.889362943786546,-253.02450169363482,-42.9107263161066,-36.06822025602346,68.11575569605634,3.206782687929794,256.8130253861283,82.41404366340166
20,-7.815816482428645,-252.8243282822788,-42.782918095627046,-40.72649250044209,68.54691874205182,3.3756254806247745,256.58907830516773,85.869803230996
21,-7.737018337112099,-252.6292040131208,-42.68321642874638,-45.677087273428356,68.99678123288544,3.52931226359678,256.3746358081835,89.54222083776483
22,-7.65310921181247,-252.44491692879805,-42.61456733899752,-50.879522730365075,69.4573963647103,3.6687749391497055,256.17598936257275,93.39626812424747
23,-7.564451915451624,-252.27674869299193,-42.57954688135109,-56.286186056598495,69.92009962953209,3.7949489602495943,255.99887149289353,97.39179042837519
24,-7.471641204048329,-252.12930694749272,-42.58027401538805,-61.843209086094014,70.37563033683723,3.908708623579812,255.84827444104425,101.48419268085908
25,-7.375506316684779,-252.006379623394,-42.618330823099996,-67.49160031601517,70.81427104644204,4.0107997903963675,255.72829170698517,105.62529762199236
26,-7.277105524362082,-251.91081834581271,-42.69469423077621,-73.16860182376578,71.22600294170135,4.101773683742781,255.64199021710797,109.7643584656303
27,-7.177712182352816,-251.84445646559433,-42.80968320829609,-78.8092252579757,71.60067535963661,4.181925973849076,255.59131924808406,113.84919942022071
28,-7.078791915146682,-251.8080653684995,-42.962924873005676,-84.34790930736555,71.92818802452652,4.251245642279184,255.57706027965764,117.82744931344605
29,-6.981970808050629,-251.8013507937089,-43.153342049533045,-89.72023309154066,72.19868479710121,4.309377965414565,255.59881990970467,121.64782682394055
30,-6.88899491709084,-251.8229890528285,-43.37916370551471,-94.86461640909671,72.40275776417634,4.355605331937032,255.6550659673686,125.2614313074808
31,-6.801682042317095,-251.8707012923478,-43.637958374694655,-99.72393872016872,72.531660152494,4.3888485789985605,255.74320503289863,128.62299143996754
32,-6.721867422414115,-251.94136232583963,-43.92668936305443,-104.24701367173265,72.5775258336369,4.407690235890247,255.85969777786983,131.69202503071162
33,-6.65134560114027,-252.03113914283557,-44.24178944259072,-108.38986417463288,72.53359209633173,4.410419619930883,256.0002069718936,134.43386715989038
34,-6.59181104429376,-252.1356529748212,-44.579251986035246,-112.11675363013266,72.39442094216867,4.395098206369574,256.1597716710403,136.82052974247205
35,-6.544800137207017,-252.25015776596453,-44.93473499694622,-115.40094090413672,72.15611257267112,4.359642172419481,256.3329999954099,138.83136304285426
36,-6.511637023257194,-252.36972720024107,-45.30367408786354,-118.22513909541138,71.81650325054235,4.3019176463614714,256.5142721367195,140.4534978717308
37,-6.4933854148527805,-252.48944223834292,-45.68140012570465,-120.58167022802326,71.37533860316097,4.219843177892473,256.6979449681206,141.6820555931537
38,-6.490808095214535,-252.60457139555086,-46.0632571268687,-122.47231918090482,70.8344128700776,4.111493451361349,256.87854986150546,142.5201212455961
39,-6.504335409798555,-252.7107366182738,-46.444716174791864,-123.90790023101033,70.19766466954346,3.975198339524388,257.05097595222236,142.97848286514906
40,-6.53404367269302,-252.80405852848958,-46.82148164345261,-124.90755855497663,69.4712206109056,3.809631963492935,257.2106320654824,143.07514750952254
41,-6.57964413176736,-252.88127598259572,-47.18958674699142,-125.49783700959371,68.6633795063222,3.6138873465657855,257.35358179866466,142.8346515833247
42,-6.640482946868533,-252.9398362783954,-47.54547632151462,-125.71154549663251,67.78453197927138,3.3875334191659,257.4766477708163,142.28718981098012
43,-6.71555240836929,-252.97795383684465,-47.88607565230698,-125.58647600865145,66.84701281832515,3.1306524682801795,257.57748267606684,141.4675933404429
44,-6.803513208672207,-252.99463664266952,-48.208844815958585,-125.16401068239823,65.86488633752342,2.8438574869025772,257.65460631903807,140.41419257474047
45,-6.902727012221509,-252.9896810336641,-48.51181820642101,-124.48767249651263,64.85366811207295,2.5282900839109628,257.70740911534034,139.16760400182565
46,-7.01129803296296,-252.96363657737274,-48.793628798054506,-123.601668431613,63.82998956673488,2.1856005591029155,257.7361236330673,137.76948223142688
47,-7.127121943363966,-252.91774383664043,-49.053516621710656,-122.54947294704823,62.8112147871693,1.8179124224741627,257.7417667690262,136.26127851423482
48,-7.2479401983713725,-252.85384881732998,-49.29132109554991,-121.37249570888285,61.815021389806844,1.4277740361298998,257.7260561494385,134.6830452544147
49,-7.371397700967813,-252.77429873338414,-49.507457232530996,-120.10887202371585,60.858959157435216,1.0181001891820303,257.69130523641564,133.07232266832574
50,-7.495101618627896,-252.6818243254284,-49.702876243101784,-118.7924079400373,59.96000132701628,0.5921063848480902,257.6403023010682,131.46313919435065
51,-7.616679104319936,-252.57941429089053,-49.87901159165203,-117.45170507656736,59.13410386894238,0.15323859589824296,257.57617884109914,129.8851520129656
52,-7.733831779989659,-252.47018743716757,-50.03771210682024,-116.10948347995475,58.395787842505285,-0.2948986737695121,257.50227318066743,128.36294857787857
53,-7.844385168481984,-252.35726799578336,-50.1811642570029,-114.78211459573151,57.75775900947641,-0.748613069542247,257.4219949290283,126.9155247605637
54,-7.946331739383591,-252.24366916748448,-50.31180612625873,-113.4793708946503,57.230577409445885,-1.2041908923743423,257.3386957106389,125.55595023316374
55,-8.03786672919114,-252.13218939038333,-50.43223591046843,-112.20439370590282,56.82238762445051,-1.6579568222444552,257.25555108378114,124.29122699033772
56,-8.117416341914655,-252.02532502194538,-50.5451179335119,-110.95387609545543,56.538718092470305,-2.1063247933356175,257.1754578290214,123.12234224867488
57,-8.183658357215466,-251.92520216850227,-50.65308934643603,-109.71845293553457,56.38235522836167,-2.545838630896275,257.10094989748444,122.04451220668844
58,-8.235535599115126,-251.8335293893619,-50.7586708150432,-108.48328548762363,56.35329547282851,-2.9732018268596954,257.03413536598134,121.04760824996458
59,-8.272263107404353,-251.75157200172606,-50.864184485555334,-107.22882279631332,56.44877588467248,-3.385296699610839,256.97665577686087,120.11675215620986
60,-8.293330083969913,-251.6801477276865,-50.971682230576555,-105.93171694918765,56.66338158036088,-3.779194104735984,256.92966822867874,119.23306170114124
61,-8.298497647450885,-251.61964246788781,-51.08288667189685,-104.56586388034592,56.98922614331299,-4.152155713394923,256.8938495483994,118.37452282047538
62,-8.287793165513692,-251.57004408590595,-51.1991468847224,-103.10353613550768,57.41619896889081,-4.501631551655196,256.86942087111066,117.51695931006526
63,-8.261501635660638,-251.530991280714,-51.321410052495324,-101.51656930897909,57.932271350140574,-4.825255965136652,256.85619003007054,116.63506630474764
64,-8.220154404374851,-251.5018339506699,-51.45020963545598,-99.77756024227334,58.523851032372214,-5.1208453835993515,256.8536083556902,115.70346996817058
65,-8.164515456446388,-251.48170095733556,-51.58566985002327,-97.86103307812577,59.176173136662825,-5.386401080601065,256.8608378443059,114.69777348617734
66,-8.095565505281638,-251.46957094485973,-51.72752546643422,-95.7445293465545,59.87371394053031,-5.62011945244105,256.87682425399703,113.59554904860751
67,-8.014484089810622,-251.46434193328872,-51.87515515799842,-93.40958067570925,60.60061313284671,-5.820411215931732,256.90037159178826,112.37723729727985
68,-7.9226297397720264,-251.46489584313872,-52.027625971619536,-90.84252740540315,61.341089914869556,-5.985929530274479,256.93021375023494,111.0269196807265
69,-7.821517990427431,-251.4701549102127,-52.18374605277138,-88.03515297730108,62.079838761358786,-6.115605654753234,256.96507974101445,109.53293498684477
70,-7.7127967637353905,-251.47912796528095,-52.3421225804675,-84.98511200907329,62.802391809417614,-6.20868962029102,257.0037499238369,107.88831860352441
71,-7.5982185962703355,-251.4909455859836,-52.501221913017346,-81.69613898400537,63.49543666594903,-6.264792655280225,257.0451016469236,106.09105136134535
72,-7.479609446104628,-251.50488405673767,-52.6594291779384,-78.17803407433252,64.1470808076622,-6.283927730395129,257.0881436765891,104.14411370622152
73,-7.3588342592509175,-251.52037880495521,-52.815104891757635,-74.44643229646648,64.74705654207567,-6.266544449824245,257.1320395929935,102.05534994985604
74,-7.237760012051395,-251.5370284110824,-52.96663659025282,-70.52237146384515,65.28686352416439,-6.213554557578803,257.17612084413014,99.83715593284886
75,-7.118217478551724,-251.55459040883767,-53.11248391467837,-66.43168276473676,65.75984884450182,-6.126344622845051,257.21989037735557,97.50601108578994
76,-7.001963383692474,-251.57297003806195,-53.251216207160425,-62.20423480079335,66.1612274489346,-6.006773138965862,257.2630178523963,95.08188210133088
77,-6.890644778626394,-251.59220303086352,-53.38154235491287,-57.87306719667582,66.48804791649805,-5.857150336036723,257.3053275056812,92.58752986328012
78,-6.785767387258489,-251.61243346651437,-53.50233322048978,-53.47345313737553,66.73911036865606,-5.680200339221794,257.3467798098383,90.04775373262447
79,-6.688669391836364,-251.63388774056708,-53.61263739860364,-49.04193122046369,66.91484457178039,-5.479006710392491,257.3874481531983,87.488607760885
80,-6.600501731317764,-251.65684576444556,-53.71169122082286,-44.615345762423345,67.01715715972944,-5.256943736739248,257.4274918549205,84.9366219957782
81,-6.522215526075823,-251.68161065031677,-53.798923864330455,-40.229931256802914,67.04925729681732,-5.017596981800983,257.4671269360182,82.41805894736069
82,-6.4545567492302105,-251.7084783404918,-53.873958111931984,-35.9204713271242,67.01546996153287,-4.764677488724809,257.5065961853087,79.95823078572553
83,-6.398067784224884,-251.73770881183964,-53.93660686897527,-31.71955578075801,66.9210453505796,-4.50193448434946,257.5461401201003,77.58089736020061
84,-6.353095088435492,-251.76950042150253,-53.98686520256695,-27.656952031275196,66.7719717407195,-4.233071371821502,257.5859702964582,75.30775917039759
85,-6.31980182876603,-251.80396858630317,-54.02489763399936,-23.75910009307149,66.57479763894352,-3.961669222425455,257.62624604292523,73.15805351378623
86,-6.298184036962584,-251.84112952757962,-54.051020674970715,-20.048734259708002,66.33646741695404,-3.691121009931177,257.66705528876736,71.14825666070101
87,-6.288088576505852,-251.88088955045137,-54.065680984381096,-16.54462976097212,66.06417309393284,-3.424578696062598,257.70839997639854,69.29189038316997
88,-6.289231121148277,-251.92304026371647,-54.069429941204014,-13.261469099322357,65.765223634326,-3.1649142129948666,257.7501865718858,67.5994275783209
89,-6.3012124866922115,-251.96726006048402,-54.06289588766485,-10.209820186246974,65.44693206374063,-2.9146945256999435,257.792222202339,66.07828898778807
90,-6.323532019287979,-252.01312193828034,-54.04675573832014,-7.396216616781464,65.1165198134218,-2.676170262341213,257.8342168135351,64.73292096856053
91,-6.355597284276126,-252.0601073780682,-54.021707915529326,-4.823329227331351,64.78103694486792,-2.4512767850468897,257.87579145795144,63.5649427992612
92,-6.396729978418499,-252.1076255735674,-53.98844854362932,-2.490217285927262,64.44729628951586,-2.241646007297456,257.91649241556235,62.57335104589508
93,-6.446168737921901,-252.15503680619688,-53.94765252407814,-0.39264713963091247,64.12181908318085,-2.048626795918607,257.9558103188685,61.75476802822994
94,-6.503070211872981,-252.20167823161088,-53.899960588830226,1.476534167800464,63.81078938569868,-1.8733114960546107,257.9932028445514,61.10372139042617
95,-6.566510230892808,-252.24688991471893,-53.845972767663234,3.126982953610846,63.520014472651056,-1.7165660241692764,258.0281189890977,60.61294217498189
96,-6.6354869483888255,-252.29003880800943,-53.786248051498,4.570413377040495,63.25488852795721,-1.5790610637750342,258.06002267298567,60.27366965153655
97,-6.708927441553504,-252.33053861454863,-53.721309530619955,5.820135220707418,63.02035739465663,-1.461302113545929,258.08841354599315,60.075952464505406
98,-6.78569861243656,-252.36786405361252,-53.65165389993725,6.890587984590199,62.820882808400576,-1.3636564520074763,258.1128433348362,60.00893734797
99,-6.864622587033137,-252.40155881570342,-53.57776380819709,7.7968842847152855,62.660405339394714,-1.2863755269889057,258.13292672486944,60.061138563824564
100,-6.944496329287166,-252.43123731416225,-53.500121117511604,8.554375157800676,62.5423061162841,-1.2296118751937213,258.1483464730067,60.22068321373169
101,-7.024114850828451,-252.45658104736975,-53.41921900053053,9.17824897212924,62.4693682251111,-1.193430367217295,258.15885310294476,60.475529533489116
102,-7.102297098929692,-252.4773308267247,-53.33557113268347,9.683174211325994,62.44373936226234,-1.1778142161116347,258.1642600265218,60.81365705023355
103,-7.1779132922673945,-252.49327629076745,-53.24971691847281,10.082994494726398,62.46689775621167,-1.182666653365845,258.1644352305941,61.22322891798638
104,-7.249912216891444,-252.50424414746308,-53.1622224264477,10.390481952422723,62.53962351073595,-1.2078094174980951,258.15929083596643,61.69272777473054
105,-7.3173469067738734,-252.51008656794622,-53.07367729827447,10.61715263695863,62.66197742041893,-1.2529792419985404,258.14877193563166,62.211067129773795
106,-7.379397248793253,-252.51067107412052,-52.98468826919902,10.773145135421625,62.83328908108701,-1.3178234296388482,258.13284611842175,62.76768069853862
107,-7.435388305719898,-252.50587308881242,-52.89587000856833,10.867160986829978,63.05215585561051,-1.401895435388455,258.11149493355174,63.35259233919671
108,-7.484803454238179,-252.49557211291773,-52.80783372081082,10.906462939592895,63.316454004138464,-1.5046512236907117,258.08470830265367,63.956469354811475
109,-7.527291753150933,-252.47965230228485,-52.721173507552514,10.896924599637329,63.623363050965594,-1.6254470498819582,258.05248261502214,64.57066191715951
110,-7.562669301935617,-252.4580079427882,-52.6364502131784,10.843122819445165,63.969404210853526,-1.7635392062113187,258.01482292469285,65.18723123864301
111,-7.5909146901331965,-252.43055385090202,-52.55417261076458,10.748462503457244,64.35049339601635,-1.9180860953235037,257.9717492436991,65.79896886110066
112,-7.61215888039279,-252.39724011120617,-52.47477633409213,10.61532254500396,64.76200892483824,-2.0881527191200835,257.92330644301757,66.39940904017291
113,-7.626669994309349,-252.35806998921112,-52.39860170753409,10.445211474260137,65.19887350063846,-2.2727173801693663,257.86957686961773,66.98283567587266
114,-7.634833587600736,-252.31311948584676,-52.3258722930322,10.23892217199002,65.65564928831188,-2.470680206392345,257.81069456501285,67.54428459818695
115,-7.6371291814835836,-252.26255688849943,-52.25667639493148,9.996676754399417,66.12664402107443,-2.6808730508845158,257.74685995266486,68.07954134687986
116,-7.634104005508049,-252.20666079829502,-52.19095391304885,9.718255380873329,66.60602515030827,-2.902070309503039,257.6783540175783,68.58513402360754
117,-7.62634503691458,-252.14583537208975,-52.12849080495678,9.403105960304622,67.08793831116802,-3.133000186721811,257.6055512294474,69.05832047542948
118,-7.614450511328871,-252.08062177118907,-52.06892295141474,9.050435059769013,67.56662599322316,-3.3723559702547017,257.52893061547104,69.49706905774534
119,-7.5990021859594,-252.01170497092565,-52.01175039523925,8.659283291244796,68.03654233401735,-3.618807021964465,257.44908438509196,69.90003247911784
120,-7.580539755508031,-251.93991516227152,-51.95636186163919,8.228590693094272,68.4924603113868,-3.8710094510106523,257.366723376046,70.2665146138371
121,-7.559538844136186,-251.8662230366764,-51.902068391181466,7.757258835011146,68.92956815540848,-4.127616698358414,257.28267843652674,70.59643052497353
122,-7.536393788726058,-251.79172839000356,-51.84814405366515,7.244216382423029,69.34355242221777,-4.387290405811088,257.19789682248074,70.8902601833229
123,-7.511405984805307,-251.71764180778834,-51.793871210069106,6.688493695537332,69.7306658198406,-4.6487119060991695,257.1134328959638,71.14899650280812
124,-7.484778063177717,-251.6452597001597,-51.73858764828173,6.089309953858679,70.08777853220136,-4.910594462865547,257.03043286264233,71.37408839445864
125,-7.456613799268326,-251.5759334926548,-51.681732971272986,5.446173645865124,70.41241242463971,-5.171696073731616,256.9501138117791,71.56737960350652
126,-7.4269234484260656,-251.5110341783369,-51.622891684014874,4.758994458693602,70.70275807928176,-5.430832317576778,256.87373771889827,71.73104412190209
127,-7.3956340274944345,-251.4519136777838,-51.56183051526802,4.028202094366866,70.9576750318767,-5.68688844280703,256.80258131992315,71.86751891155882
128,-7.362603886774975,-251.39986463901445,-51.49852778163488,3.254865727721485,71.17667581541473,-5.93882965800813,256.7379029973039,71.97943449581734
129,-7.327640824523664,-251.35608046607294,-51.433193126693915,2.440806926298549,71.35989448963636,-6.18570839141659,256.68090807623224,72.06954371860152
130,-7.290522993358338,-251.32161739104433,-51.36627663344994,1.588698862469149,71.50804037248994,-6.426667192159265,256.63271408911424,72.14064876638015
131,-7.251021789327423,-251.29736023575987,-51.29846693642207,0.7021453848904984,71.62233782790665,-6.660936068675407,256.5943175259298,72.19552653964718
132,-7.2089257019549535,-251.2839932467639,-51.23067845258614,-0.2142652706360158,71.7044532540417,-6.887823458537307,256.5665634225378,72.23685268693195
133,-7.164063804308073,-251.28197719499678,-51.16402822643236,-1.1549359322254702,71.75641081176673,-7.106700639082374,256.5501190154494,72.2671250019333
134,-7.116327324033544,-251.29153381841857,-51.099803220636026,-2.113267535861398,71.7804988711788,-7.31698008811797,256.54545263854027,72.2885873363948
135,-7.0656877118748405,-251.31263845045893,-51.039419230567574,-3.081699036609495,71.77916962325419,-7.518088973201956,256.55281887324793,72.30315566234692
136,-7.012209935068287,-251.34502113760604,-50.98437293739712,-4.051780529810478,71.75493485183785,-7.709439526104339,256.5722505111609,72.31234846515625
137,-6.956060346694539,-251.38817577211157,-50.93618886237848,-5.014279107937761,71.71026150949152,-7.890398532831371,256.6035571955281,72.31722428647872
138,-6.897509166420216,-251.44137601135114,-50.896363076830134,-5.959316150875623,71.64747138790034,-8.0602585408055,256.6463299094025,72.31832986545116
139,-6.836928027405157,-251.5036962565575,-50.86630549221549,-6.876533837363375,71.56864963041099,-8.218213612747565,256.6999499965458,72.3156627541571
140,-6.7747830891143614,-251.57403580606274,-50.84728254184058,-7.755287671457706,71.47556695641556,-8.363342425972812,256.7636012450236,72.30865235309771
141,-6.71162406984194,-251.65114444548274,-50.84036219109821,-8.584860809420086,71.36962020358305,-8.494601093247477,256.83628372706994,72.29616296307456
142,-6.648069481733589,-251.73364809743225,-50.84636344728164,-9.35469506069892,71.25179512773859,-8.610827249197953,256.91682848427934,72.27652167020285
143,-6.584788488183481,-251.820073643517,-50.86581271281915,-10.0546327028849,71.12265431705,-8.710755890089185,257.0039126636926,72.24757267916226
144,-6.522480125689216,-251.908872599977,-50.898909268408865,-10.67516269888754,70.98235161499406,-8.793046465015928,257.0960752641932,72.20675815102143
145,-6.461851020708779,-251.99844390082288,-50.945501833392605,-11.207664493234217,70.83067274575255,-8.856319964771872,257.19173415815584,72.1512238394365
146,-6.403593004393159,-252.08715649150818,-51.00507759568921,-11.644642265644379,70.6671001069272,-8.899204214197297,257.289205393597,72.07794606022595
147,-6.348362026661777,-252.17337265469556,-51.07676444110119,-11.97994234084019,70.49089813793577,-8.920385159567205,257.3867258675256,71.98387496913799
148,-6.296759494103963,-252.25547295013024,-51.159346419226964,-12.208946420563946,70.30121443380236,-8.918661640621766,257.4824802790923,71.86608790962266
149,-6.249316741358083,-252.33188337777545,-51.25129179240064,-12.328733451201629,70.09719094010539,-8.893000980815616,257.57463285589756,71.72194582155541
150,-6.20648293188903,-252.40110492050218,-51.35079236444023,-12.338203312583602,69.87807914899102,-8.84259273281991,257.66136376291576,71.54924539539576
151,-6.168616355703523,-252.4617450981454,-51.45581226727764,-12.238156168792509,69.64335315696303,-8.766898066779751,257.7409094773432,71.34635976354629
152,-6.135978904573059,-252.5125507217713,-51.56414409039908,-12.031322321651183,69.39281466675179,-8.665692563967676,257.81160591426317,71.11236097665609
153,-6.1087334803178255,-252.55244078364302,-51.67347019203808,-11.722338799822895,69.12668448503703,-8.539100538645195,257.87193282780964,70.84711828979549
154,-6.086944179838199,-252.58053832638006,-51.78142717059886,-11.317670725800243,68.8456757775088,-8.38761940355376,257.9205579494353,70.55136737315922
155,-6.070579186693004,-252.59620005428712,-51.88567169774071,-10.825477696439908,68.55104527637981,-8.212132996532974,257.95637928921974,70.22674693699494
156,-6.0595162707907155,-252.59904226519666,-51.98394610343932,-10.2554278353564,68.24461976496202,-8.013913234755867,257.978563879029,69.87580085969816
157,-6.053550656130332,-252.58896146564524,-52.07414214299368,-9.618464557604577,67.92879644493787,-7.794610008145938,257.9865810269854,69.50194562912014
158,-6.052404902255027,-252.56614799031496,-52.154361221247726,-8.92653317412005,67.6065171533594,-7.556229834192014,257.9802280758101,69.10940461788738
159,-6.0557404871514695,-252.53109119487087,-52.222969082564425,-8.192276142050115,67.28121773272753,-7.301104356395364,257.95964684628456,68.70311227402483
160,-6.063170922786042,-252.4845752430849,-52.278642760427395,-7.428707045650881,66.95675504050185,-7.0318501745310025,257.9253293481232,68.28859259019794
161,-6.0742762787183855,-252.42766498816954,-52.32040759607135,-6.648874286857467,66.63731501879208,-6.75132172662719,257.87811181368545,67.87181713956069
162,-6.0886187955943205,-252.36168188564912,-52.347662526218734,-5.865525942418226,66.3273059050699,-6.4625590336247924,257.81915661540813,67.4590485230563
163,-6.105758915133297,-252.28817033866002,-52.36019260272663,-5.090787250780353,66.03124105296742,-6.168732094880824,257.7499222330361,67.05667527810081
164,-6.125270776348472,-252.2088554087839,-52.3581686139109,-4.335861677407576,65.7536159452159,-5.873083592735126,257.67212214035726,66.67104416601838
165,-6.146756211777498,-252.12559335071273,-52.34213440538627,-3.6107654398712894,65.49878384893168,-5.578871349106739,257.5876741454772,66.30829533986648
166,-6.1698565006337915,-252.0403168313403,-52.312982859948384,-2.9241037672157058,65.2708342862145,-5.289311734040997,257.49864219110975,65.9742053245382
167,-6.1942614585954034,-251.9549769024408,-52.27192156738208,-2.2828951277732354,65.07347819466627,-5.007525010158143,257.4071728457544,65.67404216853987
168,-6.219715752192764,-251.87148381013296,-52.220429250202436,-1.6924474201628903,64.90994338788886,-4.736483424930778,257.31542874231883,65.41243662078624
169,-6.246022540669734,-251.79164862330052,-52.16020419346818,-1.1562879996853015,64.78288362938407,-4.478962737058435,257.22552116142657,65.19327268211626
170,-6.2730445999695394,-251.71712757732772,-52.09310621661981,-0.6761476533645157,64.6943041827075,-4.237497792499045,257.1394439301152,65.01960025554321
171,-6.300702965739001,-251.64937104284726,-52.02109397704183,-0.25199729269589766,64.64550604513104,-4.0143427441417145,257.05901086505196,64.89357181844795
172,-6.3289729563969415,-251.5895790895143,-51.94615955811894,0.11786491481031194,64.63705027545454,-3.8114364929467683,256.98579907416024,64.8164041267394
173,-6.357877384074021,-251.5386655677155,-51.87026244724553,0.4366791817549275,64.66874300499954,-3.6303738346232737,256.9211004113426,64.78836504912917
174,-6.387476955420439,-251.49723235839275,-51.79526522181686,0.7090466682277412,64.73964097625854,-3.4723825582690484,256.8658831582294,64.80878481897261
175,-6.4178582600068115,-251.4655549506564,-51.72287346928257,0.9407141968018434,64.84807683768278,-3.3383064036545367,256.82076557861245,64.87609033435051
176,-6.44912012616915,-251.44357991196335,-51.654582513028544,1.1383274291870842,64.99170290603217,-3.2285934905084233,256.7860024289304,64.9878606078553
177,-6.481359290770369,-251.4309342455837,-51.59163330978594,1.3091598459463551,65.16755161144273,-3.1432897268263944,256.7614849144317,65.14090098847561
178,-6.514656291971737,-251.42694612999713,-51.534979460018015,1.4608257432359748,65.37211034008462,-3.0820368150664987,256.746754005823,65.33133331992653
179,-6.549062421695556,-251.4306760746967,-51.48526667944754,1.6009861491297845,65.60140794763502,-3.0440747211861443,256.74102645986267,65.55469881652391
180,-6.584588543221971,-251.44095711193026,-51.44282532493922,1.7370570351665495,65.85110991053148,-3.0282487397559206,256.74323232887417,65.80607019616491
181,-6.621196493263565,-251.45644232523298,-51.40767569359374,1.8759293647256041,66.11661894626491,-3.0330215359550823,256.75206225573,66.08016953953403
182,-6.658793571447392,-251.4756578047532,-51.37954496065743,2.0237102534210147,66.39317797289024,-3.0564907852792422,256.76602247041563,66.37148844809177
183,-6.697230365730844,-251.49705900175127,-51.357893972662715,2.1854937605167257,66.67597248376255,-3.0964132350382023,256.7834951553659,66.67440734184329
184,-6.736302004894637,-251.51908843815903,-51.34195176749645,2.36516864943096,66.96022977571388,-3.15023608315228,256.8028017591229,66.98331115732178
185,-6.775752858202272,-251.54023278478917,-51.33075562518602,2.5652689814226384,67.24131296980116,-3.215136434037313,256.82226687909554,67.29269925526403
186,-6.815284581825811,-251.5590773742897,-51.32319458006939,2.7868717572498802,67.5148083491907,-3.2880692548312602,256.84028040772444,67.59728797024322
187,-6.854567138384703,-251.57435624965805,-51.31805455895003,3.0295440775019133,67.77660510183428,-3.3658237809533693,256.85535571028595,67.89210482396469
188,-6.8932520162011715,-251.5849959732537,-51.314063557496425,3.291340522259291,68.02296697650891,-3.445087782344786,256.86618176348185,68.1725738596731
189,-6.930986500118952,-251.5901517425242,-51.30993548558168,3.5688497388356484,68.25059557883405,-3.522518561388586,256.8716675321575,68.4345917751348
190,-6.967427688759904,-251.58923486023252,-51.304411544298155,3.857287657785653,68.45668508858658,-3.594819051638695,256.8709773942215,68.67459457470301
191,-7.002255105262373,-251.58193114587675,-51.29629828481895,4.1506333689087445,68.63896816800407,-3.6588169669498334,256.86355701234055,68.88961442588995
192,-7.035181104107784,-251.5682102791998,-51.284501799001184,4.441802457785831,68.79575280849566,-3.711544667296192,256.8491495154955,69.07732635295788
193,-7.065958621057212,-251.54832625280807,-51.2680577315538,4.722851521103164,68.92594980770488,-3.7503172758869168,256.8278020919164,69.23608431189291
194,-7.094386033631914,-251.5228091194008,-51.246156993059486,4.985206724412432,69.02909044689054,-3.7728065598612144,256.7998631456058,69.36494603971082
195,-7.12030905986813,-251.49244815234843,-51.218167263734394,5.219908755346359,69.10533377358519,-3.7771081460169715,256.7659701481529,69.46368588720685
196,-7.143619825518204,-251.4582665193568,-51.18365060204004,5.417866408367344,69.15546275618404,-3.761799818744458,256.7270283477778,69.5327947077285
197,-7.164253488497135,-251.42148771915282,-51.14237757493574,5.570111300258879,69.1808685327006,-3.7259889741635073,256.6841806709911,69.57346586288995
198,-7.182183077953825,-251.38349438199242,-51.09433817278377,5.668046837997649,69.18352205890855,-3.66934773538777,256.63876947201203,69.58756655751141
199,-7.197413427402625,-251.34578050416388,-51.03974936980113,5.703685474827952,69.16593267254181,-3.5921346548420083,256.59229117152535,69.57759402199493
200,-7.209975173954341,-251.30989869053477,-50.979058709195904,5.6698693320014515,69.13109342651435,-3.4952022565722993,256.54634522886926,69.54661649511885
201,-7.219919681821471,-251.27740445225183,-50.912942958394076,5.560470254069996,69.08241351434407,-3.3799899208602873,256.5025792888215,69.49819951435408
202,-7.227315443665792,-251.24979992278892,-50.84230083487633,5.370566235279202,69.02363870288946,-3.2485018664053706,256.462632639167,69.43631867944306
203,-7.232246114687099,-251.2284793982371,-50.76823902593469,5.096591953163529,68.95876132615389,-3.103270303862325,256.42808019139846,69.36526075238483
204,-7.234809939761818,-251.21467889990868,-50.69205109028648,4.736461942832063,68.89192197081807,-2.9473042243557535,256.400379053892,69.28951559237333
205,-7.2351200209466136,-251.20943161252708,-50.61518921721438,4.289665728474482,68.82730542199236,-2.784024699954394,256.3808194946446,69.21366191574809
206,-7.233304686376104,-251.21353066778613,-50.539229182792916,3.75733488289121,68.76903370187812,-2.617187934959955,256.3704817780982,69.14225016785078
207,-7.229507157040939,-251.2275003936432,-50.46582919580764,3.1422823717464583,68.72105910328719,-2.4507975869224583,256.3702000828041,69.07968585994871
208,-7.223883755715965,-251.2515768787013,-50.39668365714019,2.4490145885436525,68.68705998618171,-2.28900812994414,256.3805345058879,69.03011655098567
209,-7.216600086811582,-251.2856985008854,-50.33347306580155,1.6837162502055214,68.67034180896165,-2.136021325998734,256.4017520099525,68.99732529123149
210,-7.207824955602818,-251.32950689275324,-50.27781131259487,0.8542079538999998,68.67374550785041,-1.9959781892019897,256.4338170056322,68.984632904515
211,-7.197722255567147,-251.38235858646163,-50.23119153859738,-0.030124124472431082,68.69956503579616,-1.8728491023481129,256.4763920390705,68.99481109313305
212,-7.186441534030343,-251.4433472105744,-50.19493187980153,-0.9584270490494091,68.74947570117602,-1.7703249242525507,256.52884873365605,69.0300080833232
213,-7.174108311247542,-251.51133556395808,-50.17012287952793,-1.9185090287923392,68.8244748999218,-1.6917120072204006,256.5902887022842,69.0916883855903
214,-7.160815378381898,-251.58499624049242,-50.157578907451374,-2.896996663213134,68.92483682562195,-1.6398340391413149,256.65957362288464,69.18058813759514
215,-7.146616240507153,-251.66285886168373,-50.15779625258276,-3.879521254325501,69.05008264178554,-1.6169435294994707,256.73536312798893,69.29668729935595
216,-7.131521677271917,-251.74336152936465,-50.17092049307024,-4.850933151525627,69.19896731016975,-1.6246455550577574,256.8161587034106,69.43919958316107
217,-7.115500121090742,-251.82490392470288,-50.196725285482636,-5.795542101474892,69.36948378852325,-1.6638360706026885,256.9003515100645,69.60658042480482
218,-7.098482192214842,-251.90589955653752,-50.23460394265539,-6.697380401098252,69.55888474139746,-1.7346567072168624,256.9862719579542,69.79655264259408
219,-7.0803692718374585,-251.98482491763295,-50.2835743027345,-7.540484460674537,69.76372137367922,-1.836467571801863,257.07223893260596,70.00614881745689
220,-7.061045512452237,-252.06026363041778,-50.34229670620684,-8.309189400849384,69.97989856022855,-1.9678391569566034,257.1566067460689,70.23176893518776
221,-7.040392311840053,-252.13094399930498,-50.40910442756148,-8.988430689637516,70.20274510153357,-2.1265640611847827,257.23780811305465,70.46925146879147
222,-7.018304094650057,-252.19576874819847,-50.482045455087025,-9.564046570076698,70.42709767923968,-2.309688764696211,257.3143917154777,70.71395584727823
223,-6.994704233376584,-252.253836129154,-50.55893400147768,-10.023075034530574,70.6473969524097,-2.5135651826227425,257.38505321981944,70.9608541940619
224,-6.969560031365578,-252.30445203675387,-50.637409711863,-10.354039305734206,70.85779426846794,-2.7339211556549072,257.44865897272655,71.20463036905667
225,-6.942895853898713,-252.34713324252905,-50.7150023455934,-10.547216201770624,71.05226763756673,-2.9659484823513202,257.50426203481334,71.43978469524261
226,-6.9148037520087176,-252.3816023429968,-50.78919971930336,-10.594882405833108,71.22474580564273,-3.204406557879152,257.5511106867327,71.66074316460946
227,-6.885451260366146,-252.40777541362272,-50.85751679226413,-10.491534492813592,71.36923928618458,-3.443739161955092,257.5886499551546,71.86197021892193
228,-6.855086320190355,-252.42574361281407,-50.91756381485652,-10.23407948681553,71.47997697741889,-3.678201472419092,257.61651696525644,72.0380842720632
229,-6.824039301653786,-252.43575010548224,-50.96711141805417,-9.821993552287044,71.55154653716644,-3.9019940277700265,257.6345310410514,72.18397498210513
230,-6.792721881122401,-252.43816374108744,-51.00415055633917,-9.25744688090192,71.57903612772863,-4.1094001492553955,257.6426795413031,72.29492095604098
231,-6.76162229244954,-252.4334509706754,-51.0269455116989,-8.545392669069637,71.55817457955273,-4.294923250173588,257.64110052070083,72.36670613678982
232,-6.7312964498518975,-252.42214754339997,-51.03407868411752,-7.693617213138121,71.48546648975821,-4.453420489637872,257.63006346252087,72.39573260470243
233,-6.70235467702827,-252.40483157216022,-51.02448639970828,-6.712746780992273,71.35831825795867,-4.5802293638521405,257.60994948214665,72.37912693513654
234,-6.675444149569499,-252.38209954274328,-50.99748527312694,-5.616205462447279,71.17515058355573,-4.67128406280469,257.5812324544343,72.31483664405734
235,-6.6512275165846395,-252.35454673447606,-50.95278878613092,-4.420117109988538,70.9354925973336,-4.723218722570237,257.54446244642867,72.20171275065087
236,-6.630358466893928,-252.32275333709202,-50.89051387738552,-3.1431441049239095,70.64005270680693,-4.733455012475602,257.5002526911494,72.03957424262285
237,-6.613455303454123,-252.28727723316786,-50.81117764646297,-1.8062562255055388,70.2907614975137,-4.700271763600996,257.44927109926294,71.8292503572085
238,-6.601073915552997,-252.2486538685593,-50.71568471527191,-0.432424429477621,69.89078267493684,-4.622854591026714,257.3922368678597,71.57259712125911
239,-6.593681797997221,-252.20740288749778,-50.605306153044914,0.9537631402743546,69.44448901448048,-4.501323771991073,257.3299220956329,71.27248548885326
240,-6.591634816001062,-252.16404044115694,-50.481651026087384,2.3265622940466026,68.95740155688921,-4.336739082607216,257.2631575938686,70.93275960572882
241,-6.5951581978314415,-252.11909543714728,-50.34663162530705,3.65960647957814,68.43609180905159,-4.131080852106522,257.1928414461184,70.55816514850837
242,-6.604332838176378,-252.07312752936286,-50.202423304677794,4.926503987745492,67.88804843180017,-3.887207109930932,257.1199483757579,70.15424924488696
243,-6.619087554612754,-252.02674437448863,-50.05141960534579,6.1014849529963335,67.32151168694466,-3.6087873627474725,257.0455376501791,69.72723502272558
244,-6.639197529084275,-251.98061565705487,-49.89618298474564,7.160079740620575,66.74528058279773,-3.300214274731917,256.97075714575055,69.2838751452328
245,-6.664288764781645,-251.93548167454563,-49.739391216332955,8.07980610486543,66.16849902208358,-2.966495345998257,256.89684142085395,68.8312895671982
246,-6.693847985339924,-251.89215489576165,-49.58377958280041,8.840839268499431,65.60042821334414,-2.6131275593052012,256.82510225345186,68.37679309939541
247,-6.727237078212904,-251.85151376092293,-49.4320793902785,9.426637226664406,65.0502131399885,-2.245958836247255,256.75691100730853,67.92771824924033
248,-6.763711045879722,-251.81448886732545,-49.28695393739337,9.824493385502153,64.52665103470402,-1.8710409206085727,256.69367316204557,67.49123839106426
249,-6.802438485663005,-251.78204237916592,-49.15093366683251,10.025990234029075,64.03796964451888,-1.49447886230209,256.63679613867674,67.07419582586417
250,-6.842523760834242,-251.75514194453314,-49.02635260763559,10.02733106276326,63.591622666673615,-1.1222824954407031,256.587652064405,66.68293891215498
251,-6.883030144972016,-251.73473061905423,-48.915288266055605,9.829531537243234,63.19410917081068,-0.7602251421995849,256.5475373451961,66.32317231509778
252,-6.923003317092322,-251.7216943123443,-48.81950689650059,9.438458829109242,62.85082312726435,-0.4137142640381139,256.5176308896367,65.99982452205289
253,-6.961494695802859,-251.7168281532719,-48.74041578447506,8.864712573673502,62.56593824945083,-0.08767800516433463,256.49895265389216,65.71693692170754
254,-6.997584171689559,-251.72080306558996,-48.67902398477883,8.123348734072621,62.3423321118928,0.21352937898461252,256.4923240384771,65.47757867305211
255,-7.030401722195622,-251.7341339014575,-48.63591291231037,7.233454131007619,62.18155191216156,0.4862012524903066,256.49833170908835,65.2837911212996
256,-7.059147209397222,-251.75715067785478,-48.61121815187027,6.2175856600756845,62.08382242189127,0.7273305592192298,256.51729659494237,65.13656462383449
257,-7.083107579342636,-251.78997462463215,-48.60462365901808,5.101093859186271,62.04809478883276,0.9346400083288964,256.54924993905473,65.03584939888438
258,-7.101670863324607,-251.8325007000878,-48.61536909650189,3.911355325330535,62.07213307889319,1.1065912469604953,256.5939181467882,64.98060051093243
259,-7.1143367704026454,-251.88438788201944,-48.64227047900476,2.6769423322115076,62.15263392886601,1.2423743774966078,256.6507177390351,64.96885548457719
260,-7.120724077143249,-251.94505795297144,-48.683753726297134,1.4267606788690446,62.28537349831348,1.341879638036819,256.71876103907266,64.99784140464509
261,-7.120575328309941,-252.0137028320855,-48.73790024036651,0.18918810610753758,62.46537506345199,1.40565344701291,256.7968724817827,65.06410679726868
262,-7.113759502756582,-252.089299956224,-48.80250323111486,-1.0087546060480077,62.687090048597085,1.434841329179854,256.88361482063283,65.1636721783432
263,-7.100273249212135,-252.17063488534913,-48.87513314853707,-2.1421695235139167,62.944585039952216,1.4311204435984546,256.9773241121645,65.29219204051853
264,-7.080241059312428,-252.25633016149058,-48.95321014765608,-3.188957260523853,63.231727432353914,1.3966244851065663,257.0761521243205,65.44512041392565
265,-7.053914378481405,-252.3448793633964,-49.03408103772325,-4.130379624905112,63.54236286771293,1.3338636556447605,257.1781146285356,65.61787211360536
266,-7.021669288136976,-252.43468518074837,-49.11509786033184,-4.951491467356562,63.87047847753057,1.2456422635358593,257.2811438522146,65.80597236736187
267,-6.984002176320439,-252.5241001967256,-49.19369530817807,-5.6414297383220235,64.21034701280948,1.1349763476105228,257.3831432457367,66.00518857934742
268,-6.941522836011713,-252.6114689994874,-49.2674645204045,-6.193553864717427,64.55664814080426,1.0050135415462744,257.48204271940295,66.21163940015657
269,-6.894944663982625,-252.6951702805253,-49.334221011581725,-6.605437756916536,64.90456447985943,0.8589571818781112,257.5758525988,66.42187794369354
270,-6.8450719521886505,-252.77365765116505,-49.39206447245465,-6.878719764030118,65.24985128904554,0.6999964200554675,257.66271463154834,66.63294778899231
271,-6.792784515858701,-252.8454979310929,-49.43942816237079,-7.018822469050695,65.58888001934517,0.5312438242384511,257.74094840833055,66.84241214771534
272,-6.739020002546448,-252.90940565011715,-49.47511586543729,-7.034559132941629,65.91865702385023,0.35568163688887217,257.80909160018416,67.0483580581608
273,-6.684754211290973,-252.96427256378155,-49.49832493395206,-6.937647626953384,66.23681951489988,0.17611748244005831,257.8659325758496,67.24937852819576
274,-6.630979745550597,-253.00919121546113,-49.50865467311891,-6.7421556094529445,66.54161134560727,-0.004850084967312031,257.9105343283544,67.44453615320764
275,-6.578683444888813,-253.04347197434194,-49.50610011949105,-6.463902350208501,66.83184147369714,-0.18485620734312547,257.9422491839015,67.63331196521851
276,-6.528823309653913,-253.06665339741727,-49.49103205823515,-6.119842960922613,67.10682815359394,-0.36178490983231665,257.9607243346094,67.81554327120449
277,-6.482305951670925,-253.07850604722535,-49.4641648553748,-5.727459968070112,67.3663320730598,-0.5337755656255524,257.9658986618721,67.99135414207194
278,-6.439965818996968,-253.07903001237128,-49.42651429501648,-5.3041853140669,67.61048182587533,-0.6992216558315003,257.95799155174865,68.16108210099515
279,-6.402547451973213,-253.06844639361307,-49.37934803341584,-4.866873117484629,67.83969527677226,-0.8567631348987095,257.9374844981393,68.32520446292446
280,-6.37069183023926,-253.04718300477057,-49.324131467622664,-4.431339990058943,68.05460045957841,-1.0052739633120473,257.9050963038326,68.48426765533894
281,-6.344927525173443,-253.01585454769895,-49.26247181042331,-4.01198557774289,68.2559595363799,-1.1438464914626723,257.86175268569167,68.63882259803599
282,-6.325666935248021,-252.97523762299951,-49.19606302233601,-3.621501474112943,68.44459896358177,-1.2717743256033662,257.808551149152,68.78936876568761
283,-6.313207389494249,-252.9262412004206,-49.126633964300794,-3.270671949944077,68.62134841123229,-1.388535108037335,257.74672218460336,68.93630894144775
284,-6.307736404648422,-252.86987359898583,-49.05590167498253,-2.9682652630631026,68.78699027324113,-1.4937743598724336,257.6775881544531,69.07991598081163
285,-6.309339970960412,-252.8072075233624,-48.98553104961275,-2.7210099024203878,68.94222085947952,-1.5872912371797414,257.602521596439,69.22031218606035
286,-6.318012533961571,-252.73934509372984,-48.91710142247011,-2.53364625064657,69.08762361190216,-1.6690268162892197,257.52290489959836,69.3574611523279
287,-6.333667363097253,-252.66738491939563,-48.85207970717774,-2.4090410738712404,69.22365396823761,-1.7390553804020674,257.4400932595157,69.49117120420837
288,-6.3561461709535045,-252.59239306611354,-48.79179902130369,-2.348350154850681,69.35063484358143,-1.7975790760509145,257.35538248815067,69.62110883568675
289,-6.385227088206712,-252.51537935741464,-48.73744136881954,-2.35121337024751,69.46876116493169,-1.8449261573015285,257.2699827895681,69.74681996909266
290,-6.420630402350566,-252.4372799347764,-48.69002312082829,-2.415966568077353,69.5781115522004,-1.8815527761170943,257.1849991468486,69.86775646475631
291,-6.4620218330466646,-252.35894643909495,-48.65038261293474,-2.5398556435317206,69.67866514514199,-1.9080478912826644,257.10141853510055,69.9833052233415
292,-6.5090134865966425,-252.28114164144435,-48.61916984115428,-2.719240142021963,69.77032170298062,-1.9251403894377739,257.02010378928077,70.0928174263889
293,-6.561162929013496,-252.20454090711044,-48.596838670188745,-2.949776447675409,69.85292335263868,-1.9337070252057575,256.94179361062754,70.19563587645719
294,-6.61797099495969,-252.12973851204404,-48.58364207001854,-3.226573992689629,69.92627663121102,-1.9347793928005426,256.867107860605,70.29111892461131
295,-6.678879009127704,-252.05725749967948,-48.57963080309439,-3.54432164483891,69.99017370463218,-1.9295479117788104,256.7965569485541,70.37866002216222
296,-6.743266104553861,-251.98756147864532,-48.58465588761837,-3.897385052484068,70.04441182128545,-1.9193607880156591,256.730553818579,70.45770241799768
297,-6.810447368213408,-251.9210666238079,-48.598375113670095,-4.279878789505914,70.08881017413977,-1.9057161153886755,256.6694268989314,70.52774887815676
298,-6.87967362189513,-251.85815226996243,-48.620263790693514,-4.685719311468516,70.1232234514081,-1.8902456947451332,256.61343248787773,70.58836654924181
299,-6.9501336497721615,-251.7991688608054,-48.64962970221062,-5.108665859774744,70.14755153085437,-1.874689715300803,256.5627653814565,70.63918729869239
300,-7.020959547222199,-251.7444425020852,-48.68563201124709,-5.542356565022024,70.16174503067109,-1.86086211850075,256.51756698085006,70.67990407937724
301,-7.091235635848206,-251.6942758687005,-48.72730367264414,-5.980346275701243,70.16580671218075,-1.8506071982441141,256.4779305682695,70.71026405352472
302,-7.16001114015639,-251.6489456958029,-48.773576769062075,-6.416151307929784,70.15978899018467,-1.8457487304249487,256.4439038779998,70.7300593468991
303,-7.2263165397427,-251.60869750098402,-48.82331011095455,-6.843304614002965,70.14378806850702,-1.848033615987607,256.41548947489105,70.73911642284588
304,-7.289183141070394,-251.5737384837973,-48.87531846145284,-7.255423043973416,70.11793552470262,-1.8590726247354676,256.3926437386917,70.7372852166713
305,-7.347664994950057,-251.5442296946266,-48.928402817218775,-7.64628665323181,70.08238849190111,-1.8802813053030378,256.3752753968576,70.72442933093144
306,-7.400861964476383,-251.52027855103782,-48.98138119116579,-8.009928519034048,70.03731982515743,-1.9128244279556954,256.36324452851534,70.70041866288516
307,-7.447942637698104,-251.50193263230167,-49.033119268840146,-8.340732267438694,69.98290969959763,-1.9575673779277107,256.3563628000106,70.6651257248554
308,-7.488165892760846,-251.48917543805004,-49.08256017578555,-8.633533456820489,69.91933993499931,-2.015037654275094,256.3543954293264,70.61842660131272
309,-7.5209001916517835,-251.48192448095682,-49.128752421521206,-8.88372020682103,69.846792006364,-2.085399057798067,256.3570650407667,70.5602070135045
310,-7.545639965598659,-251.4800317409441,-49.17087494899095,-9.087328190508536,69.76544926559458,-2.168440360047726,256.3640572170513,70.49037344698885
311,-7.562018631907152,-251.48328621857337,-49.208258247925244,-9.241125433464425,69.67550346330134,-2.2635793441082455,256.37502728238707,70.40886885855218
312,-7.569817846687288,-251.49141815508318,-49.240400727065285,-9.342683169609769,69.57716527699253,-2.369882171560744,256.38960773071074,70.315692162014
313,-7.568972662215654,-251.50410446925864,-49.2669798493924,-9.390429996548727,69.47067822584232,-2.4860971070572395,256.40741575805976,70.21092046276722
314,-7.559572421710326,-251.52097510821025,-49.28785773240509,-9.383687486242419,69.3563350773479,-2.610700775026256,256.4280605452315,70.09473282463023
315,-7.54185748821131,-251.5416202756033,-49.303080961129865,-9.322686127406305,69.23449564249896,-2.7419543969460745,256.45115021470605,69.96743420774348
316,-7.516212160844985,-251.56559875409465,-49.31287440256453,-9.20856101026352,69.10560473439779,-2.8779669303911586,256.4762986490517,69.82947813565124
317,-7.483154267927651,-251.59244761509834,-49.31762900615295,-9.043327065981499,68.97020902480753,-3.0167617520357046,256.5031324734871,69.68148663767262
318,-7.4433219570730165,-251.62169342746887,-49.31788390420777,-8.829834021336854,68.82897153706456,-3.156343503208057,256.53129838969323,69.52426604592807
319,-7.397458229406723,-251.65286471386293,-49.31430343644916,-8.571701598460425,68.68268253110679,-3.2947619239038444,256.56047075013254,69.35881728611123
320,-7.34639379256788,-251.68550504215537,-49.30764992915613,-8.273235898127414,68.5322655740784,-3.4301699067135973,256.59035894533804,69.18633939689548
321,-7.291028715974883,-251.71918592397478,-49.29875320488837,-7.939328313047137,68.37877767991789,-3.560873556289324,256.6207139882429,69.00822516798446
322,-7.232313126094943,-251.75351866497834,-49.2884779467998,-7.575338692825991,68.22340257364091,-3.6853726673852814,256.6513336723208,68.82604802143004
323,-7.171226943330603,-251.7881644549761,-49.27769019363758,-7.186964860424185,68.06743641167891,-3.8023906634393394,256.68206584220894,68.64153959552922
324,-7.108758617125422,-251.82284224247573,-49.26722436193899,-6.780101045159465,67.91226566277832,-3.910893629450036,256.7128095872539,68.4565579279802
325,-7.045882978315495,-251.85733419538167,-49.25785224620969,-6.3606883922470265,67.7593372771389,-4.010098617476637,256.7435144334587,68.27304663265258
326,-6.98353862527092,-251.89148869237607,-49.250255398240576,-5.934561372591104,67.61012170118845,-4.099471901228563,256.77417774587565,68.09298597108662
327,-6.9226056291088724,-251.92522078835384,-49.24500210102034,-5.507294524234058,67.46606975245071,-4.1787183077016,256.80484052505346,67.91833724057683
328,-6.863884691015189,-251.95851002426903,-49.242529838187465,-5.08405440508187,67.32856491338845,-4.247763142642238,256.8355816574583,67.7509824826157
329,-6.808079120394359,-251.9913954055366,-49.24313378249565,-4.669461879985469,67.19887324140235,-4.306728506145075,256.8665105678201,67.59266215983457
330,-6.755781098034746,-252.02396740534004,-49.2469614769693,-4.267469902176627,67.07809372874583,-4.355905906708219,256.8977581883927,67.44491406142777
331,-6.707463575517612,-252.05635696289986,-49.254013568298156,-3.881261796207926,66.96711242598106,-4.3957270111870645,256.92946620937965,67.30901712677797
332,-6.663478666235577,-252.08872164063348,-49.264150076894566,-3.513174707086353,66.86656382350074,-4.4267341666401325,256.9617746833563,67.18594399107168
333,-6.624062450573384,-252.12122939451024,-49.27710124344943,-3.1646522951659586,66.7768027837377,-4.4495520753804705,256.9948082385535,67.07632577933491
334,-6.5893450573307195,-252.15404078268375,-49.29248167384614,-2.8362298402177935,66.69788973458988,-4.464861738536668,257.02866143972443,66.98043201428477
335,-6.559364189902833,-252.18729077834035,-49.30980650457908,-2.5275536167203017,66.62959096290251,-4.473377502212993,257.0633841589599,66.89816755390716
336,-6.534080165631938,-252.22107152675423,-49.328508588520684,-2.237434735808451,66.5713948156865,-4.475827738377115,257.0989680440997,66.8290873737095
337,-6.513390859152318,-252.25541737165892,-49.347956057738685,-1.9639357134823692,66.52254354285104,-4.472939399454141,257.13533523579207,66.77242887953196
338,-6.497145424687512,-252.2902933589673,-49.36746991979152,-1.7044860051792392,66.48207949028172,-4.465426440880531,257.17233043955576,66.72716037150386
339,-6.485156172118701,-252.3255882623811,-49.38634157993641,-1.4560209058799036,66.44890344432957,-4.453981909181093,257.2097173570649,66.69204333868464
340,-6.477208370676632,-252.36111293149122,-49.40385036083561,-1.2151368048909874,66.42184217715867,-4.439273315852798,257.2471802861647,66.66570547829836
341,-6.473067968176932,-252.39660438688185,-49.419281148615674,-0.9782549626662028,66.3997216567308,-4.421940762958325,257.2843313457374,66.64672071426591
342,-6.47248730739487,-252.43173559453172,-49.43194217799346,-0.7417857987441873,66.3814419638484,-4.402597196340905,257.3207232764629,66.63369204493678
343,-6.475209028280567,-252.46613033605504,-49.44118273433602,-0.5022861219376965,66.36604972834955,-4.381830160339151,257.3558672168222,66.62533281522067
344,-6.4809684961154215,-252.49938214765425,-49.44641030492906,-0.2566026860722063,66.35280392412741,-4.360204490023927,257.3892543713595,66.62054205047484
345,-6.48949522521303,-252.5310759644285,-49.44710653859021,-0.0019967284088240737,66.34123119039589,-4.338265457197541,257.42038012473495,66.61846984088321
346,-6.500513818104143,-252.5608108809946,-49.4428413246217,0.26375443490965866,66.33116743035977,-4.316541954546197,257.44876892256445,66.61856937004566
347,-6.513744902714323,-252.58822233776363,-49.433284399355806,0.5422812146449377,66.32278318427458,-4.2955493574927575,257.47399815592047,66.62063294076837
348,-6.52890643547771,-252.61300207835893,-49.41821410177863,0.834571951355615,66.31659112201608,-4.2757917575643845,257.49571935899553,66.62481020307577
349,-6.545715548533453,-252.63491441286277,-49.397523154061275,1.1409491361110904,66.3134349470336,-4.257763320480329,257.51367525946614,66.63160772738549
350,-6.56389089292642,-252.65380768957917,-49.37122153855353,1.4610700367011447,66.31446004677116,-4.241948579243659,257.52771161555864,66.64187008453676
351,-6.583155278111006,-252.6696204006419,-49.33943658913006,1.793948984719551,66.32106730908615,-4.228821507881476,257.5377832941423,66.656743639458
352,-6.60323840537512,-252.68238188373385,-49.30241028873382,2.137997474703885,66.33485254589826,-4.218843224356571,257.5439545492217,66.67762523597777
353,-6.623879578092126,-252.69220795196077,-49.260493551036994,2.4910771644915384,66.35753481114216,-4.212458168887512,257.54639378534614,66.7060987379876
354,-6.644830334064056,-252.69929195084094,-49.214137114537614,2.8505599854094,66.39087747567824,-4.210088647149801,257.5453632265007,66.743862910062
355,-6.665856945957891,-252.7038918581669,-49.16387870896068,3.2133891071867167,66.43660616608531,-4.21212772735538,257.541204029678,66.7926543206076
356,-6.686742711443096,-252.70631423833512,-49.110326372886306,3.5761347047286245,66.49632758446892,-4.218930583325515,257.53431761328414,66.85416884799936
357,-6.707289951998307,-252.70689606952502,-49.054138130407495,3.9350394640031454,66.57145288751093,-4.230804433937439,257.525144234024,66.92998506924454
358,-6.727321678952209,-252.70598553218926,-48.99599859990202,4.286050444354336,66.66312886256357,-4.247997278033173,257.5141399838036,67.02149247144226
359,-6.746682961235749,-252.70392276689154,-48.9365934861082,4.624836018500862,66.77217969800533,-4.270685761471158,257.50175337201273,67.12982714683892
360,-6.765242091551959,-252.70102151628814,-48.8765832870712,4.946788836261505,66.89906167999393,-4.298962780385435,257.48840263964235,67.2558173665948
361,-6.782891605078672,-252.69755258285596,-48.8165778737547,5.247017865310732,67.04383257887099,-4.332825728748108,257.4744550273178,67.39994106389571
362,-6.799549028156779,-252.69373012900175,-48.75711379050187,5.520334406429748,67.20613680526417,-4.372166503090112,257.4602093423069,67.56229675374729
363,-6.8151570328455815,-252.68970187270253,-48.69863615895942,5.7612384693489345,67.38520668557676,-4.416764448302073,257.44588319539383,67.7425888271463
364,-6.829682591284847,-252.68554406946242,-48.641486961515135,5.963912928851215,67.57987949902132,-4.4662834182010265,257.43160609615256,67.94012754648469
365,-6.843114804508452,-252.68126179239545,-48.58590114298194,6.122233332206951,67.78862926826636,-4.520274038303812,257.41741916208116,68.15384346621768
366,-6.855461274027504,-252.67679449746572,-48.532011268551514,6.229800976026997,68.00961170991927,-4.578182018905951,257.40328155662326,68.38231540982359
367,-6.86674311793372,-252.6720263464592,-48.47986050727557,6.280005846100144,68.24072022476278,-4.639362914784029,257.38908309185484,68.62381055077606
368,-6.8769889421037425,-252.66680039013895,-48.4294227998096,6.266124244017087,68.4796503454589,-4.703103097133023,257.37466190396873,68.87633459190525
369,-6.886228226391748,-252.66093550009626,-48.38062843268789,6.18145355129695,68.72396968852551,-4.768645993631001,257.359825785409,69.13768955954028
370,-6.894484659694778,-252.654244822743,-48.33339283422627,6.019483858552385,68.97119022331223,-4.8352219830438345,257.3443755725894,69.40553638466214
371,-6.90176993036715,-252.64655447307504,-48.28764613738451,5.774103424096201,69.21883961975293,-4.902079822500203,257.32812888515633,69.67745928664188
372,-6.908078348565277,-252.63772118210446,-48.24336093665222,5.43983239324576,69.46452858803431,-4.968517233206006,257.3109424851634,69.95102903012146
373,-6.913382509866406,-252.62764768841197,-48.20057574868094,5.0120770566552295,69.70601145290308,-5.033908304162344,257.29273161010593,70.22386237170814
374,-6.917630068590004,-252.6162948802926,-48.15941200176029,4.487395177856957,69.94123766052513,-5.097725660624899,257.27348489964555,70.49367539894367
375,-6.920741575030979,-252.60369008026353,-48.12008295618748,3.8637615403036047,70.16839243606996,-5.159555825595412,257.25327401858846,70.75832892738936
376,-6.922609259856547,-252.58993133184393,-48.082893786702755,3.1408218489337805,70.38592533438785,-5.21910681540736,257.23225769283545,71.01586459933347
377,-6.923096698148836,-252.5751878968261,-48.04823302405514,2.3201225643023333,70.59256590280256,-5.2762076841656675,257.21068040159173,71.26453076877264
378,-6.922039464232796,-252.5596972471234,-48.0165564354689,1.4053043156095746,70.78732607699028,-5.3308003919093485,257.1888662159376,71.50279763985961
379,-6.91924708067353,-252.54375872303928,-47.9883650268158,0.40224736780660864,70.96948926404389,-5.382924955299702,257.16720828240676,71.72936146133124
380,-6.914506666634358,-252.52772398450182,-47.96417911883798,-0.6808407883270666,71.13858638322425,-5.432699298165131,257.1461544580047,71.94313791620834
381,-6.907588679137257,-252.5119845553991,-47.944510424573195,-1.833403433270991,71.29435953719361,-5.480295501722719,257.1261897675873,72.14324526863201
382,-6.898254998589614,-252.49695708470935,-47.929833807663215,-3.042583268755999,71.43671457181371,-5.525914220442367,257.10781662264054,72.32897840886636
383,-6.886269330538162,-252.48306725989275,-47.920560080287956,-4.293343909917953,71.56566454522633,-5.5697588890541585,257.0915339807066,72.49977564688793
384,-6.871409556260394,-252.47073347260388,-47.91701095368885,-5.56866346089307,71.68126693487578,-5.612011064751869,257.07781673227703,72.65518080308796
385,-6.853481382607745,-252.4603512731242,-47.919397077521126,-6.849796539610042,71.7835580868281,-5.6528079065068235,257.06709649832754,72.79480365306138
386,-6.832332471842465,-252.4522793739178,-47.92779990202019,-8.116598449957944,71.87248881154704,-5.692222451667815,257.0597447064985,72.91828196540496
387,-6.807866158392431,-252.4468276034852,-47.94215785098886,-9.347902867724859,71.94786507681204,-5.730247043214126,257.05605841084605,73.02524816474586
388,-6.780053850176283,-252.44424692466498,-47.9622570474222,-10.521942508072565,72.0092974614622,-5.766780001541459,257.05624898956904,73.11530309896133
389,-6.7489452773967535,-252.4447214954797,-47.987726614434735,-11.616800813435779,72.05616253003647,-5.801615433369926,257.0604336803631,73.18799863540838
390,-6.7146759338686195,-252.44836273229748,-48.018038410736764,-12.610881753276658,72.08757869834803,-5.83443595872954,257.06862986829685,73.24283002467531
391,-6.6774713253542535,-252.45520533343839,-48.052510994190605,-13.48338442767204,72.10239853880594,-5.864808152357753,257.08075203418076,73.27923825746339
392,-6.637647860371031,-252.465205186762,-48.09031763833267,-14.214769428150108,72.0992188169155,-5.892180630005002,257.0966112493814,73.29662204716033
393,-6.5956103147110525,-252.47823906909346,-48.1304982884441,-14.78720487742972,72.07640886243414,-5.915884872512581,257.1159171017843,73.29435863243933
394,-6.551845869776791,-252.49410607538195,-48.17197536337406,-15.184981645538967,72.03215718077114,-5.935138940907385,257.1382819722055,73.27183232393796
395,-6.50691489149655,-252.51253071352448,-48.213573266218006,-15.394889210958992,71.96453548813598,-5.9490541362414495,257.16322757416106,73.22846956512127
396,-6.461438854029329,-252.53316751414906,-48.2540413731679,-15.406545755696326,71.87157856890073,-5.95664447620281,257.190193572463,73.16377915010767
397,-6.416085990506025,-252.5556068984589,-48.29208013925105,-15.212678118725805,71.75137750574764,-5.956838743778723,257.2185479709748,73.07739608291986
398,-6.371555295768225,-252.57938199404776,-48.326369818300755,-14.809348959454102,71.60218296587237,-5.9484949014925,257.24759888157075,72.9691273492375
399,-6.328559444783907,-252.60397608452007,-48.355601161471895,-14.196129690332096,71.42251438836293,-5.9304168379308795,257.2766072557826,72.83899757973747
400,-6.287807094507228,-252.62883042740228,-48.37850730640594,-13.376218284135238,71.21127017580244,-5.901373644363193,257.3048001777345,72.68729222628721
401,-6.249984950506329,-252.65335233000746,-48.39389588691076,-12.356500949333457,70.96783345449974,-5.860121831558238,257.3313844332267,72.51459553944034
402,-6.215739948021786,-252.67692364296556,-48.400680295493665,-11.147556057894162,70.69216773902997,-5.805431021544615,257.3555603161817,72.32182045300723
403,-6.185661994728566,-252.6989101274484,-48.397909189428766,-9.763597874348921,70.3848969822975,-5.736113633784378,257.37653595780483,72.11022755084655
404,-6.160267957350142,-252.71867234509494,-48.38479374319122,-8.222356882064252,70.04736503707815,-5.651058904736441,257.39354273870873,71.88143067836417
405,-6.139987776059008,-252.73557870195785,-48.36073256273664,-6.5448931138296835,69.681670474074,-5.549271222479329,257.4058524124297,71.63738747457356
406,-6.125153529824985,-252.7490210071339,-48.32533429464346,-4.755339061218316,69.29067390820347,-5.429912234877159,257.4127963269041,71.38037407137743
407,-6.11599193627956,-252.7584324352201,-48.278437700795536,-2.8805695297322726,68.87797636568348,-5.2923455694809665,257.4137866127268,71.11294432376826
408,-6.112620371772764,-252.7633072544334,-48.22012850162805,-0.9497972001117977,68.44786865956256,-5.136182406652419,257.4083385930988,70.83787506963037
409,-6.115046223203696,-252.7632212871412,-48.15075189875135,1.005905401015718,68.0052530879886,-4.961325687971487,257.3960932015909,70.55809991645225
410,-6.123169229421901,-252.75785193012723,-48.070919548872034,2.9541543669544508,67.55553989854195,-4.768010472016726,257.376838025255,70.27663477352462
411,-6.136786384383796,-252.7469966384502,-47.981509851623144,4.86186724509873,67.1045218342566,-4.556837855247794,257.35052567829825,69.99649873838919
412,-6.155598954665405,-252.73058890458762,-47.883660591211125,6.695930877069356,66.65823075916886,-4.328799925603552,257.3172883674752,69.72063405469252
413,-6.179221174382357,-252.70871083367362,-47.77875313819597,8.4239113373808,66.22278097123335,-4.085293416003079,257.27744760770355,69.45182878841162
414,-6.207190136516594,-252.68160147949246,-47.6683876109377,10.014789427812838,65.80420442435862,-3.828120110457626,257.2315181427574,69.19264569139403
415,-6.238976315252993,-252.64966026805308,-47.55434873458497,11.439701653835177,65.40828365244126,-3.559472635023499,257.180205344992,68.94536039571865
416,-6.273994170035542,-252.61344509514532,-47.438562692690724,12.672663453515469,65.04038857939386,-3.281904991093935,257.1243957257655,68.71191149918951
417,-6.311612479304221,-252.57366495494887,-47.32304600250906,13.691249047773525,64.70532351201527,-2.998287993097836,257.0651405942648,68.49386422991104
418,-6.351164360950646,-252.5311671712649,-47.20984822338789,14.477201084830144,64.40719043498832,-2.711750611505378,257.0036332637415,68.2923883321717
419,-6.391957250040338,-252.48691945420242,-47.10099095018637,15.016943661228465,64.14927425092831,-2.4256090581116565,256.9411804781016,68.10824976998381
420,-6.433283334250482,-252.44198714182514,-46.99840590227886,15.301974530648076,63.9339547890426,-2.1432862311919014,256.879168937082,67.94181494444891
421,-6.474431011844308,-252.39750617441044,-46.903874962435694,15.32911634196339,63.76264924473505,-1.868224800716429,256.8190279927571,67.79306550653256
422,-6.514697832184169,-252.35465257484702,-46.81897484203289,15.100612365263498,63.635787320898224,-1.6037976814017216,256.76218977735954,67.66162166275846
423,-6.553405185266278,-252.31460934928782,-46.74502874665168,14.624058985784993,63.55281988737576,-1.3532198151513317,256.71004810072515,67.54677217831919
424,-6.589914734644653,-252.27853169970152,-46.68306702956227,13.912174740825142,63.51226057786994,-1.1194650055572204,256.6639173564375,67.44750996279944
425,-6.623646155038056,-252.24751137052442,-46.63379839692908,12.982413242653113,63.51175843871212,-0.9051910761696332,256.6249925203357,67.3625729111509
426,-6.6540951775295145,-252.22254104654027,-46.5975927907873,11.856434404680185,63.548198535632395,-0.7126760044417452,256.5943113263787,67.29049028234661
427,-6.68085050795009,-252.20448003034494,-46.574476558083994,10.559454508287228,63.61782633503557,-0.5437670287078585,256.57271990745227,67.2296351340328
428,-6.703608111453737,-252.19402274775746,-46.56413988546218,9.119500492936641,63.71639073381465,-0.3998440874428969,256.5608433884109,67.17828310795521
429,-6.72218164798488,-252.19167169592137,-46.56595585308632,7.566597251353011,63.83929985753052,-0.28179834767106715,256.559062877724,67.13467721776051
430,-6.736508285621941,-252.1977162093309,-46.57900996139404,5.931918628331267,63.98178326873804,-0.1900260017606068,256.5674999880578,67.09709740348478
431,-6.746649514296203,-252.21221802414672,-46.60213859710155,4.246933316563003,64.13905411016678,-0.12443693551981048,256.5860095651465,67.06393270873244
432,-6.7527868810829235,-252.2350042168035,-46.63397454343776,2.5425760189303297,64.30646493912279,-0.08447732453321997,256.614180845774,67.03375315097813
433,-6.7552127981650605,-252.26566770404705,-46.67299732056986,0.8484722079484334,64.47965149686199,-0.06916477584900924,256.6513468291355,67.00537774962676
434,-6.7543167622554465,-252.30357508271132,-46.717585995309,-0.8077583362644638,64.65465932472152,-0.07713432111203346,256.6966012213656,66.97793480624732
435,-6.7505675110041725,-252.3478811850944,-46.76607219138113,-2.4010981613509745,64.82804897008438,-0.10669332087912761,256.7488219393528,66.95091048554677
436,-6.744491860091369,-252.39754943854547,-46.81679126980496,-3.909612853705802,64.99697651439824,-0.15588309861275307,256.806699927276,66.92418209268234
437,-6.736651164158011,-252.45137702831778,-46.86812991134451,-5.314805268520772,65.15924725893086,-0.22254490113196293,256.86877200456485,66.89803316952708
438,-6.7276164486714185,-252.50802395056292,-46.91856861310291,-6.601838555410626,65.31334155755418,-0.304387622971566,256.93345660355266,66.87314855687978
439,-6.717943286973943,-252.56604522424556,-46.9667179591433,-7.759629031381976,65.45841295761495,-0.39905464626047776,256.9990914965933,66.85058879868164
440,-6.708147514221313,-252.62392571647243,-47.011347908792494,-8.780815328577228,65.59425999100866,-0.5041871383599594,257.06397286364245,66.83174460889751
441,-6.69868286509592,-252.68011713101387,-47.05140967595052,-9.661614956163858,65.72127409866785,-0.6174812630560423,257.1263952034055,66.81827346231513
442,-6.689921529300666,-252.73307662531064,-47.08605003681041,-10.401583305424916,65.84036716966094,-0.7367370728364497,257.18469155238006,66.81202155966066
443,-6.682138416078106,-252.78130624179514,-47.11461818364486,-11.003293104966298,65.95288293404494,-0.8598973946110601,257.23727324564453,66.81493533289279
444,-6.675499646167333,-252.82339197978456,-47.13666560181735,-11.471954322545882,66.06049692709695,-0.9850757539807128,257.2826681572409,66.82896723861883
445,-6.670055562891701,-252.85804108061907,-47.15193984930526,-11.81499543789083,66.16510994616979,-1.110573207980272,257.3195561770064,66.8559808233925
446,-6.665738535142086,-252.88411608920046,-47.16037342639088,-12.041626847985377,66.26873986330438,-1.2348847766191833,257.34680072977653,66.89765994124294
447,-6.6623660135548635,-252.90066452083258,-47.16206900458393,-12.162405963790116,66.3734163657333,-1.3566968881974506,257.363475426587,66.955426599741
448,-6.659649414191159,-252.9069434216384,-47.157282164218756,-12.188821438089063,66.48108273905163,-1.4748777798974995,257.3688853716643,67.03037129172463
449,-6.6572091393621164,-252.90243857670853,-47.146402642743524,-12.132911095508996,66.59350825732035,-1.5884630482847013,257.36258307423697,67.12319892814145
450,-6.654595427553424,-252.8868783851998,-47.129935023087704,-12.006924706786682,66.71221413050918,-1.6966385436015843,257.3443791473889,67.23419266938689
451,-6.651314063931808,-252.86024242312837,-47.10847972107516,-11.8230389482632,66.83841527181002,-1.7987226421874474,257.31434794986643,67.3631970589769
452,-6.646855534088662,-252.82276458442882,-47.08271498849613,-11.593127898364326,66.97297936820883,-1.8941496849521333,257.2728281618779,67.50962088356368
453,-6.640725982603691,-252.77493059338502,-47.05338049676237,-11.328588464816068,67.11640386558811,-1.9824560456146734,257.2204181552904,67.67245912026843
454,-6.632478238800544,-252.7174696723695,-47.02126296157502,-11.040216503852175,67.26881054173037,-2.0632698864851378,257.1579659852939,67.8503322236835
455,-6.621741115492385,-252.65134023203288,-46.98718410024868,-10.738126416714213,67.42995639013918,-2.13630519625079,257.0865538775301,68.0415399245745
456,-6.60824516124055,-252.5777096542033,-46.95199080964829,-10.431704943812765,67.59925864369775,-2.2013602257357627,257.0074772085847,68.24412575634935
457,-6.591843123936838,-252.4979285528297,-46.91654683751247,-10.129588820176176,67.77583102820583,-2.258319978966349,256.9222181771774,68.45594781596105
458,-6.572523678946209,-252.41350023025097,-46.881724691614345,-9.83965587675241,67.95852787952197,-2.307162001488169,256.8324146019288,68.67475094660858
459,-6.550417520421766,-252.32604628180874,-46.848396426065875,-9.569019995236236,68.14599267542452,-2.3479643666113863,256.7398245100749,68.89823570086743
460,-6.525795585612254,-252.23726939994796,-46.8174223155071,-9.324021957080351,68.33670780082485,-2.380914529932967,256.64628736584854,69.12412008217754
461,-6.499059790195927,-252.14891442851896,-46.78963704347004,-9.110210521690064,68.52904285781035,-2.4063176090595584,256.5536829179832,69.35019102700078
462,-6.470727095908526,-252.06272869137035,-46.765833643359045,-8.932310790580848,68.72129942577031,-2.424602626929731,256.4638887451069,69.57434371120222
463,-6.4414080374795075,-251.98042262059806,-46.74674590032964,-8.794179778331992,68.91175081536672,-2.4363253335545165,256.3787376735186,69.79460792669188
464,-6.411781060980579,-251.90363173653137,-46.73303016068602,-8.698751847614254,69.0986760156811,-2.442166402634464,256.29997631681675,70.0091618943768
465,-6.382564169406063,-251.8338810320164,-46.72524748487799,-8.647979051014763,69.28038764703714,-2.442924049426564,256.22922598741246,70.2163348563313
466,-6.354485432740856,-251.77255274137025,-46.72384692378554,-8.64277324786483,69.45525423068595,-2.439500388488216,256.1679471296276,70.41460052526652
467,-6.328253953734846,-251.720858304539,-46.729150550006565,-8.682957900264247,69.62171743609998,-2.432881177853853,256.1174082284965,70.60256391392862
468,-6.304532879834448,-251.67981505568872,-46.7413408402968,-8.767237509586414,69.77830517573,-2.424109048210448,256.0786598637077,70.77894423029721
469,-6.283915870347706,-251.65022783191014,-46.76045109467638,-8.893191716506337,69.9236415259486,-2.4142508700579817,256.0525142616369,70.94255646663666
470,-6.266907984563567,-251.63267545600394,-46.786359744028864,-9.057299356567007,70.05645451265951,-2.4043604612956453,256.03953048034367,71.09229411766614
471,-6.253911421267722,-251.6275019733567,-46.81878956373594,-9.25499556133647,70.17558281971478,-2.395438296506494,256.0400053062442,71.22711518069859
472,-6.245216159252695,-251.6348125377196,-46.85731282628682,-9.480762640230424,70.27998240855074,-2.388390211428102,256.0539699476681,71.34603319603639
473,-6.2409953635564115,-251.654473828166,-46.90136309845337,-9.728253228560444,70.3687338398434,-2.383987277087077,256.08119253241074,71.4481145576548
474,-6.241305278883561,-251.68611881016145,-46.95025367775657,-9.990442229504309,70.4410507921933,-2.3828290449296667,256.1211862145821,71.53248270584751
475,-6.246089098972205,-251.72915559213624,-47.00320177664591,-10.259802533122059,70.49628994581174,-2.38531227935441,256.17322246846066,71.59832918868466
476,-6.255184010840161,-251.78278015448484,-47.059356799089244,-10.52849843494427,70.53396209496827,-2.3916071437902295,256.23634902558274,71.64493101977565
477,-6.268330433505841,-251.84599281683043,-47.117830623040106,-10.788590096519817,70.5537441156876,-2.401642572269087,256.30941191488154,71.67167331970997
478,-6.285182559224601,-251.91761832772997,-47.17772777678993,-11.032242186661275,70.5554912833751,-2.4151021523280534,256.39108108091574,71.67807594145631
479,-6.305319627486847,-251.9963293191693,-47.23817368917977,-11.251929875494534,70.53924939741462,-2.4314312127655078,256.47987897752625,71.6638226242855
480,-6.328257670595491,-252.08067263294987,-47.298339594309844,-11.440635565218843,70.50526614898307,-2.4498550411801614,256.5742113843085,71.62879111904401
481,-6.353461565851321,-252.16909786016603,-47.35746303563078,-11.592030173186398,70.45400108860873,-2.469407435478335,256.67239959918373,71.5730826167131
482,-6.380357206057877,-252.2599874574745,-47.41486325630225,-11.700633478864557,70.38613340189995,-2.4889682327773666,256.7727132444068,71.49704869341782
483,-6.408343675308915,-252.35168798270197,-47.469951127868704,-11.761948972604818,70.30256653182924,-2.5073080411707,256.87340316802175,71.40131390054258
484,-6.43680549127736,-252.44254215175513,-47.52223363710195,-11.772569709297,70.20442855798528,-2.5231380694750682,256.9727341512541,71.28679212585635
485,-6.465125037166347,-252.5309213968418,-47.57131329222202,-11.73025279642013,70.09306721524591,-2.535162690793258,257.06901717469464,71.15469497302857
486,-6.492695148035812,-252.6152584194307,-47.616883109056445,-11.633961296483163,69.97003853610211,-2.5421322037251826,257.1606408634598,71.006530674183
487,-6.518931601827378,-252.69407904618762,-47.65871804288042,-11.483873464274664,69.83708832790427,-2.542893192905788,257.2461015815342,70.844092451426
488,-6.543285258364694,-252.76603264657695,-47.696663792203786,-11.281360311841123,69.69612603929704,-2.5364339597951906,257.3240316074102,70.66943575749661
489,-6.5652538414715025,-252.82992044898995,-47.73062387373847,-11.028933435760273,69.54919102513206,-2.5219227246771294,257.3932249012052,70.48484443720409
490,-6.584393620179244,-252.8847211951372,-47.76054587370824,-10.73016580130269,69.3984117404805,-2.4987367229431303,257.4526600827464,70.29278650708403
491,-6.600331212071465,-252.92961362551696,-47.78640780473963,-10.389588714488168,69.24595887235303,-2.466480919048024,257.50152029736677,70.09586083484335
492,-6.61277535136585,-252.96399531812682,-47.80820537344948,-10.012568503958303,69.09399375378321,-2.4249957587743896,257.53920964478914,69.89673640781895
493,-6.6215279698003995,-252.98749746565048,-47.82594063118582,-9.605166510189354,68.94461360126108,-2.3743540922265938,257.56536583660767,69.6980861138674
494,-6.626493634015411,-252.99999524262896,-47.83961211143394,-9.173985937916534,68.79979526580536,-2.3148481000361447,257.5798687378117,69.50251712452912
495,-6.627686406968332,-253.0016133827525,-47.84920636416945,-8.726009104868144,68.6613393791837,-2.2469677263229677,257.58284438124866,69.31250017655765
496,-6.625233463008931,-252.9927264333052,-47.854690825611954,-8.268428722216152,68.53081701860233,-2.171372692347449,257.57466390474787,69.1303003143859
497,-6.619375096585536,-252.97395301689866,-47.85600810254561,-7.808477089615047,68.40952123548144,-2.0888605318988027,257.555936760088,68.95791191144484
498,-6.610460997953488,-252.94614350682033,-47.85307187858106,-7.353257417018787,68.29842590527448,-2.0003331814969734,257.52749764766986,68.79700093096368
499,-6.598942815318948,-252.91036086564273,-47.84576470516104,-6.909581789551271,68.19815430184946,-1.906764457923629,257.49038698173524,68.64885735145175
500,-6.58536314030971,-252.86785485356984,-47.833937905182054,-6.48382044463666,68.10895958767395,-1.809170303566909,257.44582513563785,68.51436046398074
501,-6.570341212940844,-252.82003018532484,-47.81741370222972,-6.081766909675219,68.03071907337412,-1.708583082163238,257.3951810646918,68.39395937329033
502,-6.554555850337691,-252.7684094481345,-47.79598955851038,-5.708523090284044,67.96294363934233,-1.6060305984561911,257.3399361149933,68.28767050417952
503,-6.538726268610804,-252.71459176801014,-47.76944465104984,-5.3684076508405045,67.90480309163011,-1.5025199911507763,257.28164399301954,68.1950932017572
504,-6.523591515129211,-252.66020839430303,-47.737548468301156,-5.064890125534505,67.85516743740152,-1.3990262387972914,257.22188806209334,68.11544362686256
505,-6.509889209575017,-252.60687655655096,-47.700071603500966,-4.800552274922485,67.81266317398135,-1.296484709302138,257.16223733036725,68.04760616067098
506,-6.498334265732015,-252.55615311667367,-47.65679886164748,-4.5770773289990885,67.77574276126178,-1.1957869572467954,257.10420266893277,67.99020052172372
507,-6.489598181928702,-252.50948970620854,-47.607544715124625,-4.395266932669874,67.74276452762227,-1.0977788353607016,257.0491949465081,67.94166180242
508,-6.484289312307476,-252.4681911776974,-47.552170901041116,-4.255084791795126,67.71207941505193,-1.003259960897279,256.9984868562182,67.90032971919817
509,-6.482934363183496,-252.4333791963662,-47.49060556074721,-4.155725146152024,67.6821203296856,-0.9129836610184053,256.9531801306085,67.86454266815574
510,-6.485961321534062,-252.4059625297675,-47.42286285744508,-4.095703222280115,67.65148951277584,-0.8276566614076628,256.9141794897785,67.83273176568339
511,-6.493684125386886,-252.3866150841,-47.349061604555345,-4.072963761227429,67.61903926654826,-0.7479379119758599,256.8821740943336,67.80350991252321
512,-6.5062895389797,-252.3757621891178,-47.269441245011116,-4.085002665750487,67.58394153939835,-0.6744360393180975,256.85762670461156,67.77575103105009
513,-6.523826801918864,-252.37357524376625,-47.184373630535305,-4.12899590354414,67.54574233930433,-0.6077050333525373,256.840770386065,67.7486550382272
514,-6.5462006354061115,-252.3799746139435,-47.09436942129328,-4.201929186356357,67.50439773422228,-0.548238003255162,256.83161245108414,67.72179486875761
515,-6.573168121455376,-252.39464051464245,-47.00007843134147,-4.300721743855557,67.46028925381738,-0.49645917625195496,256.8299452609078,67.69514290108286
516,-6.604339875557023,-252.41703142711233,-46.90228375368698,-4.422337786474058,67.41421769802898,-0.45271463608025997,256.8353634223264,67.66907533799989
517,-6.6391858621199145,-252.44640935762547,-46.801889905087805,-4.563880019148403,67.36737553702638,-0.41726247098705155,256.8472867451291,67.64435431416861
518,-6.677046122555793,-252.48187093185405,-46.699905494081754,-4.72266083764424,67.3212991300024,-0.39026300509180467,256.8649880635783,67.62208863250878
519,-6.717146450672562,-252.52238298329053,-46.59742111570963,-4.89624857915354,67.27780284487294,-0.3717697087230354,256.8876247253846,67.60367502443427
520,-6.75861855749335,-252.56682100781646,-46.495583420246476,-5.082488265023075,67.23889786616625,-0.36172131856235357,256.9142723038635,67.59072271182372
521,-6.800523663568837,-252.61400868751414,-46.395566552172966,-5.27949841242698,67.20669910500953,-0.35993568375100815,256.9439589559087,67.58496486128021
522,-6.841878055190786,-252.6627566917573,-46.29854224679736,-5.485647440836961,67.18332419336708,-0.366105868723928,256.97569886196885,67.58816124868324
523,-6.881679121877504,-252.71189915241402,-46.20564973489467,-5.699514793627672,67.17078901082635,-0.3797990445321788,257.00852334502576,67.60199702952144
524,-6.91893066728345,-252.7603265385068,-46.11796637415033,-5.91984306986738,67.1709045029787,-0.40045865522208757,257.0415085530015,67.62798288035138
525,-6.952666628941167,-252.80701408607118,-46.03647979368517,-6.145488167978368,67.18517967531095,-0.4274102484474664,257.073798995717,67.66736190938029
526,-6.981972584922249,-252.85104544414594,-45.96206235489667,-6.375374619110447,67.21473555278439,-0.4598712187246709,257.10462673149874,67.72102859726593
527,-7.006004569660206,-252.8916316863875,-45.89544879224064,-6.608462892516094,67.26023454507052,-0.4969645262819655,257.13332649130285,67.78946458871427
528,-7.02400491053407,-252.9281261539494,-45.83721788024651,-6.8437344707503724,67.32182905344122,-0.5377362202518597,257.1593473400201,67.87269542264539
529,-7.0353151268734715,-252.9600356395302,-45.78777885069424,-7.080198918583785,67.39913234095633,-0.5811763405866347,257.18226150625145,67.97027131634965
530,-7.0393862980094655,-252.98702824586957,-45.747363112743166,-7.316925085451058,67.49121369700714,-0.6262425583213751,257.2017708199599,68.08127394936189
531,-7.03578749833635,-253.008938002891,-45.71602165752847,-7.553096203684766,67.59661878849465,-0.6718857796330922,257.21771092915765,68.20434986109076
532,-7.024212820159685,-253.02576613128002,-45.693628355703936,-7.788086259880091,67.71341485595654,-0.7170768812399019,257.23005324133277,68.33776964228491
533,-7.004487244289878,-253.0376787511992,-45.67988917100538,-8.021552841869498,67.83925913549409,-0.7608337429226812,257.238904407332,68.47951062185983
534,-6.976571342905317,-253.0450008489793,-45.674357110332195,-8.253539795953229,67.97148760811261,-0.802247789363433,257.24450313523096,68.62735927602982
535,-6.9405646297477075,-253.04820638527295,-45.67645250038273,-8.484581533131111,68.1072199952677,-0.8405093463828653,257.2472141445063,68.77902822698377
536,-6.89670730187818,-253.04790451300644,-45.68548791333556,-8.715799833391419,68.24347599812864,-0.8749312532334026,257.24751910293236,68.93228164172996
537,-6.84538005677938,-253.04482196989562,-45.70069675035141,-8.948983681856197,68.37729725486865,-0.9049703430726694,257.24600442408774,69.08506225348782
538,-6.787101587716872,-253.03978180967397,-45.721264156702965,-9.18664311108709,68.50586940258492,-0.9302465692113633,257.24334583792654,69.23561316816937
539,-6.722523344394242,-253.03367868703003,-45.7463586833751,-9.432029186405051,68.62663892838313,-0.9505596456899779,257.2402896496724,69.3825880500283
540,-6.6524212803809615,-253.02745089864933,-45.77516301274488,-9.68911408470673,68.73742008479786,-0.9659030370680242,257.23763057618964,69.52514411930548
541,-6.5776845448078065,-253.02204941075144,-45.80690211194887,-9.962527608840054,68.83648792442173,-0.9764749962039107,257.2361860912801,69.66301354047961
542,-6.499301289398947,-253.01840429645284,-45.840867314719,-10.257449322061408,68.92265435856967,-0.9826861929443532,257.2367674307582,69.79655009926357
543,-6.418341908269905,-253.01738933659,-45.87643508412868,-10.579458566780666,68.99532493387103,-0.9851633734769893,257.2401477800596,69.92674938908858
544,-6.335940151790055,-253.0197858566863,-45.91307964554673,-10.93434769531013,69.05453466708606,-0.9847484517278636,257.2470285602973,70.05524191669376
545,-6.253272679502953,-253.0262471022308,-45.95037929854566,-11.32790665317353,69.10096179817245,-0.9824924328873746,257.2580050677103,70.18425955257905
546,-6.171537675726369,-253.03726464522651,-45.9880168749115,-11.765689401916237,69.13591878997418,-0.9796435888239127,257.2735330291334,70.316576621944
547,-6.091933044403165,-253.05313850879503,-46.02577528877485,-12.252774327525742,69.16132038359433,-0.9776293647830129,257.2938979110408,70.45542767707722
548,-6.015634437875244,-253.07395280099553,-46.06352927512386,-12.793531544375874,69.17962903845742,-0.9780316282926894,257.3191889443749,70.60440461129458
549,-5.943773160717156,-253.09955851379718,-46.10123426077706,-13.391409729042655,69.19377866014925,-0.9825550766948926,257.3492796639942,70.76733627495297
550,-5.877414046496902,-253.12956476522015,-46.13891303080582,-14.048753779559002,69.20707817057573,-0.9929888669741019,257.3838163428277,70.9481541730511
551,-5.817533706512649,-253.16333931690716,-46.17664059492593,-14.766662338745949,69.22309721014744,-1.011161799578879,257.42221522416554,71.15074819750339
552,-5.764999837848772,-253.2000188209141,-46.214527466654324,-15.544891353528431,69.24553703891574,-1.038891689021823,257.46366905578805,71.37881667048886
553,-5.720552367870613,-253.2385289086338,-46.252701503390206,-16.38180673749363,69.27809045069215,-1.0779299057484777,257.50716308515837,71.63571521021696
554,-5.684787178032319,-253.2776138754642,-46.2912886181088,-17.274386166193995,69.32429516369457,-1.1299024767889636,257.5515003506378,71.92430903508239
555,-5.658143161415969,-253.315875369619,-46.33039302327781,-18.218267243161073,69.38738564911972,-1.196249557642226,257.59533582746155,72.24683326039394
556,-5.6408934186168205,-253.3518191966652,-46.37007801645386,-19.207836815987882,69.47014866750101,-1.2781654516345868,257.6372187579565,72.604765491265
557,-5.633141294044823,-253.38390904787312,-46.41034853368472,-20.23635416287309,69.57478787888896,-1.3765415454526393,257.6756422318527,72.9987145752656
558,-5.634821569631689,-253.41062556180717,-46.45113676352131,-21.296099215334348,69.70280274526166,-1.4919144958277073,257.7090986929654,73.42832875859985
559,-5.645706566444304,-253.43052861744863,-46.49229200298738,-22.378536075434287,69.8548865223924,-1.6244217724461443,257.73613951369714,73.89222572116084
560,-5.665416413855957,-253.4423202138992,-46.53357559260636,-23.474481945911627,70.03084747621422,-1.7737663112772895,257.7554361728731,74.38794614539063
561,-5.693432556814469,-253.4449048370294,-46.57466123597943,-24.5742722533347,70.22955665499575,-1.9391916590829787,257.76584002636906,74.91193174694807
562,-5.729113723561874,-253.4374439567563,-46.61514047279452,-25.667914155123242,70.44892469495838,-2.1194686921475103,257.7664373146471,75.45952817499199
563,-5.771713872675882,-253.41940134991697,-46.65453271345971,-26.74522267998145,70.68590927462732,-2.3128947889728724,257.75659604264985,76.02501291723216
564,-5.820401805419046,-253.39057639130246,-46.69229908968782,-27.795936317631003,70.93655397711935,-2.5173061289194343,257.73600178173393,76.60164830542314
565,-5.874282063925522,-253.3511232541301,-46.72785931214064,-28.80981174622816,71.19605848359356,-2.730103458791127,257.70468021327537,77.18175985600948
566,-5.932416545269811,-253.301554911612,-46.760610640588645,-29.77670029606009,71.45887921546054,-2.9482912029155495,257.6630051459828,77.75684040162142
567,-5.993846105278861,-253.24273174437695,-46.78994798205115,-30.68661138430143,71.71885875105863,-3.1685292684680326,257.6116916151813,78.31768062538552
568,-6.057611410717809,-253.17583538231253,-46.81528412699218,-31.52977021575032,71.96938150359907,-3.387196393610946,257.5517744793941,78.85452651573827
569,-6.122772463472961,-253.10232914926434,-46.836069232833644,-32.296678303955936,72.20355219490095,-3.600463445553428,257.48457367698757,79.35726375900377
570,-6.18842651687789,-253.02390708123613,-46.85180883501526,-32.97818570675711,72.41439260306385,-3.804374749967054,257.41164793402714,79.8156281442303
571,-6.253724389837942,-252.94243389482764,-46.8620799216353,-33.565583246599516,72.59505100750344,-3.994935374639551,257.33473916591186,80.21943975822249
572,-6.317885291694863,-252.85987854266483,-46.86654496897521,-34.05072139469505,72.73901782753697,-4.168202286233635,257.2557101386174,80.55885722228494
573,-6.380210121287256,-252.77824420753927,-46.86496423151759,-34.42615997950487,72.8403402263194,-4.320377350063167,257.17647823480075,80.82464655764512
574,-6.440092854601863,-252.6994977527823,-46.857206857264394,-34.685349570679065,72.89382796121947,-4.447900122917829,257.0989483754478,81.00845754290621
575,-6.497029242903389,-252.62550164052786,-46.843261401789086,-34.822841557275424,72.89524252181754,-4.5475382325208695,257.02494813524834,81.10309874993057
576,-6.550621818153985,-252.5579510478568,-46.82324600197818,-34.83451995471111,72.84146163299705,-4.616472888922764,256.95616775485325,81.1028009612214
577,-6.600580319226841,-252.4983183780529,-46.79741800109167,-34.71784426657636,72.7306115774442,-4.6523768527383345,256.89410715142327,81.00345758855069
578,-6.646717110292079,-252.44780673825056,-46.76618244162824,-34.47208973153524,72.56216061671934,-4.653482094520517,256.8400313597257,80.8028302851434
579,-6.688937790667601,-252.40731344878427,-46.73009868449746,-34.098569353559554,72.33696814394408,-4.618634457048712,256.7949353268271,80.50070838330724
580,-6.727227813561421,-252.37740438926676,-46.68988440229033,-33.600821444104994,72.05728605140307,-4.547332883391233,256.7595187410954,80.09901216063137
581,-6.761636442200464,-252.35829988651824,-46.64641620361003,-32.98474707319295,71.7267109976734,-4.439751209045091,256.7341714919182,79.60183216744934
582,-6.792259706598955,-252.34987266964683,-46.60072612641297,-32.25868381434509,71.35008863521915,-4.296741146201525,256.71897018437136,79.01539979715496
583,-6.81922408108138,-252.35165798933846,-46.55399321348972,-31.433405326011048,70.93337324760267,-4.119815876963661,256.71368571003836,78.34798775490621
584,-6.842672308031745,-252.36287538412557,-46.50752938352115,-30.522040357228736,70.48344846983804,-3.9111145188308756,256.7178012669798,77.60974280092215
585,-6.862752238422227,-252.38246099879922,-46.46275890398023,-29.539909348448777,70.00791664448317,-3.6733485212142316,256.730539661214,76.81245678638085
586,-6.879608997586687,-252.4091089919363,-46.42119105691249,-28.504281539316846,69.51486578135929,-3.409731759217763,256.75089840165964,75.96928527212911
587,-6.893380409636734,-252.44132038492114,-46.38438606419109,-27.434059991628853,69.01262401237723,-3.123896750923079,256.77769099845716,75.09442570139827
588,-6.904195403642492,-252.47745752819174,-46.35391485934542,-26.34940582186786,68.50951186383821,-2.8198000928662066,256.80959279072755,74.20276901233234
589,-6.912174968623575,-252.51580207239496,-46.33131370034561,-25.27131595115044,68.01360256471351,-2.501620875453681,256.8451894153707,73.30953957149684
590,-6.917435098712789,-252.5546140169417,-46.31803487671011,-24.22117066544982,67.53249990665391,-2.1736563857882567,256.88302575981635,72.42993827348057
591,-6.920091088978386,-252.59218927160424,-46.31539500124599,-23.220268171653686,67.07314186446943,-1.8402196584444064,256.92165314484873,71.57880257645077
592,-6.920262470639775,-252.62691333195463,-46.32452277177183,-22.289363180223965,66.64163637211523,-1.505543281253111,256.95967271268563,70.77029527192296
593,-6.918077815800427,-252.65730909162582,-46.346308656040506,-21.4482254963581,66.24313350143451,-1.1736932745325641,256.99577350888836,70.01763118225645
594,-6.9136787033506035,-252.68207735062379,-46.3813594489233,-20.715232864473595,65.8817360171343,-0.8484958715543077,257.0287643622893,69.3328480555099
595,-6.907222388047882,-252.70012909277628,-46.429960739626004,-20.10701008356408,65.56044810343113,-0.5334787669795269,257.0575991930379,68.72662499426374
596,-6.898883060697519,-252.71060903019284,-46.49204986705155,-19.63812386472907,65.28116017437225,-0.23182712517337858,257.0813957224584,68.20814907308994
597,-6.888851860444177,-252.71291025872114,-46.56720112302725,-19.320840184696383,65.04466623351193,0.05364637991572937,257.0994477582895,67.78502855380344
598,-6.877335905607603,-252.70668019232667,-46.65462413287923,-19.164948129605442,64.85070932739174,0.3205188674701254,257.1112313981588,67.46324941931489
599,-6.864556556847817,-252.69181830887882,-46.75317568418626,-19.17765154913705,64.69805027059562,0.5667635871310822,257.11640572724053,67.24717087406113
600,-6.8507469841401365,-252.66846664776563,-46.861384728073816,-19.36352738901681,64.58455494992371,0.7907470748843687,257.11480887783125,67.13955497068211
601,-6.836148971908937,-252.63699434367152,-46.97748977503858,-19.724547453051386,64.50729599325223,0.9912188599164014,257.1064505540315,67.14162549089585
602,-6.821008862410024,-252.59797761078468,-47.09948753137304,-20.2601586176664,64.46266522852098,1.1672953226648184,257.09150217332757,67.25315145532915
603,-6.805572663939796,-252.55217644605327,-47.225191457029496,-20.967415202280836,64.44649401673568,1.318439132917058,257.07028559519375,67.47255102162039
604,-6.790080593913831,-252.50050898883376,-47.35229886760471,-21.84115630886677,64.45417916274485,1.4444355033353646,257.04326106522467,67.79701199839401
605,-6.774761553652089,-252.44402414581498,-47.47846496655308,-22.874220481944707,64.48081266662078,1.545366295759514,257.0110146345434,68.22262573119261
606,-6.759828162555483,-252.38387288792333,-47.60138147191496,-24.057689949994828,64.52131402197263,1.6215828373685752,256.9742449858047,68.74453163741555
607,-6.745473036451088,-252.32127849511028,-47.718856281650105,-25.381156897537494,64.57056403631417,1.673678140240474,256.9337492559229,69.35707009747824
608,-6.731866941448974,-252.25750585726652,-47.828889438343914,-26.833004592533722,64.62353922793727,1.7024590494874594,256.8904070788473,70.05394170691922
609,-6.719159181713861,-252.19382977356906,-47.929740280687895,-28.400696685127418,64.67544573064177,1.7089186739507203,256.8451618486063,70.82837102498088
610,-6.707480128184354,-252.1315022033855,-48.0199814130557,-30.071068536151763,64.72185126424822,1.6942093357298957,256.79899834974066,71.67327285309466
611,-6.696945386043725,-252.0717187428097,-48.09853661382583,-31.830614955820288,64.75881310173888,1.6596162887899142,256.7529164906469,72.58141871167693
612,-6.687660882988642,-252.01558517060323,-48.16470147387292,-33.665769185119444,64.78299920675506,1.606532612714984,256.70790174902476,73.5456006476195
613,-6.679728093567786,-251.9640854666916,-48.21814709869567,-35.563168345660046,64.7917990255238,1.5364358818551709,256.66489378493196,74.55878897778042
614,-6.673248608375827,-251.91805299292844,-48.25890850561604,-37.50990098407337,64.78341994711694,1.450867306316592,256.62475521013505,75.61428021573023
615,-6.668327329396633,-251.87814646360607,-48.2873602819984,-39.4937328315722,64.75696526040747,1.3514139865859356,256.5882426208023,76.70583133419953
616,-6.665073790058276,-251.8448319929481,-48.30418256360305,-41.503307568393495,64.71248955297466,1.239694757370363,256.5559817595512,77.82777673784149
617,-6.663601432116493,-251.81837198696658,-48.31032050459503,-43.5283202543924,64.65102791612446,1.1173498719612331,256.5284481829511,78.975124874207
618,-6.664024976529501,-251.79882106483242,-48.30694024270112,-45.55966207010468,64.57459602372356,0.9860345195691239,256.50595420595357,80.14363223268725
619,-6.666456171911345,-251.7860286908257,-48.295383945563266,-47.58953588676573,64.4861591118253,0.8474158842632703,256.4886423179504,81.32985342857874
620,-6.670998217817414,-251.7796478711575,-48.27712591621906,-49.61154268581428,64.38956904717115,0.7031731617690783,256.47648482535425,82.53116695173806
621,-6.6777391742944125,-251.77914913564297,-48.25373114685337,-51.62073878953971,64.28946991945203,0.5549996828680906,256.46928922928697,83.74577677020125
622,-6.686744746395704,-251.78383904597325,-48.226817382476895,-53.61366320066683,64.19117376661718,0.4046061029248655,256.46670880426404,84.97269015399185
623,-6.698050918980792,-251.79288258442347,-48.198021720992855,-55.58833318140022,64.10050904421523,0.25372355156633436,256.4682579441135,86.21167178768522
624,-6.711656941644653,-251.80532886650013,-48.168972820807234,-57.544204732897526,64.02364530212698,0.10410569393127425,256.47333193271425,87.46317359971114
625,-6.727519100216722,-251.82013959045065,-48.14126964722674,-59.482093126158475,63.966898327432354,-0.04247121632263603,256.4812307342921,88.72823898111339
626,-6.745545584110272,-251.83621952209427,-48.11646721261244,-61.40404740105169,63.936520807078935,-0.18421109498743654,256.491186190294,90.00837944335977
627,-6.765592643575605,-251.85244826068123,-48.096068991597406,-63.31317214094351,63.938484345181195,-0.3193043655399665,256.50239180997585,91.30542150205568
628,-6.787462209189663,-251.86771263486543,-48.08152487637426,-65.21339016328842,63.978259390712225,-0.44593867995055675,256.5140342913474,92.6213218734025
629,-6.810901203621289,-251.88093929088944,-48.07423299702061,-67.10914126280248,64.06060023445451,-0.562314788115415,256.52532602030436,93.95795008620208
630,-6.835602795770587,-251.89112721154348,-48.07554356854267,-69.00501489886756,64.18934263592878,-0.6666680475209398,256.53553794012964,95.31683940945015
631,-6.861209755457249,-251.89737989418035,-48.08676296151409,-70.9053186782666,64.36722172806235,-0.7572954589539856,256.54403217819197,96.69890951604538
632,-6.887319921135584,-251.89893665904904,-48.1091562274487,-72.81358942178379,64.59571751729838,-0.8325872110166913,256.55029356697213,98.1041673593408
633,-6.913493690215876,-251.89520213567195,-48.143946334771385,-74.73205914345365,64.87493452810205,-0.8910606904777763,256.55395878242655,99.53139606248561
634,-6.939263406037801,-251.88577256855257,-48.1923085053812,-76.66109394778925,65.20352101051539,-0.9313940380113873,256.5548414480192,100.9778449114353
635,-6.964144497003342,-251.87045737222286,-48.25535836845908,-78.59862913338456,65.57863173431066,-0.9524558491086434,256.5529514074069,102.43893644976396
636,-6.987648137760875,-251.84929443512482,-48.33413314403083,-80.53962810727224,65.99593677223471,-0.953327655489724,256.54850653054945,103.90800877068176
637,-7.009294992221832,-251.82255800780086,-48.42956564824876,-82.47559552000477,66.44967683427853,-0.9333163323725735,256.54193585511524,105.37611196843595
638,-7.028629316732644,-251.79075851532258,-48.542451533513876,-84.39417591289069,66.9327636971463,-0.8919544269317665,256.53387347452065,106.83187705812944
639,-7.045232527351805,-251.75463414556842,-48.673410879550886,-86.27886790770123,67.43692219657363,-0.8289874664492046,256.5251432195752,108.26147342404988
640,-7.058735443564257,-251.71513443438081,-48.82284605403464,-88.10888057281097,67.95286833204564,-0.7443485046441926,256.5167347031514,109.64866718798436
641,-7.068828814065451,-251.67339624923284,-48.99089855114927,-89.859153299625,68.47051654757524,-0.6381214341936121,256.50977163888507,110.9749881894754
642,-7.075272204731479,-251.630712656421,-49.17740807655199,-91.50055372772123,68.9792083954406,-0.5104958212573573,256.50547354871367,112.22000800203163
643,-7.077901614743641,-251.58849532556692,-49.38187727217912,-93.00026046648294,69.46795458402151,-0.3617170412432334,256.5051121733465,113.36172596906212
644,-7.076636130654096,-251.54823149683668,-49.603445107265436,-94.32232907713458,69.92568273864053,-0.19203614997927237,256.50996419506214,114.37705491717831
645,-7.071483593041622,-251.5114370041112,-49.84087125932588,-95.42843146042343,70.3414839076863,-0.0016641336359490965,256.5212621998622,115.2423932107913
646,-7.062544871689278,-251.47960714526778,-50.09253302436528,-96.27875086973303,70.70485178452876,0.2092649992297516,256.5401459386711,115.93426535879225
647,-7.050016158354003,-251.45416715958967,-50.35643558009752,-96.83300764643643,71.00590968009679,0.4407182694211914,256.5676157735557,116.43000969300802
648,-7.034188770636193,-251.43642381439915,-50.630235780527045,-97.05158480273896,71.23562140509482,0.6927715692177037,256.6044898178665,116.70848892287546
649,-7.015446236671342,-251.42751935839277,-50.911279052546874,-96.8967179921178,71.38598335557259,0.9655988453994337,256.6513659263742,116.75079778153884
650,-6.994258748143033,-251.4283890249698,-51.1966483958994,-96.33371131705198,71.45019613975857,1.2594413485253917,256.7085895132901,116.54094154071537
651,-6.97117526933901,-251.43972335830293,-51.48322396569331,-95.33213882895997,71.42281487395735,1.5745570498621901,256.7762281636464,116.06645978291618
652,-6.946813575232123,-251.46193678066635,-51.767751268968276,-93.86699140761715,71.29987768284523,1.9111517437922456,256.85405405473875,115.31897133412468
653,-6.921848324750869,-251.49514388735318,-52.04691568095999,-91.91972988853311,71.07901196468656,2.2692946508851684,256.9415351986875,114.29461859109828
654,-6.896997153162282,-251.53914482846193,-52.31742078854711,-89.4792077976718,70.75951772891092,2.6488224438813734,257.03783634637745,112.99439262265669
655,-6.873004834756279,-251.59342076102303,-52.57606795918405,-86.5424308371498,70.34242690293931,3.0492365467531246,257.1418300006094,111.42432439865217
656,-6.850625809537045,-251.65713977201034,-52.81983449804363,-83.11512527107452,69.83053703435132,3.469599324228935,257.25211740997065,109.59553224549887
657,-6.830605675213804,-251.72917302737824,-53.045947827033885,-79.2120933969406,69.22841736534984,3.908435355583358,257.36705880077886,107.52412096567156
658,-6.813662480030424,-251.80812040532552,-53.25195333242179,-74.85734105061182,68.54238490820109,4.363644293523989,257.484811663083,105.23093371039334
659,-6.800468703634344,-251.89234466253103,-53.43577384618265,-70.08396920629818,67.78044799936852,4.832431756520174,257.60337576377395,102.74116333147582
660,-6.791634700790197,-251.9800131845637,-53.595759040604676,-64.93382880891674,66.95221497095633,5.311264226194457,257.7206436195138,100.0838352405918
661,-6.787694233467572,-252.06914636369828,-53.7307232708274,-59.456944691653185,66.06876612686261,5.795853001935191,257.83445519933423,97.29117849981317
662,-6.789092610486543,-252.15767147484743,-53.83997067985414,-53.710720589678914,65.14248812718306,6.281170946819906,257.9426555105655,94.3979057479954
663,-6.796177865549283,-252.24348059016495,-53.92330679932847,-47.7589428043476,64.18687107374116,6.761504141925618,258.043153482325,91.44042550948542
664,-6.80919527804728,-252.32449069423535,-53.98103641637247,-41.670605048454824,63.216269973548634,7.230538761446061,258.13398029917784,88.45601241940484
665,-6.828285339375147,-252.398703871005,-54.01394800146748,-35.51858149145028,62.24563381904255,7.681481589873116,258.21334515849037,85.4819619993243
666,-6.853484995987734,-252.46426533106222,-54.02328544503989,-29.378179065546153,61.290207238617434,8.107210738144412,258.27968641320575,82.55475687453564
667,-6.8847317350124175,-252.5195171448546,-54.01070828041385,-23.325603676668862,60.36521140328834,8.500451409736556,258.33171623964927,79.70927068594762
668,-6.9218699300117805,-252.5630457706544,-53.97824197285962,-17.43637801452569,59.485512404042176,8.85397014679376,258.3684572674619,76.97803429388951
669,-6.96465887833406,-252.59372174739977,-53.928220111197874,-11.783751003979775,58.66528646725167,9.160779956078065,258.3892699364591,74.39058611499131
670,-7.012782052699432,-252.61073028133094,-53.86322038936889,-6.43714033198656,57.91769211139562,9.41434814029734,258.3938697080608,71.97292462396847
671,-7.0658571205923915,-252.6135919292548,-53.7859962172753,-1.4606496904757615,57.25455969418612,9.60879853530067,258.38233371304915,69.7470763764558
672,-7.1234462313979705,-252.60217310249482,-53.699405779660715,3.0882987238090562,56.68610872940845,9.739100108704486,258.3550969225053,67.73078763291704
673,-7.185066056041648,-252.57668654901423,-53.60634035618381,7.160178352577691,56.220702774653155,9.801234445731058,258.3129383530576,65.9373420981722
674,-7.250197194103489,-252.5376822482703,-53.50965367483304,10.71438475403059,55.86465056601676,9.792335503175693,258.25695808538376,64.37550183549219
675,-7.318292804750216,-252.4860293087052,-53.41209404459776,13.720045211262612,55.6220604991251,9.710796121442785,258.1885460287179,63.04956354977154
676,-7.388786555345688,-252.42288956288945,-53.31624104659546,16.15658854814249,55.4947536720777,9.556337093287526,258.10934347974637,61.95951857577512
677,-7.461100140161543,-252.34968365070907,-53.22444857568083,18.014059476721787,55.48223860658917,9.330036031740862,258.0211986229977,61.101302271737914
678,-7.5346507013747335,-252.26805047454636,-53.13879591824559,19.293169784543828,55.581748523135225,9.034314793719828,257.92611718941964,60.46711715522411
679,-7.608858497644758,-252.1798010126883,-53.06104831949109,20.00508713847596,55.788339793137325,8.672885750372085,257.82620954007376,60.045813975046364
680,-7.683155071370518,-252.08686759832835,-52.99262814319001,20.170970889458815,56.09504808079574,8.25065873603049,257.7236354841107,59.82331581551385
681,-7.756991909091314,-251.99124991668486,-52.934597208850164,19.82127257938278,56.49309682977774,7.773612057780193,257.6205481687,59.78307196626458
682,-7.829849200860698,-251.8949591715562,-52.887650204526324,18.99482641853724,56.97215119691433,7.248632476812439,257.51903842327937,59.90653027309882
683,-7.901243927778268,-251.7999621319229,-52.85211837293711,17.737761342350765,57.52060930269348,6.683330481630441,257.4210810426446,60.17361860856864
684,-7.970736317326087,-251.7081269774039,-52.82798214788355,16.102270916737215,58.125921749048935,6.0858383003087235,257.328484586913,60.563227609487285
685,-8.03793378778313,-251.62117286492844,-52.81489115146752,14.145280084498399,58.77492970753764,5.4645987807199905,257.2428462282178,61.053687708151465
686,-8.102491803150555,-251.54062493964847,-52.812189946230895,11.927048594484159,59.45421143568435,4.828153420163994,257.16551298451816,61.623233722010426
687,-8.164111474744308,-251.46777626792067,-52.818948143829864,9.509750231863961,60.15042678228706,4.184937483293836,257.097550496709,62.250450014361355
688,-8.222534199060991,-251.40365797514588,-52.8339937754177,6.956065042351648,60.850649116782684,3.54308943056825,257.039720392023,62.91468874412059
689,-8.277534036535455,-251.34901865100423,-52.855949062577295,4.327818978296011,61.54267428536146,2.9102809182680214,256.9924671235843,63.596453285214054
690,-8.328908827992713,-251.30431371908884,-52.883267905272575,1.6847021263628637,62.2152968196365,2.29357248709998,256.95591486480595,64.2777388028064
691,-8.376471179247833,-251.269704951369,-52.91427466417567,-0.916906852304977,62.85854478704531,1.6992987219298765,256.9298745897959,64.94232239583083
692,-8.4200404191459,-251.2450697666529,-52.947204133749466,-3.4249861542750364,63.46386631218634,1.1329851428365216,256.9138610056106,65.57599615499264
693,-8.45943645511286,-251.23001954912294,-52.98024275924501,-5.792766188141155,64.0242627572589,0.5992974508218394,256.90711863339453,66.16673784281447
694,-8.494476162939174,-251.2239260368798,-53.01157099614869,-7.979459194958278,64.53436569175926,0.10202212534500567,256.9086561113526,66.70481559583129
695,-8.524972654091846,-251.2259547913216,-53.039406330070804,-9.950812120683231,64.99045705089574,-0.35592411736623936,256.91728766560163,67.18282506833609
696,-8.550737526197588,-251.23510470789049,-53.06204609456825,-11.679476659595348,65.39043425573648,-0.7724597448905084,256.93168055903914,67.59565978484991
697,-8.571586011730773,-251.2502523621637,-53.07790901463942,-13.145195488900912,65.73372444888363,-1.1462833848241347,256.9504071155805,67.94041804836013
698,-8.587344783298033,-251.2701997153408,-53.08557435788956,-14.334808827642146,66.02115418061389,-1.4768036178727595,256.97199963802797,68.21625233774651
699,-8.597862066195951,-251.29372340636348,-53.083817581591546,-15.24209042511375,66.25478265060279,-1.7640590748682783,256.99500624460745,68.42416947605344
700,-8.603019628360085,-251.31962362282474,-53.07164139306289,-15.867426742041772,66.43770786943828,-2.008634207177249,257.0180454223604,68.56679180135332
701,-8.602746080901523,-251.34677044672142,-53.048301270504474,-16.217357176448736,66.57385584352802,-2.2115756577790138,257.03985702430936,68.64809101547051
702,-8.597030703084696,-251.37414562985023,-53.013324745321405,-16.303996382960108,66.66776310963893,-2.3743134360690408,257.05934754059075,68.67310720277938
703,-8.585936805887602,-251.40087793496986,-52.96652403718109,-16.144361773768477,66.72436265781403,-2.498590182875989,257.07562770442956,68.64766560899653
704,-8.56961356882091,-251.42627049213849,-52.90800186781698,-15.759630091513934,66.74878251583111,-2.5864008045461815,257.0880408455179,68.57810314475398
705,-8.548305327489198,-251.44981909380812,-52.83815044824401,-15.17434663714188,66.74616505681439,-2.639943720360736,257.09618090292565,68.47101529221686
706,-8.522357424097304,-251.4712209312474,-52.75764379093732,-14.41560957716948,66.72151345720847,-2.661583943116371,257.09989961270884,68.33303223104882
707,-8.492217926406878,-251.49037384698556,-52.667423689197406,-13.512250028781626,66.6795697405717,-2.6538272466696924,257.09930299038507,68.17063069046831
708,-8.458434730311149,-251.50736667006046,-52.56867989347943,-12.494026568829678,66.62472662782446,-2.61930383179469,257.0947377544183,67.98998545687941
709,-8.421647811139087,-251.52246156790693,-52.462825077955095,-11.390850622062915,66.56097314884079,-2.560759244254101,257.086768716216,67.79686182392514
710,-8.382576741080513,-251.53606955173214,-52.351465045603966,-10.232057009271589,66.4918718415649,-2.481049860582188,257.0761483423809,67.59654777310534
711,-8.342003977105632,-251.54872032962837,-52.23636437476844,-9.045731877230033,66.42056354907659,-2.383140029613718,257.0637797142222,67.3938225069333
712,-8.300754655429879,-251.5610276951762,-52.11940763830845,-7.858108285515301,66.34979441406982,-2.270097910100472,257.05067409705646,67.19295621592433
713,-8.259673610377913,-251.5736516402029,-52.00255659718677,-6.6930378181571175,66.28195865873148,-2.1450871652353354,257.03790438859585,66.99773463546815
714,-8.219600184545456,-251.5872584333538,-51.887804235388735,-5.571544702325479,66.21915012670983,-2.0113519817925316,257.02655585919007,66.81150104099501
715,-8.181341328889241,-251.60248007335503,-51.777126853326834,-4.511467136538767,66.16321543026136,-1.872193390541563,257.0176758313589,66.63720792779733
716,-8.145643629679753,-251.61987483979314,-51.672435536088045,-3.5271889586405005,66.11580198094534,-1.7309355591905424,257.0122242790582,66.47747082695604
717,-8.11316520138295,-251.63989102322466,-51.57552826697356,-2.6294634469273714,66.07839519865219,-1.5908815623265757,257.01102767837233,66.3346175361712
718,-8.084448719130842,-251.66283610962006,-51.488043901857566,-1.825329892813479,66.0523407070783,-1.455259044623102,257.0147386280596,66.21072740673311
719,-8.059897111613283,-251.6888535472824,-51.41141918388037,-1.1181225089513676,66.03884917693551,-1.3271571138906784,257.02380361266427,66.1076570639807
720,-8.039753514560909,-251.71790870871274,-51.34684992776923,-0.5075701287518928,66.03898345611006,-1.2094566403740923,257.0384407660405,66.0270508302768
721,-8.024086962940675,-251.74978490990154,-51.295257410751624,0.010016098956250646,66.05362949533159,-1.1047568122517437,257.058628734429,65.97033593496124
722,-8.01278501786993,-251.78408959377902,-51.257260875003404,0.4414713276462902,66.0834541651906,-1.015301270574875,257.084106961277,65.93870417008729
723,-8.005554174762974,-251.820270191232,-51.233156916484525,0.7964281194965215,66.12885428286395,-0.9429074377459912,257.1143870965147,65.9330829142857
724,-8.001928516084613,-251.85763873228007,-51.222906437742985,1.0868984649883147,66.18990198428378,-0.8889027685678058,257.1487747685765,65.95409936895557
725,-8.001286587443719,-251.8954038744241,-51.22612972593654,1.3267976824727454,66.26629195930744,-0.8540715562215547,257.18640052142126,66.00204240006687
726,-8.002875868904411,-251.9327085851055,-51.2421099900878,1.5314238143681416,66.35729600957129,-0.8386155895938747,257.2262582342447,66.07682653622557
727,-8.005843637400663,-251.96867131002804,-51.269805349814035,1.7169086041752775,66.46172991041324,-0.8421314093003005,257.2672488600589,66.17796242978456
728,-8.009272649280579,-252.00242818731192,-51.30786891381304,1.899658054252275,66.57793669498714,-0.8636061938122199,257.30822697149057,66.30453744593753
729,-8.012219894069265,-252.0331738422738,-51.35467631537758,2.0958015744294243,66.70378931462588,-0.9014334393536504,257.34804751677456,66.45520907228062
730,-8.013756533531948,-252.06019855751583,-51.408359911849374,2.320668603238971,66.8367143079647,-0.9534485912256327,257.38561040553094,66.62821269109087
731,-8.013007030299507,-252.0829200568953,-51.46684879502076,2.588310239997069,66.97373678050128,-1.0169837272181061,257.419900962095,66.82138410580413
732,-8.009185528823243,-252.10090859255004,-51.52791375208946,2.9110809198514995,67.11154575638628,-1.0889394440866245,257.4500247252325,67.03219619346974
733,-8.001627825531132,-252.1139043692333,-51.58921627623892,3.299291659714156,67.24657787512976,-1.1658713925227953,257.4752354110207,67.25780824151563
734,-7.989817634581333,-252.1218265987871,-51.64836061294235,3.760942200949137,67.37511652540559,-1.2440884909899816,257.49495509740734,67.49512596300603
735,-7.9734062448408975,-252.12477375866658,-51.702947707155026,4.30153492294038,67.49340288927664,-1.3197596994430214,257.50878595263254,67.74086987617217
736,-7.952225097320796,-252.12301504118383,-51.75062987799455,4.923969217440489,67.59775501274596,-1.389026306045208,257.5165132420408,67.99164962280562
737,-7.9262912253910125,-252.11697353963598,-51.78916510448999,5.628511526446112,67.6846908589022,-1.4481169099351685,257.5180999232997,68.24404178429465
738,-7.895805760280368,-252.1072023151697,-51.8164698901455,6.412833691507545,67.75105125957913,-1.4934625482820132,257.513673752158,68.49466875491453
739,-7.861145851570707,-252.09435498020778,-51.830669692908224,7.272110706758086,67.79411869798855,-1.5218095538895602,257.50350831013736,68.7402762180115
740,-7.822850570865917,-252.07915275453374,-51.83014581464488,8.199168393461616,67.81172788923145,-1.5303276412900069,257.48799966494965,68.97780674768475
741,-7.78160169507238,-252.06235011939634,-51.81357751150991,9.184671840511623,67.80236419174453,-1.5167104510471001,257.4676405215037,69.20446708038845
742,-7.738200509658019,-252.04470124700862,-51.779978072331495,10.217346497924552,67.76524605000601,-1.4792654978929916,257.44299377605165,69.41778675408716
743,-7.693541756748906,-252.0269293039887,-51.72872381244937,11.284225278123964,67.70038799729055,-1.4169903379771958,257.41466734956936,69.61566614497647
744,-7.648585666133028,-252.0097004581513,-51.659575313949176,12.370916627456161,67.60864123303278,-1.329631871836424,257.3832919878648,69.7964124141809
745,-7.604328898986804,-251.9936039283011,-51.57269071872907,13.461890119732097,67.49170938197402,-1.2177260099022713,257.34950333468055,69.95876244332693
746,-7.5617753111728945,-251.97913878022808,-51.46863128973554,14.540777642189955,67.35213769448492,-1.082615378632589,257.31392905168155,70.10189243518617
747,-7.521907579145176,-251.96670753326896,-51.34835955577854,15.590689600282122,67.19327464734158,-0.9264432790517588,257.27718116172133,70.22541445173187
748,-7.485660750310855,-251.9566161196274,-51.21323001628827,16.59454653476031,67.01920568073112,-0.7521227229971748,257.2398532136646,70.32936073883216
749,-7.453898614639502,-251.94907937837186,-51.06497178589502,17.535426813739917,66.83465970782203,-0.5632801452932644,257.20252138824094,70.41415723478853
750,-7.427393481537341,-251.9442310273318,-50.9056620864499,18.39693036769111,66.64489007786048,-0.36417440592178923,257.1657483237997,70.48058815740623
751,-7.406809544875172,-251.94213684112026,-50.73768943609406,19.163556656619345,66.45553282528581,-0.1595928920270976,257.1300882028292,70.52975395773059
752,-7.392689582691352,-251.94280953310238,-50.56370578348258,19.82109228547653,66.27244621886153,0.04527231628132512,257.0960914769895,70.56302515116643
753,-7.385444357560324,-251.9462237012917,-50.38656754201869,20.357000228105694,66.10153674878866,0.24496433777225424,257.06430759913405,70.58199454154817
754,-7.3853439188885215,-251.95232928879184,-50.20926629929713,20.760798954372888,65.94857766236156,0.43391292055827807,257.03528437396704,70.58843011863458
755,-7.392510213307086,-251.96106229363326,-50.03485076245671,21.024416400566235,65.81902687814349,0.6065924532566318,257.00956297558946,70.58423042908385
756,-7.40691097560095,-251.97235178511076,-49.86634216762044,21.14250115726779,65.71785147977364,0.7576813012233907,256.98766814165947,70.57138351938484
757,-7.428355553376332,-251.98612261207396,-49.70664591747712,21.112671878871616,65.64936595584194,0.882217054799375,256.97009349869734,70.55192971838116
758,-7.456493772754018,-252.0022936339136,-49.55846265511358,20.935686083568665,65.61709091396817,0.97574230898123,256.95728250658544,70.52792774826935
759,-7.490818987230743,-252.02077188242808,-49.42420235985786,20.615511438904242,65.62363819228996,1.0344358753627927,256.9496061466364,70.50142313833341
760,-7.530676100134023,-252.04144361977723,-49.305905309915865,20.15928634464419,65.67062715959372,1.0552248655814338,256.94733905929616,70.47441780920657
761,-7.575274778007011,-252.0641636594673,-49.205173774510286,19.577161913928418,65.75863560230208,1.0358738273776367,256.9506362151007,70.44884003451833
762,-7.623707487286493,-252.08874454813565,-49.12311796632762,18.882023872303474,65.88718704984899,0.9750479975872607,256.9595123463642,70.42651469700998
763,-7.674971559713237,-252.11494728409713,-49.060319101182785,18.089099837053343,66.05477479017704,0.8723487149053671,256.9738262994212,70.40913463547695
764,-7.727994251915009,-252.14247516746894,-49.01681147457253,17.215464242572704,66.25892124764209,0.7283200524083652,256.9932722012045,70.39823465111992
765,-7.7816596303038965,-252.17097212956568,-48.99208439582652,16.279459254864197,66.49626991711708,0.544426723849057,257.01737888434087,70.39517018609921
766,-7.834836058871819,-252.20002647105255,-48.985103730789305,15.300054962382324,66.7627057557432,0.32300427301646983,257.0455183972693,70.40110271213226
767,-7.886403153957746,-252.2291803499445,-48.99435179818729,14.296175714086434,67.0534988927183,0.06718350654046398,257.0769236618789,70.4169935006646
768,-7.935277278288013,-252.2579446735881,-49.017883540489976,13.286021579986588,67.36346578788306,-0.21920791029378922,257.110714518103,70.44360680449195
769,-7.980434854154977,-252.2858184159886,-49.05339632123523,12.286414479928265,67.6871415865398,-0.5317628741312396,257.1459306725464,70.48152270103485
770,-8.020932938522604,-252.3123109222804,-49.09831039419485,11.312197582179548,68.01895730542044,-0.8656267283423563,257.18156956337657,70.53115898587669
771,-8.055926701205102,-252.33696548164383,-49.149856980577425,10.37571422119336,68.35341547798336,-1.215638574747636,257.21662686253757,70.59280054348635
772,-8.08468370118325,-252.35938232367215,-49.20517091163322,9.48638902088248,68.6852579158516,-1.5764767457118354,257.2501372224981,70.66663362547315
773,-8.106595040391198,-252.3792392685269,-49.26138490285897,8.650429419643642,69.00961942719222,-1.942803170700536,257.2812129728732,70.75278165718545
774,-8.121183484667942,-252.3963085902032,-49.315722663098036,7.870660691373937,69.32216183393547,-2.3094015852284158,257.30907881904955,70.85133879603593
775,-8.128108569839208,-252.41046914428156,-49.365588138492704,7.146502100529102,69.61918347924123,-2.6713049687888994,257.33310109161334,70.96239754336798
