time,ax,ay,az,gx,gy,gz,accmagnitude,gccmagnitude
0,19.062018153274717,-258.88357240562584,5.884993284592228,-38.00869396340447,9.702161281706255,-6.9688211473517665,259.6528186662894,39.81912747338417
1,19.175314423916827,-258.676080017942,5.618698784943761,-38.732533365919934,10.387195511950354,-6.7622848779777724,259.4522338205978,40.69025646615104
2,19.283780306419548,-258.4801733225767,5.36220335801284,-39.44745023548193,11.067531580271025,-6.5595597619857156,259.2629003681463,41.551886639373606
3,19.387434916362437,-258.29741157502104,5.11654297429935,-40.145253832508985,11.734434302034053,-6.362870853079481,259.0863793110146,42.39376637242658
4,19.486309094924625,-258.1291230095687,4.882613946959049,-40.81813229851794,12.379737290174056,-6.174295654639848,258.9240012262033,43.20617257325471
5,19.580428426898873,-257.9763678070462,4.661159080591837,-41.45883127433951,12.99605512815313,-5.995710400055384,258.7768279876081,43.980141676042784
6,19.669799344406975,-257.83990781513455,4.4527593864336,-42.06081200876546,13.576968184047784,-5.828742942862559,258.6456215131314,44.70767324443818
7,19.754399295806806,-257.72018440883846,4.2578314207948775,-42.61838358731752,14.117173095432259,-5.674733951095738,258.53082098990603,45.38189903775251
8,19.834171381896912,-257.6173056122436,4.076629805906104,-43.12680530135693,14.612593047032972,-5.534707617244401,258.43252971566085,45.99721196655748
9,19.909023147114766,-257.53104322871076,3.909254242722705,-43.58235685624452,15.060443551241754,-5.409352571447515,258.3505122672664,46.549351366476316
10,19.978828702322314,-257.460840280278,3.7556602746993057,-43.98237587131876,15.45925142655707,-5.299013194762565,258.28420222677704,47.035443242530405
11,20.043433221997553,-257.40582858508816,3.6156731358665435,-44.32526371582757,15.808826908264429,-5.203691065292419,258.2327202177727,47.45399631964709
12,20.1026590024758,-257.36485581556457,3.4890040560744664,-44.610461990727025,16.110191181016297,-5.123055823077679,258.1949015314913,47.804856681796075
13,20.156312483639656,-257.3365208957664,3.3752682604342423,-44.83840286857025,16.365463933767135,-5.056464372272125,258.1693321518128,48.08912540132833
14,20.204191762675787,-257.3192161844698,3.27400365282918,-45.01043711165307,16.577717584789646,-5.0029871192783615,258.15439158067517,48.309044830616436
15,20.24609410240485,-257.31117464844874,3.184689045293839,-45.12874400278019,16.750806374652036,-4.9614398632795575,258.14830061811443,48.46786014744591
16,20.281822854481213,-257.3105201986125,3.1067609650793306,-45.19622769427144,16.88917941626014,-4.93041996285944,258.14917221569283,48.56966329776248
17,20.31119327878671,-257.31531946916346,3.0396285006364496,-45.21640459357622,16.997686980027687,-4.908345480724879,258.15506364339416,48.61922664159178
18,20.33403702920922,-257.32363344198956,2.982686096378057,-45.193286334704574,17.081388859612584,-4.893496161918753,258.1640283652139,48.62183339705952
19,20.35020546542636,-257.33356740454025,2.935324461906152,-45.13126265358867,17.14537278441661,-4.884055329337511,258.174166140977,48.58311147713953
20,20.35957224392513,-257.3433178149697,2.8969398333743412,-45.03498812462467,17.194589688139132,-4.8781520696454095,258.18366997937443,48.50887661093284
21,20.362035741581384,-257.3512147636878,2.866941835322911,-44.90927621174257,17.23371126490422,-4.873903380914927,258.1908686849132,48.40498973852936
22,20.357521824194855,-257.3557588907954,2.8447601898211863,-44.75900341389613,17.267013622796934,-4.8694561636337275,258.19426390156724,48.27723252493308
23,20.34598743276148,-257.35565188770624,2.8298504906932744,-44.58902548879634,17.29828901449273,-4.863028965828549,258.19256081462146,48.131203498792836
24,20.327425487809784,-257.34982007270656,2.821699188826236,-44.404106935907144,17.330785740370015,-4.852953213143171,258.18469203020186,47.97223593718231
25,20.301871568121836,-257.33743090248527,2.8198277933464424,-44.208864200728954,17.367174596959785,-4.837713324011955,258.16983451815224,47.80533734452831
26,20.269412502627237,-257.3179025614621,2.823796085733118,-44.00772243647447,17.40953888535532,-4.81598474933444,258.14741975989693,47.63514929705582
27,20.230196447910846,-257.29090688760516,2.8332039964918994,-43.80488508380665,17.459384129297685,-4.786668708150248,258.11713731981513,47.46592556116378
28,20.184443486484827,-257.2563658744414,2.847691869126832,-43.60431496882977,17.51766329407074,-4.748922271514066,258.07893200391305,47.30152572808497
29,20.132455524106568,-257.21444197339423,2.866939110839803,-43.40972506177226,17.58481336876798,-4.702182457345785,258.0329947401399,47.145421108165635
30,20.074624318520605,-257.1655225361293,2.890661521866868,-43.224576480191516,17.660799584112226,-4.646183109460133,257.9797474391492,47.00070926688006
31,20.01143673360828,-257.11019897273695,2.9186077902317,-43.0520808074216,17.745164200780497,-4.580963539667219,257.9198223539026,46.870133376265066
32,19.943476696162918,-257.0492414580355,2.9505557045911006,-42.89520348169084,17.837077611621428,-4.506868198189986,257.8540367440911,46.756102594662266
33,19.87142377198053,-256.983570237407,2.9863085170277337,-42.75666508009894,17.935390326976425,-4.424536963788085,257.78336390285347,46.66071008688568
34,19.796048675744238,-256.91422476351147,3.0256915681091088,-42.63893784900816,18.03868514932592,-4.334886001038414,257.70890180872925,46.58574608063158
35,19.718206288651157,-256.84233201329755,3.068548916808964,-42.544235744517984,18.14532943420184,-4.239079564245635,257.63184079733026,46.532704439700346
36,19.63882682177082,-256.769075347367,3.1147395098830213,-42.47449738174563,18.253527743631516,-4.138493657810304,257.5534316602927,46.50278246324865
37,19.558905600860673,-256.6956651723966,3.1641324511577875,-42.43136244263367,18.361375366592938,-4.034673020974099,257.4749554640467,46.496874774186836
38,19.479491596342793,-256.6233124592043,3.2166010968251753,-42.4161430613351,18.466913044451026,-3.9292833697186476,257.39769614680756,46.51556302162151
39,19.40167443287204,-256.55320582714,3.272015925969017,-42.42979240288831,18.568182826346614,-3.824061114144198,257.32291658307116,46.559103610454926
40,19.326569362107897,-256.4864924229354,3.330236422281883,-42.47287311416929,18.66328444697067,-3.7207628540847235,257.25183830787086,46.62741587898286
41,19.255299645191016,-256.4242623035156,3.391102516728636,-42.5455286285201,18.750431158573466,-3.6211168505037956,257.1856245771649,46.720073214105206
42,19.188975970757934,-256.36753563907786,3.4544263643404944,-42.6474604631128,18.82800366727727,-3.526778387700385,257.12536606461794,46.83629958415476
43,19.128672925077638,-256.31725187098806,3.519985285208013,-42.777914626734386,18.89460069734601,-3.4392905094304504,257.0720683428426,46.97497384697133
44,19.075403054026637,-256.27425999925504,3.5875165816741013,-42.935680006070136,18.949084613188205,-3.360051102126213,257.0266403738502,47.13464386855533
45,19.03008950757556,-256.23930943043,3.656714668856893,-43.11910104350597,18.990620358601596,-3.2902867930182063,256.98988351799017,47.31355185735639
46,18.993538456292285,-256.21304121164195,3.7272306054691042,-43.32610605979141,19.018705766433094,-3.2310336635023313,256.9624809730767,47.50967131229263
47,18.966412450626354,-256.19597983109423,3.7986738077844384,-43.55425120444137,19.03319122861635,-3.183124351905153,256.9449879007481,47.7207546713796
48,18.949205866761563,-256.18852593717827,3.870615526736659,-43.80077841525515,19.034286943686343,-3.14718078482881,256.9378226601658,47.944389360852846
49,18.942223688898807,-256.19095033207645,3.94259356885501,-44.06268421035479,19.02255647669464,-3.1236116217315595,256.9412595771025,48.17805873356555
50,18.945565019510813,-256.20338952819054,4.014117757334603,-44.33679485286225,18.998896090112716,-3.112613550345822,256.9554236205974,48.419203521170154
51,18.959112666539465,-256.2258430591508,4.0846757258237,-44.61984260765601,18.9645001681545,-3.114175754634784,256.9802872645775,48.66527904129553
52,18.982529845064057,-256.25817259177023,4.153738727465134,-44.90853763313988,18.920814014371278,-3.128087093611738,257.015669648853,48.913803636041834
53,19.01526453960814,-256.3001027006842,4.220767204746847,-45.19963062622355,18.86947626388106,-3.153945737113032,257.06123793730734,49.16239473151305
54,19.056561520330305,-256.35122303109284,4.285215963795081,-45.489962606734096,18.812253984690678,-3.1911711959230042,257.1165105982257,49.408790396317166
55,19.10548151762198,-256.41099159808624,4.346538958219276,-45.776499967052786,18.750974139340197,-3.2390188244023412,257.1808623229153,49.6508560986645
56,19.16092676394342,-256.4787391674746,4.404193863013564,-46.05635482738515,18.687455388987853,-3.2965969152317243,257.2535304754969,49.88657822891497
57,19.22167199532973,-256.55367489683033,4.457646736982429,-46.32679253729872,18.623444218984304,-3.3628864421437927,257.3336231907187,50.11404759577989
58,19.286399889579226,-256.6348935286141,4.506377070369128,-46.58522961327167,18.560559011884017,-3.4367633701538396,257.42012933745775,50.331437294299704
59,19.353739666942815,-256.7213844033475,4.549883348372757,-46.82922635417436,18.500244989296323,-3.5170232575284466,257.51193051756667,50.53697994892748
60,19.42230724568483,-256.8120424851585,4.587689011904107,-47.05647880046331,18.443741981587593,-3.602407615932645,257.6078151641128,50.72894935774414
61,19.49074510973431,-256.9056814958567,4.619348636656221,-47.264814651938984,18.39206592193273,-3.6916312128395927,257.70649468970385,50.905651108334176
62,19.557760044194655,-257.0010491184665,4.644454477885524,-47.45219730685188,18.34600392185632,-3.7834092744406638,257.8066215098948,51.06542591682694
63,19.62215711250355,-257.09684411378896,4.6626440400527915,-47.61674137853778,18.30612183748606,-3.876483435920528,257.9068086792413,51.20666833058003
64,19.682868583029325,-257.1917351882058,4.673609591175033,-47.75674190265601,18.272782451504614,-3.969645285668564,258.0056509039805,51.32786207622342
65,19.73897687898284,-257.28438152410286,4.677110318190091,-47.87071798881619,18.246171851505725,-4.061756422541125,258.101746790815,51.42763177474419
66,19.789730987417858,-257.37345488815305,4.672987202600285,-47.95746995131811,18.226331305597228,-4.151764067618346,258.19372220902096,51.50480904726434
67,19.83455613644628,-257.457663080273,4.661179923226237,-48.01614710854123,18.213191886012392,-4.238711453810866,258.28025450368807,51.55850931415066
68,19.873056987456238,-257.53577422478963,4.641744406208444,-48.04632171975579,18.206609212860922,-4.321742468410351,258.3600970574016,51.58821405714064
69,19.90501507068542,-257.60664114793803,4.6148692179060875,-48.04806325352402,18.20639593044681,-4.400100326473035,258.4321034698219,51.593852242980425
70,19.930381562429577,-257.66922491894894,4.5808889075458055,-48.02200659904484,18.212349870573647,-4.47312038692844,258.49525048558246,51.57587421463277
71,19.94926661690795,-257.72261657810276,4.540292616478503,-47.969408007119235,18.224276324946487,-4.540217616125925,258.548658762004,51.53531171611583
72,19.961926348286415,-257.7660561217633,4.493726663312224,-47.892183391341646,18.242003442653274,-4.600869706652893,258.5916106161538,51.47381875449515
73,19.96874832431289,-257.79894794070424,4.441990290192495,-47.79292494150963,18.265390396589165,-4.654597444969502,258.62356401064454,51.393689506486616
74,19.970236145218475,-257.8208720699741,4.386024283864977,-47.674893545393076,18.2943284971387,-4.7009444371398486,258.64416218850766,51.29785115091188
75,19.96699337180799,-257.83159076977836,4.326892713853741,-47.541986039979975,18.328735848116946,-4.7394585732813415,258.65323851444174,51.189831100859344
76,19.959706822669762,-257.8310501505179,4.2657584523953345,-47.398677673597106,18.368546529423813,-4.769677564176878,258.6508162604962,51.0736995107865
77,19.949129169702395,-257.8193768351627,4.203853401176565,-47.24994131242969,18.41369571128927,-4.791120542476928,258.63710334847116,50.95398912799957
78,19.93606080505161,-257.7968699946579,4.142444492665322,-47.101145871355776,18.46410248804496,-4.803287155074381,258.61248240515744,50.83559553033475
79,19.92133104451136,-257.7639894232013,4.08279662481787,-46.95793720389092,18.519652442289647,-4.805664887078389,258.5774968216497,50.72366152021661
80,19.905778829812924,-257.72134059118054,4.026133751472293,-46.82610528110659,18.580181943378847,-4.797744678114043,258.53283378317286,50.62344994294719
81,19.89023320211323,-257.66965777693645,3.9735994135676322,-46.71144196186579,18.645465945357728,-4.779044305643092,258.4793054049211,50.540209504260304
82,19.87549391877668,-257.6097863647436,3.9262181318700162,-46.61959401389022,18.715210607711665,-4.7491385196637195,258.4178291026286,50.47903829660743
83,19.862312618442477,-257.5426651798976,3.884859305683314,-46.55591626132782,18.789051474586056,-4.707694464787479,258.34940811499615,50.444749697925864
84,19.851374908639052,-257.46930938831713,3.8502054257897806,-46.52532976854234,18.86655731560429,-4.654510484909024,258.2751127525816,50.44174507554096
85,19.8432837279796,-257.3907941608048,3.82272634135617,-46.53218976828443,18.947239168602227,-4.58955600448481,258.19606261960183,50.47389730449256
86,19.83854433126506,-257.3082390956661,3.8026610340598084,-46.580167574659576,19.030563700494934,-4.513009898073512,258.11340984541454,50.54444849727944
87,19.837551185004905,-257.22279329281287,3.7900079917538223,-46.67215004610891,19.11596973471177,-4.425294669740008,258.0283232516007,50.655924610368196
88,19.840576939183613,-257.13562088883157,3.7845249023884158,-46.810159415894496,19.20288668376357,-4.327103908814715,257.94197328035676,50.81006887536246
89,19.84776357820992,-257.047886753564,3.7857379510304137,-46.99529559269953,19.290753663528722,-4.21942088151902,257.8555173873556,51.007795398104136
90,19.859115942866083,-256.9607419822586,3.7929604253215383,-47.22770235732125,19.379038218396214,-4.103526714820243,257.7700855322274,51.24916376611725
91,19.874498001371315,-256.87530891951116,3.805319603108524,-47.50655818263578,19.46725381001816,-3.9809973026760517,257.6867655053023,51.53337501672356
92,19.893632372430694,-256.79266575799255,3.8217901371751095,-47.83009164691617,19.554975476787845,-3.8536886707479265,257.6065881367929,51.85878877858472
93,19.916103544147216,-256.7138311149722,3.8412316741304204,-48.195620648437114,19.641853314690817,-3.7237110094655383,257.53051278786603,52.222960833062295
94,19.94136501049128,-256.63974918484223,3.862428520607113,-48.59961398006412,19.727623620017074,-3.5933919520715674,257.4594137084501,52.62269984292387
95,19.96875029412473,-256.5712760190593,3.8841297068605893,-49.03777337944525,19.812117641137252,-3.46522999082539,257.39406779438195,53.05414164541681
96,19.997487655681713,-256.5091672922659,3.905088368757345,-49.50513395232986,19.895267908821303,-3.341839242644781,257.33514408382274,53.51283932763881
97,20.026718202435706,-256.45406772502696,3.9240996373156896,-49.99618081965598,19.97711207330654,-3.2258871181207254,257.28319514346373,53.99386725628767
98,20.055517012840046,-256.40650225678297,3.940036211845848,-50.504979832889575,20.05779409396332,-3.1200267856794075,257.23865040900995,54.49193720758156
99,20.082916735440186,-256.36686911139003,3.9518807086167165,-51.02532006654878,20.13756252206672,-3.0268265915411035,257.2018115758984,55.0015245810493
100,20.107932938912747,-256.3354349813244,3.9587538678339813,-51.550865428378565,20.216765511406575,-2.9486987456488203,257.1728502011108,55.51700229240718
101,20.12959035203374,-256.3123325593402,3.9599378168260277,-52.07531214545173,20.295842107787095,-2.88782960228163,257.1518076665093,56.03277935227484
102,20.146949097270184,-256.2975605446876,3.9548937998520257,-52.59254819236747,20.375309320526682,-2.8461137743521476,257.1385975495572,56.54344045267509
103,20.15913011792482,-256.29098612293797,3.9432739653637676,-53.0968100818306,20.455744496613537,-2.825094160387319,257.1330103265967,57.04388226073519
104,20.16533919044057,-256.29234983163394,3.924926838347498,-53.58283203053831,20.537762680864297,-2.8259097582214157,257.1347202601558,57.52944176860289
105,20.16488915032595,-256.30127265763457,3.8998961065966222,-54.04598249789456,20.62198904601848,-2.8492528948709657,257.14329427322,57.996012147654824
106,20.157220218770227,-256.317265118911,3.868412567916674,-54.48238348597697,20.709027122371786,-2.895337229962121,257.15820254595394,58.4401421199418
107,20.141918508039737,-256.339737994479,3.830879578676426,-54.88900864832782,20.79942432476089,-2.9638776240069613,257.17883050754494,58.85911571792
108,20.118732747488163,-256.3680143694456,3.7878528473731965,-55.26375699634845,20.893636980877034,-3.0540827256251553,257.20449190662004,59.25101021471793
109,20.087588974137383,-256.4013427858905,3.7400156454079383,-55.605499704460236,20.99199756540885,-3.1646608945652206,257.2344427477218,59.61473081537233
110,20.048602544224188,-256.4389114671225,3.6881505017026868,-55.91409819821381,21.0946870735955,-3.2938397728372277,257.2678960259894,59.95002137989081
111,20.002086547852553,-256.47986372937197,3.633108484132314,-56.19039244176238,21.201715393268046,-3.4393994037721445,257.30403731533016,60.25745106689497
112,19.94855561560843,-256.5233147752023,3.575777361397955,-56.436159240189646,21.312912115237506,-3.598718305720585,257.3420413389304,60.538377445535744
113,19.888724146568027,-256.56837007053815,3.517050109090537,-56.65404152375955,21.427929443198362,-3.7688314053798293,257.3810896634011,60.79488740630644
114,19.82349811587022,-256.61414540973345,3.457795226111459,-56.847450954673896,21.546257799654146,-3.946498296560392,257.42038957201066,61.02971810688428
115,19.753959854410365,-256.6597884942052,3.3988302326953526,-57.02044763641317,21.66725351935691,-4.128279953177914,257.45919391480027,61.2461611157936
116,19.6813455681959,-256.7045013668198,3.340899582865019,-57.17760200012166,21.790176827955065,-4.310621783854262,257.4968212833003,61.447953710085464
117,19.607015868068558,-256.7475625059672,3.284657927969144,-57.32384489740886,21.914237262356558,-4.48994073485924,257.5326753596678,61.63916180299718
118,19.532420153463264,-256.7883470267791,3.230659149463763,-57.46431240763912,22.038642945254395,-4.662713997483169,257.5662619736965,61.82405914386754
119,19.459056261670224,-256.8263433859085,3.1793509809889207,-57.60419181300717,22.162649793166352,-4.825566736130579,257.59720238561425,62.007007236134385
120,19.388427272437532,-256.8611652366,3.131074566297426,-57.74857462553147,22.28560684394004,-4.975356131625401,257.625241590363,62.19233989916639
121,19.32199764280749,-256.8925575888667,3.0860680413706767,-57.902321544167236,22.40699437519305,-5.109248990409985,257.6502509606652,62.38425562209666
122,19.261150825567714,-256.9203970755777,3.04447314408861,-58.06994292247537,22.52645224788864,-5.224790283453134,257.67222518420044,62.586719933085796
123,19.20715015199551,-256.9446866864244,3.0063438391009223,-58.25549696313676,22.643796853633795,-5.319960278901624,257.6912739791623,62.80337911244504
124,19.161104156831062,-256.9655456355409,2.971655936151726,-58.46250667220918,22.759026080891292,-5.393218392240786,257.70760932912174,63.03748590258883
125,19.123936951074693,-256.98319510421265,2.940316718528335,-58.69389576631046,22.872312740149614,-5.4435324454182545,257.7215290111206,63.29183751456444
126,19.09636391762971,-256.9979405990422,2.9121737524627824,-58.95194327338836,22.98398780324074,-5.4703926469645365,257.7333971670568,63.568726195486555
127,19.078872909067563,-257.01015167481313,2.8870223081042767,-59.238256473768786,23.094515557817655,-5.473810231652502,257.74362267311153,63.86990285072579
128,19.071711096624792,-257.02023979577865,2.864611148562382,-59.55376200541633,23.204463306661985,-5.454301299001341,257.7526360877424,64.19655461041819
129,19.074877532461286,-257.0286351768631,2.844646821008168,-59.89871521580709,23.314468488897596,-5.412856942490178,257.7608660238607,64.54929759305269
130,19.088121355877654,-257.03576359223655,2.8267969425510437,-60.27272792248916,23.425206033043082,-5.3509012493235515,257.76871593004535,64.92818619650969
131,19.1109454522998,-257.04202431967997,2.8106931888348106,-60.67481445973974,23.537358407335773,-5.270239163495841,257.7765424383933,65.3327398802277
132,19.142615285558055,-257.04777049697486,2.795934730147857,-61.10345521572403,23.651590283216287,-5.172996520286307,257.78463653649357,65.7619875933566
133,19.182172603786746,-257.05329310178604,2.782092789534336,-61.556675892451565,23.768529049777758,-5.061554734768546,257.79320875263414,66.21452885917111
134,19.228453822318144,-257.05880949136673,2.7687168794895842,-62.032139596374165,23.888751695447354,-4.938482626811258,257.8023792743692,66.68860920963822
135,19.28011309058697,-257.06445702243104,2.755343134172006,-62.52724777753069,24.01277788419021,-4.806467697309889,257.81217351924244,67.18220637831283
136,19.335650177366073,-257.0702918797762,2.741505018662389,-63.03924515239313,24.141068446381162,-4.668248873553939,257.8225232945665,67.69312258745782
137,19.39344315949319,-257.0762929910828,2.726746560897084,-63.56532318157544,24.2740280296917,-4.526552360723144,257.83327342181246,68.21907753277961
138,19.45178550501045,-257.08237073446367,2.7106380726381394,-64.10271650983157,24.412010383793955,-4.384031817067538,257.8441935016331,68.75779638123598
139,19.50892676970819,-257.08837991933717,2.6927940693679036,-64.64878708296052,24.555324733022978,-4.2432136672271055,257.85499424121787,69.30708734071565
140,19.563115959012034,-257.0941362223637,2.6728927522314505,-65.20109143684121,24.704241890867262,-4.106448036716304,257.8653474515451,69.86490412909686
141,19.61264654407023,-257.09943498708134,2.650695990209143,-65.75742780537439,24.85899907567216,-3.975865561611532,257.87490853920497,70.42938983031867
142,19.655901955533015,-257.1040711235717,2.6260683101977706,-66.31586104745395,25.019802675671276,-3.85334020129345,257.8833401266919,70.9988999756022
143,19.691400061275164,-257.10785877890135,2.598993076161194,-66.87472475795427,25.186828429896917,-3.740458141944349,257.89033534025555,71.57200403134999
144,19.717834822312504,-257.11064948590723,2.5695838873745087,-67.4326011368178,25.360218665529604,-3.6384929082194537,257.8956393140433,72.14746566319418
145,19.734113232491165,-257.112347649077,2.5380892861812363,-67.98828018316536,25.540076409684136,-3.548386896394396,257.8990676022676,72.72420313781367
146,19.739385868396294,-257.1129224861661,2.504889188526795,-68.54070064093976,25.726456382532454,-3.4707396837480515,257.90052046922335,73.30123209940282
147,19.733069794385397,-257.1124158660045,2.4704820837979535,-69.08887597084446,25.919353047262373,-3.405803583275327,257.8999923863879,73.87759381463181
148,19.714863014825745,-257.1109457949063,2.435462981769823,-69.63180949734698,26.118686027980427,-3.3534869298139043,257.8975764235392,74.45227284464222
149,19.684750087838,-257.1087055565537,2.4004931820073794,-70.16840373442668,26.324283346608556,-3.3133655181064645,257.89346352250516,75.02410894656514
150,19.642998944133424,-257.10595872270864,2.366263930244687,-70.69736965274954,26.535863112876587,-3.2847025268754795,257.8879369045727,75.59170877522125
151,19.590149374534846,-257.1030304897586,2.3334566293056347,-71.2171421949603,26.75301450611424,-3.2664771568877287,257.881362142357,76.15336352992357
152,19.526994005990712,-257.10029607397576,2.302702424478745,-71.72580850901018,26.975179048015857,-3.2574220173083472,257.8741737321848,76.7069788914928
153,19.454552859157392,-257.09816712105805,2.274543835018123,-72.22105501157685,27.20163324865979,-3.2560689618106093,257.8668592401788,77.25002327687972
154,19.37404274578394,-257.0970771089487,2.2494008280198097,-72.7001384764441,27.431473735157212,-3.2608026129529253,257.8599421227599,77.77949957641744
155,19.286842781116416,-257.0974665059304,2.2275434058103123,-73.15988492571663,27.66360596047229,-3.2699202649896466,257.85396409802985,78.2919441950338
156,19.194457207716518,-257.09976813419934,2.2090724068567695,-73.59671830114608,27.896737525594798,-3.281696278513647,257.84946761809323,78.78345549825313
157,19.098476685412216,-257.10439300013735,2.193909802133223,-74.00671888753465,28.12937702833702,-3.294448538523413,257.84697879136615,79.24975183329893
158,19.000539237343318,-257.1117168639372,2.181799299830216,-74.38570950515833,28.359839200385803,-3.3066041105265755,257.8469911100414,79.68625740349987
159,18.902292037483676,-257.12206791331886,2.172317469146189,-74.72936584842768,28.58625692921327,-3.316760983804886,257.8499504250183,80.08821267814373
160,18.80535506036908,-257.13571592354333,2.164894770597806,-75.03334619571585,28.806600579789468,-3.3237428213238496,257.8562416160424,80.4508048839275
161,18.711287330113464,-257.15286319553996,2.158844968592815,-75.29343509007585,29.018704824173188,-3.3266439636433227,257.86617729616904,80.76931348426685
162,18.621556259908886,-257.17363743536737,2.153400714345936,-75.50569542616738,29.220302947040565,-3.3248625038032693,257.87998874374466,81.03926534312745
163,18.537510444685328,-257.1980866497865,2.147752787499801,-75.66662354419354,29.4090683059652,-3.318119982709322,257.8978191539482,81.25659436053232
164,18.4603562035237,-257.2261761200188,2.1410904810496807,-75.77330226822684,29.582662284713198,-3.3064670804714567,257.91971927853325,81.41780060549773
165,18.391138104847155,-257.25778755100924,2.132640742496331,-75.82354718409405,29.738787730314726,-3.2902755248149838,257.94564554675543,81.52010422956728
166,18.330723659491035,-257.2927205194417,2.121703850152757,-75.81604172373835,29.87524656571785,-3.2702172208333833,257.97546077711695,81.5615896337028
167,18.279792360346843,-257.3306963472376,2.10768360875739,-75.7504567556854,29.990000015427565,-3.247232246309042,258.00893758760145,81.54133542710284
168,18.238829253360592,-257.37136452462585,2.0901103640169323,-75.6275503656359,30.081229615565274,-3.2224877846714226,258.0457646066364,81.45952562717753
169,18.20812316819403,-257.4143117747312,2.068655647432875,-75.44924338736492,30.147396877885228,-3.1973302437784823,258.08555555161246,81.3175373339924
170,18.18776957042493,-257.45907376227404,2.043138036418356,-75.21866612467682,30.187299189491085,-3.1732327447566844,258.12786114921363,81.11799989520333
171,18.177677765841757,-257.5051493410222,2.0135207910547477,-74.9401717573369,30.200119327692814,-3.151739932786263,258.1721837656175,80.8648205440547
172,18.17758199199913,-257.55201715420174,1.979902694174033,-74.61931230131238,30.185465892301767,-3.134411764599369,258.21799454201505,80.56317180504828
173,18.187055817523113,-257.5991542938525,1.9425039018617956,-74.26277378738011,30.14340205179334,-3.122767648103093,258.2647527292952,80.21943672446741
174,18.205529187702133,-257.64605646627473,1.9016484628055672,-73.87826855879577,30.07446035882332,-3.1182320887336035,258.31192665459145,79.84110925695892
175,18.23230736507155,-257.69225866543513,1.8577447668444893,-73.47438422847483,29.979642086430232,-3.1220828559827707,258.35901529716136,79.4366489149437
176,18.266590975582528,-257.73735484636194,1.8112648034818548,-73.0603907635548,29.860400526086853,-3.1354026425386405,258.40556893352493,79.01529094224169
177,18.307496478130993,-257.7810147147455,1.7627228632508984,-72.64600923438938,29.718608838488393,-3.159035263202349,258.4512069398713,78.58681562226961
178,18.354076625837678,-257.8229956838797,1.7126542028908354,-72.24114788020842,29.55651423212328,-3.193547619731374,258.49563079010943,78.16128273823823
179,18.405340782753626,-257.863148412247,1.6615941394657703,-71.8556132545084,29.376681380117752,-3.23919888640948,258.5386306686425,77.74873958779564
180,18.46027518348526,-257.9014151278009,1.610057976507538,-71.49880623799244,29.181928966818088,-3.295918569440608,258.5800849219943,77.35891319930572
181,18.517863277445986,-257.93782097161034,1.5585221757636207,-71.17941453082734,28.975263910861194,-3.3632951794149646,258.6199526002667,77.00089932885282
182,18.5771061598474,-257.97245950576416,1.5074073659585878,-70.90511475107901,28.759817964632283,-3.4405771451623193,258.6582602399981,76.68286226880845
183,18.637042866776735,-258.00547407724815,1.457064019537438,-70.68229830486126,28.538790938686272,-3.5266872233964652,258.6950845705267,76.41176027665097
184,18.696770140216216,-258.0370369160095,1.4077617134787643,-70.51583545546929,28.31540374210835,-3.62025103528476,258.73053299895724,76.19311125758657
185,18.75546115994013,-258.0673277959155,1.3596827517868495,-70.408891180751,28.0928628792691,-3.7196395890619325,258.76472366810447,76.03081194811818
186,18.812382617173512,-258.0965138642686,1.3129206636780872,-70.36280432857626,27.87433623141422,-3.8230248382432452,258.7977666455177,75.92702120249936
187,18.866909379732398,-258.1247318731114,1.267483808483247,-70.3770383775473,27.662938171544088,-3.928446543840605,258.82974741635337,75.88211429889773
188,18.918535976115376,-258.15207361111885,1.2233040538019384,-70.44920809756925,27.46172058774791,-4.0338880050477615,258.8607134140456,75.8947108565923
189,18.96688423647303,-258.1785749772836,1.180250220547085,-70.57518199208292,27.273665430790683,-4.137357655835093,258.89066397094314,75.96177445770998
190,19.01170655000603,-258.20420893380765,1.1381456478651346,-70.74925600556408,27.10167407109418,-4.236973118345206,258.91954387367815,76.07877783233464
191,19.052884220128615,-258.22888247449504,1.096788839703555,-70.9643899510761,26.948549055946142,-4.331044007116813,258.9472406055655,76.23992382438925
192,19.09042038796252,-258.25243764969275,1.0559758494554436,-71.21249474113652,26.81696471505199,-4.4181495394529104,258.97358525974164,76.4384095341222
193,19.124427145399835,-258.27465656447436,1.0155229319629189,-71.48475603175837,26.709424335484922,-4.497206877436263,258.99835699257375,76.66671919669848
194,19.155106912202356,-258.2952701077584,0.9752879707355231,-71.77197847766658,26.62820317426592,-4.567526231199315,259.0212907625601,76.91693060248909
195,19.182728870448074,-258.31396994146917,0.9351891839433247,-72.06493447985974,26.57527828518076,-4.628849156356889,259.0420879272494,77.18102018311313
196,19.20760201905821,-258.3304229767016,0.8952196857115979,-72.35470200061187,26.552247912597192,-4.681367139350914,259.0604290286399,77.45115316660392
197,19.230046970441897,-258.34428726815656,0.8554567426588685,-72.6329775754286,26.560244925202955,-4.725718434207915,259.0759878459909,77.71994726555403
198,19.25036881893649,-258.35522807251147,0.8160649928845847,-72.89235287677747,26.59985024914662,-4.7629622092518025,259.0884456267811,77.98070097466693
199,19.26883326047758,-258.3629328034394,0.7772933325720941,-73.12654587815473,26.67101331558038,-4.794530394701212,259.0975043840137,78.22758047233503
200,19.28564765938533,-258.3671237883079,0.7394655444657419,-73.33058064916412,26.772986987609148,-4.822159115483243,259.1028982870208,78.45576212316274
201,19.300948002570333,-258.3675680415802,0.7029651000013079,-73.50091291160939,26.90428414543669,-4.847803094916036,259.1044024318031,78.66153046249342
202,19.314791869552135,-258.3640836303867,0.66821494502735,-73.63550148612315,27.062662031708648,-4.873537736818896,259.1018385836799,78.84233408462961
203,19.32715700150952,-258.3565425904004,0.6356534260743768,-73.73382837761048,27.24513867130875,-4.901454543838374,259.09507783237973,78.99680380148132
204,19.33794492933995,-258.34487080344775,0.6057078193284969,-73.79687219340268,27.4480433994482,-4.933555972850604,259.08404054579137,79.1247385622846
205,19.346989243368917,-258.32904574269486,0.578767207938183,-73.82704065479453,27.66710102621527,-4.971655753142399,259.06869451160367,79.22706480481239
206,19.35406814592946,-258.3090933516087,0.5551566201615442,-73.82806812373855,27.897546673641035,-5.01729019237467,259.0490525193502,79.3057741936111
207,19.358920781812532,-258.2850853917433,0.5351142328351662,-73.80488348954403,28.134266057688144,-5.071645169862099,259.02517069184427,79.36384332591001
208,19.361266567726886,-258.25713836445107,0.5187730474957348,-73.76345273642526,28.371954148028784,-5.135502425302678,258.9971486232548,79.40513729947696
209,19.360826475021895,-258.22541466684055,0.5061478930450579,-73.71059938178313,28.60528385402485,-5.209207447533337,258.96513191524673,79.43429741462138
210,19.35734503878263,-258.19012607548956,0.4971280068144141,-73.65380508331035,28.829075703311855,-5.292659843664301,258.9293171215678,79.45661207997493
211,19.350611807174836,-258.1515390715326,0.491474873431437,-73.60099234141786,29.038459421075167,-5.385325646028364,258.88995852680705,79.47786949441017
212,19.340481035035936,-258.1099810528806,0.4888246053312815,-73.56029149050454,29.22901893023581,-5.486269712990831,258.84737572334683,79.50419102735744
213,19.32688865002707,-258.06584620144196,0.4886940508962572,-73.53979499986917,29.39691359899959,-5.594205297815694,258.8019606879998,79.54184536491672
214,19.309865777750005,-258.01959969250606,0.49048995734005657,-73.54730327901825,29.538970468902914,-5.707557070499286,258.7541829959964,79.59704520574697
215,19.28954827135101,-257.9717790408365,0.49352072508575046,-73.5900674377109,29.65274448073083,-5.82453342454155,258.70459192590374,79.67573025522641
216,19.266181705431634,-257.9229916672454,0.49701045262702964,-73.67453553353631,29.736546106182026,-5.943203782510452,258.65381449513865,79.78334214203895
217,19.24012125314562,-257.8739081869586,0.5001150465324791,-73.80610958708779,29.789438040625,-6.061576771036411,258.6025488756019,79.92459841896087
218,19.211825914679856,-257.82525134848515,0.5019401287542733,-73.98892105389507,29.811204499525903,-6.17767547286242,258.55155306586454,80.10327391311587
219,19.18184679588168,-257.77778087620516,0.5015603152455255,-74.2256325929487,29.802298010106874,-6.289606426470338,258.5016290352289,80.32199835830782
220,19.15080955754389,-257.7322746844669,0.49803927926208197,-74.51727386623543,29.763769308496617,-6.395619658483704,258.4536027999499,80.58207944321323
221,19.119391737388582,-257.68950714759904,0.490450001392627,-74.86311863956003,29.697186071575118,-6.49415782416976,258.40830115217364,80.883360067313
222,19.088296315314764,-257.6502254302727,0.47789476153807336,-75.26060953528722,29.604545855233127,-6.583893421217226,258.3665261332428,81.22411766551687
223,19.05822348227775,-257.6151252423575,0.45952460380963817,-75.70533539574282,29.48818792066846,-6.663753887353064,258.3290287491146,81.60101196867194
224,19.029842853543787,-257.5848275808815,0.43455808559238573,-76.19106442455028,29.3507077216236,-6.732935080633163,258.2964836492347,82.00908560924273
225,19.003768199789032,-257.5598579386899,0.40229913925884914,-76.7098342419765,29.194876783609203,-6.790904141276852,258.26946640043684,82.44181973568104
226,18.980536228061247,-257.5406291745566,0.3621539090783186,-77.25209789493859,29.023569615909672,-6.837393082789249,258.2484346679021,82.89124446251216
227,18.96059025823478,-257.5274288867041,0.3136464671421987,-77.80692277681584,28.839698260099553,-6.872384702662555,258.23371421540696,83.34810166586932
228,18.944269041205377,-257.52041173859186,0.2564333115520926,-78.36223732328648,28.646154207307315,-6.896092516596849,258.22549020160926,83.80205536250907
229,18.93180056518496,-257.5195967328162,0.19031650304500283,-78.90511829477774,28.445756808678098,-6.908936328105013,258.2238037673387,84.24194274677913
230,18.923300468537793,-257.52486897719723,0.11525520264277755,-79.42210958440688,28.241207015269747,-6.911514740022329,258.228553440841,84.65605706322845
231,18.91877453949474,-257.535985158027,0.03137522560870418,-79.89956201750103,28.03504531087596,-6.904575525184838,258.2395005494112,85.03245207089837
232,18.91812468342364,-257.552581800334,-0.06102392958862195,-80.32398272639126,27.829612977028017,-6.888984467925253,258.2562776839065,85.35925707638845
233,18.92115766246335,-257.5741854471782,-0.16146522229403357,-80.6823824647718,27.627016254748728,-6.865693137794183,258.2783993086098,85.62499141515845
234,18.92759587056851,-257.60022409185916,-0.26929405989944116,-80.96260959248264,27.42909346907719,-6.835706027590745,258.30527380586386,85.81886774478292
235,18.937089445001877,-257.63003949629217,-0.3836827559834168,-81.15366025821635,27.237385728251535,-6.800047525518799,258.3362165448827,85.93107442071691
236,18.949229178727645,-257.66290033388066,-0.5036398650631452,-81.24595538489359,27.053112358329606,-6.759729286053951,258.37046387975494,85.95302840214387
237,18.963559948848257,-257.6980162716651,-0.6280244682390401,-81.23157632564025,26.877152687832265,-6.715718729096758,258.4071881757013,85.87759146533314
238,18.97959458635189,-257.73455306293414,-0.7555651475355737,-81.10445248494366,26.710036021591094,-6.6689096052772,258.44551393340157,85.69924392142505
239,18.99682817489267,-257.77164851827035,-0.8848831400042403,-80.8604958080176,26.551941527231488,-6.6200957424679645,258.484534880686,85.4142115252658
240,19.014752681603504,-257.80842902389315,-1.014519008029203,-80.49767883440573,26.402709257735737,-6.56994917608452,258.52333169311765,85.0205428108645
241,19.032871666765956,-257.84402619071415,-1.142962059874385,-80.01605494795228,26.261862696351177,-6.519003845882451,258.5609899054954,84.51813567352728
242,19.050714663020184,-257.8775932717033,-1.2686816752175512,-79.41772145993254,26.12864216794704,-6.4676458966640515,258.59661761636846,83.90871360516373
243,19.06785070239606,-257.90832118760386,-1.39015967186153,-78.70672816528356,26.002047385660905,-6.41611132682724,258.629362779282,83.19575355671144
244,19.08390042995763,-257.93545430327686,-1.5059229816792776,-77.88893595890173,25.880886463772537,-6.364491306718097,258.65843017205214,82.38436894581871
245,19.098546270306134,-257.9583063272228,-1.6145761659884303,-76.971831901413,25.763828080164288,-6.312745004874133,258.6830983671202,81.48115281174022
246,19.11154016204324,-257.9762766789486,-1.714833476145158,-75.964308624747,25.649453225024693,-6.260719272083181,258.7027370016097,80.49398743105036
247,19.12270843549971,-257.98886736473287,-1.8055500379391323,-74.87641697941508,25.53630316541299,-6.2081740555715506,258.71682434492595,79.43182768701757
248,19.13195355015033,-257.99569997933975,-1.8857513340355119,-73.71910119148214,25.422920846191513,-6.154811957486858,258.72496474680236,78.30446598063831
249,19.139252667464017,-257.99653208018924,-1.9546597198008238,-72.50392544875024,25.30788383210624,-6.100309966232857,258.72690519462066,77.12228639628611
250,19.144653285019384,-257.9912719338628,-2.011716489170167,-71.24279985043094,25.189827945875603,-6.044351161652159,258.7225499808764,75.8960152337486
251,19.148266221112827,-257.9799905204731,-2.0565981123825283,-69.94771228624849,25.06746184010419,-5.986654191989801,258.7119723756526,74.63647409151905
252,19.15025615623582,-257.96292969117445,-2.0892256120048254,-68.63047142394451,24.939573705142394,-5.926998564401798,258.6954222081653,73.35434072262652
253,19.15082996257193,-257.94050546303896,-2.109766474365634,-67.30246491520067,24.805032022911846,-5.86524425984752,258.6733283573329,72.05992214657921
254,19.1502233270542,-257.9133055455611,-2.118628933750944,-65.97443636855292,24.662782677804234,-5.80134480740854,258.64629528572914,70.76294414206208
255,19.148686523029927,-257.8820803425749,-2.1164488915355553,-64.65628458061018,24.5118448728462,-5.7353536197075465,258.61509293025284,69.47236126796355
256,19.146470301702944,-257.8477269542714,-2.104070093372685,-63.35688879568982,24.35130823185917,-5.667423977229227,258.5806395550581,68.19619181897454
257,19.1438126591698,-257.81126617417914,-2.0825184655554643,-62.083964119670256,24.180333209111907,-5.5978034659425235,258.5439776276906,66.94138237120396
258,19.14092689601076,-257.7738130871118,-2.052971728675478,-60.843951368575574,23.998156451875943,-5.526823896911685,258.5062433650367,65.7137065427478
259,19.137991181968765,-257.7365424848828,-2.016725522662165,-59.641945348776524,23.80410206423699,-5.454887810526094,258.4686311894057,64.51770206448651
260,19.135139812666633,-257.70065077951284,-1.9751572385643064,-58.48166471197288,23.597598867897858,-5.382452661450047,258.43235479295373,63.35664913366813
261,19.132456367752678,-257.66731635206634,-1.9296886684061088,-57.3654651257248,23.378202873599957,-5.310013742571378,258.398606766346,62.23259137653344
262,19.129968951810376,-257.6376603633513,-1.8817486376537738,-56.294395713950344,23.145623391544763,-5.23808683318224,258.36851883403574,61.14639877611431
263,19.127647623797557,-257.61271001605985,-1.8327369336011257,-55.268296798218174,22.89975059001161,-5.167191407483706,258.34312469867825,60.09786987993302
264,19.125404006513214,-257.59336609893904,-1.7839908376215725,-54.285935150731426,22.640681876133165,-5.09783500413871,258.3233273309904,59.085868720309335
265,19.123092910167074,-257.5803763421902,-1.7367552890389342,-53.34517139351664,22.36874425574274,-5.0304990978179225,258.3098722271243,58.10849030779149
266,19.120515688865357,-257.57431569317134,-1.6921572852808617,-52.44315283630579,22.08450991620122,-4.965626613193396,258.3033277248326,57.163247332314434
267,19.11742509932317,-257.57557415154076,-1.6511847414079106,-51.576523855148885,21.788802735368396,-4.903611118519637,258.30407300228933,56.247269784682
268,19.113531591429933,-257.5843523179797,-1.6146697832496606,-50.74164487644106,21.48269421066206,-4.844787727759089,258.3122939107929,55.35750857720813
269,19.108511015579488,-257.60066430086886,-1.583276339060662,-49.93481029034579,21.167488284961657,-4.789425819052304,258.32798628881034,54.4909339666173
270,19.102013598152606,-257.62434711619807,-1.557491839994039,-49.15245534606363,20.844695562122983,-4.737723820214348,258.3509658876214,53.64471975128054
271,19.093673842468768,-257.655075291714,-1.5376227163050837,-48.39134237178118,20.515998315534723,-4.68980645598422,258.38088360007794,52.81640485150134
272,19.08312087744492,-257.69237912945647,-1.5237932103900353,-47.64871755401671,20.183208378661455,-4.645724904528423,258.417244415097,52.004024971290605
273,19.069988707904653,-257.7356650327908,-1.5159470266800072,-46.922431029166006,19.848220384863637,-4.6054602017467605,258.4594284653613,51.206208574938664
274,19.053925843084524,-257.7842364900553,-1.5138516221672351,-46.211015144089174,19.5129628889264,-4.5689299687276,258.5067127228887,50.42223335912738
275,19.03460397061894,-257.837314725885,-1.517105342928895,-45.51371829339113,19.179349726020874,-4.535998210109185,258.558292330453,49.65204167027141
276,19.011725683849328,-257.89405856737375,-1.5251478480950247,-44.830494535683556,18.84923364097634,-4.506487648094882,258.6133011176137,48.89621576413395
277,18.985031592396744,-257.9535835172257,-1.537274253083239,-44.16195199208393,18.52436382322408,-4.480193870016621,258.6708313178204,48.15591623893639
278,18.95430728580461,-258.0149802572601,-1.5526533269255458,-43.50926558730663,18.20634856073556,-4.456900457592292,258.7299527442952,47.432789175859924
279,18.919390546535176,-258.07733285084004,-1.570350009935946,-42.87406178940219,17.89662382474951,-4.436394208488734,258.78973172243315,46.72884930258735
280,18.880178974530835,-258.1397368412793,-1.5893523877481748,-42.258284460747824,17.5964282456949,-4.4184795762815074,258.8492499867958,46.046347705364994
281,18.83663785711347,-258.20131729521586,-1.6086029378171607,-41.66405157527799,17.30678464637632,-4.4029915672101785,258.9076235756162,45.38763310028937
282,18.788807795306603,-258.26124663817393,-1.6270333830760864,-41.09351226274721,17.02848806162013,-4.389806513637927,258.96402152633766,44.755015325583145
283,18.736811405921493,-258.31876190608455,-1.6436020085792837,-40.54871248281375,16.76210000143614,-4.378850348151866,259.0176839348269,44.1506386035027
284,18.68085842724896,-258.3731808473015,-1.6573319732400975,-40.03147589691403,16.507948621483767,-4.370104195416365,259.06793875005866,43.5763705118131
285,18.621248757715342,-258.4239161931918,-1.6673490007088485,-39.54330452466554,16.266134456654694,-4.363607233186057,259.11421657272655,43.03371080160607
286,18.55837329263203,-258.4704873502212,-1.6729167700712728,-39.085301788162674,16.03654141874264,-4.359456818974423,259.15606268405975,42.52372240626574
287,18.49271274118287,-258.51252871962237,-1.673468276937231,-38.65811875110329,15.818852791245561,-4.357805903076024,259.1931455064314,42.046985355820134
288,18.424834667064744,-258.54979384543026,-1.6686314261582613,-38.26192291950412,15.6125719349572,-4.35885786002075,259.22526069731,41.60357299036201
289,18.355388694148402,-258.5821547116771,-1.6582472576557434,-37.896387980530804,15.417047366136057,-4.362859066755951,259.25233017993133,41.19304894878339
290,18.285099373666302,-258.6095958535225,-1.6423795895293012,-37.56070228534688,15.231501808126014,-4.370089728554721,259.27439573246585,40.81448286665977
291,18.2147560113562,-258.6322035270226,-1.6213154409931751,-37.25359362818691,15.055064722319509,-4.380853534168949,259.29160733057927,40.466482441886846
292,18.145198958517852,-258.6501508306035,-1.5955562029695012,-36.97336786524047,14.88680764396021,-4.3954667340715,259.304207107277,40.14723943944662
293,18.077302281934408,-258.6636801146595,-1.5658000052834975,-36.71795913908114,14.725781374055854,-4.414247215436328,259.312510269935,39.85458729717128
294,18.01195309855919,-258.6730840939646,-1.532916029464583,-36.48498989118956,14.571053771650897,-4.437504090619029,259.3168844202909,39.586068250705644
295,17.95002815203331,-258.67868687202105,-1.4979116870819407,-36.271839319409374,14.421746622548264,-4.465528212155989,259.3177285386042,39.339008214710574
296,17.892368472159582,-258.680825812243,-1.461893753611033,-36.075719235223225,14.277069866464243,-4.498583888493653,259.31545263833414,39.11059783717875
297,17.839753171232783,-258.6798349909168,-1.426024809738415,-35.893756158693286,14.13635139039177,-4.536901918358044,259.31045891422133,38.89797798608473
298,17.792873547503316,-258.6760308427452,-1.3914766895337811,-35.72307784979749,13.999060723138921,-4.580673895029607,259.3031250923949,38.69832736874701
299,17.752308712720232,-258.66970050254577,-1.35938298638726,-35.560901438771644,13.864825327851543,-4.63004755595723,259.29379058815925,38.508949152858726
300,17.718503972872934,-258.66109322231694,-1.3307928761995704,-35.40461922297436,13.733438714854827,-4.685122778019365,259.28274595326286,38.32735263538305
301,17.691753147927,-258.65041514233343,-1.3066284328312512,-35.251877437271496,13.604860172951453,-4.745947682092184,259.2702259891239,38.15132550820968
302,17.672185908049183,-258.63782769579603,-1.2876472268937642,-35.10064313375501,13.479206455202295,-4.8125142810264325,259.256406893282,37.97899230392252
303,17.65976106059197,-258.62344998270385,-1.2744114883885158,-34.94925478331901,13.356736190686506,-4.884753240920556,259.24140785020785,37.80885521195518
304,17.65426651497417,-258.60736536662466,-1.2672646739008966,-34.79645329268496,13.237828081499364,-4.96252761427572,259.22529737975276,37.639814583688086
305,17.655326298000613,-258.58963221390223,-1.266315995269866,-34.64139173349258,13.122954080238683,-5.045625751826733,259.20810439721674,37.47116801119296
306,17.662414508073756,-258.5702981917175,-1.2714333252238539,-34.48362402772238,13.012648751321175,-5.133753892086239,259.1898334021647,37.302588700819335
307,17.67487562183647,-258.5494170068847,-1.2822448192511893,-34.323074805027275,12.907475910189833,-5.226529094099603,259.17048264515205,37.13408566645275
308,17.69195019711309,-258.5270659799801,-1.2981494384499452,-34.15999426168906,12.807993427051697,-5.323473216055159,259.15006360719605,36.96594968829775
309,17.712804734452895,-258.5033624673913,-1.3183362096972562,-33.99490282156449,12.71471687623901,-5.424008595354139,259.1286197231187,36.79868979503107
310,17.736564228577546,-258.47847695606197,-1.3418115812299465,-33.828530611150704,12.628082682037547,-5.527456015945618,259.1062420737256,36.63296519531904
311,17.76234578068394,-258.45264080101043,-1.3674338158647872,-33.661756263277844,12.548411684467847,-5.633035495671716,259.083079903509,36.46951721181991
312,17.789291598245864,-258.4261471989169,-1.3939530985515836,-33.495548574149126,12.475874596888172,-5.739870397344467,259.0593444368725,36.30910505185286
313,17.816599774867445,-258.3993450485252,-1.4200558490214068,-33.330913397177696,12.410461468062092,-5.8469953580293765,259.03530552167587,36.15244842665616
314,17.84355136478928,-258.37262647864105,-1.4444115712655665,-33.168847154703336,12.351957738874962,-5.953368515459694,259.01128175972576,36.000179269506496
315,17.86953244259119,-258.34640960355586,-1.4657204622397337,-33.01029757805571,12.299929582201809,-6.057888417232232,258.987625568039,35.85280409840441
316,17.894050159271504,-258.3211183762662,-1.4827599186674811,-32.856131697291715,12.25372084700578,-6.159415760765036,258.9647049420006,35.710677842625195
317,17.916742340223067,-258.2971614197834,-1.4944279467437265,-32.70711065247016,12.212463152320076,-6.25679974309525,258.9428837341395,35.5739891983273
318,17.937380834868716,-258.274911595367,-1.4997813102768565,-32.56387061702471,12.175099633587424,-6.348908373361345,258.92250218305077,35.4427568884902
319,17.955869410234143,-258.2546878473292,-1.4980662025538807,-32.426909062347036,12.140421683617227,-6.434661676834648,258.9038592453078,35.31683568502849
320,17.972237299512983,-258.23674050411466,-1.4887394697401246,-32.2965757435973,12.107116887942016,-6.513066328209967,258.88719794457927,35.19593074481273
321,17.986629539974647,-258.2212407024024,-1.4714790362681078,-32.17306804362165,12.073825361756752,-6.583249931884769,258.8726944447426,35.07961866149211
322,17.999295049945598,-258.2082740226891,-1.4461831877386988,-32.05643052977735,12.039200983964557,-6.6444929819378995,258.8604509753417,34.96737355741071
323,18.010573110269938,-258.1978379394228,-1.4129596229955907,-31.946558675653275,12.001973678997683,-6.696256563362324,258.85049225507345,34.85859650540399
324,18.020878641300854,-258.1898424175991,-1.3721063393604318,-31.84320668251673,11.961008917060862,-6.738204153051311,258.84276479388285,34.75264660449605
325,18.030686523490257,-258.18411296230227,-1.324087066086284,-31.74599924987526,11.915360926426349,-6.770216407383868,258.8371384353256,34.64887215994251
326,18.040515245746743,-258.18039561760764,-1.269504001988378,-31.654447028020588,11.86431667752241,-6.792398442060083,258.8334096966374,34.546640626028356
327,18.050910275441154,-258.17836371261143,-1.2090702087667162,-31.567965351516285,11.807428455743032,-6.805079659217973,258.83130676799993,34.44536622122369
328,18.062427575994,-258.1776263802418,-1.143583354430673,-31.48589572685831,11.744533707078638,-6.808806570653499,258.83049625613836,34.344534394207216
329,18.07561764372006,-258.1777389029996,-1.073901773689084,-31.407529507186403,11.675761704697846,-6.804329306352935,258.8305917774278,34.24372263251358
330,18.091010412764902,-258.1782148490985,-1.0009232359222233,-31.332133312285624,11.601527347345561,-6.792582635252322,258.8311644108444,34.14261750820526
331,18.109101430956986,-258.1785399551345,-0.9255665239901425,-31.258976019228793,11.522513030106108,-6.774662415177466,258.8317550157871,34.04102832459103
332,18.1303397529555,-258.1781878517057,-0.8487558539979332,-31.187357404625306,11.439640054832713,-6.75179846402534,258.8318885605567,33.93889814498611
333,18.15511793831809,-258.176637798182,-0.7714081100937521,-31.116638587018432,11.354031494081243,-6.725324908918271,258.83109066895713,33.83631319987796
334,18.18376435667783,-258.1733943005351,-0.6944227099595061,-31.046274216910813,11.2669687479811,-6.696649107840273,258.82890628272213,33.73351159254788
335,18.216537722957828,-258.1680078509694,-0.6186736906138849,-30.97584591489045,11.179844158888274,-6.667220227876384,258.82491967878383,33.63089184365006
336,18.253623529051314,-258.1600954329977,-0.545003418480666,-30.905095833952664,11.094111928173247,-6.638498489781975,258.81877446396135,33.5290211766709
337,18.295131965251564,-258.14935924456876,-0.474217266487831,-30.83395853038401,11.011239246452973,-6.611925932407704,258.81019197047715,33.42864265948875
338,18.34109705557642,-258.1356023202209,-0.40707868179044215,-30.762588734633084,10.932659110935212,-6.588899303008097,258.7989867107856,33.33067957163959
339,18.391476871652205,-258.1187401330411,-0.344304234166802,-30.6913822871995,10.859725896718242,-6.570745379215681,258.7850779579797,33.23623486944344
340,18.44615464558805,-258.0988076071184,-0.28655838930949823,-30.620987544862835,10.793674465078533,-6.5586987576340645,258.7684968630879,33.14658350961463
341,18.504940414330704,-258.0759612000975,-0.23444781698357092,-30.55230500052217,10.735583450524242,-6.553881954786708,258.7493887345077,33.06315571146681
342,18.567572718417413,-258.0504758553689,-0.18851503618721638,-30.486473685218037,10.686343356330472,-6.557287536637146,258.72801023582525,32.98750997102469
343,18.63371999533668,-258.0227367697033,-0.14923125770219106,-30.424844067173346,10.646630182713158,-6.569761881528549,258.7047214126839,32.92129571088412
344,18.702981567846834,-257.99322617594896,-0.1169885526048746,-30.368938455836087,10.616885443972688,-6.5919901065227835,258.67997273246334,32.8662066775277
345,18.774888309758534,-257.96250569840277,-0.0920918806753148,-30.320401074128366,10.597303483109677,-6.624481721142176,258.65428769280436,32.82392729519148
346,18.84890306846118,-257.93119517941676,-0.0747517894226567,-30.28094070300911,10.587826889206314,-6.6675567683191295,258.62824189695726,32.79607488280569
347,18.924420861620273,-257.8999490945662,-0.06507859297735387,-30.252269034666362,10.588150609347078,-6.721332563639543,258.6024397088862,32.78414086482602
348,19.00076894990903,-257.8694317694297,-0.0630786607949028,-30.236037731796763,10.59773512239004,-6.785711589712779,258.5774897028094,32.789434004992145
349,19.077207176266953,-257.84029261949286,-0.06865322018122806,-30.233776908789977,10.615828821893174,-6.860371538829928,258.5539801509401,32.81302845693718
350,19.152929332066012,-257.813142561969,-0.08159979833265314,-30.24683745526283,10.641499453808065,-6.944758822927349,258.53245574754203,32.85571912545046
351,19.227066586016296,-257.7885326164915,-0.10161607984282606,-30.276339293048228,10.67367400133539,-7.038087038617846,258.5133966561266,32.91798641626774
352,19.298694070203993,-257.7669355807469,-0.12830563464477193,-30.323127239751415,10.711185842395002,-7.139341868057511,258.49720084018253,32.999971880209145
353,19.366841507799663,-257.7487315469854,-0.16118482350134739,-30.387735672524467,10.752827442052592,-7.247293676041481,258.4841705027904,33.10146558539997
354,19.430508322850635,-257.73419783281275,-0.19969027251041688,-30.47036272446168,10.79740638172243,-7.360518614613098,258.4745032376869,33.22190538032382
355,19.488683143455592,-257.7235035705136,-0.24318654990122132,-30.57085433515918,10.843802190164968,-7.477428438938167,258.4682881305877,33.36038758965612
356,19.540367165740864,-257.7167087882172,-0.2909739073893053,-30.688698096867853,10.891021214448221,-7.596308594442392,258.4655066100801,33.515688115586435
357,19.584600516704423,-257.7137674399936,-0.3422960415323731,-30.823026489068713,10.938246672659053,-7.715363545512886,258.4660374489485,33.68629242615958
358,19.62049046579099,-257.714533590387,-0.39634782700842325,-30.972628823544145,10.98488110725765,-7.83276782559786,258.46966504388337,33.87043256707177
359,19.64724009007414,-257.7187698894103,-0.4522829820553504,-31.135971099047286,11.030578715193208,-7.946720937173071,258.47609001256797,34.0661292109781
360,19.664175886892547,-257.7261575911075,-0.5092216743099849,-31.31122305225759,11.075265435484265,-8.055504033257467,258.48494125377204,34.27123690943999
361,19.67077290354397,-257.7363075635728,-0.5662581292693325,-31.496291983770526,11.119145197391445,-8.157536209551155,258.49578881399367,34.48349110914504
362,19.666676189851977,-257.7487718445825,-0.6224683537232664,-31.688863311018046,11.16269135504105,-8.251428143079671,258.5081570261895,34.7005559998507
363,19.65171772208168,-257.76305526784625,-0.6769181467979187,-31.886448069617668,11.206623035569033,-8.336030730729195,258.5215373817622,34.920072702745095
364,19.625928350861802,-257.7786266486778,-0.7286716472216701,-32.08643762561773,11.25186689457767,-8.410476389153985,258.5354005907469,35.1397075865194
365,19.589544739372215,-257.7949291222686,-0.776800729085159,-32.28616565363758,11.299505615439816,-8.474210836105732,258.5492074201733,35.35720061747545
366,19.54301158495027,-257.8113894939399,-0.8203955334903238,-32.48297701402896,11.350715404838981,-8.527013499971295,258.5624181908849,35.57041364822281
367,19.486979559914086,-257.8274268041844,-0.8585762430283781,-32.674302584410384,11.406695653554024,-8.569005217324706,258.57450116711306,35.77737846115943
368,19.422299365385577,-257.8424606299518,-0.8905058960277098,-32.85773846645362,11.46859470556057,-8.600642581312192,258.58494038864933,35.976344245274404
369,19.350012144200033,-257.8559198724458,-0.9154037067760686,-33.03112740516993,11.537436163374474,-8.622699134372414,258.59324371282065,36.16582402318414
370,19.271336315594805,-257.86725288825886,-0.9325581303103873,-33.19263977332136,11.614050270898371,-8.636234430143157,258.598951925204,36.3446393417518
371,19.18765073324117,-257.8759397477113,-0.941338882106493,-33.34085105906249,11.699014635937722,-8.642552682596401,258.6016496919521,36.511962231223684
372,19.100473979608143,-257.88150707269614,-0.9412073185023402,-33.474812381259774,11.792607889675326,-8.64315318505959,258.6009787883837,36.667352949778405
373,19.011439609672067,-257.88354533144894,-0.9317249231504438,-33.59411010511608,11.894778877232376,-8.639674900719136,258.59665346479755,36.81079134499949
374,18.92226726414928,-257.8817278180567,-0.9125599898045252,-33.69891020689028,12.005132746915397,-8.633837624661066,258.58847717058654,36.94269888649854
375,18.83472982241987,-257.87583002281406,-0.8834928291441948,-33.78998281180265,12.12293401913831,-8.627381937870577,258.57635935623796,37.06394777103246
376,18.75061712849173,-257.86574778194586,-0.8444199045189342,-33.86870249428347,12.247125547229865,-8.622009894527423,258.560330783789,37.17585321731456
377,18.67169717381188,-257.85151243447007,-0.7953572145726978,-33.93702062969305,12.376361393134326,-8.619328105520246,258.5405556438775,37.28014535503067
378,18.59967584663588,-257.8333011982432,-0.7364430462872084,-33.99740741654006,12.509051124103031,-8.620794655757074,258.5173387817777,37.37891809924735
379,18.536156483415702,-257.81144120367094,-0.6679400621000128,-34.0527631662466,12.643412877394201,-8.627671106099491,258.49112657360683,37.47455410013014
380,18.48260058942744,-257.7864061614216,-0.590236691191605,-34.106300961513355,12.777532645190552,-8.640980654255973,258.46250054283144,37.56962712461641
381,18.440291236114916,-257.75880538674636,-0.503847922940475,-34.16140554428327,12.909427490680107,-8.661473347058067,258.4321635629142,37.666785776106636
382,18.410300663702586,-257.72936563688506,-0.40941566076445124,-34.22147595240791,13.037110730453454,-8.689599035946726,258.40091922457464,37.76862493031761
383,18.393463439843096,-257.69890677451224,-0.3077086581975125,-34.28976158623051,13.15865744565096,-8.72548856245609,258.3696454857964,37.87755328065229
384,18.390356208014193,-257.6683126239085,-0.19962174717502262,-34.36920267770704,13.27226895441572,-8.76894351196718,258.3392640495175,37.9956665952315
385,18.401284698996072,-257.63849857819406,-0.0861737006207789,-34.46228630604787,13.376335028720987,-8.819434832407538,258.3107070763539,38.12463645725595
386,18.426278313174517,-257.6103775712107,0.031497211113580496,-34.570928106262656,13.469492647558253,-8.876110660946757,258.2848828663515,38.26562334581708
387,18.465092229317868,-257.5848259865897,0.15214102690875475,-34.696387778445335,13.550679978968573,-8.93781376115749,258.2626420757521,38.41922103761732
388,18.51721669889451,-257.5626510113583,0.27440826086275116,-34.83922367821747,13.619184104888504,-9.00310895012061,258.24474594697125,38.58543668822392
389,18.581892968184395,-257.54456087978565,0.3968671809505839,-34.99928848753006,13.674680744351797,-9.07032070901126,258.2318379518222,38.763707857891994
390,18.658135120835937,-257.5311393414419,0.5180265565727787,-35.17576459088536,13.71726392567407,-9.137580804873583,258.2244201246776,38.952954506484986
391,18.744757023942125,-257.52282545257583,0.6363637847024702,-35.36723465332346,13.747463311318263,-9.202885242054569,258.2228351180402,39.15166094633091
392,18.840403452380386,-257.5198994056479,0.750357881480802,-35.57178032486219,13.76624680669092,-9.264159229934839,258.2272546187981,39.35798024340087
393,18.94358435590751,-257.52247462968205,0.8585263841593287,-35.787100263729016,13.775006268908282,-9.319328123538211,258.23767427143235,39.569851886530266
394,19.052711187690644,-257.5304959374293,0.9594646977029722,-36.01063795717466,13.775524640119752,-9.366391578688706,258.25391479335724,39.7851229104056
395,19.166134252762124,-257.5437431829906,1.051885890782171,-36.23971009048159,13.769923699169347,-9.403497627755412,258.27562865711775,40.001663079469644
396,19.282180056872026,-257.56183974858817,1.1346585210861073,-36.47162723316204,13.760592807841793,-9.429013124344669,258.3023115692142,40.21746600705331
397,19.39918754337479,-257.584265146596,1.2068399021780194,-36.703800092659,13.750100390426278,-9.441587052859596,258.33331793441744,40.4307299000276
398,19.515541950367993,-257.6103710683813,1.2677024412789764,-36.93382633425535,13.74109126743874,-9.44020356347944,258.36787952863654,40.63991375263766
399,19.62970498614917,-257.639400344819,1.3167512928625533,-37.15955485416963,13.736174224035988,-9.424222257879485,258.40512673764175,40.84376709535127
400,19.74024027350133,-257.67050847038126,1.3537324622812799,-37.3791262888673,13.737805207161582,-9.393404140697251,258.4441119316999,41.04133365845758
401,19.84583351223862,-257.7027874523518,1.378631457617672,-37.59099031039521,13.748172199859694,-9.347922648937981,258.48383470165714,41.23193135024848
402,19.945307307782915,-257.7352916554667,1.3916634128980463,-37.79390179273983,13.769088042340144,-9.288360132661603,258.5232686349164,41.41511262747055
403,20.037630907495355,-257.767065055862,1.3932561282935096,-37.98689915837592,13.801897255791024,-9.215690942095618,258.56138907804797,41.590610545273925
404,20.121925206814385,-257.79716907542706,1.3840276650361583,-38.16926904120529,13.847402333122533,-9.131252798841588,258.59720109768745,41.75827643631728
405,20.197463512390005,-257.8247100852815,1.364760113773553,-38.34050175529474,13.90581404798169,-9.03670839157267,258.6297667754004,41.91801523445307
406,20.26366877727683,-257.84886575091724,1.3363710662481767,-38.50024190615209,13.976729113364103,-8.933999163850016,258.65823107092547,42.069723912835855
407,20.320108250518274,-257.86890955353493,1.299884181950746,-38.6482378764164,14.05913699998836,-8.825293087657647,258.6818456667733,42.213237412579176
408,20.366486540878554,-257.8842329583627,1.2563999988975787,-38.784293038393336,14.151455996342449,-8.712927926235428,258.6999903484369,42.34828500749161
409,20.402637969111474,-257.89436474009045,1.2070678358672575,-38.90822065503004,14.251596843668658,-8.599351211119892,258.7121915054228,42.47445860586743
410,20.42851888737618,-257.8989869310015,1.1530594066951565,-39.01980376701517,14.357050664600493,-8.487057977872144,258.7181372795255,42.59119331347107
411,20.44420042011809,-257.8979468187535,1.0955446480258006,-39.11876105916734,14.464996497592862,-8.378527217617645,258.7176888303228,42.69775981619561
412,20.449861799288307,-257.89126446042854,1.0356701513206166,-39.20471975421857,14.572422648708216,-8.27615797767234,258.7108872036122,42.79326781136609
413,20.445784164365993,-257.87913530375414,0.9745404165130094,-39.27719686714637,14.676255435380112,-8.182206130250703,258.6979553859573,42.876679763645654
414,20.432344476718463,-257.8619276996441,0.9132019411657705,-39.33559045519625,14.773488809898156,-8.098723098132139,258.67929530069273,42.94683453554775
415,20.410009137251016,-257.84017533829893,0.8526300134882363,-39.37918258695379,14.86130872877913,-8.027498228771368,258.6554797405319,43.00248070168768
416,20.379327004216147,-257.81456490930225,0.7937180675549129,-39.407155424203715,14.937206788254496,-7.97000685300655,258.6272395062983,43.0423193202369
417,20.340921708621337,-257.7859195175702,0.7372695658934106,-39.41862094580876,14.999078422595867,-7.927366196547265,258.5954462681064,43.065055422160505
418,20.295483346583346,-257.755178521677,0.683992449722489,-39.41266351503725,15.04530181181751,-7.9003012294379324,258.5610918155678,43.06945654157409
419,20.243759753333276,-257.7233744609209,0.6344961180961497,-39.388392985935475,15.074794571872305,-7.889122306839717,258.5252643754237,43.054415521607595
420,20.186547664934928,-257.69160761567707,0.5892907444086614,-39.34500471375403,15.087046291947042,-7.893716084904672,258.48912256371847,43.019013902646925
421,20.124684139305682,-257.6610185723893,0.5487886834558244,-39.28184192229796,15.082126019948667,-7.913550651870811,258.4538673742913,42.96258163730293
422,20.059038590408548,-257.6327590437716,0.5133077751465827,-39.19845549696498,15.060664859429751,-7.94769509695881,258.4207124851217,42.88474877257825
423,19.990505695281566,-257.607961215105,0.48307636491233896,-39.09465647454862,15.023814874773771,-7.994852914494234,258.39085317710226,42.7854851400616
424,19.919999287017568,-257.58770606362066,0.45823974303207166,-38.9705573085363,14.973186433248744,-8.053407803685852,258.36543432275533,42.665125004614445
425,19.84844713786841,-257.5729913646434,0.43886751408991076,-38.82659929419377,14.910766910534587,-8.121479662795144,258.345518150286,42.52437494423525
426,19.77678628440178,-257.56470036330245,0.4249612698035641,-38.663565070534545,14.83882435215876,-8.196987958372612,258.3320527314297,42.36430473361917
427,19.705958324287746,-257.56357227785077,0.416461923682292,-38.48257655420467,14.75980021520524,-8.277719232847653,258.32584230951534,42.18632239745071
428,19.63690397114717,-257.5701758714906,0.41325615178135106,-38.28507977833831,14.676195726577287,-8.361395344360425,258.32752064235217,41.992135696589436
429,19.570556093289348,-257.5848872996988,0.41518152844182005,-38.07281882218692,14.590456725658065,-8.445739129883439,258.3375284987046,41.783703054349544
430,19.50783052976914,-257.60787334970047,0.4220301473038737,-37.847801346574094,14.50486213013993,-8.52853452156727,258.3560963612844,41.56317734848919
431,19.449614287498324,-257.63908103679023,0.43355077404116343,-37.612258290937454,14.421421341403743,-8.60767867339956,258.3832332619825,41.332846157852266
432,19.396751296092916,-257.6782342631163,0.44944983174842895,-37.36860015933267,14.341785903557318,-8.681224309233002,258.4187224633279,41.0950720327237
433,19.35002650651715,-257.72483786799546,0.46939167366344253,-37.119372104351164,14.267180417955343,-8.747411220451792,258.46212437526043,40.852236173689846
434,19.31014945494604,-257.7781889768386,0.49299858726020973,-36.86720972594069,14.198356977960112,-8.804686559258322,258.5127867040358,40.60668852167992
435,19.277738400807472,-257.83739520160435,0.5198508440688956,-36.61479714051521,14.135576207049304,-8.851714232744115,258.56986147633626,40.360706669222694
436,19.253305977031467,-257.90139903446254,0.5494869755040425,-36.3648284872452,14.078616439754883,-8.887374254085925,258.63232835608727,40.11646525719145
437,19.237247145772887,-257.9690076743928,0.5814043856591815,-36.11997367072448,14.026810811546241,-8.910753330997458,258.6990235556583,39.876016703312125
438,19.229830162648405,-258.0389274076659,0.6150604031439447,-35.882848778682636,13.97911017320143,-8.921128291853337,258.7686735143117,39.64128325438993
439,19.231191174323868,-258.10980144886395,0.6498739185045584,-35.655991199796325,13.934167999328622,-8.917944208734779,258.83993229377745,39.41405946749177
440,19.24133298600792,-258.180249899361,0.6852278785123708,-35.44183896371008,13.890442014709258,-8.900789288535677,258.9114213823145,39.196023331940516
441,19.26012839420267,-258.24891030995815,0.7204731201426873,-35.24271326505433,13.846306252590388,-8.869368733029098,258.98177041704946,38.98875340816158
442,19.287328164974877,-258.31447730609887,0.7549342379158092,-35.060802633355095,13.800166724260169,-8.823479759445618,259.04965728491794,38.79374869521086
443,19.32257316630176,-258.3757398312289,0.7879182319914337,-34.89814695730854,13.750573815286648,-8.762989798802138,259.1138461232555,38.61244762109555
444,19.365409487473638,-258.4316146967897,0.818726491019805,-34.75661972799403,13.696324927314686,-8.687819566937982,259.17322183119944,38.44624274159485
445,19.415304925587435,-258.4811752157388,0.8466702821839673,-34.63790745946406,13.636551712757603,-8.597932258910602,259.22681976225005,38.29648845782494
446,19.471665197665896,-258.52367378566123,0.8710894765288394,-34.543486139349326,13.570787405174359,-8.493329575635343,259.2738493556763,38.164500169266056
447,19.533848605622634,-258.5585574835553,0.8913737988294008,-34.4745955183751,13.499011118465425,-8.374054697643878,259.3137106847313,38.05154452104203
448,19.601178431267943,-258.5854760303792,0.9069854601896107,-34.43221283291243,13.421667454187746,-8.240201734558461,259.34600323282206,37.958821537101606
449,19.67295280223985,-258.60428179932416,0.9174816299603211,-34.417028033785435,13.339661177442109,-8.0919306367736,259.3705265554759,37.88744028221247
450,19.74845196810513,-258.61502191544605,0.9225349372311984,-34.429422743741206,13.254327980795251,-7.929486063431192,259.38727287036994,37.83839019590054
451,19.826942912657163,-258.6179230345105,0.921950217166926,-34.46945499487529,13.167383425219946,-7.75321827829712,259.3964121531397,37.81251039154289
452,19.907681235741332,-258.6133700235491,0.9156761135567223,-34.53685131220315,13.080853067265904,-7.563603867243025,259.3982709500762,37.81045905201728
453,19.98991046132914,-258.6018802430302,0.9038108149811773,-34.631007000431566,12.996987564513175,-7.361264044666673,259.393306614417,37.83268468934775
454,20.072859362225152,-258.58407530209047,0.8866018985846358,-34.7509947786287,12.91816714346138,-7.146978604052621,259.38207888100425,37.879400660835906
455,20.15573831529358,-258.5606520783606,0.8644407594477993,-34.895581418599356,12.84680015404594,-6.921694116267469,259.36522065027566,37.9505641169992
456,20.23773587073062,-258.5323545462649,0.8378523302310534,-35.06325187313274,12.78522049768507,-6.686525629697315,259.34340962018086,38.04586054351309
457,20.318016626769605,-258.4999475728181,0.8074808089745745,-35.252240494917864,12.735588500096624,-6.4427517188540095,259.31734201293125,38.16469519100562
458,20.395721332481013,-258.4641933967732,0.7740720427102781,-35.4605692125595,12.699799333607977,-6.1918031875591035,259.2877091857057,38.30619284095213
459,20.469969978478733,-258.4258311547831,0.7384531730706,-35.68609271388609,12.679402463319194,-5.93524606186998,259.2551775466947,38.46920735048828
460,20.539868409529706,-258.38555963979763,0.7015102199472634,-35.926550534209994,12.675534921699713,-5.67475973669901,259.22037199862706,38.652342064599765
461,20.60451870494178,-258.34402341197114,0.6641645015879463,-36.179625351811296,12.68887059385534,-5.412111299745499,259.1838630419038,38.85398141542863
462,20.663033336487178,-258.30180232618255,0.6273490771212826,-36.44300588727198,12.71958714367306,-5.1491271642835486,259.1461575927728,39.07233298050843
463,20.714552988217076,-258.2594044526668,0.5919865053772146,-36.71445186502428,12.767351723689636,-4.887663188822962,259.1076934726323,39.30547820230787
464,20.758267837353895,-258.2172622592591,0.5589689070047499,-36.99185775596298,12.831326156286094,-4.629574426054463,259.06883740930635,39.55142908530055
465,20.793441927375458,-258.17573181647185,0.5291406278112415,-37.27331156717721,12.910191764904223,-4.376685519238063,259.0298862734089,39.80818754245337
466,20.81943993477604,-258.1350947141925,0.5032831036184455,-37.55714479695196,13.002193379684588,-4.130762554353471,258.99107118019685,40.073803656100104
467,20.835755164498675,-258.0955623633882,0.4821012441167205,-37.84196987271254,13.105201237474072,-3.893486897994102,258.95256404052657,40.346428993898954
468,20.842037130759856,-258.0572823683178,0.46621085498430453,-38.12670197837479,13.216788631287306,-3.666431263238146,258.9144861214258,40.624361352023286
469,20.83811676532212,-258.0203466500285,0.4561270186720045,-38.41056313781504,13.334322343972856,-3.451038029059177,258.8769181468211,40.906077905535305
470,20.82402729922535,-257.9848009800395,0.4522536912722283,-38.693067684178885,13.455062199702473,-3.2485997245050973,258.8399114456792,41.190254688607105
471,20.800019210759963,-257.95065556872277,0.4548750057977705,-38.97398970257475,13.576265544224192,-3.0602415427505836,258.8034996664367,41.47577151615299
472,20.76656814619782,-257.91789633963805,0.46414892847170786,-39.25331451111444,13.695292161597433,-2.8869057448623425,258.76771060359243,41.7617027366099
473,20.72437515698213,-257.8864964702074,0.4801039303098129,-39.531177520234756,13.809705050631866,-2.729337878223509,258.7325776664021,42.04729536508229
474,20.674358892288335,-257.85642767392835,0.5026391354716007,-39.80779470213604,13.917362595195982,-2.5880748961342785,258.6981504384075,42.33193701304346
475,20.617639692889316,-257.82767058345496,0.5315280514563626,-40.08338932026643,14.016497968733217,-2.463435476690908,258.66450368606786,42.61511652091947
476,20.555515975259336,-257.8002235433478,0.5664256395625443,-40.358119501836505,14.105782136074819,-2.3555130273513147,258.63174416119017,42.89638031038268
477,20.4894337519346,-257.7741091753336,0.6068782520908179,-40.63201075553928,14.18436754629456,-2.264171994265653,258.60001463397936,43.17528727011351
478,20.420950375630053,-257.7493782164154,0.6523358313455677,-40.90489679993233,14.251910489498911,-2.1890481517038065,258.569494750579,43.45136459959212
479,20.351693609704213,-257.72611033002346,0.7021656851261634,-41.1763712891458,14.308571057844892,-2.1295534823003197,258.5403985083455,43.72406663495446
480,20.28331715522163,-257.70441186681575,0.7556671056841672,-41.44575240814881,14.354990691125789,-2.084886056844508,258.5129684175953,43.99273845277278
481,20.217453969914715,-257.6844108806597,0.8120860937735277,-41.7120619484383,14.392248403806969,-2.0540450327384487,258.48746676027497,44.25658607686348
482,20.155668987281327,-257.66624996405875,0.8706295154925298,-41.97402024795267,14.421797959438164,-2.035850579123492,258.4641646335592,44.51465528454857
483,20.09941297908953,-257.65007753162433,0.9304781908121078,-42.23005803961596,14.445389411715023,-2.028968243855961,258.443329540237,44.76582107103904
484,20.04997925868805,-257.6360380863399,0.990798678810503,-42.478345631345306,14.464979452113399,-2.031937029863638,258.4252121911282,45.008789583510776
485,20.008464812569517,-257.62426192582353,1.0507538065949116,-42.71683894229083,14.482635740740573,-2.0432002584559843,258.4100331006408,45.24211372856023
486,19.975737347174988,-257.6148547795473,1.109512190223848,-42.94334085913088,14.500440727522445,-2.0611381572416025,258.39796958427945,45.464222750076736
487,19.952409589007058,-257.6078879313161,1.1662570631753921,-43.1555753004605,14.52040035750184,-2.084101033873632,258.3891438193726,45.67346500176003
488,19.938821899698972,-257.6033893674676,1.2201946652757065,-43.35127045453677,14.544362530708261,-2.1104419332092794,258.38361259468564,45.868162082524826
489,19.935033856454762,-257.6013364038043,1.2705623174076384,-43.52824702945636,14.573949323674123,-2.1385478421381667,258.3813592545049,46.04667163305183
490,19.940824950530235,-257.6016501529776,1.3166362152943627,-43.68450707982926,14.610505877748285,-2.1668687404547926,258.38228821225346,46.20745549271788
491,19.955704051151535,-257.604192142166,1.3577389773513941,-43.81831903200165,14.655067643250334,-2.193944011931553,258.38622231722593,46.349149604474555
492,19.978926855686424,-257.6087633686805,1.3932470427428054,-43.928294891742475,14.708346441296776,-2.218425906770661,258.39290330224236,46.470632031941214
493,20.00952024544906,-257.61510604795,1.422598058213045,-44.01345624834271,14.770734617783308,-2.2390999239283293,258.40199548258664,46.571085700179026
494,20.046312283779756,-257.62290821474875,1.4452983778539092,-44.073286516981135,14.842325449338725,-2.254902166657897,258.41309276760387,46.650052930539445
495,20.0879665050602,-257.63181114837784,1.4609307438068109,-44.107767773149675,14.922946995660386,-2.2649338482589143,258.4257288480486,46.707479418253676
496,20.13301914851585,-257.6414193330321,1.4691621465724076,-44.11740137729876,15.012205896970196,-2.2684731059485808,258.4393901620338,46.74374588375473
497,20.179918117226904,-257.65131243668407,1.4697518069470876,-44.10321222959288,15.109537269969548,-2.2649841130093487,258.45353102360343,46.75968610982144
498,20.227062689915407,-257.6610586744431,1.4625591771621935,-44.06673690926391,15.21425683517414,-2.254123244167565,258.4675901995679,46.756590431485456
499,20.272843289229108,-257.6702289018577,1.4475517659077073,-44.009996245546155,15.325611627129621,-2.2357418413593444,258.48100822104607,46.7361940565233
500,20.315680796405314,-257.67841080971704,1.4248124032873204,-43.9354531850962,15.442826033208918,-2.2098849917027885,258.4932447559529,46.70064998804869
501,20.354064962366817,-257.6852226365086,1.394545367059184,-43.84595725829819,15.565140438150358,-2.1767856868590827,258.5037954171694,46.65248687805226
502,20.386591412635507,-257.6903258587188,1.3570807467336823,-43.74467749301365,15.69184038065774,-2.136853829890196,258.5122074216102,46.594552843492025
503,20.411996546068217,-257.69343633928673,1.3128765374870854,-43.6350261497402,15.822274839511776,-2.090659843541478,258.5180935219711,46.52994700468454
504,20.42918927904772,-257.69433340668274,1.262518088559398,-43.52057596759957,15.955863079602684,-2.038913093261778,258.52114359940396,46.461941091651056
505,20.43727824064196,-257.692866356237,1.2067146012000551,-43.40497359795873,16.092090398204814,-1.982435851190498,258.52113329762767,46.39389378929173
506,20.435592904785356,-257.68895800926873,1.1462924452615357,-43.29185159411452,16.23049403457612,-1.9221339432292002,258.51792921285795,46.32916054515808
507,20.42369734366942,-257.68260525263963,1.082185189338735,-43.18474086573636,16.37064130473268,-1.858965460057412,258.51149045617524,46.271001421200175
508,20.40139576111924,-257.67387677109673,1.0154203338145793,-43.08698509320519,16.512102577586813,-1.7939089972047038,258.5018667334884,46.222489373881054
509,20.368729638172848,-257.66290830729264,0.9471027247699928,-43.001658422865184,16.654421955714866,-1.7279328811523804,258.4891932683839,46.18642125864637
510,20.325967044419315,-257.6498957288035,0.8783946068216998,-42.9314878978003,16.797088463006528,-1.6619667761268049,258.4736829009323,46.16523394361915
511,20.27358523999915,-257.6350860826332,0.8104924034095626,-42.878782394227166,16.939510232031353,-1.5968769626098094,258.4556156468433,46.16092808922834
512,20.212248030046876,-257.61876679864116,0.7446005992545707,-42.84537013177424,17.080993736045524,-1.533446434344754,258.43532601037776,46.17500225714564
513,20.142779471962676,-257.6012532943117,0.6819034141593194,-42.832547005097794,17.220729638656813,-1.4723607584575749,258.41318844470624,46.208399997154686
514,20.066135496154924,-257.5828753835388,0.6235352089027987,-42.84103805510329,17.35778639851446,-1.4142003523504885,258.3896014972015,46.26147245533914
515,19.983374767218407,-257.5639630198615,0.5705507553278982,-42.870974370286206,17.491112358291403,-1.3594394406591437,258.3649712823812,46.33395885855234
516,19.895629733846988,-257.54483198097483,0.5238966831275483,-42.921887514961135,17.619546628806233,-1.3084515078870655,258.3396949669684,46.42498688350505
517,19.804078445270395,-257.5257701562456,0.48438561502843314,-42.99272312113769,17.741838631960256,-1.2615206359810873,258.3141449716571,46.533094314752034
518,19.709917503922075,-257.507025125339,0.45267463896673715,-43.081874517279765,17.856675710429087,-1.2188577733158825,258.2886545987609,46.65627250803232
519,19.614336501271513,-257.48879366849803,0.42924962356528507,-43.187236248224224,17.962717791878664,-1.180620738733514,258.26350574311067,46.792031066223565
520,19.518494356894283,-257.47121373643245,0.4144163063444895,-43.306276152651385,18.0586377524891,-1.1469366023838348,258.2389192390663,46.93748190173632
521,19.42349807037988,-257.45435927872785,0.40829823779166763,-43.43612343138808,18.14316588612523,-1.117924974666164,258.215048279166,47.08943962707589
522,19.33038446136392,-257.4382382046874,0.4108409535105143,-43.573669057888644,18.21513674704931,-1.093720662218334,258.19197522190586,47.24453416479042
523,19.240105474151136,-257.42279364705786,0.42182143894601914,-43.715674164840856,18.273536523871297,-1.0744941331142701,258.1697119992108,47.399330769355984
524,19.153517538108275,-257.40790864343836,0.4408619860568544,-43.858881784514864,18.317548921236135,-1.0604683014125784,258.14820426454554,47.55045235800571
525,19.071375319149297,-257.39341431264234,0.4674476697652393,-44.00012745646583,18.346597283695832,-1.0519302951239555,258.1273393647863,47.694699093740134
526,18.99433000144055,-257.3791014953097,0.500946678901872,-44.13644459300475,18.360380552529357,-1.0492370861601092,258.1069580887431,47.829160470070704
527,18.92293205976389,-257.3647355831847,0.540632574402643,-44.2651609689625,18.358900750239652,-1.0528141339966253,258.08686988203414,47.951315639401074
528,18.85763835723466,-257.3500738853776,0.5857073476600863,-44.38398318594744,18.342480031159297,-1.063146558497155,258.0668708325601,48.05911831953359
529,18.798823181453834,-257.334884451968,0.6353241115626899,-44.49106643553867,18.311765813707176,-1.0807628271758494,258.0467632948021,48.151063250431164
530,18.746792292014653,-257.3189649440797,0.6886084571971881,-44.58506740245844,18.26772306859372,-1.1062114908700613,258.0263756674073,48.22623188342759
531,18.701798318071322,-257.30216007582925,0.744677821556647,-44.66517875460726,18.21161351126988,-1.140032068096547,258.0055807405208,48.2843158220912
532,18.66405539986367,-257.28437642218694,0.8026584454776212,-44.73114434046338,18.14496224902328,-1.1827216699261085,257.9843112778379,48.32561748000349
533,18.6337511252439,-257.26559385845957,0.8616996238125665,-44.78325489816308,18.06951327441163,-1.23469927708199,257.96257198377043,48.35102838434174
534,18.611054445195766,-257.2458733512745,0.9209850661260595,-44.8223247410499,17.987175929024747,-1.2962696864582968,257.940447503233,48.36198644482515
535,18.59611903756525,-257.22536113135175,0.9797413714707729,-44.84965050750451,17.899964980412097,-1.3675890734406917,257.9181064655415,48.360414272934996
536,18.58908226249036,-257.204289445332,1.037243883154412,-44.86695363001862,17.80993724957503,-1.4486339557651369,257.8958017973734,48.3486412584469
537,18.590060304611555,-257.1829741343258,1.0928204916427031,-44.87630868300681,17.719127838224075,-1.5391751716680784,257.87386761077113,48.329312602717714
538,18.599140373246957,-257.16180923128746,1.1458541706381544,-44.88006022579767,17.629488946901343,-1.6387583285855867,257.8527129341904,48.305288893609735
539,18.616371008892514,-257.14125864927416,1.1957850100351786,-44.880731172347886,17.542834000314837,-1.7466920232680514,257.83281244455634,48.27954007694605
540,18.641751565228276,-257.12184494986656,1.2421122576915151,-44.88092606374508,17.46078926615369,-1.8620449439216833,257.81469427442784,48.25503779457476
541,18.675221686878615,-257.1041352371272,1.2843965741608658,-44.88323285224371,17.38475442892292,-1.9836526804422805,257.798925004817,48.234650001401185
542,18.716651165345425,-257.08872441737054,1.3222624711646158,-44.89012690049362,17.315872807752186,-2.11013460864172,257.7860921163343,48.221041568617245
543,18.765830215717347,-257.0762162865978,1.3554007482601773,-44.90388082699222,17.255011218109107,-2.239920551975876,257.7767843665035,48.21658424511665
544,18.822460175026343,-257.06720303899255,1.3835706465619477,-44.92648353728961,17.202748940881694,-2.371286179121208,257.77157068655396,48.22327886106425
545,18.88614481610625,-257.0622438174723,1.4066014138187406,-44.95957123843651,17.159374927732504,-2.502395481906218,257.7709782288673,48.24269200830181
546,18.956382707136356,-257.0618429501711,1.4243929879635762,-45.004372473787804,17.124892287893175,-2.631348335117588,257.7754702323756,48.27590867457025
547,19.032561191370217,-257.06642864271873,1.4369154728143811,-45.06166832680924,17.09902925691551,-2.7562310546062614,257.78542450546763,48.32350152598709
548,19.113952580175482,-257.0763331166132,1.4442069870444536,-45.13176804347176,17.08125612438582,-2.875167952577212,257.80111354381097,48.3855167907907
549,19.199713091397918,-257.09177537813724,1.4463694546545725,-45.214499525637514,17.070807830093322,-2.986372062540635,257.8226874887521,48.461476038392505
550,19.288885004209586,-257.112847841861,1.4435621343475133,-45.30921353955196,17.066712021813473,-3.08819342926469,257.85016117020564,48.55039261225065
551,19.380402468249645,-257.1395078453212,1.435993128952876,-45.41480012144569,17.06782229957175,-3.179163609170037,257.8834062946805,48.65080111582201
552,19.473101339692064,-257.1715746897195,1.423909554068557,-45.52971556669377,17.072856209851306,-3.2580352929045806,257.9221494390493,48.760798209483276
553,19.56573327411726,-257.2087323396865,1.4075872702788654,-45.652018543623534,17.080437371082404,-3.323816229533136,257.96597600187863,48.87809306360376
554,19.656984119804296,-257.25053744811885,1.3873210504323543,-45.77941424853789,17.08914096839309,-3.3757968660699333,258.0143397837798,49.00006612085546
555,19.745496439168328,-257.2964319878096,1.3634158658543774,-45.909306068212175,17.097541760873124,-3.4135712930123714,258.06657746675006,49.1238353084642
556,19.82989567683929,-257.3457594695415,1.3361797671898712,-46.03885481449509,17.104263627884844,-3.437051234115964,258.1219269358335,49.24632936863826
557,19.908819078586856,-257.39778356350126,1.3059186452078242,-46.165046013376816,17.10802944121534,-3.446472974091369,258.17954819094416,49.364368294513966
558,19.98094609072428,-257.4517080068504,1.2729329431477574,-46.28476573214471,17.107709664603142,-3.442397264213071,258.2385456324084,49.474750737945534
559,20.045028827152386,-257.5066969558863,1.2375161740826486,-46.39488491209,17.10236764715701,-3.4257023455553743,258.29799076630826,49.57434762957216
560,20.09992132064885,-257.5618952426697,1.1999549844870372,-46.492351223278376,17.0912992343111,-3.397570290923472,258.3569446855445,49.66020024866906
561,20.144606548889016,-257.6164481353618,1.1605305675817903,-46.57428627951705,17.074064171848086,-3.3594669359140905,258.41447984336725,49.729619834722484
562,20.17822054644785,-257.6695201795683,1.119521397456848,-46.63808489997668,17.050506878153207,-3.313115776910749,258.4697006417007,49.780284803950956
563,20.20007328025631,-257.72031265270397,1.0772073694052784,-46.681512229822246,17.020764539953582,-3.2604663358686,258.52176234403896,49.81033096665695
564,20.209666307489435,-257.7680791874069,1.0338753675641381,-46.70279412730372,16.98526115235122,-3.2036575620262377,258.56988787746235,49.8184300104184
565,20.20670739058623,-257.8121392180093,0.989826038552847,-46.700696355151734,16.944687022734442,-3.144976803982344,258.6133822006121,49.80385195752293
566,20.19112215927394,-257.8518890485826,0.9453812535625901,-46.67458870408529,16.89996428939194,-3.0868147552201366,258.65164405196543,49.766508215771786
567,20.163062694427246,-257.88681049910826,0.9008915301265343,-46.624491050758444,16.852200061190697,-3.0316166442395067,258.6841750319845,49.7069730231496
568,20.122912704763447,-257.916477233975,0.8567426207877343,-46.55109929891159,16.802629779744052,-2.9818299218124666,258.71058610216505,49.62648231738267
569,20.07128884416858,-257.9405589979733,0.8133605475667564,-46.455790001336574,16.752554278623695,-2.9398488535261245,258.73060169380585,49.52691016585504
570,20.009037641270666,-257.95882404257327,0.7712145141929393,-46.34060315850006,16.703274693260138,-2.9079567422564705,258.74406167071436,49.41072379633028
571,19.937227398553336,-257.97113998157585,0.7308172992147477,-46.20820329759895,16.65602974799365,-2.888266922533226,258.750921338439,49.28091899151769
572,19.857134287967522,-257.97747320748834,0.6927228883492523,-46.061819559114475,16.611939891771648,-2.8826640965792745,258.75124957623996,49.14093820725433
573,19.770221904513612,-257.9778869509561,0.6575212405197797,-45.90516624407976,16.571962211082067,-2.892747923038049,258.74522512274336,48.994574306904866
574,19.67811388385433,-257.97253815103153,0.6258302117293645,-45.74234613067276,16.53685906027227,-2.919780976144682,258.73313115870167,48.84586331398532
575,19.582559781969145,-257.9616734290412,0.5982848129893896,-45.5777397890169,16.507182047175696,-2.964643281446001,258.7153485010893,48.69897005335601
576,19.485395052633734,-257.945624459212,0.5755241756369767,-45.415884957284824,16.48327157145015,-3.0277956195358184,258.69234777251563,48.558070887214086
577,19.38849647240308,-257.9248028954657,0.5581768104653847,-45.26135060126545,16.465270716729854,-3.1092536334792102,258.6646808154486,48.42723782514934
578,19.293734706133037,-257.89969490698104,0.546844882101317,-45.118610405255765,16.45315112047421,-3.20857442236509,258.6329715387869,48.31032799599887
579,19.202925928731357,-257.87085540769857,0.5420881753402126,-44.991920071800266,16.44674762806553,-3.3248567491324272,258.5979064313838,48.2108818000899
580,19.117784569949414,-257.83890214756616,0.5444082083121817,-44.885202016911784,16.44579814292834,-3.4567553038022285,258.56022506880726,48.132032115536006
581,19.03987930496191,-257.80450975434354,0.5542327009151742,-44.80194004961213,16.449985080613246,-3.602508756010658,258.5207108635096,48.076425915472825
582,18.970594289551794,-257.7684034595127,0.5719005058778409,-44.74508573054859,16.4589751387899,-3.7599807262441023,258.4801819438492,48.04615883808654
583,18.91109726870692,-257.73135176473346,0.5976471722530807,-44.716977642267636,16.472454641517917,-3.9267123840399094,258.4394815430481,48.04272292729021
584,18.862315604587547,-257.6941570489717,0.6315914225925722,-44.719274979520335,16.490158469124374,-4.099985130548255,258.39946697935267,48.066968108146796
585,18.824920603951025,-257.65764328492725,0.6737228929335307,-44.752907624524376,16.511891474876233,-4.276891672407429,258.3609964264037,48.11907889710542
586,18.799319924658285,-257.62264050075424,0.7238915208437471,-44.81804588765351,16.5375421835818,-4.454413710133594,258.3249130935161,48.198569026273894
587,18.785657415571993,-257.58996614235775,0.7817990343540917,-44.91409393114325,16.56708933110896,-4.629504457021395,258.29202692110925,48.3042976311857
588,18.78381954745019,-257.5604039833376,0.846993120056298,-45.03971115821733,16.600602356470468,-4.7991742597240385,258.26309437135467,48.434511018416465
589,18.793447603958274,-257.53468173341474,0.9188650024314631,-45.192865291111794,16.638237253892942,-4.9605776622742175,258.2387973956292,48.58691354176345
590,18.813954914289717,-257.51344894805754,0.9966512764498809,-45.370919433361856,16.68022920020959,-5.111100311661199,258.2197231169801,48.758769720599894
591,18.844548457263546,-257.49725707926245,1.0794407825083456,-45.57075327673353,16.72688310179818,-5.248444138729577,258.20634600368646,48.947037586605454
592,18.884254031984685,-257.4865434390887,1.1661870058467276,-45.788916053345346,16.77856273602458,-5.37070924154968,258.19901423031314,49.14853063458132
593,18.931943919491665,-257.4816204927966,1.2557259913750496,-46.02180616396872,16.83567863446639,-5.476470811343762,258.1979415480463,49.36010301854951
594,18.986365765620135,-257.48267131450973,1.3467992696852622,-46.26586996207533,16.898674393994686,-5.564849255438806,258.2032053891336,49.57885012406514
595,19.046171507270465,-257.4897513043106,1.4380808803401983,-46.51781023651019,16.96801075829397,-5.635571399731905,258.21475120538304,49.80231465821107
596,19.109945569917006,-257.5027955076225,1.5282072366876898,-46.77479367170807,17.04414660088087,-5.689020329739079,258.23240231547715,50.028687087482226
597,19.17623211425117,-257.5216302627608,1.6158083396922622,-47.03464594990769,17.127515898820832,-5.726271134061518,258.25587396387033,50.25698862306187
598,19.243561560421114,-257.5459875697488,1.6995388117294523,-47.29602308015521,17.218499964905657,-5.749109660815288,258.2847899954926,50.48722492830255
599,19.310476792260438,-257.5755205294964,1.7781073804684597,-47.558547908458216,17.317394645339636,-5.760031438267316,258.31870051872505,50.72049924609124
600,19.375559345594294,-257.60981831991154,1.850303676149032,-47.82290158894117,17.42437291687395,-5.762218098864628,258.35709903746346,50.95907472565282
601,19.43745568544245,-257.6484193389756,1.9150214209520229,-48.090861181848936,17.539444290854235,-5.759488953020336,258.39943767940014,51.2063774500729
602,19.494903520552246,-257.6908213566312,1.9712772896803112,-48.36527663258699,17.662413482645,-5.756225856830008,258.44513934576304,51.46693411039461
603,19.54675797708417,-257.7364878344509,2.0182249335447215,-48.64998323178261,17.792841690516596,-5.757270284165004,258.4936059142285,51.74624142046982
604,19.592017293814667,-257.784849995646,2.055163891738315,-48.949649133397905,17.93001434663698,-5.767792535189353,258.5442220383467,52.05056803919504
605,19.629847505664717,-257.83530469019814,2.081543390588596,-49.26956132450752,18.072919249768958,-5.79313422862718,258.5963545357775,52.386693657723505
606,19.659605353812967,-257.88720852573584,2.0969613932230353,-49.61535722423429,18.22023856616467,-5.838626592887432,258.64934777002634,52.76159366908198
607,19.680858401162688,-257.93986909505634,2.1011596996593087,-49.992712463945104,18.370357390824463,-5.909388529341736,258.7025157776331,53.182081129722846
608,19.693401136652906,-257.9925344440352,2.0940162498462485,-50.4069980291121,18.521390539032243,-6.010109811469039,258.75513219818345,53.65442023987141
609,19.697265866336426,-258.0443822118554,2.075535864485171,-50.862921565793,18.671228109485146,-6.1448259034181305,258.8064193584116,54.18392706481045
610,19.692727429500856,-258.09451012230227,2.0458404863055457,-51.36416816604423,18.81759921363252,-6.316691621725193,258.8555381278385,54.77457359899608
611,19.68030108118023,-258.1419296364556,2.005159782812848,-51.91305547480548,18.95815217661028,-6.527761247481204,258.9015803185554,55.42861068609928
612,19.66073307623369,-258.1855644992893,1.9538229285810789,-52.51021682486464,19.0905485375989,-6.778782793084509,258.9435653416222,56.146224079163
613,19.634983595595997,-258.22425560813645,1.8922524521676936,-53.154324650260975,19.212567329717935,-7.069013991593702,258.9804425412424,56.925236392508275
614,19.60420187116944,-258.2567732019344,1.8209609827840023,-53.84186491058771,19.32221540744751,-7.396067255848833,259.01110022064915,57.76086610925525
615,19.56969383189965,-258.2818369383763,1.740551411569579,-54.56697186638221,19.41783903730174,-7.755790390603277,259.0343819815494,58.64555334977667
616,19.532883213853783,-258.29814402393157,1.6517204780999268,-55.321331389738766,19.498231628142882,-8.14218923265505,259.049110647,59.56886089439011
617,19.495267616884753,-258.3044051616014,1.555265323319124,-56.09416003107708,19.562732427064663,-8.54739761692218,259.05411968032934,60.51745796759594
618,19.458371316144298,-258.2993876723544,1.4520922368124196,-56.872266090231506,19.611311311541794,-8.961699155928642,259.04829162894254,61.47519336606391
619,19.423696801177005,-258.2819647327194,1.3432266269893685,-57.64019773544042,19.644635491319825,-9.3736043823831,259.03060272011277,62.42326345859458
620,19.39267711509969,-258.2511692621841,1.229823066270621,-58.380481686355395,19.664114964515658,-9.769985922817638,259.00017233310535,63.34047931548201
621,19.366631106154557,-258.2062506304188,1.1131740610765555,-59.07395418849868,19.671924848447553,-10.136273549984669,258.9563157092385,64.20363575311744
622,19.34672363194195,-258.1467320798654,0.9947159825650559,-59.70018407769055,19.671004035321946,-10.456710163323855,258.8985979788833,64.9879834367674
623,19.333932545583487,-258.07246656967885,0.8760304605402311,-60.237985747910734,19.665030781930323,-10.714668905584096,258.8268873764607,65.66780335102516
624,19.329023957795204,-257.9836886370474,0.7588396106345449,-60.66601782502566,19.65837665631484,-10.893030648858627,258.74140537791305,66.21708087638372
625,19.332536854645955,-257.88105990268576,0.6449937879108251,-60.96346131960645,19.656040644330396,-10.974619902744651,258.6427714943272,66.61027437518018
626,19.344777678945437,-257.76570607569755,0.5364511037405136,-61.110768964662114,19.66356517553694,-10.942695791871845,258.53204064793795,66.82317058330943
627,19.365824902573536,-257.6392436708501,0.43524859388916465,-61.09047527915771,19.686935472935524,-10.781493131600204,258.4107313699196,66.8338162198326
628,19.39554290119194,-257.5037949805324,0.34346550547141524,-60.88805460323776,19.732463129588574,-10.47680683368875,258.2808433323086,66.62351210352654
629,19.433603726940714,-257.3619900492284,0.26317955683121014,-60.492811996928694,19.806654302194676,-10.016610956553972,258.14486287275827,66.17785283176134
630,19.479514879438074,-257.2169545157564,0.19641728019492377,-59.89878962631457,19.916062465766107,-9.391701722712702,258.0057552417635,65.48779191327108
631,19.532650979858403,-257.07228231158444,0.14509982948652841,-59.105669200684424,20.067125371017447,-8.596351771932847,257.86694239793337,64.55070930840282
632,19.59228723464299,-256.93199238841044,0.11098593174042305,-58.11964920720671,20.265985793302725,-7.628960817468692,257.73226534634057,63.37145570752125
633,19.657632606308393,-256.8004689133036,0.0956138359578911,-56.95427409885643,20.518295934961316,-6.492685777650897,257.6059302676887,61.96334560504534
634,19.727860733050125,-256.68238475434174,0.10024408937761205,-55.63119123609015,20.829005935885316,-5.196031473890319,257.4924380648245,60.34906934262361
635,19.802136983236064,-256.58260861300204,0.12580480108622874,-54.180810332762896,21.202137820870476,-3.753381284541099,257.3964974969519,58.56149289172135
636,19.879640569470048,-256.50609677354004,0.17284074647300957,-52.64283948046304,21.640547341676832,-2.1854459087289646,257.32292271193324,56.64431332141819
637,19.95958114498657,-256.45777100571047,0.24146717947842086,-51.06667150345186,22.1456774985615,-0.5196077692399665,257.27651657894125,54.6525376523049
638,20.041209551869454,-256.4423846055376,0.33132869709166607,-49.51159432738245,22.717308922725202,1.209861352282879,257.26194168307023,52.65275302566455
639,20.123822441844048,-256.46437891195023,0.4415632626039557,-48.046799174805685,23.3533136400526,2.961731055989776,257.2835811964154,50.72315675220128
640,20.206760589279863,-256.5277329656772,0.5707716623173473,-46.75116086744741,24.049419968637824,4.687911466305022,257.34539217267417,48.95331598413261
641,20.289401016173457,-256.63580934684364,0.7169930307211332,-45.712765680362416,24.79899743868174,6.33373836536663,257.45075419938706,47.44362884034111
642,20.371143512810253,-256.79119965341323,0.8776873867945341,-45.02816453629954,25.592871665580176,7.838458533286736,257.60231679522985,46.30446227037772
643,20.451392625313268,-256.99557351622354,1.049726303894222,-44.80133329656544,26.41918000103147,9.13592516462698,257.801849403248,45.65494717464077
644,20.529536552412285,-257.2495354151049,1.2293928645084833,-45.142327798153076,27.26327940798426,10.155507975929929,258.0500982229172,45.62141853947601
645,20.6049246044564,-257.55249382140374,1.412391905150597,-46.165629207474105,28.107718189781952,10.823216614161392,258.34665439870355,46.33549762566731
646,20.676845019539915,-257.9025473732967,1.5938713115427725,-47.98818509324296,28.932282803784553,11.063029416971442,258.6898382763619,47.93182439793219
647,20.744505140598548,-258.29639296919265,1.7684549363895994,-50.72716304445367,29.714129905565176,10.798412664693108,259.0766046401382,50.54546105615542
648,20.807016234267547,-258.72926085542434,1.9302876965492795,-54.49744618166978,30.428011981113542,9.954008392280764,259.50247407103774,54.309001234723
649,20.86338533684809,-259.1948818324749,2.073093604919031,-59.40891290800444,31.04660251465753,8.457461764124085,259.96149564809434,59.349433575673906
650,20.912516170997556,-259.68549136673937,2.1902478599979776,-65.56355605543759,31.540923764391888,6.241352117259241,260.44624588855123,65.78482232131645
651,20.95322045808997,-260.1918745901127,2.2748644481180547,-73.05250862405421,31.880877044699794,3.2451852488474953,260.94786800778127,73.72088074897442
652,20.984240235837273,-260.70345509090265,2.3199007188536993,-81.95305412021847,32.03587209138475,-0.5826013898689412,261.4561544905015,83.2475252093807
653,21.004281332763604,-261.20842933370534,2.318279956794807,-92.32570860933957,31.975548739352515,-5.282673977372786,261.959674903358,94.43550773953645
654,21.012057887009597,-261.6939476106561,2.2630322305100394,-104.21146846591716,31.670580860012848,-10.882935441685571,262.4459499593781,107.33323311960903
655,21.006347529735287,-262.14634151193803,2.1474529278348378,-117.6293218362139,31.09354936293845,-17.396816520847132,262.9016719454635,121.96387119621836
656,20.986056420427072,-262.5513968211654,1.9652774490866933,-132.57412246038186,30.219868134089335,-24.82178625048,263.31297054607,138.32287668290465
657,20.950292644403454,-262.8946693528321,1.7108695469209814,-149.01492129859756,29.028744093346514,-33.138143222928655,263.66572169524886,156.37602596470853
658,20.898445598732746,-263.16183947669435,1.3794198169484937,-166.89384418317022,27.50415008090458,-42.308147077879305,263.9458952897424,176.05807338100573
659,20.830268056788313,-263.339098920115,0.96714989422499,-186.12559252707328,25.635786989805826,-52.2755457615322,264.13993541099126,197.27211796227797
660,20.745956832613516,-263.4135610382383,0.47151701478954927,-206.5976291497491,23.42000944021178,-62.965547787550086,264.2351642830061,219.88975571963334
661,20.646227506757675,-263.37368333002956,-0.10858722629782123,-228.17109281573997,20.860687325250417,-74.28527972636708,264.22019878122586,243.75207250051332
662,20.532378469381058,-263.2096888152824,-0.7726508492846457,-250.6824634766042,17.969973735063167,-86.12475722830098,264.08536615682056,268.67150839627044
663,20.406339451840708,-262.91397122943727,-1.5183758220559098,-273.9459758143144,14.768948156108245,-98.3583830525746,263.823103993732,294.4345970339917
664,20.270699788510903,-262.4814680631668,-2.3415409519586663,-297.75675181422645,11.288102670616318,-110.84696812995523,263.42832849594896,320.8055521601576
665,20.128712057008453,-261.9099853572593,-3.235901896104035,-321.8945941853128,7.567638521433804,-123.44025224668918,262.8987551079625,347.5306402948623
666,19.984267570379036,-261.2004587355981,-4.193136948452119,-346.1283524021149,3.6575413409954147,-135.97988037882297,262.235156083038,374.34324301552857
667,19.84184132428182,-260.35713619342266,-5.2028470951689325,-370.2207435980504,-0.38259391787260666,-148.30277007909703,261.4415406953314,400.969477510444
668,19.70640527283461,-259.3876695357746,-6.252618290355287,-393.93348382884756,-4.484012332748958,-160.2447857309944,260.52524520983434,427.1342120358511
669,19.583310191268744,-258.3031031715453,-7.328152779304921,-417.0325640842459,-8.569539205751164,-171.64461799337948,259.49692156481177,452.5672867964303
670,19.47813797385866,-257.117751421596,-8.413474384938112,-439.2934924579707,-12.55461798057572,-182.3477523299036,258.3704162021061,477.00973334949265
671,19.396528016679838,-255.84895877368484,-9.491209861753886,-460.50632094114894,-16.348641425824255,-192.21040000475784,257.1625337813758,500.21977893209544
672,19.343983170155955,-254.51674171608553,-10.542944749140872,-480.48028303203563,-19.8565595259771,-201.1032590027356,255.8926847225286,521.9784269466733
673,19.325662433250255,-253.14331597151937,-11.549647901586898,-499.0478860717364,-22.980735558632766,-208.91497145330266,254.58242068095836,542.0944207291449
674,19.346169048608402,-251.75251907011045,-12.492154481511173,-516.0683281080126,-25.62301069352358,-215.55514865963477,253.25486809973165,560.4084231279644
675,19.409343906236288,-250.36914485694902,-13.351693062928634,-531.4301407072202,-27.686927544865917,-220.95684513483022,251.93407651273336,576.7962772701592
676,19.518075024689445,-249.01821303278655,-14.11043886824118,-545.0529939496508,-29.080054824856738,-225.07837945654646,250.64430459752285,591.1712520562103
677,19.674134165419776,-247.72420244260087,-14.752072241245342,-556.8886355028619,-29.71634917775192,-227.90442223791075,249.40927236499675,603.485217340871
678,19.878051198111915,-246.5102809898922,-15.262319465276367,-566.9209698684599,-29.518487223016848,-229.4462993510361,248.25141177284036,613.7287361392895
679,20.12903554937582,-245.39756739228355,-15.629452253287448,-575.1653142686164,-28.42010150612292,-229.7414901764929,247.19115011981324,621.9301018468296
680,20.424951840756048,-244.4044602528885,-15.844722942449316,-581.6668919995592,-26.367858623433268,-228.85233387547447,246.2462606069558,628.1533845078379
681,20.762353675568445,-243.5460678396332,-15.902714677631343,-586.4986410164599,-23.32332558140128,-226.86398898291486,245.43131221566787,632.495579197602
682,21.136575717921474,-242.8337672689984,-15.801589415655299,-589.7584248813445,-19.26457996536979,-223.88172061226368,244.7572463013745,635.0829702626598
683,21.541880214928838,-242.27491446496555,-15.543221089734148,-591.565736257126,-14.187528826784025,-220.02761340298878,244.23110003730213,636.0668376324761
684,21.97165050657791,-241.87271680758633,-15.133206593882491,-592.0579822600452,-8.106908691389721,-215.43682606669304,243.85588759401003,635.6186372955252
685,22.418621240987775,-241.62626972944346,-14.580753285167086,-591.3864391866656,-1.0569438807305027,-210.25351496652536,243.63063964612388,633.9247900538263
686,22.87513311135864,-241.53074773329922,-13.898448028836157,-589.7119643037272,6.908357349662409,-204.62656019813824,243.5505914709636,631.1812138835419
687,23.333398955169802,-241.5777304262904,-13.10191867448183,-587.2005565523812,15.715288278931792,-198.70522890576382,243.60750047380887,627.5877380399166
688,23.785767995677,-241.75563614292355,-12.209403618878024,-584.0188667012148,25.270928630478917,-192.63490772831653,243.7900663100362,623.3425424178345
689,24.22497587181972,-242.0502303425955,-11.241248538089497,-580.3297694464234,35.46404306231728,-186.5530298804488,244.08442164685238,618.6367728052293
690,24.64436983432513,-242.44517370942128,-10.219351418820764,-576.2881223491588,46.16640061450712,-180.58531296717157,244.47465953426322,613.649489103322
691,25.038100842460054,-242.92257582686264,-9.166577639047912,-572.0368454647526,57.234512442863696,-174.84241167802264,244.9433644214281,608.5431058366197
692,25.401276916061157,-243.4635240572025,-8.106166058470158,-567.7034572830415,68.51177235991757,-169.4170753024206,245.4721176658769,603.4594788180789
693,25.730074701825657,-244.0485631193015,-7.061145115687522,-563.3971947347198,79.83097036546079,-164.3818837371173,246.0419542394232,598.5167764144442
694,26.021808686373056,-244.65810806886435,-6.053775243876573,-559.2068272829996,91.01713525576764,-159.78761763833856,246.6337545003428,593.8072484195583
695,26.274959733159935,-245.2727812947618,-5.1050310602993445,-555.1992494507206,101.89065041567885,-155.6622992396314,247.22856274083378,589.3959723227697
696,26.489166433638438,-245.87367218741522,-4.234134204703205,-551.4189058886881,112.27057831517617,-152.01092101359018,247.80783215726197,585.3206195003809
697,26.665183963336744,-246.44252573645863,-3.4581455362809455,-547.8880719411761,121.97812427737973,-148.81586071502727,248.35360334080033,581.5922465698658
698,26.804815738754,-246.96187289592845,-2.7916234683282353,-544.6079835188984,130.8401678899942,-146.03796399777977,248.8486297747902,578.1970828708345
699,26.910823343868945,-247.41512064740692,-2.2463532612329695,-541.5607844126596,138.69278951546008,-143.6182597969228,249.27646870388233,575.0992551147867
700,26.986820055894302,-247.78662297747394,-1.8311500131951455,-538.7122369582563,145.3847183487656,-141.48025859820729,249.62155880599684,572.2443644106506
701,27.037152900934554,-248.0617551932126,-1.5517360097131974,-536.0151222477458,150.7806267470734,-139.53276910403787,249.86930708548834,569.5638080221872
702,27.066777595424764,-248.2270128655616,-1.410691259772128,-533.4132377150113,154.76419348307792,-137.67315458877226,250.00620606019226,566.9797173125287
703,27.08113007636221,-248.27015314536337,-1.407474710099401,-530.8458820708273,157.24085731592726,-135.7909369538727,250.01999857581134,564.4103639663355
704,27.085997609311274,-248.1803905775838,-1.5385129823507928,-528.25269996591,158.14018320446988,-133.7716450766,249.89990178615722,561.7758690335748
705,27.087391660609068,-247.9486525789343,-1.7973535570278227,-525.5787417589758,157.41776758330127,-131.50079541167634,249.63689471608777,559.0040343568663
706,27.091423864712997,-247.56789234056725,-2.174879888523015,-522.7795781874499,155.05661668141732,-128.8678875622605,249.2240662708684,556.0361044571085
707,27.10418558989941,-247.03344985056205,-2.6595865415053477,-519.8262967675654,151.0679426707986,-125.77029595079208,248.65701335069735,552.8322599519207
708,27.13163085024666,-246.3434455062831,-3.2379127651423767,-516.7101978280095,145.49133610847903,-122.116940831641,247.9342723771138,549.3766421328859
709,27.179461665612212,-245.4991856999616,-3.894632865315282,-513.447004700966,138.39428930556443,-117.83162761420019,247.0577623384025,545.6817134672956
710,27.25301453177066,-244.50555607186433,-4.61330122127981,-510.08040596493447,129.87106340856965,-112.85595267562434,246.03321368575675,541.7917712151825
711,27.357146556305874,-243.3713760823745,-5.376748680980522,-506.68475838848826,120.0409112283862,-107.15168640590504,244.87055532324405,537.7854511273727
712,27.49612012512108,-242.10968826026297,-6.167625279625067,-503.36679735061864,109.04568693351945,-100.7025599552525,243.5842316461313,533.7770846977958
713,27.673485702607596,-240.73795687546092,-6.968981834586523,-500.2662264530627,97.04689132762044,-93.51540061250154,242.1934230345155,529.9168055551754
714,27.89196344513226,-239.27815374630117,-7.7648801768752795,-497.55508885352265,84.2222167262888,-85.62058113221678,240.72214627969444,526.389336926412
715,28.153325522865586,-237.75671328645328,-8.54101883196434,-495.43585839711017,70.76166843146437,-77.07176956544711,239.19921594896252,523.4114313358009
716,28.458282219895203,-236.20434450120615,-9.28535804151769,-494.13822773475164,56.86335119066869,-67.94498709519533,237.6580534348923,521.2279746371199
717,28.80637597787643,-234.6556941399432,-9.988725202125885,-493.91461220129133,42.729019717529646,-58.33700104937157,236.13633706880896,520.1068081065989
718,29.195888575523128,-233.14886225926952,-10.645379218462097,-495.0344312694376,28.559502704897547,-48.36309798755368,234.67549387062067,520.3323637266313
719,29.623767514515094,-231.72477872356322,-11.253510277352131,-497.7772727866957,14.550119112339443,-38.15429722089791,233.32004093699948,522.1982479049958
720,30.08557829140054,-230.42645627509955,-11.815650645676072,-502.42508753090976,0.8862122105308997,-27.85407827949872,232.11679175573943,525.9989463712785
721,30.575489584044092,-229.29814215731682,-12.338972671215542,-509.2536012857757,-12.26107096404752,-17.61470673475314,231.1139493234533,532.0208564789202
722,31.086298627214923,-228.38439519015873,-12.83545232303123,-518.5231673344838,-24.73863055738768,-7.5932514889863985,230.36011320391404,540.5328817033636
723,31.609504282645545,-227.7291182243027,-13.321880161715637,-530.4693133586926,-36.41477993192488,2.0526066405806485,229.90323116725867,551.7768466371726
724,32.13543532659724,-227.37457703042523,-13.819706229017003,-545.293262977232,-47.182024414721226,11.168870067323144,229.78952774780709,565.958009502114
725,32.65344085896573,-227.36043629374055,-14.354710619549179,-563.1527329706967,-56.95916582632334,19.609514195336583,230.06244224825633,583.2359629177829
726,33.15214809805578,-227.72284205432646,-14.956497196804369,-584.153321046049,-65.69266277127956,27.24065914195018,230.76160789164274,603.7162211192178
727,33.61978997023396,-228.49357813747372,-15.657813980236794,-608.3408032583732,-73.35719495500433,33.944507846263,231.92190242004736,627.4427907761782
728,34.044600775664264,-229.6993220242526,-16.49371017154634,-635.6946519803042,-79.95539999801608,39.6229332277974,233.57259862147265,654.3920104927535
729,34.415272872365705,-231.36102303632603,-17.500546524802044,-666.1230620781906,-85.51677401793593,44.20059748129106,235.73664084206717,684.4679189250711
730,34.72146108299437,-233.49342218668855,-18.714882618776574,-699.4597335270895,-90.09575297176106,47.62749046455086,238.43007004516787,717.4993725153234
731,34.95431501015749,-236.1047280624926,-20.17227140471425,-735.4626039764797,-93.76902011848128,49.88078267399994,241.6616149201229,753.2390822370312
732,35.10701339419876,-239.19645648389073,-21.90599804364255,-773.8146580157422,-96.63211492590828,50.96590234269713,245.43245978424272,791.3646774953922
733,35.17526967692638,-242.76343384608313,-23.94580624666826,-814.1268660871159,-98.79544849686168,50.91676595952993,249.73619198348052,831.4818386419072
734,35.15777444769613,-246.7939558411904,-26.316660609850864,-855.9432306083035,-100.37985792205433,49.795116626115956,254.5589229833132,873.1294717774775
735,35.05653880412878,-251.2700855157082,-29.037597195163606,-898.7478444680235,-101.51185487998623,47.68895442478126,259.87956916860463,915.7868341709176
736,34.87710334260306,-256.16806793204654,-32.12071628429788,-941.9738006965696,-102.31874096089483,44.710076548223526,265.67027116290615,958.882458115012
737,34.62858103467132,-261.4588334296239,-35.570370338181604,-985.0137335121647,-102.92377294984031,40.99078146383057,271.89692469437466,1001.8046668428497
738,34.323509014309174,-267.10855791789265,-39.38259622537988,-1027.2317210314825,-103.44156542159226,36.6798297917763,278.51979208610993,1043.9134291045648
739,33.97749442040582,-273.07924704753566,-43.54483315730504,-1067.9762392551022,-103.97391535438963,31.937793447094545,285.49416168847574,1084.5532596890248
740,33.60865280775137,-279.3293117123059,-48.03595609768982,-1106.5938258731796,-104.60622398321487,26.931961957019944,292.77102325869384,1123.0668419194708
741,33.23685376611981,-285.8141053911518,-52.82663888981104,-1142.443091380438,-105.40467474893123,21.831007868465647,300.297730608061,1158.8090253447908
742,32.88280598550201,-292.4863996680242,-57.88004286880412,-1174.9087046408738,-106.41430280816945,16.799637853813486,308.01862877637865,1191.1608382671973
743,32.56703089310062,-299.2967830031017,-63.15280677667196,-1203.414981650486,-107.65806069746243,11.993467892843261,315.87563115989576,1219.5431519341694
744,32.308787628906046,-306.19397919925314,-68.59629427133727,-1227.4387214997162,-109.13694580542168,7.554355788163049,323.8087416678208,1243.429643459941
745,32.12502028213949,-313.12509528069603,-74.1580382439294,-1246.5209637829853,-110.8312082748637,3.606400349454457,331.75652727347796,1262.3587299710243
746,32.02939931515086,-320.03582244441697,-79.78330813536151,-1260.2773864066562,-112.70260428178177,0.25277474350907503,339.6565563578851,1275.944187236003
747,32.03152223698798,-326.8706265811399,-85.41671840168443,-1268.4071177320852,-114.69760276350797,-2.426494440117716,347.4458269242839,1283.8842181922948
748,32.13632480496069,-333.5729744457557,-91.00379396580482,-1270.6997939501857,-116.75139862229976,-4.3757545502863655,355.06121490145887,1285.9687916966766
749,32.3437361282725,-340.0856457230124,-96.49241295346499,-1267.0407413195273,-118.79253737261317,-5.563976484537331,362.4399753004243,1282.0851186744883
750,32.64859258581295,-346.3511782233262,-101.83405904888606,-1257.4141958389055,-120.74791868286304,-5.984098767380806,369.5203271801704,1272.2211635060476
751,33.04080909862986,-352.3124825120321,-106.98483487071213,-1241.904489379362,-122.54792055602988,-5.651582334193494,376.2421468885493,1256.467102111164
752,33.50579284211692,-357.9136443153319,-111.90621142336089,-1220.6951387351648,-124.13137207107873,-4.602321540445711,382.54778316747644,1235.0146425293244
753,34.02507334304582,-363.10091061514777,-116.56551311232755,-1194.065785446612,-125.45010146605308,-2.8900712640475112,388.382993374985,1208.154132516008
754,34.57711315980229,-367.82383188896927,-120.93615907456078,-1162.3869629397796,-126.4728003126176,-0.5835504525463173,393.6979837061923,1176.269406107165
755,35.13825473557578,-372.03651176596,-124.99769682528012,-1126.1127221106942,-127.18797652603882,2.23662908005258,398.4485197011526,1139.8303768775568
756,35.68375232441209,-375.6988989631396,-128.73567232755536,-1085.7712277262058,-127.60581988840785,5.481080826301024,402.5970585742056,1099.3834712030975
757,36.188834456720116,-378.77804630160614,-132.14138197091518,-1041.9535385152267,-127.75887056088077,9.054708050668065,406.113844000143,1055.5401027492173
758,36.6297431512295,-381.24925853118197,-135.21154804461744,-995.300890069324,-127.70145674290166,12.85964284337684,408.97789844319783,1008.9635051683858
759,36.984700851672315,-383.09705439048236,-137.94795196546346,-946.4908958067066,-127.5079435735533,16.798014325126292,411.1778485067658,960.3543462692443
760,37.234763769132805,-384.3158778842845,-140.35705045796132,-896.2231532105669,-127.26990417425841,20.77452008056799,412.71252474372267,910.4356282911556
761,37.3645294527232,-384.9105078630215,-142.44959025885538,-845.2047807424532,-127.09238086568689,24.698785266031425,413.59128783608287,859.937424972952
762,37.36267574816057,-384.8961321732175,-144.24022743151534,-794.1364105047875,-127.08944797198085,28.48749507709434,413.8340466535466,809.5820117696735
763,37.222317241727986,-384.2980713702982,-145.74714859251685,-743.6991220811774,-127.37931612854102,32.06628073684815,413.4709490223663,760.0699098781753
764,36.94117382153217,-383.15115566625303,-146.9916839716346,-694.5427268495033,-128.0792304831658,35.37133062941091,412.54174176388943,712.0672902983681
765,36.52155431728385,-381.49877598334893,-147.99789710410082,-647.2757065879865,-129.30041085044004,38.350690478738954,411.09481162157687,666.1950780212386
766,35.97016630634626,-379.391644686419,-148.79213399024286,-602.4569872326236,-131.1432616456471,40.96521243384392,409.18593246040547,623.0199707484517
767,35.29777070054902,-376.88631329771624,-149.40251648966344,-560.5896035682721,-133.69304674352486,43.189114116655155,406.8767564363094,583.0474574029287
768,34.51870596476382,-374.0435032207075,-149.85837071051898,-522.1161995086861,-137.01618483459544,45.01011548900226,404.2330977392007,546.7168059481127
769,33.65031110263525,-370.9263114620325,-150.18959043118946,-487.4162245321304,-141.15728033438515,46.42913337535433,401.323066971559,514.3979013161197
770,32.71227850139522,-367.5983568840848,-150.42594651913532,-456.8046364893844,-146.13696775663578,47.45952977407202,398.21512195020426,486.38975943981825
771,31.725967338804338,-364.1219337898366,-150.59636381724295,-430.53190285299894,-151.95061517980915,48.12592952830243,394.97610606154484,462.92052089316195
772,30.713705820555965,-360.55623850089853,-150.72819497526092,-408.78509755234364,-158.56790390484025,48.46264398312155,391.6693473389573,444.14872826429996
773,29.698106570637073,-356.95573087763876,-150.84652468659596,-391.6899058421396,-165.93327434221916,48.51175814530371,388.35288944619816,430.1657018296967
774,28.7014147634518,-353.36868654698645,-150.9735372961673,-379.313362954072,-173.96720095415895,48.32095783999275,385.077919710154,420.9988359558927
775,27.74490393649412,-349.8359873052053,-151.12797642566943,-371.6671563818551,-182.5682319218417,47.94118894198941,381.88744989471013,416.61563681974866
