time,ax,ay,az,gx,gy,gz,accmagnitude,gccmagnitude
0,-38.978168024516734,-245.09648712357802,-15.032487241680025,47.77762717902284,13.273744575275067,-11.19189910555987,248.62936207744147,50.79364664620349
1,-38.56518527141333,-245.21649307739884,-15.171540515062391,47.8624476127151,13.234342835423725,-10.953836062344779,248.69729287904403,50.82007046019584
2,-38.166220434206316,-245.3269040022383,-15.310461824181509,47.962402318550055,13.19125335871104,-10.71115202999675,248.75770036216772,50.859857794147715
3,-37.784783355843956,-245.4261930524931,-15.447608186599407,48.07740402110142,13.14216886852633,-10.464988515437094,248.80947137011097,50.91270491566797
4,-37.42394783731671,-245.51306340364363,-15.581377238972461,48.20706051383862,13.084882187680506,-10.216546641355785,248.85166521498965,50.97804768043132
5,-37.08626085925548,-245.58649506817105,-15.71024496062346,48.35065403766625,13.017364515000324,-9.96708339342663,248.883550019838,51.05505679867773
6,-36.7736726983657,-245.6457828460482,-15.832799917602427,48.50712717300279,12.937839949428675,-9.717910221503185,248.90463278727373,51.14263874779025
7,-36.487491500705026,-245.6905632114604,-15.947773007309316,48.675076516298006,12.844853948719194,-9.47039381280502,248.9146814144401,51.2394430239308
8,-36.22836380522907,-245.72082866756202,-16.054061913971065,48.85275528745118,12.73733370399144,-9.225958425049566,248.91373734330955,51.34387630961039
9,-35.99628041293883,-245.73692903343414,-16.150749735161426,49.03808584822315,12.614638772903943,-8.98608879708124,248.90211821051292,51.45412400513499
10,-35.790605485697185,-245.7395599065616,-16.237117576213066,49.22868290754134,12.476600716501256,-8.752332448169895,248.88041046651986,51.5681794452583
11,-35.6101259939019,-245.72973904002296,-16.312651301739542,49.421887943382345,12.323550912221219,-8.52630018566503,248.84945235368417,51.683880998638664
12,-35.453118328516894,-245.7087717431187,-16.377042968483853,49.614815099744504,12.15633614104368,-8.309663808457076,248.81030797757802,51.79895712521705
13,-35.31742879765429,-245.6782068156385,-16.430187649212257,49.80440854776206,11.976321922875881,-8.104150210049468,248.76423359803084,51.91107933760439
14,-35.20056477530008,-245.63978492460458,-16.472176397189045,49.98751102154891,11.785383847721807,-7.911531268176464,248.71263766563257,52.01792283809355
15,-35.09979338434757,-245.59538158845825,-16.503286050420964,50.160942889175324,11.585887283752669,-7.73360904163192,248.65703639197605,52.11723431181509
16,-35.012244639636265,-245.54694697927755,-16.523966442887374,50.32159063415201,11.38065583192356,-7.572195906652421,248.59900668150425,52.20690589376534
17,-34.935015879464,-245.49644465702298,-16.534825365819188,50.46650298655268,11.172928766977847,-7.429089384470291,248.54013812621292,52.28505369037476
18,-34.865274151468995,-245.44579125816898,-16.536611393787968,50.59299216967679,10.966307501691874,-7.306041570445624,248.48198563323083,52.35009845563419
19,-34.800353171782945,-245.39679916198085,-16.53019463416045,50.69873684216267,10.764690899910926,-7.204723337139376,248.42602424350406,52.40084514711124
20,-34.737841695985786,-245.35112415845572,-16.516545672434678,50.781882384754134,10.57219913757568,-7.126683907350082,248.3736077443613,52.43655721474881
21,-34.675660596240064,-245.310219960843,-16.496713347167663,50.841133355574975,10.39308586748632,-7.073306940715302,248.32593258743532,52.45702076356468
22,-34.61212644859464,-245.27530100010836,-16.471802210043254,50.875832421811644,10.231638750178542,-7.045764816338663,248.28400830798353,52.46259336744197
23,-34.54599985461291,-245.2473144435481,-16.442950417877725,50.88602004899771,10.092068998933902,-7.0449732010957735,248.24863520113658,52.45423245460278
24,-34.47651702908967,-245.22692195131583,-16.41130846680249,50.872469791197034,9.978391442241877,-7.0715482056291075,248.22038960290365,52.433498923401224
25,-34.40340343927748,-245.2144913962484,-16.378018899409337,50.836695183590315,9.894297681291919,-7.125768407440163,248.19961684916586,52.402532974569944
26,-34.3268686341687,-245.21009859983673,-16.344197062988762,50.78092590218521,9.843026130136321,-7.207543748872979,248.18643185416315,52.36400095772598
27,-34.24758205300525,-245.21353896316828,-16.31091308577551,50.708052836796966,9.827233941694065,-7.316392869614342,248.18072716823195,52.321014126447714
28,-34.1666305852513,-245.22434854328813,-16.279175276574932,50.62154378889374,9.848876831008123,-7.4514299544468505,248.182188184099,52.277022323605664
29,-34.08545974281035,-245.24183359857793,-16.24991507273142,50.52533342944794,9.909103358702307,-7.611361776324769,248.19031478075246,52.23568752148297
30,-34.00580119573763,-245.2651070515921,-16.223973549174712,50.42369272744807,10.00817017748627,-7.794495290993917,248.2044482333368,52.20074359326308
31,-33.929589983501536,-245.29312990046537,-16.202089452733908,50.3210841256402,10.145384081800776,-7.998755808701104,248.22380186678546,52.175849534784305
32,-33.85887503526556,-245.32475543614234,-16.18488876845452,50.22200925719422,10.319075552472647,-8.221715350669799,248.2474937891286,52.16444356688818
33,-33.79572687657594,-245.35877418688804,-16.1728759662225,50.13085607188929,10.526606990486194,-8.46063030285999,248.27458012663465,52.16960526020388
34,-33.742146627424994,-245.39395778961733,-16.166427318322352,50.05175202666366,10.76441709897545,-8.71248701181662,248.3040874833162,52.1939322167151
35,-33.69998054328312,-245.42910039241062,-16.16578696274437,49.988429583112875,11.028100993735917,-8.974053631176645,248.33504376381492,52.23943703000305
36,-33.67084431860145,-245.46305657122818,-16.1710665803916,49.94410965570297,11.312523702839277,-9.241936353990651,248.3665068597517,52.30746925839248
37,-33.656061004109404,-245.49477497176133,-16.1822494988943,49.92140785590113,11.611962897449548,-9.512638133319165,248.3975908601146,52.398665987808364
38,-33.6566153752665,-245.52332693909833,-16.19919960730445,49.92226737619308,11.920275151573739,-9.782618080600805,248.42748935193484,52.51293325946312
39,-33.67312577660031,-245.54792937351507,-16.22167468592639,49.94792114240938,12.231078894472516,-10.048349958011235,248.45549512112865,52.64945921798172
40,-33.70583237603178,-245.56796114051366,-16.249342902888515,49.99888440538025,12.53794652942282,-10.306378586310124,248.4810153996897,52.806758300582885
41,-33.75459934756915,-245.582972685772,-16.281800687228245,50.07497726669315,12.834597892390885,-10.55337354302478,248.50358196134312,52.982744156842614
42,-33.81892824149088,-245.59268895904236,-16.318590117022147,50.17537486650959,13.115087251810383,-10.786180089153513,248.5228557965194,53.174827353049174
43,-33.89798037895427,-245.59700610706128,-16.359214253892688,50.29868129363579,13.373976394841641,-11.001867665253194,248.53862653653275,53.38003242675673
44,-33.990606903121886,-245.5959825498911,-16.403149371776582,50.443021889929625,13.606487037080194,-11.197776424909085,248.55080707052508,53.59512767951524
45,-34.09538571334897,-245.58982511413234,-16.449853700127793,50.60614766092657,13.808626853074378,-11.37156209688137,248.55942396026958,53.81676037564501
46,-34.21066479984104,-245.57887099894612,-16.498773048652684,50.7855450796127,13.977284826250466,-11.521239050818814,248.56460442679415,54.04158986185408
47,-34.334611551633834,-245.56356647522836,-16.54934433889379,50.97854472951426,14.110293272623649,-11.645220924144208,248.5665608366107,54.266411584392934
48,-34.46526742575507,-245.54444325173395,-16.60099841988543,51.182422948317566,14.206455661037332,-11.742357699655127,248.56557362977995,54.488266014802065
49,-34.60060681039604,-245.52209340842234,-16.65316341744986,51.39449177493717,14.265541057809624,-11.811967795173741,248.5619735066861,54.70452794283334
50,-34.73859803453317,-245.4971438604621,-16.705269299868455,51.61217385181826,14.28824751151637,-11.853863548627317,248.55612359898993,54.9129732051157
51,-34.877263685491876,-245.4702315072332,-16.756753670145795,51.83306026734974,14.27613787424522,-11.868368426967477,248.54840239693294,55.111821451876416
52,-35.01473713644169,-245.4419803228805,-16.807068391808517,52.0549505143015,14.231552391022612,-11.856324352034418,248.53918825065264,55.29975488599938
53,-35.14931249720437,-245.41298144775246,-16.855686610736512,52.27587477280901,14.157502870791918,-11.819087753107205,248.52884610517796,55.475914032546875
54,-35.27948581219893,-245.3837768929527,-16.902109898327257,52.49409962492945,14.05755340988202,-11.758513343535961,248.51771677242604,55.639872550738446
55,-35.403986013346746,-245.3548470153708,-16.94587544966629,52.708119070903,13.93569253963918,-11.676925143497172,248.50610869223385,55.79159389514936
56,-35.52179482747119,-245.3266016512766,-16.986563420246846,52.91663331359695,13.796201378775097,-11.577074861406958,248.49429196641327,55.93137324097454
57,-35.63215551167288,-245.2993747161019,-17.023804531150088,53.11851818833233,13.643521931286967,-11.462088329750722,248.48249446218068,56.059768486539824
58,-35.734570865491165,-245.27342204372377,-17.0572880251086,53.31278836046083,13.482129149534618,-11.335401206480883,248.4708998214774,56.17752435555178
59,-35.828791364992725,-245.24892212521482,-17.08676989785296,53.49855752509056,13.316409891864579,-11.200685562827847,248.45964714309233,56.28549368951549
60,-35.914794513121535,-245.22597923796138,-17.11208104111802,53.67499882426276,13.150551525228149,-11.061769277329528,248.44883195049593,56.38455996639715
61,-35.99275672168973,-245.20462836926941,-17.133134634689625,53.841308518193564,12.988442626652057,-10.92255035411517,248.4385079808807,56.47556487401769
62,-36.063019311253655,-245.18484143077637,-17.149932004695465,53.996675592613755,12.833587926413665,-10.786908383828862,248.42868944926835,56.559244369610475
63,-36.126050509369435,-245.16653448501327,-17.162566263734362,54.14025947902267,12.689039239929198,-10.658615387204716,248.4193537090153,56.6361760829472
64,-36.18240552768556,-245.14957592587362,-17.171223262433422,54.27117746384208,12.557343638655322,-10.541248278753953,248.41044448772544,56.70674022983526
65,-36.23268677597678,-245.13379566987558,-17.176179649902796,54.388502728705724,12.44050951882071,-10.438105193796392,248.4018760045912,56.77109546423262
66,-36.277506032351646,-245.11899540819675,-17.177798162420725,54.49127335309962,12.33999055711424,-10.352127893645022,248.3935382568021,56.82917035987288
67,-36.31745008777123,-245.10495984880217,-17.176520551692008,54.57851204733799,12.25668684385239,-10.285832335145248,248.38530362362778,56.88067049774057
68,-36.35305112964396,-245.09146866075213,-17.17285864954833,54.64925584376874,12.190961834412896,-10.241249252079871,248.37703469637472,56.92510043438
69,-36.38476287732347,-245.0783085965372,-17.16738389778879,54.702594401938946,12.142673227055877,-10.219876293466173,248.36859296516928,56.961799107657264
70,-36.41294315736157,-245.06528512454665,-17.16071546758867,54.73771494496026,12.111215502288337,-10.2226429456434,248.3598477929256,56.98998648636059
71,-36.43784323965216,-245.05223290964875,-17.153507120009937,54.75395117036675,12.095571671757954,-10.24988914023312,248.35068506376922,57.00881852536595
72,-36.45960393859298,-245.039024627784,-17.14643321114444,54.750832875633805,12.094371785684144,-10.301358089962784,248.34101501500808,57.01744684742492
73,-36.4782582440859,-245.0255778564532,-17.14017444331858,54.72813266288152,12.10595588796696,-10.376203480137857,248.33077899958934,57.01507917299068
74,-36.493740032503,-245.01186007484412,-17.13540390048688,54.68590607986825,12.128439276665944,-10.473010709038798,248.31995518410935,57.00103647767411
75,-36.50589819097557,-244.99789201438068,-17.13277369791669,54.62452195461453,12.159778015653602,-10.58983147882723,248.30856334905042,56.97480319735411
76,-36.51451532667133,-244.9837496270708,-17.13290250606482,54.54468041218877,12.1978326617787,-10.724230729335906,248.29666895716966,56.936067458088026
77,-36.51933017588963,-244.96956479701498,-17.136364371538036,54.44741700649733,12.240428270638477,-10.873344679152892,248.2843865201362,56.88474919935517
78,-36.52006281817835,-244.95552470557698,-17.14367946231452,54.33409244537184,12.28540906031028,-11.033948552706478,248.2718820958557,56.82101509923674
79,-36.51644172619963,-244.9418695716971,-17.15530736780045,54.20636840551759,12.330686629584784,-11.202532375625767,248.25937455279225,56.74528026315093
80,-36.508231519074315,-244.92888840223168,-17.171643312187093,54.066170784621775,12.374281210389096,-11.375383004085645,248.2471351092288,56.658197538830436
81,-36.49526011633752,-244.91691245748262,-17.19301716284584,53.915642326002434,12.414355953417454,-11.548670358834682,248.23548466541635,56.560635957128184
82,-36.47744386890636,-244.906306349449,-17.21969456077561,53.757086863414564,12.449244638757602,-11.718535687836631,248.22478859795334,56.45365014878487
83,-36.454809180110836,-244.8974569474766,-17.251879029176852,53.59290752539028,12.47747345611371,-11.881179585887885,248.2154488952462,56.33844270285206
84,-36.42750918150638,-244.89076047932323,-17.289713686282532,53.425541204179716,12.497777612662844,-12.032947493380812,248.20789371322206,56.216321413000486
85,-36.39583425109342,-244.88660838333016,-17.333281256630386,53.25739153937137,12.509113509264058,-12.170410539760159,248.20256463256172,56.088653320004504
86,-36.36021547360204,-244.885372633028,-17.382601363970952,53.09076266571461,12.510667101627536,-12.29043990320899,248.19990212807602,55.956817483732266
87,-36.32122045564335,-244.88739140372533,-17.437624489473492,52.927796032121286,12.501858856655469,-12.39027328521262,248.2003299815634,55.82215850839962
88,-36.27954133782447,-244.89295597169962,-17.49822246074463,52.77041265221124,12.482345438692898,-12.467572575831607,248.20423948889953,55.68594293056039
89,-36.23597553132559,-244.90229955157093,-17.56417591446769,52.62026311546522,12.452017942719108,-12.520472215014498,248.2119742743367,55.549320566975396
90,-36.191400503664234,-244.91558847793542,-17.635159784243918,52.47868750236791,12.410996204344627,-12.54761804932933,248.22381639306275,55.413292737313135
91,-36.1467445233636,-244.93291589289296,-17.710728339972043,52.34668695552213,12.35961856670341,-12.548196625991036,248.23997428234338,55.27868889537996
92,-36.1029554777055,-244.95429796634136,-17.790301508361278,52.22490805811644,12.298426548012355,-12.52195490212132,248.26057303073918,55.146152647089984
93,-36.06096975829568,-244.9796725993832,-17.87315417369704,52.11364043820455,12.228144122925231,-12.46921032259755,248.28564733586575,55.01613748576266
94,-36.02168288832898,-245.0089005046466,-17.958410067072656,52.01282727401075,12.14965173913288,-12.390851170623598,248.31513740920786,54.88891194398484
95,-35.98592315068356,-245.04176851043096,-18.04504175963386,51.92208770086137,12.063955671132133,-12.288327063470394,248.34888797364266,54.76457331489215
96,-35.95442907442274,-245.07799488508158,-18.131877998459423,51.84074952094052,11.97215381781665,-12.163629465995339,248.38665037569928,54.643068632413694
97,-35.927831327756635,-245.11723640767607,-18.21761900384983,51.76789009052161,11.875399535800245,-12.01926208775808,248.42808768231654,54.52422119822029
98,-35.906639333774976,-245.15909679305622,-18.30085953477071,51.702382844497734,11.774865498563644,-11.85820100022509,248.47278242863888,54.407760620596505
99,-35.89123267728236,-245.20313589150373,-18.38011882921316,51.64294666422715,11.671709774907916,-11.683844348553126,248.52024641326352,54.293354131193084
100,-35.881857058180884,-245.24887888063225,-18.453876086919845,51.588195216136434,11.567046225106154,-11.499951759260412,248.56993165776012,54.180636890177354
101,-35.87862426292415,-245.2958245821706,-18.52060996460031,51.536683471763006,11.461920897877826,-11.310573959138225,248.62124150285706,54.06923906369718
102,-35.881515524642836,-245.34345215217493,-18.578840540516513,51.48694885342706,11.357295470025226,-11.119973591271739,248.67354090579408,53.95880764045476
103,-35.89038776369743,-245.39122564867154,-18.62717230407995,51.43754482242123,11.254038089729587,-10.932538634039663,248.72616527295662,53.849021249352994
104,-35.904982428091294,-245.43859626477914,-18.664336868288245,51.38706521614664,11.152921458986865,-10.752690194572459,248.77842747816922,53.73959666341984
105,-35.92493683350681,-245.48500232901023,-18.68923427046561,51.33415823254534,11.054627688381437,-10.584786773131947,248.82962305757465,53.63028622973453
106,-35.94979793483199,-245.52986760430036,-18.700971912727333,51.2775296655832,10.959759275163826,-10.433027344319939,248.8790340075579,53.52086613528205
107,-35.97903831622012,-245.57259893534453,-18.698900310289083,51.21593582458799,10.868855357522685,-10.301355759006553,248.92593210482002,53.411116185420376
108,-36.012073921728785,-245.61258470295536,-18.682644714255815,51.14816749683808,10.78241214939475,-10.193369090486856,248.96958302002915,53.300792614880436
109,-36.048282768878714,-245.6491956651992,-18.652131289747082,51.07302726275543,10.70090619248639,-10.112232664927204,249.00925254130476,53.18959631420637
110,-36.08702367071738,-245.68178955149793,-18.6076059739324,50.98930330793806,10.624818797669505,-10.060604561843533,249.04421593446847,53.07713959669749
111,-36.127653886583104,-245.70972023440802,-18.549643665610432,50.89574339333992,10.554659817466227,-10.040572236163651,249.07377087685396,52.96291504351174
112,-36.16954468078581,-245.73235149873125,-18.479145343303745,50.79103266250639,10.490988769815397,-10.053603571466478,249.09725361032557,52.84626988381435
113,-36.21209402745945,-245.74907460753028,-18.397321404467387,50.67377844594397,10.434431417473395,-10.100514195289117,249.11405724841222,52.726388792309955
114,-36.2547361240922,-245.75932836956136,-18.305660997448097,50.54250430316239,10.38569026436878,-10.181452340523334,249.12365087732655,52.60228707847886
115,-36.29694782221434,-245.7626203635712,-18.205888859761355,50.39565444129882,10.345548047449414,-10.295901904324811,249.1255982626319,52.47281520688965
116,-36.33825236842171,-245.75854820014223,-18.099912437968445,50.231608565508274,10.314864067172136,-10.442703584203574,249.11957534837387,52.33667458325486
117,-36.3782209352772,-245.74681997684496,-17.989762517453855,50.0487063097855,10.294563944229559,-10.620093091691887,249.10538605774553,52.192443684376364
118,-36.4164724509134,-245.7272732758402,-17.87753043263209,49.84527981271131,10.28562397894217,-10.825754600642377,249.0829760845909,52.038613032621384
119,-36.45267229092666,-245.69989209081908,-17.765304492242905,49.6196928305804,10.289051666710925,-11.056886936673473,249.05244437331726,51.87362731780143
120,-36.486530350148946,-245.66482095647876,-17.655107770858336,49.370384948951255,10.305864081494006,-11.310279627012406,249.01405182580416,51.695933097003476
121,-36.51779871840627,-245.62237540919534,-17.548839048509258,49.09591973152426,10.337065766678794,-11.582395775533962,248.9682265565968,51.50403073112203
122,-36.546268729418884,-245.5730478734203,-17.448218527788626,48.795035806092535,10.383627445540105,-11.869458726505977,248.91556490126152,51.296529313489216
123,-36.5717668292318,-245.51750819164107,-17.35474000426235,48.46669984965843,10.446466312369674,-12.1675395641107,248.8568274557983,51.07220322833015
124,-36.594148756350286,-245.45659825224308,-17.269631266554104,48.110160236994574,10.526428033951213,-12.472642634343051,248.79292966843298,50.83004870422158
125,-36.61329190867527,-245.3913204366359,-17.19382445400548,47.7249998257692,10.624270088825563,-12.780786482090061,248.7249268188467,50.56933840761551
126,-36.629086253511254,-245.3228198334891,-17.127937751643625,47.311186037066605,10.740645831330912,-13.088077901765248,248.6539934883846,50.28967185492667
127,-36.64142450845713,-245.25236035320023,-17.072269164969253,46.869116148322185,10.87608866936003,-13.390777212456513,248.5813978168291,49.99101929775372
128,-36.65019252517843,-245.18129508798646,-17.026802379110013,46.3996556554755,11.030995909137324,-13.685353336923804,248.5084710275602,49.67375682927852
129,-36.655260853473365,-245.11103156713375,-16.991224106167472,45.90416774467987,11.205612103587862,-13.968527722012725,248.43657296473046,49.338690804755245
130,-36.656478349473566,-245.0429929614867,-16.964951985555576,45.38453230031336,11.400012089009852,-14.237306577565915,248.3670547414056,48.98707021410076
131,-36.653668454421755,-244.97857672332648,-16.947171962175616,44.843153331540414,11.614084193190878,-14.489001378997022,248.30121997668047,48.62058625264201
132,-36.64662851215264,-244.9191124721613,-16.936883916600298,44.28295407544754,11.847514254180473,-14.721238123938177,248.24028637021632,48.2413588618954
133,-36.63513230977356,-244.8658210576602,-16.932953957717075,43.70735924770625,12.099771111475773,-14.931956484993563,248.1853494292709,47.85191039141578
134,-36.61893590972593,-244.81977665453124,-16.93417120072918,43.12026397953515,12.370094183658962,-15.119400755108414,248.13735003001779,47.45512679653513
135,-36.597786689430464,-244.78187352811167,-16.9393062479077,42.525989001698115,12.657483665364992,-15.282105244154964,248.09704721716437,47.054207003397245
136,-36.57143523625633,-244.75279881527024,-16.94716821347726,41.92922173409655,12.960693759058783,-15.418877356195757,248.06499728903373,46.65260128680463
137,-36.53964942263779,-244.73301234804583,-16.956657094052936,41.33494321890614,13.278229190567217,-15.528781758440637,248.04153985018556,46.25393974855522
138,-36.50222978572119,-244.72273422668633,-16.966808537511067,40.748341388658794,13.608345054059606,-15.611128755211618,248.02679118279275,45.861952317345406
139,-36.45902535108075,-244.72194050668608,-16.97682853392982,40.17471203343384,13.949049856512888,-15.66546923603853,248.02064498327175,45.48038218792127
140,-36.409949157940076,-244.7303669845718,-16.98611624268928,39.61934994033062,14.298111570495502,-15.691597502280516,248.02278020033805,45.112895261985464
141,-36.35499279969105,-244.7475206579108,-16.994274129355908,39.087433795964536,14.653066591793358,-15.689562083947925,248.03267538355945,44.76298880178551
142,-36.29423928600074,-244.77269804728547,-17.001105778955154,38.583909292157784,15.01123168912177,-15.659683534906945,248.0496286551871,44.43390295010552
143,-36.227873584291395,-244.80500928661826,-17.006602969630475,38.11337525858111,15.369719245009621,-15.602577246517962,248.07278223778573,44.128538837922946
144,-36.15619035667852,-244.84340676873447,-17.01092454862395,37.6799775143201,15.725456262384183,-15.51917854869043,248.10115044558694,43.849386640936984
145,-36.07959857270895,-244.88671716631083,-17.01437015264097,37.28731456569893,16.075207737985686,-15.410766776481484,248.13365014068123,43.598466243737356
146,-35.99862271960187,-244.93367577255316,-17.0173517926459,36.938358430061825,16.41560507300732,-15.278984653696792,248.1691327835256,43.377282295928815
147,-35.91390025812342,-244.9829622051089,-17.020365848596402,36.63539288717812,16.743180169383372,-15.125849403000446,248.20641726379517,43.186794570775746
148,-35.82617496083445,-245.03323647527128,-17.02396727399293,36.3799704672363,17.05440573478526,-14.953752488740621,248.24432260660532,43.02740378531288
149,-35.736285985426385,-245.08317426420177,-17.028746974726307,36.17288856494326,17.345742125318946,-14.765445750609835,248.2816994680515,42.8989524686337
150,-35.64515290869069,-245.13150015573527,-17.035312529746406,36.01418432900059,17.613690808955518,-14.564012685682583,248.31745924582364,42.80074008417882
151,-35.55375722603236,-245.17701772856768,-17.044271817062175,35.90314753207521,17.854854194094237,-14.35282456454591,248.35059978378442,42.73155141563813
152,-35.46312088773946,-245.21863579857208,-17.056218842998245,35.838350512200336,18.066001092474334,-14.1354818458019,248.38022702451255,42.68969719261755
153,-35.374282432657594,-245.25539055402461,-17.07172110675688,35.81769438020387,18.244136485811783,-13.9157420779449,248.40557240889555,42.6730660068142
154,-35.288271354843346,-245.28646369161362,-17.091307946181892,35.83847080880057,18.386573599857886,-13.69743626225976,248.426006196936,42.67918664896368
155,-35.20608147718966,-245.31119691672654,-17.115459348748985,35.89743868221852,18.49100563137833,-13.484376464688165,248.44104715412448,42.70529995198826
156,-35.12864419724606,-245.32910334704744,-17.144594755524018,35.99091461902621,18.555573916480608,-13.280258157754174,248.4503692327368,42.748438981335255
157,-35.05680250351979,-245.33987640126804,-17.179061617797238,36.11487592618337,18.578929007263596,-13.088561206675074,248.45380593672786,42.805516016152154
158,-34.99128670062393,-245.3433965578851,-17.21912389362812,36.265073989818355,18.560281182231407,-12.912453537605112,248.45135289635135,42.8734143461442
159,-34.93269283467763,-245.33973594524664,-17.264951079502335,36.437155524565895,18.499437418501245,-12.754701368072718,248.44316879147337,42.94908257526189
160,-34.88146484663876,-245.32916024794258,-17.316608571929155,36.62678853447982,18.396822713812096,-12.61758950596649,248.42957430542396,43.029628903417326
161,-34.837881506053314,-245.3121270596604,-17.374050171082825,36.82978934822927,18.253484662661204,-12.502854729425843,248.41104843885864,43.11241273963855
162,-34.80204912688658,-245.28927964764304,-17.437113503911704,37.0422467358816,18.071081165739592,-12.411634743006562,248.38822133556974,43.19513096291487
163,-34.7739007732552,-245.26143514066308,-17.50551910835835,37.260638906422585,17.851851969877742,-12.34443469410772,248.36186277229592,43.27589615482106
164,-34.753202104159364,-245.2295664164388,-17.57887385038773,37.481939135258855,17.598575366826783,-12.3011126776071,248.33286564174452,43.35330416747936
165,-34.73956343306676,-245.19477740534492,-17.65667917745406,37.70370593744065,17.31451185322485,-12.28088500800798,248.30222410230715,43.42648851797862
166,-34.73245722748624,-245.15827209278268,-17.738344323080295,37.92415414334603,17.003336916445072,-12.282351310604541,248.27100655405698,43.495159395070075
167,-34.731240102914505,-245.1213181694685,-17.823203866790813,38.142203924581395,16.669065366534475,-12.303538717460233,248.24032419478945,43.559625522697075
168,-34.735178198312866,-245.0852069750564,-17.91053818622458,38.357505657476125,16.31596974426503,-12.34196365485238,248.21129652486715,43.6207976495861
169,-34.74347462452617,-245.05121190680978,-17.999594744953683,38.570439415463944,15.948495281436815,-12.394708858962964,248.18501562826768,43.68017294335738
170,-34.7552975740124,-245.0205476086879,-18.089608146537163,38.78208883978184,15.571173723300415,-12.458512409848296,248.16251118528166,43.73980008808754
171,-34.769807760452615,-244.9943319776253,-18.1798173572691,38.994190161213574,15.188538132388565,-12.529864889181038,248.14471793939637,43.80222549973096
172,-34.78618409331607,-244.97355247720188,-18.269479151332973,39.20905818919586,14.805040626407113,-12.605110419635066,248.1324468773517,43.870421808688235
173,-34.80364678649103,-244.9590376616866,-18.35787747802242,39.42949205639213,14.42497483607969,-12.68054740729148,248.12636088604233,43.94770054618259
174,-34.821477335525465,-244.9514343668898,-18.44432908802638,39.65866432905384,14.052404654162867,-12.752525220133089,248.12695528534027,44.03761171261735
175,-34.839034901712694,-244.95119079033785,-18.52818637412082,39.89999773483671,13.691100577449863,-12.81753365147511,248.13454346187012,44.143833534319654
176,-34.855768665473406,-244.95854563939972,-18.60883879717149,40.157034232243895,13.34448465075429,-12.872282704604908,248.14924781751373,44.270056214762
177,-34.871225816232204,-244.973523584481,-18.685714225488272,40.43330146642841,13.015584725009566,-12.913770929120226,248.1709963166468,44.41986386086414
178,-34.88505511940813,-244.99593727731724,-18.758281013530837,40.73218177421607,12.70699843654783,-12.939341229940078,248.19952494451147,44.59661896462998
179,-34.897006329969955,-245.02539609367685,-18.826051021299655,41.05678869305967,12.420867007522345,-12.946723747485365,248.23438629530816,44.80335373164955
180,-34.90692592989626,-245.06132156355454,-18.88858333285742,41.409855325001075,12.158858686775512,-12.934066036104788,248.27496431418191,45.04267210364252
181,-34.91474973808018,-245.10296917359437,-18.945488180080396,41.79363801227184,11.922161419153603,-12.899951316999793,248.3204949321683,45.31666561094671
182,-34.920492996999116,-245.14945579706614,-18.996430429231427,42.20983780679392,11.711484152148934,-12.84340605753352,248.370091901281,45.626845403059704
183,-34.924238631547006,-245.19979145897014,-19.041131967143958,42.65954130065728,11.527066063829285,-12.763898531703347,248.42277660205121,45.974092065956256
184,-34.92612440980376,-245.25291371972367,-19.079372459158073,43.14318153723971,11.368692936989547,-12.661330296699598,248.47751018779027,46.358624138423124
185,-34.92632962711258,-245.30772288936484,-19.110988178319996,43.66051890660521,11.235719912277043,-12.53602261218945,248.53322635851674,46.77998553256535
186,-34.925061760947564,-245.3631165223028,-19.135868871040074,44.21064112777045,11.127099897465039,-12.388699691969526,248.58886328757987,47.23705131270098
187,-34.922543479095566,-245.4180219490063,-19.153952924843274,44.791980642588484,11.04141694308517,-12.220470274783965,248.6433935416619,47.72805048214025
188,-34.91900047543286,-245.47142580093754,-19.165221388466303,45.402347036232534,10.976923894851316,-12.032808308557664,248.69585106971394,48.25060360416815
189,-34.914650722730244,-245.5223995660952,-19.16969157899213,46.03897154079652,10.931583631035831,-11.827532642057372,248.74535444938934,48.801772350007205
190,-34.909695742965305,-245.57012025545305,-19.16741106657555,46.69856035345447,10.903113233615853,-11.606784743415137,248.79112562901068,49.37811756738126
191,-34.90431440155528,-245.6138853876968,-19.158452768922967,47.37735345775604,10.889030533264743,-11.373002896067822,248.83250351078905,49.975762312523656
192,-34.89865957876565,-245.65312181306467,-19.14291175292502,48.07118590647185,10.886702581639787,-11.128891210919972,248.86895199768728,50.590456543498036
193,-34.892857875798754,-245.6873883785314,-19.12090418082461,48.77554913698396,10.893395704821781,-10.877382085093897,248.90006256064194,51.21764084070452
194,-34.887012288206414,-245.71637295475125,-19.092568639377944,49.48565083559397,10.906326842003683,-10.621591264527172,248.92555184647162,51.85250754347327
195,-34.88120756373986,-245.73988477495342,-19.058069805096558,50.196473033706646,10.922715837329873,-10.364765286065579,248.94525521817124,52.49005892183761
196,-34.87551778804294,-245.75784330101104,-19.017604080831372,50.90282929356811,10.939838215460155,-10.110221710376404,248.95911733147943,53.12516321770389
197,-34.870015587696585,-245.77026487660595,-18.971406597079458,51.59942277590098,10.955077750198996,-9.861283190614017,248.967180854661,53.75261035367683
198,-34.864782167787666,-245.7772482713899,-18.919758831384453,52.28090746971542,10.965977869251942,-9.621207071062644,248.96957424890354,54.36716963642792
199,-34.85991726926759,-245.7789600095656,-18.862996060429207,52.94195479371374,10.970290668208124,-9.393112859133621,248.96649929844065,54.96365177334521
200,-34.85554816642411,-245.775620260625,-18.801513962386565,53.5773271610741,10.966022072624336,-9.179910437134746,248.95821898116137,55.53697696962325
201,-34.85183703409949,-245.7674900290592,-18.735773883899693,54.18195907852177,10.95147154076781,-8.984232099916628,248.94504627833555,56.08224989087998
202,-34.84898623436258,-245.75486026411946,-18.666306403586418,54.75104516030031,10.92526469423443,-8.80837133070647,248.92733445029975,56.59484108518291
203,-34.847241132293064,-245.73804324705878,-18.593712783153922,55.28013331080488,10.886377416402805,-8.6542307101867,248.9054690506124,57.07047330055725
204,-34.84688993839015,-245.7173662786709,-18.51866383229405,55.765220428919704,10.834150256445595,-8.523280645148452,248.8798615997624,57.505310194235825
205,-34.84825995398951,-245.69316739067057,-18.441895787991033,56.20284739758905,10.768292412846925,-8.416529886243895,248.85094453230235,57.89604432000919
206,-34.85170966727099,-245.6657926010831,-18.36420301231593,56.59018985857959,10.688875131667823,-8.334508203153115,248.81916685555038,58.23998103090167
207,-34.85761648412643,-245.6355941853097,-18.28642750505687,56.92514127901232,10.596314970736156,-8.277261112453816,248.78498997102722,58.5351149795314
208,-34.86636038412069,-245.6029295865141,-18.20944532858872,57.20638498579254,10.491347934236607,-8.244356167688357,248.74888333657887,58.78019610344858
209,-34.87830430150823,-245.56816087652592,-18.134150126440378,57.433452064664515,10.374995883640002,-8.234900018038413,248.7113200059711,58.974782219285714
210,-34.89377243358229,-245.53165492172755,-18.061434136007506,57.606762235877696,10.2485268590267,-8.24756524341539,248.67277239235807,59.119275561535794
211,-34.91302794022455,-245.49378446125957,-17.992167508677305,57.727645056648505,10.11341102212108,-8.280625860194966,248.6337087186273,59.21494081938013
212,-34.936251608025906,-245.4549301741602,-17.927177203898523,57.798339134645424,9.971273900128656,-8.33200030863836,248.594590535509,59.26390252089107
213,-34.96352302034693,-245.4154835942069,-17.867226943039636,57.82196752349266,9.823848516108265,-8.399300645084246,248.55587148407648,59.26912004879799
214,-34.99480564991882,-245.3758504857849,-17.81299953724769,57.8024881395276,9.672927873236727,-8.479886564020951,248.51799720693162,59.23433918047458
215,-35.029937065768245,-245.33645403923904,-17.765082408844684,57.74461889934295,9.520319139266846,-8.570922777269558,248.48140599430482,59.16401984275993
216,-35.06862504044339,-245.29773703617067,-17.72395650666574,57.65373830883725,9.367800784312172,-8.669438214151377,248.44652944660095,59.063240748510225
217,-35.11044980086926,-245.2601620743273,-17.689988279292052,57.53576337894377,9.217083883861836,-8.772385542422294,248.41379226294464,58.9375826928621
218,-35.15487219862715,-245.22420908556356,-17.663424051125816,57.397007931500205,9.069778772678173,-8.876699701817685,248.38361032076352,58.792993468115874
219,-35.20124728760822,-245.19036969929817,-17.64438606296247,57.24402551529276,8.927368128932752,-8.97935448490673,248.35638648178553,58.63563851849872
220,-35.24884257715135,-245.15913843292387,-17.63286952827412,57.08344217459181,8.791187310933047,-9.077416617220415,248.33250396312025,58.47174247809835
221,-35.29685998454594,-245.1310011454118,-17.62874025729977,56.921785082499426,8.662412364856223,-9.168097169711093,248.31231754866545,58.30742748572637
222,-35.34446031039972,-245.10642152161685,-17.631732691365332,56.76531347827653,8.542055619843847,-9.248800379433842,248.29614324399842,58.14855455212009
223,-35.39078900911303,-245.0858264233774,-17.64144854181888,56.61985838532808,8.430968254010587,-9.317170006513896,248.2842470686742,58.00057422375852
224,-35.435002140318495,-245.0695907955349,-17.657356554881993,56.490677233183504,8.329848741821115,-9.371133237791156,248.27683357300668,57.86839235738842
225,-35.476291606620656,-245.05802267157495,-17.678794140426334,56.38232880433371,8.239255769891448,-9.408941923068245,248.27403456677797,57.75625605294793
226,-35.51390905106288,-245.0513488585331,-17.70497171243983,56.29857292931159,8.159624072674301,-9.42921064498703,248.27589862143392,57.6676637557047
227,-35.54718804900238,-245.04970207792388,-17.734980624590875,56.24229810998162,8.091281658819343,-9.430950793064092,248.2823821364244,57.605302276895614
228,-35.57556436210612,-245.05311054992595,-17.767805522940886,56.215478854378205,8.034467009207685,-9.413599465184696,248.29334297966952,57.57101208174212
229,-35.59859391326343,-245.06149107414737,-17.802341762740745,56.21916311684454,7.989344992444047,-9.37704174279224,248.30853774709502,57.5657808195642
230,-35.615967871179656,-245.07464650512577,-17.837418288317753,56.253489000279146,7.956020458859974,-9.321624795967178,248.32762347277196,57.58976388395206
231,-35.62752403936744,-245.09226817923096,-17.871826074990636,56.31772883155334,7.934548716482743,-9.248162429904108,248.35016422800368,57.64232983591176
232,-35.63325376781883,-245.1139434156406,-17.904351868409872,56.410357808765646,7.924942304653815,-9.157929028703295,248.37564258744598,57.72212772478547
233,-35.63330381346237,-245.13916775931602,-17.933816559997766,56.5291435713899,7.92717362921743,-9.052642253128692,248.40347548259706,57.82717260481979
234,-35.62797288870646,-245.1673612125895,-17.959117115898785,56.671252251801704,7.9411731427589825,-8.934434192285828,248.43303355186825,57.95494484465714
235,-35.61770298742924,-245.19788740222614,-17.979270428266652,56.83336589028138,7.96682291192679,-8.805810929286263,248.4636628031773,58.10249822775042
236,-35.60306588440727,-245.23007452127084,-17.993456732462494,57.01180563829161,8.003945639346307,-8.669600715560112,248.4947072847593,58.26657145831827
237,-35.5847454238364,-245.26323692564304,-18.001059541949793,57.202655047679706,8.052289483813443,-8.528891242554057,248.52553147661868,58.443697640431715
238,-35.563516360508864,-245.29669635458114,-18.00169870643804,57.40187803940983,8.111509352277464,-8.386956915241955,248.5555411933917,58.630306688773125
239,-35.54022058635306,-245.32980186608194,-17.99525333543968,57.60542689977307,8.18114575008054,-8.247177584758273,248.58420192613406,58.822816500307475
240,-35.51574153169445,-245.36194778432494,-17.981871995193327,57.809336805703175,8.260602748581205,-8.112950838787862,248.61105380420358,59.01770999822897
241,-35.49097742910006,-245.3925892379847,-17.961968849026178,58.00980479380103,8.34912705737231,-7.987600567871834,248.63572274093914,59.211596684073946
242,-35.46681410745243,-245.42125512758003,-17.93620606320075,58.20325258310969,8.445790458836225,-7.874285001775169,248.65792773761598,59.40125889366786
243,-35.444098101657154,-245.44755849072783,-17.905464258876016,58.38637405246825,8.549477905652436,-7.775907666622858,248.6774846022886,59.58368434541974
244,-35.42361101947282,-245.47120423670074,-17.87080360371432,58.55616928405798,8.658883366950219,-7.695034730920883,248.69430643731008,59.756087619657414
245,-35.40604616606251,-245.49199420990314,-17.83341835629277,58.709967791642306,8.772515051864278,-7.63382199238486,248.7084012627713,59.91592379933928
246,-35.39198834904957,-245.50982958567803,-17.794587631715988,58.84544381485348,8.888710993238549,-7.5939543238694025,248.71986716701315,60.06089760730422
247,-35.38189763341471,-245.52471063143506,-17.755625074683664,58.96062641585163,9.005665196903678,-7.576599798997507,248.72888536877443,60.188971043398034
248,-35.37609766664305,-245.5367338029362,-17.717829984617644,59.05390663879685,9.12146372041964,-7.582380045561164,248.7357114719309,60.29837184997575
249,-35.374769071136456,-245.54608602899748,-17.682442084218618,59.12404329329074,9.234129226209648,-7.611357695235229,248.74066502573586,60.38760423947216
250,-35.377948259088356,-245.55303596902684,-17.650601521735858,59.17016814980285,9.341671842070777,-7.663041139091275,248.74411736318308,60.45546236432078
251,-35.385531816230575,-245.5579220740298,-17.623315005841235,59.19179064427183,9.442143642253697,-7.7364061839185165,248.74647764832565,60.50104616745692
252,-35.39728632206982,-245.56113745579873,-17.601428379755408,59.1888016814018,9.533693829317246,-7.829933650967934,248.74817714535686,60.523778637959886
253,-35.412863154712774,-245.56311185279438,-17.58560554003805,59.161475845568724,9.614621797596797,-7.941661437292767,248.74965192063107,60.52342315992307
254,-35.43181749150918,-245.56429134323258,-17.576313423375392,59.1104712850855,9.683425639361003,-8.06924901932176,248.75132447790344,60.50009958133854
255,-35.45363039034789,-245.5651168335686,-17.57381279804308,59.036826672703015,9.738844203862682,-8.210051815101457,248.75358514753063,60.45429777098415
256,-35.477732602890704,-245.56600263415106,-17.57815467399729,58.94195481722882,9.779891440734062,-8.361202298998727,248.75677429659234,60.386887624274955
257,-35.50352873930862,-245.56731650012318,-17.589182147656093,58.82763256986375,9.805882374037418,-8.51969436804827,248.76116648365038,60.29912458524583
258,-35.53042058472621,-245.569362297271,-17.606537482339036,58.69598661363061,9.816450582340615,-8.682467263237788,248.76695748887846,60.19264974657442
259,-35.55782864766002,-245.57236600259284,-17.629674361294033,58.54947460794862,9.81155744362159,-8.846485391106084,248.7742547560663,60.06948353147122
260,-35.58521128754089,-245.5764652445075,-17.657875461161428,58.390861027651624,9.79149362778485,-9.008810670183893,248.78307134030936,59.9320118951764
261,-35.61208095800974,-245.5817022381755,-17.69027542685374,58.22318691141664,9.756873399953966,-9.166664507906807,248.7933231374094,59.782963935218405
262,-35.6380171778549,-245.58801989929438,-17.725888809641702,58.04973268099868,9.708622250479088,-9.317477165615527,248.80482908038738,59.62537983022718
263,-35.66267587118746,-245.59526109076586,-17.763641836275326,57.873973296297116,9.64795821907679,-9.458923087210326,248.8173141194996,59.4625682265641
264,-35.68579487051217,-245.60317121147986,-17.80240640673245,57.699525314834396,9.576367098115382,-9.588941732389406,248.83041504784984,59.298052610094075
265,-35.707195678880794,-245.6114045054572,-17.84103458200159,57.530085892765335,9.495571581869552,-9.705744482941567,248.84368943843614,59.13550680342873
266,-35.72678184340316,-245.61953447583235,-17.87839189193973,57.36936431626356,9.40749444879887,-9.807809134185469,248.8566280072996,58.978680422623626
267,-35.744534344997824,-245.62706863869138,-17.913387951106134,57.22100721427181,9.314216030076466,-9.893864211368879,248.86867058871144,58.83131581811767
268,-35.76050433842047,-245.6334675699313,-17.945003093636508,57.08851911675815,9.217926482219864,-9.962865824182272,248.8792256360936,58.69705864048139
269,-35.77480356691586,-245.63816782373368,-17.972310050285184,56.97518040394374,9.120873695161565,-10.013970039067356,248.8876928147773,58.579364632652634
270,-35.78759289566012,-245.64060791201481,-17.994490109851156,56.88396486607851,9.025308002689867,-10.046503861272646,248.89348791788547,58.48140548886015
271,-35.79906955071157,-245.6402561909175,-18.01084370032793,56.817459083599154,8.933425182068897,-10.059937891403846,248.8960690558067,58.40597665526872
272,-35.80945366451549,-245.63663921672924,-18.020795821394405,56.77778577637103,8.847309471633201,-10.053863550583861,248.89496282877658,58.35540989595345
273,-35.81897458628472,-245.6293689572865,-18.023897191699373,56.76653330122387,8.768878467151891,-10.027977443292233,248.88978902894237,58.33149344249887
274,-35.82785721055953,-245.61816727394142,-18.01982227155083,56.78469366601571,8.699831810140278,-9.982074922058192,248.88028243860347,58.335402654036514
275,-35.836308411982635,-245.60288634074487,-18.00836541265855,56.832611747729366,8.641605592457765,-9.916054202316213,248.86631052196518,58.3676443135053
276,-35.84450361103635,-245.58352402950118,-17.989436259139957,56.90994872101612,8.595334350224334,-9.829931445905101,248.8478861461884,58.42801784641248
277,-35.852573571301946,-245.56023365125048,-17.963055252743192,57.015662801186295,8.561822343152834,-9.72386614831521,248.8251748154868,58.5155966534
278,-35.860591738076565,-245.53332777264035,-17.929349785857593,57.14801007530566,8.541525497617418,-9.598195048700259,248.7984962329725,58.628732207999825
279,-35.8685627019163,-245.5032760813002,-17.888551285006457,57.304567384619666,8.534545002789425,-9.453471774346669,248.7683202771785,58.76508256349791
280,-35.87641261183398,-245.4706973826761,-17.840993342079827,57.4822780555833,8.540633167014239,-9.290508662419585,248.7352576085186,58.92166559046006
281,-35.88398249941366,-245.43634576440397,-17.78711090948037,57.67751994801374,8.559211777788942,-9.11041677008468,248.7000450854997,59.09493583696197
282,-35.891025477617745,-245.40109089108896,-17.727440442727733,57.88619395973158,8.58940282894573,-8.914640032168862,248.66352608696312,59.28088253070453
283,-35.89720865837971,-245.3658924700647,-17.66262065071082,58.10382992404172,8.630071051568079,-8.704979828071535,248.62662587820523,59.47514504314402
284,-35.9021204162941,-245.33176924066493,-17.59339324783028,58.325705868045,8.679877195661136,-8.483606811309752,248.59032241469725,59.67314120413969
285,-35.905283300199116,-245.2997633127766,-17.52060291677445,58.54697593617578,8.737340460428785,-8.253057670083509,248.55561338238235,59.87020324891205
286,-35.906172451594465,-245.2709011474732,-17.445195680491764,58.76280194609961,8.800907879975552,-8.016215462179984,248.52348066835316,60.06171590918714
287,-35.90423893056108,-245.24615278906123,-17.368215025413036,58.968483529895515,8.869027856557995,-7.776273230954245,248.49485371005383,60.2432512129777
288,-35.89893704003153,-245.22639107639833,-17.290795303425032,59.15958209571564,8.940224413844675,-7.536681699071947,248.47057325271857,60.41069489763632
289,-35.889754603599506,-245.2123525311104,-17.21415205400019,59.332034359324375,9.013168168135735,-7.30108289615884,248.4513569978661,60.56035990341355
290,-35.87624502362319,-245.2046015564648,-17.139568864961465,59.48225186800303,9.08673959864841,-7.073232503225685,248.43776853644965,60.6890831297738
291,-35.85805965402284,-245.2034996096833,-17.06838026648986,59.60720372200303,9.160080100429141,-6.856914338722524,248.4301909322258,60.794302461259036
292,-35.83497857892936,-245.20918115854278,-17.001950074017515,59.70448053016025,9.232626674125086,-6.655850647426117,248.42880639192407,60.87411195976661
293,-35.80693750612367,-245.22153832590996,-16.94164470698954,59.77233842026432,9.304127008292738,-6.473611685476332,248.4335834994709,60.92729400470571
294,-35.77404847370615,-245.24021587260708,-16.888801387866533,59.80972261207534,9.374633078515796,-6.31352766848187,248.44427327088107,60.953328009240366
295,-35.7366126300697,-245.2646174318729,-16.84469177230296,59.81627072260506,9.44447305700389,-6.178605672342115,248.4604147021069,60.95237621567528
296,-35.69512431059444,-245.2939228765459,-16.81048232524905,59.79229671381105,9.514203083310361,-6.071453678002088,248.48134967992397,60.925248051835865
297,-35.65026652298022,-245.3271157502783,-16.787193364191122,59.73875720829978,9.584542066425612,-5.994213618880814,248.5062463778849,60.87334556459343
298,-35.602898444725646,-245.36301907893034,-16.775658989892296,59.6572026809993,9.656293972341643,-5.948504953143258,248.53412975084927,60.79859338636378
299,-35.55403570765831,-245.40033755009867,-16.776490153312462,59.54971666735849,9.730262884604112,-5.93537994329371,248.56391744203242,60.70335740133929
300,-35.50482430755571,-245.43770379965173,-16.79004290829743,59.418846504966524,9.807166490689596,-5.955291549002291,248.59445915974467,60.590356662055456
301,-35.45650902423133,-245.47372630654885,-16.816393511772556,59.267529138731476,9.887553591107661,-6.008074642526226,248.62457731875946,60.46257307154057
302,-35.41039732287106,-245.50703632761693,-16.85532161117261,59.09901512580819,9.971730837238546,-6.0929410807842785,248.6531066468338,60.32316285905455
303,-35.367819916775645,-245.536331557863,-16.906302501243307,58.91679324232167,10.059703265587508,-6.208488954932392,248.67893071029016,60.175373014051466
304,-35.33008946829275,-245.5604147528134,-16.968509365380978,58.72451715189754,10.151132350535297,-6.352726051403714,248.70101388653205,60.02246473837462
305,-35.29845907188014,-245.57822626384018,-17.04082630748136,58.52593459497178,10.24531425387069,-6.523107172416504,248.7184280317982,59.867644777479406
306,-35.27408203818325,-245.58887017516994,-17.121872547507117,58.32481867052097,10.341179750245312,-6.716584503856262,248.73037378107094,59.71400437561221
307,-35.257974169196196,-245.59163432005147,-17.210037394698634,58.12490019731911,10.437316044617948,-6.929669777367041,248.73619691199497,59.56446477337671
308,-35.25097939803965,-245.58600472751195,-17.3035247873604,57.92979999925392,10.532009462316307,-7.158506635038284,248.73540038225315,59.42172778469868
309,-35.25373947517738,-245.5716749993081,-17.400405498336394,57.742960280125885,10.623306836623625,-7.39895136694357,248.72765252480585,59.288230080510765
310,-35.26666829713323,-245.54855090950753,-17.498674596010577,57.567574944476206,10.709092376141164,-7.646659996866135,248.71279162866412,59.16610027559626
311,-35.28993147324783,-245.51675034791222,-17.596311464947355,57.40651963033299,10.787175933772728,-7.897179516391443,248.69082693692042,59.05711862275021
312,-35.32343183092118,-245.4765986566934,-17.69133967326645,57.262283171896435,10.855388026159249,-8.146040956375494,248.66193602889217,58.962679916170515
313,-35.36680172679153,-245.42861938588345,-17.78188418306335,57.13690302693261,10.911676729918627,-8.388852011319974,248.62645856045106,58.88376094180356
314,-35.419403108004694,-245.3735204812597,-17.86622374681038,57.03190775423136,10.954201678840908,-8.62138713344611,248.58488635268915,58.82089436331179
315,-35.4803361237521,-245.31217597531102,-17.942836741860397,56.94826986444114,10.981420723248304,-8.839673338161301,248.53784987760747,58.77415123800873
316,-35.548456740922845,-245.24560344917424,-18.010439092804557,56.886372304415936,10.99216531471935,-9.040070288114345,248.48610135817415,58.743134402498434
317,-35.62240340523546,-245.17493782203678,-18.06801326026465,56.84599148311674,10.985701281532322,-9.219343430659285,248.4304949468738,58.726984737635334
318,-35.700632416126886,-245.10140226583584,-18.11482754729617,56.826299091268986,10.961772310176817,-9.37472899966916,248.37196465123233,58.72440178555649
319,-35.781461290999445,-245.02627716585505,-18.150445262942334,56.8258840010329,10.920624139967654,-9.503989590469367,248.31150076300224,58.733679347232666
320,-35.86311884706425,-244.9508680848596,-18.17472363112047,56.84279432005153,10.863008240768538,-9.605458891704314,248.25012553545093,58.75275562438899
321,-35.943800073416014,-244.8764736824416,-18.187802714703498,56.87459835423566,10.790164582929197,-9.678074150463564,248.18886878606287,58.779276340657304
322,-36.02172336109034,-244.804354512467,-18.19008499916851,56.91846195543804,10.703783993356316,-9.721395127597651,248.12874403217256,58.81066823170343
323,-36.09518751275112,-244.73570358964176,-18.182206626609634,56.97123861916943,10.605951490207449,-9.735608629907826,248.07072574117572,58.84421943907765
324,-36.16262612776354,-244.67161958430918,-18.1650015728142,57.029567882778004,10.499072858469694,-9.721518102315493,248.01572829161745,58.8771627777061
325,-36.222657233776296,-244.61308345019816,-18.13946035398345,57.08997720366592,10.385787498694057,-9.680518197105364,247.96458724680886,58.90675769362608
326,-36.27412624136344,-244.5609391826982,-18.106685199870054,57.14898266581329,10.268871187178354,-9.614554740301317,247.91804348983283,58.9303670717878
327,-36.31614047807705,-244.5158792161043,-18.067843959405756,57.20318451779686,10.151132812987534,-9.5260711038008,247.8767306303901,58.94552584435789
328,-36.34809388684836,-244.47843471019112,-18.024125100392503,57.24935447998848,10.0353094425462,-9.417942623519009,247.84116589291082,58.949999390806354
329,-36.3696810037983,-244.4489707519089,-17.976695936900178,57.28451272611209,9.92396424823775,-9.293401295682845,247.81174453393135,58.94183076940202
330,-36.38089989309637,-244.42768640615083,-17.92666581212692,57.30599328194804,9.819391888057181,-9.155953443227705,247.78873779808947,58.9193766985887
331,-36.38204411187664,-244.4146195304091,-17.87505555659361,57.31149723162735,9.723535717060118,-9.009293287582844,247.77229442992328,58.88133282655957
332,-36.37368401447554,-244.4096561614143,-17.822774132035853,57.29913356787181,9.63792066357466,-8.857215324602079,247.76244565633218,58.82674915652555
333,-36.356637973120804,-244.41254403749997,-17.770602843892974,57.26744777810032,9.563604768238944,-8.70352807542477,247.75911331360828,58.755036554773596
334,-36.33193452646842,-244.4229095325669,-17.71918685205534,57.21543836388098,9.5011514022466,-8.551971246439857,247.76212052675643,58.665965133262176
335,-36.300766999626696,-244.44027706232694,-17.669033135746943,57.14256151444781,9.450623167345935,-8.40613775408527,247.7712041765833,58.559655075395916
336,-36.264442590497595,-244.46408995599046,-17.620513798115553,57.04872419080449,9.411597483448713,-8.269401606529941,247.78602837372478,58.43656028440594
337,-36.224328193457765,-244.49373186675575,-17.573873593962016,56.93426602808893,9.38320290080535,-8.144852337503139,247.8061982799375,58.29744518753817
338,-36.18179538398945,-244.52854793568696,-17.52924059580035,56.7999307879027,9.364174241558002,-8.035236515695168,247.8312737799905,58.14335517750438
339,-36.13816709873127,-244.56786505109793,-17.48663888741934,56.64682857189079,9.352923815518796,-7.942906754135523,247.86078264491033,57.975581495776
340,-36.09466861499799,-244.611010662874,-17.446002247237363,56.476390562414196,9.347625233719956,-7.8697785894156755,247.89423295547934,57.79562178633832
341,-36.052385361984406,-244.6573297278595,-17.40718809075403,56.29031856231071,9.346305820077026,-7.817295562549795,247.93112467950755,57.605137956707786
342,-36.01222973488932,-244.70619945154246,-17.369991377084077,56.090531942787614,9.346943303289665,-7.786402794403173,247.97096036251088,57.40591325561536
343,-35.97491836434162,-244.75704153048974,-17.3341585200374,55.87911471273469,9.347562324124976,-7.777529333524626,248.01325485090604,57.199810550763694
344,-35.940960319816355,-244.8093316069977,-17.299401434528022,55.65826528001058,9.346326299107048,-7.790579605881088,248.05754384151385,56.9887336571048
345,-35.9106557131663,-244.86260569903845,-17.265411687703537,55.430251079574504,9.34162036980239,-7.824934415648765,248.10339094695289,56.7745932287526
346,-35.88410334732091,-244.91646353152325,-17.23187443413196,55.19736959981391,9.332121602824355,-7.879462065576314,248.1503929902116,56.55927819673337
347,-35.86121560860923,-244.97056888156902,-17.198481621834205,54.961916497023445,9.316853339380652,-7.952540185144194,248.19818334860972,56.34463305729577
348,-35.84173875435455,-245.0246470807081,-17.164944047438787,54.72616056558429,9.295221585532822,-8.042088713747821,248.24643319704722,56.132440589450255
349,-35.82527692832644,-245.07847968011927,-17.131002172761715,54.492324501400844,9.267032442280346,-8.145614179538201,248.2948504153433,55.92440894363634
350,-35.811318455574195,-245.1318961691468,-17.096435914791833,54.2625698296745,9.232490636423941,-8.260264958494584,248.34317586303004,55.72216163026536
351,-35.79926317668629,-245.18476267643052,-17.061073631693247,54.0389841632541,9.192180139678154,-8.382896633060728,248.39117679336346,55.52722882954446
352,-35.788449815187846,-245.23696774892323,-17.024800278502838,53.82356911620268,9.147028645167286,-8.510146001060651,248.438637355965,55.34103865608791
353,-35.77818266336337,-245.28840554400747,-16.987564425981894,53.61822763867772,9.098258324292868,-8.638511854204877,248.485346393761,55.1649074873388
354,-35.767757227724296,-245.33895709428623,-16.9493836484317,53.42475012828601,9.047325804955314,-8.764440416399554,248.53108309571462,55.0000290795954
355,-35.75648483017358,-245.38847071950147,-16.910347675291593,53.24479926320754,8.995854647720883,-8.88441324347748,248.57560151821662,54.84746279153768
356,-35.743716390559534,-245.43674307441967,-16.870618733558942,53.079893974266376,8.945563699946497,-8.995035324330306,248.6186154317468,54.70812167422292
357,-35.72886564254658,-245.48350256644127,-16.830428795703636,52.93139323469255,8.898194581857412,-9.093121032402143,248.6597852151451,54.58276137336963
358,-35.71143185319869,-245.5283968538743,-16.790073860126753,52.80048032985617,8.855441274519006,-9.175775495280627,248.69870850082464,54.47197067766542
359,-35.691021749756175,-245.57098590748706,-16.749905604815275,52.688147971191334,8.818884428977999,-9.240468967731053,248.73491601236486,54.37616416261881
360,-35.66736988186455,-245.6107417920638,-16.710320650684796,52.595184146589595,8.789932651104392,-9.285101967867305,248.76787363974267,54.2955768473074
361,-35.64035624578061,-245.64705591654723,-16.671747462752922,52.52215815220676,8.769772647062876,-9.308059248305092,248.7969913226302,54.23026029349064
362,-35.610019869944246,-245.6792539778459,-16.6346308903345,52.469406024457385,8.759329748487044,-9.30825106206995,248.8216387750446,54.180079314915645
363,-35.57656725841091,-245.70661821484956,-16.599414610728125,52.437014690907475,8.759240004431595,-9.285140610657367,248.84116753018762,54.14470852978655
364,-35.54037497574293,-245.72841597915618,-16.566522169030225,52.42480457024243,8.769834745387936,-9.238757034871275,248.85493826693744,54.123628371409005
365,-35.501986064527195,-245.7439330761904,-16.53633764621724,52.4323109743312,8.791138258941643,-9.169693828512093,248.8623519153611,54.116120769460295
366,-35.46210032023969,-245.7525098540201,-16.50918704952915,52.45876536844547,8.822878901652967,-9.079093083390022,248.86288262096784,54.12126538371166
367,-35.421558679386756,-245.75357763379336,-16.4853212998162,52.50307818888357,8.864513553621736,-8.968616467084518,248.8561102886766,54.13793786170638
368,-35.38132214348703,-245.7466928727871,-16.464901378887685,52.563825351795444,8.915264777909133,-8.840404271477981,248.84175023148964,54.1648119512048
369,-35.34244585554231,-245.7315666428773,-16.447986076157523,52.63924070108833,8.974169382908542,-8.697024218960767,248.81967765852394,54.200367315542806
370,-35.306049200073375,-245.7080877332713,-16.43452295170802,52.72721643725331,9.040136342210229,-8.54141190866266,248.78994550278134,54.24290457183602
371,-35.27328301415481,-245.67633867266002,-16.42434339913528,52.8253131495214,9.112011299936812,-8.37680478290763,248.75279511244923,54.29056851038843
372,-35.245295071988544,-245.6366046723631,-16.417162743200986,52.930780548205085,9.188644328175553,-8.20667132585874,248.70866004145049,54.34137979319528
373,-35.22319498155858,-245.58937569639318,-16.412586073937526,53.040589396747635,9.268957329084708,-8.034636967381049,248.6581633563739,54.39327474093439
374,-35.20801962708516,-245.53534182437147,-16.410120125761818,53.15147448252675,9.352007495169941,-7.864407967445754,248.6021088077388,54.44415213170359
375,-35.200700343719035,-245.47538209218655,-16.409191065071575,53.25998780143307,9.437043465100379,-7.699694469465972,248.54146620690716,54.49192530781843
376,-35.20203307082856,-245.41054711587844,-16.40916759432243,53.36256056549839,9.523551156489694,-7.544133925042059,248.47735144448598,54.53457740633893
377,-35.21265271271589,-245.34203596590754,-16.40938833584794,53.45557225331625,9.611286718396785,-7.401216148040667,248.4110017122179,54.57021726442919
378,-35.23301274241212,-245.2711679921924,-16.40919204452803,53.53542472994699,9.700294654710923,-7.274211303483231,248.34374666634062,54.597133522431534
379,-35.263370685941155,-245.19935062343077,-16.407948892286345,53.598619448234935,9.79090990069161,-7.16610216107806,248.27697651520143,54.61384463217645
380,-35.30377963418614,-245.12804445687263,-16.40509102204925,53.64183587538961,9.88374340418219,-7.079521941001987,248.212108233673,54.61914282829682
381,-35.35408551013273,-245.05872708134635,-16.400140837123796,53.66200951201618,9.979651491829681,-7.01669902690668,248.15055119297094,54.612130563955404
382,-35.41392955551476,-244.9928570260273,-16.392735884221956,53.65640808740942,10.079689957525153,-6.9794096827648495,248.09367343456563,54.59224834308645
383,-35.48275540672291,-244.93183905204035,-16.382649451780942,53.6227046191987,10.185054401881544,-6.968939696756215,248.04276964735706,54.559293198108065
384,-35.55982020448789,-244.8769917194918,-16.36980607708881,53.559045983567295,10.29700889609712,-6.9860556613868825,247.99903164043894,54.51342724341353
385,-35.644209390756444,-244.82951778585527,-16.354291147157316,53.46411552464326,10.416805538309367,-7.03098644630648,247.96352175986215,54.45517585381524
386,-35.734855065124194,-244.7904776451455,-16.336353834409227,53.33718815969698,10.545597872705912,-7.10341530026276,247.93714939013768,54.38541517692305
387,-35.83055782665135,-244.76076589791808,-16.31640283010749,53.178176509203645,10.684351380016126,-7.202482843392328,247.92065058576281,54.30534895835423
388,-35.93001183528551,-244.74109129464236,-16.29499472114007,52.987666839634954,10.833754261206414,-7.326800946845239,247.91457102683162,54.21647506095537
389,-36.03183247459035,-244.73196049590697,-16.272815303088958,52.766944032684144,10.994131531629488,-7.474477215729128,247.91925267033238,54.12054258013981
390,-36.13458562596485,-244.73366609625606,-16.25065455582637,52.518005309536015,11.165365129077658,-7.643149577577587,247.93482444724626,54.019501044468235
391,-36.2368172707858,-244.7462791651855,-16.229376399934374,52.243562928022534,11.34682247736362,-7.830030319213962,247.96119714810158,53.9154437537712
392,-36.3370820019582,-244.7696463183268,-16.209884679986505,51.94703641908156,11.537295861376748,-8.031958735906988,247.9980624037138,53.81054774398167
393,-36.43396915973136,-244.8033911196958,-16.193087047617013,51.63253502875508,11.73495508697835,-8.245461315619654,248.04489549189395,53.70701306951027
394,-36.52612577128065,-244.84691942661533,-16.179858497672107,51.304830771221866,11.937316139169695,-8.466818076072661,248.10096158658433,53.60700393173168
395,-36.612276165155855,-244.89942812586773,-16.171006201556228,50.96932181428059,12.141228772697316,-8.692133328938857,248.16532499877925,53.51259356490053
396,-36.69123879782145,-244.95991662328277,-16.167236967761394,50.631984892939386,12.342886035016607,-8.917408839155542,248.23686095010584,53.425713774893936
397,-36.761941244743106,-245.0272005355854,-16.169128193956105,50.29931431693776,12.537858520933996,-9.138617170963014,248.31426953506562,53.34810882690421
398,-36.823434409800164,-245.09992734081433,-16.177102725858546,49.97824421501764,12.721155595565603,-9.351772992394094,248.3960918156451,53.28129227720105
399,-36.874906872989875,-245.17659414503768,-16.19140781282292,49.67605024703402,12.887314861820526,-9.553000202413164,248.4807283522109,53.226504620429566
400,-36.915700052271426,-245.25556797998993,-16.212098387973164,49.40022734171727,13.030519857755015,-9.738592911491796,248.56646069307223,53.18466950475767
401,-36.945324583522215,-245.33510903544894,-16.239025026067814,49.158341135607664,13.144744475686101,-9.905068551572246,248.65147630104258,53.15634682924278
402,-36.96347801458967,-245.41339704239033,-16.27182698241118,48.95785252803123,13.223921032998756,-10.049211735766539,248.73389716621554,53.14168214522587
403,-36.97006351457662,-245.48856082603797,-16.309930703445044,48.805916824933476,13.262127436129514,-10.168107943558697,248.81181209845417,53.14035317041656
404,-36.96520883500438,-245.55871090727007,-16.352554193953797,48.709161034261705,13.25378760987196,-10.25916666922579,248.88331248231296,53.151515641499444
405,-36.949284326637525,-245.62197488297215,-16.39871761010489,48.673444797713394,13.193878427890084,-10.320134304089635,248.94653106298574,53.17375200848647
406,-36.922918496781634,-245.676535090689,-16.447260374062594,48.70361205598454,13.078135840337694,-10.349097642629372,248.99968305475562,53.20502748479337
407,-36.887009402830216,-245.72066779682635,-16.49686500806174,48.80324172161827,12.90325276901611,-10.34447938682076,249.0411085638961,53.24265858880812
408,-36.84273015534034,-245.75278293824465,-16.54608783262996,48.974406273714166,12.667061615979005,-10.305027269349477,249.06931510204456,53.2832994461276
409,-36.79152704328939,-245.77146330136097,-16.593396629982422,49.217447248890174,12.368694874071407,-10.22979840487474,249.08301885296362,53.32295073487413
410,-36.7351093257353,-245.77550184840453,-16.637215189983017,49.53077611310096,12.008718283183189,-10.118140280104964,249.08118324999415,53.35699529729839
411,-36.675430436252874,-245.7639356893568,-16.675974224670078,49.91070805724012,11.589232152528918,-9.969669501574465,249.06305329161856,53.38026321068265
412,-36.61466102948488,-245.73607510347495,-16.70816752753715,50.35133502356704,11.113937727743377,-9.784249080070136,249.02818399621884,53.387127639305895
413,-36.555154807948064,-245.69152618243152,-16.732411651734623,50.84444293285344,10.588166677103379,-9.561964645717948,248.97646160661145,53.371631228509266
414,-36.4994083301509,-245.63020608576585,-16.74750688704398,51.37947682263026,10.018872830720488,-9.303099584673689,248.90811658147658,53.32764131887262
415,-36.45001607519148,-245.5523504403706,-16.75249688807049,51.943556543541625,9.414586231314848,-9.008108750127088,248.82372793153496,53.24903100281701
416,-36.40962205859435,-245.4585129379712,-16.746723942142594,52.52154482455765,8.785330334687732,-8.67759021141308,248.7242189532997,53.12988208832548
417,-36.380869301369906,-245.3495575646444,-16.729876694405043,53.0961688397194,8.142503775607278,-8.312254468941095,248.61084477675405,52.964705325491565
418,-36.366348346125854,-245.22664404341845,-16.702027312733023,53.64819574178758,7.4987284562749785,-7.9128905930344,248.48517228215016,52.74867265411927
419,-36.368545704218256,-245.09120698954308,-16.663655600678982,54.156661808465095,6.867665866330715,-7.480328755087212,248.34905285084457,52.47785560723598
420,-36.38979271634326,-244.94492909029833,-16.615658328564866,54.599153758454435,6.263803604161438,-7.0153986215707045,248.20458822451653,52.14946328720428
421,-36.43221510270703,-244.7897084858856,-16.55934287403886,54.95213939828216,5.702214126185417,-6.51888318116875,248.05408964212174,51.762072531376546
422,-36.49768367312628,-244.6276205679231,-16.496405061080445,55.191343096640566,5.198287856748018,-5.9914678723484505,247.90003054948858,51.31584207875305
423,-36.587767139584535,-244.4608746996825,-16.428891859954796,55.29215976211694,4.767442994176547,-5.43368538547897,247.74499358515303,50.81270185982357
424,-36.70368839151442,-244.2917668779081,-16.35915030017097,55.23009919948115,4.424814720360325,-4.845857159994253,247.59161316447438,50.256508127542865
425,-36.84628576993947,-244.12262994419254,-16.289764434911365,54.98125115864031,4.184927137159525,-4.228033280182713,247.44251562237633,49.65315522767609
426,-37.01598086384017,-243.95578337265678,-16.2234824707348,54.52276026648672,4.061352132480043,-3.579933085458578,247.30025930272538,49.01063553676863
427,-37.21275423576222,-243.79348471163172,-16.16313642620994,53.833299454663326,4.066360454812646,-2.9008892388374905,247.16727703021377,48.339040538455876
428,-37.43613027477585,-243.6378844175004,-16.111557095190555,52.89353046508305,4.210571433461341,-2.1897981477229154,247.04582306155615,47.65049810821476
429,-37.6851720959084,-243.49098528166132,-16.07148757913525,51.68654042911104,4.502608934181252,-1.4450794845269201,246.9379260743125,46.959043681273506
430,-37.95848710641027,-243.35460717198345,-16.045498913793555,50.198244215626666,4.94877225200507,-0.6646471653365615,246.84534925120312,46.28042588171495
431,-38.25424353358799,-243.2303574791952,-16.035911187528203,48.41774308292367,5.552731694796302,0.15410640620335617,246.76955813212075,45.631850192019414
432,-38.570197805382946,-243.11960739296322,-16.04472316513462,46.3376310575319,6.315259540521498,1.0143116524851061,246.71169655393933,45.031667171946296
433,-38.90373220743952,-243.0234738654681,-16.073552991100012,43.954241322557465,7.234007740262801,1.919608145299027,246.67257063020458,44.499014417826
434,-39.251901782535704,-242.94280689234532,-16.123592097591487,41.26782564396991,8.303344049553436,2.8741159495188953,246.65264039398477,44.05342368901688
435,-39.61148901843709,-242.87818161368537,-16.195573942217944,38.28266044819147,9.51425808546445,3.882392427295529,246.65201850046822,43.71440624790514
436,-39.97906449425744,-242.82989473434816,-16.289758675835674,35.00707362184988,10.854348045341409,4.949375223699632,246.670475285869,43.501030370063546
437,-40.35105139183034,-242.79796491159232,-16.405934384066917,31.453386550394573,12.30789744373913,6.0803123033274105,246.7074495492199,43.431505166820266
438,-40.723791695597704,-242.7821370870761,-16.543435163199465,27.637766560683605,13.85604920235998,7.28067992714285,246.76206470224184,43.522784400165456
439,-41.09361198316052,-242.78189116128803,-16.701175845587912,23.579986125763387,15.477081707169607,8.556089326433426,246.83315032247634,43.79020305709707
440,-41.45688689297288,-242.79645570782623,-16.877702535035784,19.303087331675417,17.146787948995247,9.91218254898748,246.9192694195585,44.247158345411044
441,-41.810098598431864,-242.82482744352583,-17.07125722753826,14.832953468850857,18.83895458843598,11.35451758559201,247.01875171894508,44.90484561475149
442,-42.1498908596703,-242.86579689785364,-17.279853790021935,10.197794171153726,20.525932870460256,12.888442556620362,247.1297329684717,45.7720583697263
443,-42.4731164329265,-242.9179802231747,-17.501361630243014,5.427555957390675,22.179287983786644,14.518958616304719,247.25019974731916,46.85505965796152
444,-42.77687683902699,-242.97985648048018,-17.733592685930542,0.5532757876037051,23.770507987402496,16.250571474300617,247.37803864490076,48.15752922327626
445,-43.058553804601885,-243.04980924007708,-17.974386990230805,-4.39359935195694,25.271748180241303,18.08713212862913,247.5110882123073,49.68058657551947
446,-43.31583212804608,-243.12617113435425,-18.22169206765019,-9.381899497125374,26.656582271323323,20.031668554916724,247.64719195901364,51.42288460943734
447,-43.54671426071043,-243.20727007704824,-18.47363180018537,-14.38139545565874,27.900728476800307,22.086211619263526,247.78425085923675,53.38076226940277
448,-43.74952742772401,-243.2914760298964,-18.728561161346192,-19.363408981051386,28.982717215608268,24.251620183664468,247.92027414092487,55.54843916885922
449,-43.92292448115153,-243.3772472234791,-18.985104223829964,-24.301341323457454,29.88446773193246,26.52741197600623,248.05342729312125,57.91823130846898
450,-44.06587977809151,-243.46317451604077,-19.242173941743367,-29.171096940425898,30.591743926260637,28.91160801809518,248.1820761071416,60.48076604325647
451,-44.17768125297062,-243.54802219305947,-19.498973351861196,-33.95138615725611,31.094464974993247,31.40059904202106,248.30482525843922,63.225176561805
452,-44.257919654027454,-243.63076317322802,-19.75497909252553,-38.62389889177125,31.386853803395326,33.989042311134845,248.42054966913682,66.13926101391773
453,-44.306475777820864,-243.71060645899732,-20.009909448250852,-43.17335011736708,31.467415700912696,36.66979666931999,248.52841684799748,69.20959817469804
454,-44.32350650333672,-243.7870148062531,-20.263680268878346,-47.587405525658646,31.338749621701126,39.4339026162852,248.62789862532543,72.42161903252122
455,-44.30943040896502,-243.8597109353891,-20.51635289581633,-51.85650215669276,31.007205141879222,42.27061288803342,248.71877110074226,75.75964083950709
456,-44.264913612930286,-243.92867109358974,-20.76807861203826,-55.973583248791016,30.482407750319943,45.167477510549475,248.80110210493302,79.20687606731744
457,-44.19085616216814,-243.9941054212592,-21.019044115945537,-59.93376921392046,29.776683263617073,48.1104856320582,248.87522605074142,82.74543273803917
458,-44.088378869446366,-244.05642544607917,-21.26942210379322,-63.73398768583762,28.904417926973732,51.084264608914026,248.9417067966075,86.35632442283557
459,-43.95881005925444,-244.11620009359697,-21.519330318344142,-67.37258529747062,27.881393655554376,54.07233480587095,249.00129005715928,90.01950779991758
460,-43.803671338157784,-244.17410264702238,-21.76880152146027,-70.84894245271417,26.724137655392703,57.05741641288178,249.0548477881025,93.71396329837734
461,-43.62466137637057,-244.23085186060638,-22.017765834625443,-74.16311007311191,25.449322453756814,60.02178235794983,249.1033176246881,97.41783051267785
462,-43.42363680548139,-244.28715086547075,-22.266045767105023,-77.31548438170894,24.07324657111362,62.947649180145824,249.14764080673754,101.1086053635746
463,-43.20258957729123,-244.34362769475703,-22.513363134543535,-80.30653254981449,22.611418277206152,65.81759559015526,249.1887021554949,104.76340100917376
464,-42.963620341198315,-244.40078120893298,-22.759356208759137,-83.13657875329177,21.078255828670382,68.61499653022766,249.227275584563,108.35926977794234
465,-42.70890756640341,-244.4589358047207,-23.00360497090011,-85.80565698755483,19.486908159637327,71.32445907681979,249.26397822171194,111.87357923237525
466,-42.44067233341927,-244.51820749696756,-23.245662138696403,-88.31343383554282,17.849191148254974,73.93224571033004,249.2992354479619,115.2844319994366
467,-42.161138978003905,-244.57848292491695,-23.485087495654213,-90.65920118125979,16.175627185645574,76.42667039558637,249.33325816402586,118.57111621561222
468,-41.87249208023237,-244.63941178806965,-23.721482939729643,-92.841935598713,14.475570445581123,78.79845358191639,249.36603260088475,121.71457134306686
469,-41.57683066378043,-244.70041230609542,-23.954525722943654,-94.8604179316086,12.757397299598725,81.04102363693875,249.3973221579869,124.69785282671968
470,-41.276120900406795,-244.76068856293955,-24.18399762095962,-96.71340362401227,11.028740751032618,83.1507543493979,249.42668012433532,127.5065787301701
471,-40.97214901952064,-244.81925807240145,-24.40980815372509,-98.39983190119311,9.296749231724874,85.12713089306781,249.45347172574023,130.12934218044222
472,-40.666476378019716,-244.87498763945578,-24.632010415647464,-99.91906009609866,7.568352916418014,86.97283987952633,249.47690376583552,132.55807506038158
473,-40.36039867743744,-244.92663558702057,-24.850808620641534,-101.27110832194893,5.85052400219371,88.69378257800028,249.4960601798559,134.78835062313655
474,-40.05491117144257,-244.97289858966738,-25.066557082369428,-102.45689927778974,4.1505204596552225,90.29901364546984,249.5099420221691,136.81961516567725
475,-39.75068150448465,-245.01246156920206,-25.279750778308955,-103.47847819371955,2.4761051707104547,91.80061033988319,249.5175106246127,138.65534121208722
476,-39.44803157585928,-245.0440492145717,-25.49100767434412,-104.3391987562263,0.8357339806564413,93.21347890641866,249.51773273071709,140.30309664065283
477,-39.146929416665614,-245.06647758723028,-25.701042737765157,-105.04386233044328,-0.7612928986187628,94.55510568737765,249.50962622333057,141.7745259455768
478,-38.846991474922085,-245.0787040002815,-25.91063340701869,-105.59879997149892,-2.3047211987530374,95.84526079730054,249.49230468764864,143.08524163718016
479,-38.54749509688824,-245.079873094546,-26.120576499781105,-106.01188960872372,-3.783279192172229,97.10566220565052,249.46501871942647,144.2546258922657
480,-38.247400564236365,-245.0693569405814,-26.331637190924646,-106.29250429393042,-5.184664274751822,98.35960795956173,249.42719179920053,145.30554503590338
481,-37.94538187321179,-245.0467871348869,-26.544491673169254,-106.45139128185366,-6.495581688020568,99.63158418036011,249.37844877212638,146.26398217116133
482,-37.639865493565125,-245.0120772627926,-26.759666182963947,-106.50048559053926,-7.701835266430123,100.94685642646834,249.31863550009032,147.15859603070402
483,-37.329076498147636,-244.9654347665889,-26.977475908485363,-106.45266513476604,-8.788467372719172,102.33105194832045,249.24782902923207,148.02021652031092
484,-37.01109152350683,-244.90736205418716,-27.197967637611846,-106.32145713400689,-9.73994254085709,103.80974010664336,249.1663384558798,148.881289057568
485,-36.68389789950123,-244.83864740203097,-27.42086979036192,-106.12070706172592,-10.540367342816023,105.4080176752672,249.07469734868016,149.77528047554594
486,-36.34545804097084,-244.76034672398575,-27.645552876632248,-105.8642219954231,-11.17373800779895,107.15010489882745,248.9736490022682,150.7360590494143
487,-35.99377797313896,-244.67375759990298,-27.871002715200373,-105.56540009648127,-11.624207457650204,109.05895706313476,248.86412601465477,151.7972603652771
488,-35.626978717470664,-244.58038711565843,-28.09580814904262,-105.23685735792947,-11.876364529404425,111.15589500860806,248.74722575725966,152.9916495331707
489,-35.2433691451915,-244.48191506901978,-28.318164498698724,-104.89006190955746,-11.915519887477126,113.46025659658423,248.6241832441681,154.35048887688814
490,-34.841518780473784,-244.3801539550647,-28.53589353262529,-104.53498523027436,-11.727995021288523,115.98906987255393,248.4963427057226,155.90291897399723
491,-34.420328947640016,-244.27700687439443,-28.746480277529024,-104.17977873443817,-11.301412284162883,118.7567478534005,248.36512884825154,157.67536003783195
492,-33.979100646094174,-244.17442410219846,-28.94712652969911,-103.83048348822987,-10.62498473164266,121.77480468646074,248.23201833553753,159.69094030784657
493,-33.51759756367912,-244.07435856382835,-29.134820421686765,-103.49078037122582,-9.689804320907534,125.05159339476246,248.098511494333,161.96895840161977
494,-33.03610262515152,-243.97872006517446,-29.30642083887395,-103.16178792072338,-8.489125828516675,128.59206642503796,247.96610379235668,164.52438746937503
495,-32.53546637308629,-243.8893280362693,-29.458754877687394,-102.84191540795614,-7.018641814876423,132.39756164207128,247.83625646674713,167.3674304337236
496,-32.01714528937196,-243.80786280957628,-29.58872586730643,-102.52677922990173,-5.276741444027065,136.46561817145547,247.71036583598467,170.50313743500936
497,-31.483227924892105,-243.73581597376244,-29.693428740196335,-102.20919106376023,-3.264743449162777,140.78982841899395,247.58973121978175,173.93109847513728
498,-30.936446532188477,-243.67444106330007,-29.7702688574967,-101.87922593903325,-0.9870916379184638,145.35973442887104,247.47552199472406,177.64522567114287
499,-30.380171968594375,-243.62470671754122,-29.81707995706397,-101.52437706410048,1.548499389132844,150.1607782298883,247.36874512744336,181.63364008406631
500,-29.818390091464103,-243.5872552506771,-29.832236731127214,-101.12980174939807,4.330959935656057,155.1743167752188,247.27021535720695,185.8786775515885
501,-29.25565871717476,-243.5623699918998,-29.81475750897974,-100.6786591585722,7.345851951116617,160.37771234062188,247.18053071018323,190.35702621795483
502,-28.697045355757712,-243.54995462025198,-29.764392531090095,-100.15253614226584,10.575433451609639,165.74450865455302,247.10005603363436,195.04000551052883
503,-28.14804717533184,-243.54952710482212,-29.681693474505956,-99.5319524770946,13.998803611495605,171.2447015541013,247.0289168030446,199.89399231774053
504,-27.614495753961634,-243.56022994172656,-29.56806038873452,-98.79693191834215,17.592127562562805,176.8451107162678,246.96700473916337,204.88099539924826
505,-27.10244993378227,-243.58085732527118,-29.425763056099978,-97.92762099237413,21.328936013107924,182.5098561833932,246.91399592157467,209.95937394657184
506,-26.618080454409462,-243.60989884738385,-29.25793488199728,-96.90493370909324,25.18049123642747,188.2009401230127,246.8693812251713,215.08469097426317
507,-26.167550109069175,-243.64559837667485,-29.068538546926316,-95.71119757833277,29.11620802568943,193.87893064593896,246.83250811267382,220.2106870621521
508,-25.75689306410502,-243.68602592666753,-28.86230366165527,-94.33077460565745,33.10411594825204,199.503740650604,246.80263208593695,225.2903550502942
509,-25.391896811324116,-243.72915953994973,-28.644637563917502,-92.75063042590634,37.11134757014323,205.03549060352168,246.77897540089984,230.27709169650052
510,-25.077990052081873,-243.7729735131714,-28.42151128467714,-90.96082552899938,41.10463615624473,210.43543983982727,246.76079002850855,235.1258980497014
511,-24.82013965292968,-243.81552875870796,-28.199323656506078,-88.95490478962701,45.050805707004336,215.66696627193727,246.7474213980757,239.79459637091605
512,-24.622759635406126,-243.85506077747564,-27.98474745966611,-86.7301653660589,48.91723618872892,220.69656938814035,246.73836921419974,244.2450279888181
513,-24.48963494712711,-243.89006052920772,-27.78456220995121,-84.28778855607581,52.67228755347838,225.49486654724643,246.7333414956076,248.44419394614712
514,-24.42386247686971,-243.91934339145368,-27.605478543869832,-81.63282829985724,56.28566770510455,230.03754861803637,246.73229788567218,252.36529934099903
515,-24.427811326866856,-243.94210152805147,-27.45395920239677,-78.77405732871703,59.72873204120405,234.30625873900934,246.73547835789793,255.98866342369988
516,-24.503103628699392,-243.95793554453783,-27.33604152213002,-75.72368080521773,62.974705598701256,238.28935776846325,246.7434138957677,259.3024608450064
517,-24.650616186055785,-243.9668623700322,-27.257166231964057,-72.49693582738847,65.99882298591098,241.98254184683708,246.7569166565038,262.30326460902336
518,-24.87050210563402,-243.9692978112761,-27.222017242972765,-69.11160248627104,68.77838592520538,245.3892812522603,246.77704848838596,264.9963678017687
519,-25.162230554925095,-243.9660140637097,-27.23437694292492,-65.5874574965922,71.2927431284065,248.52105527927074,246.8050683639844,267.39586871641063
520,-25.524642009620653,-243.95807442869236,-27.29700116545329,-61.94570422966271,73.52320218590606,251.3973650334314,246.84236111364746,269.5245123270507
521,-25.956015841142925,-243.9467492141277,-27.411517497655627,-58.20841301173845,75.45288787630626,254.0455144287751,246.89035143894682,271.413289818784
522,-26.45414679426588,-243.93341797516837,-27.57835007342171,-54.39800280576541,77.06656538407911,256.5001587932713,246.9504082571448,273.1008066298566
523,-27.01642680092269,-243.91946386967894,-27.79667359683725,-50.53679010247416,78.35044995742261,258.802629882926,247.02374497557187,274.63243785945775
524,-27.639928720662315,-243.9061661689415,-28.06439894525431,-46.64662348785115,79.29202625014581,261.0000553691277,247.11132152201913,276.0592976625931
525,-28.321489032730632,-243.89459701728924,-28.378192063377128,-42.748613598333094,79.87990068387768,263.14429941585604,247.21375398142004,277.4370559329759
526,-29.05778714405928,-243.88552830947313,-28.733526848354376,-38.862958809716474,80.10370831712673,265.29075794945794,247.3312374228329,278.82464040331973
527,-29.84541959143343,-243.87935389143553,-29.12477148878632,-35.00885795378876,79.95409169066606,267.49704675998925,247.46348677440568,280.28286447537533
528,-30.680967803701343,-243.87603112974563,-29.545306545749128,-31.20449365661928,79.42276305263235,269.8216222602837,247.60969936555293,281.8730203688564
529,-31.561058270479524,-243.87504436769277,-29.98767207873951,-27.46706445720708,78.50265384518369,272.3223739742486,247.76854114982368,283.65547415335624
530,-32.48241413169993,-243.87539113253004,-30.44374023501582,-23.81284118944976,77.18814725825685,275.0552256035925,247.9381569013475,285.6882950768777
531,-33.441897495694754,-243.8755904087629,-30.904908893084567,-20.257223195904537,75.4753819099646,278.0727788058727,248.1162030824109,288.0259474458391
532,-34.43654216628372,-243.87371102977357,-31.36231127972114,-16.814772413991992,73.36260802958964,281.42303115816594,248.29990079503148,290.7180697715098
533,-35.46357678430889,-243.86741740947775,-31.807036017290997,-13.4992076543721,70.85057252226227,285.1481972569327,248.4861053875936,293.8083630919444
534,-36.52043862268614,-243.85402950156399,-32.230351752165646,-10.323346861843426,67.94290643540205,289.2836593824576,248.67138894200033,297.3336081727722
535,-37.60477847400475,-243.83059395838208,-32.62393034916372,-7.298991250455591,64.64648771036268,293.8570715315133,248.8521319488902,301.3228294999402
536,-38.714457278615534,-243.79396376106317,-32.980062618514424,-4.436751430622725,60.971753376054885,298.8876377434517,249.02462079564518,305.7966222861854
537,-39.84753530551071,-243.74088385413174,-33.291860576931604,-1.745821587334888,56.932938071994755,304.3855822018449,249.18514797714192,310.76665663099556
538,-41.00225471406746,-243.6680803501896,-33.553440248189204,0.7662867993742873,52.54821967222281,310.35182431515125,249.3301119804422,316.23537011322287
539,-42.17701616380726,-243.57235068590973,-33.76007913337742,3.0940353593860332,47.83975764461756,316.77786689513607,249.45611362122332,322.1958564155383
540,-43.37034994369731,-243.4506519338879,-33.908343023198036,5.234152912973962,42.83361532479666,323.64589998071267,249.56004550164192,328.63195330171425
541,-44.58088208733308,-243.30018452697084,-33.996177896230094,7.185909697007216,37.559563052605114,330.9291172091771,249.63917148168414,335.51852867226194
542,-45.80729617919724,-243.1184689811244,-34.022964060488576,8.951346605396822,32.05076473760433,338.59223620573334,249.69119363760623,342.82195872102136
543,-47.04829183525915,-242.90341373882228,-33.98953114868833,10.535434622453861,26.343355672939637,346.59220931440774,249.71430497542104,350.50078748573065
544,-48.30254096155251,-242.65337290251495,-33.89813391526808,11.946142190394093,20.475924092922572,354.8791060996964,249.70722702732493,358.5065523615068
545,-49.568642902062116,-242.36719327995368,-33.75239006445668,13.194393246064386,14.488912879813766,363.39714447019605,249.66923229696314,366.78475556514815
546,-50.845079632293405,-242.04425069620663,-33.55718260507315,14.293905967795506,8.42396099074418,372.0858431730523,249.600152245585,375.27595734412637
547,-52.13017227154706,-241.6844758298756,-33.318530326349006,15.260911322468338,2.323206754288686,380.8812649336847,249.50037199852696,383.9169631269783
548,-53.42204032899664,-241.28836987802993,-33.04343075277576,16.11376026309709,-3.771422844913045,389.7173168161458,249.3708131419917,392.6420739442328
549,-54.71856527352249,-240.85701027100234,-32.739680395123465,16.87243759569778,-9.818911686277893,398.52707266174633,249.21290600208832,401.38436744265164
550,-56.01736025343795,-240.39204664942687,-32.415677406781896,17.558007889914744,-15.779817641748501,407.24408192031984,249.02855287621782,410.0769758004014
551,-57.31574800855777,-239.89568748814082,-32.08021193077573,18.192023560992006,-21.6168752101516,415.80362987597937,248.82008391464723,418.65432689094064
552,-58.610749044717274,-239.37067802850154,-31.742249436285658,18.7959271801411,-27.295515683967395,424.1439161680276,248.59020761172013,427.0533162005813
553,-59.89908192226692,-238.82027037960137,-31.410712215142883,19.39047940112839,-32.78428618428967,432.20712167465507,248.34195797531999,435.2143794521586
554,-61.17717717401976,-238.24818660709454,-31.094264113834374,19.995241055113777,-38.055153560936084,439.940338333297,248.0786402929179,443.0824398007148
555,-62.44120604588155,-237.65857530599305,-30.80110363706372,20.628133403841975,-43.08368499559534,447.2963421427171,247.80377700761028,450.6077087259359
556,-63.687124928670656,-237.05596166889626,-30.538770622739335,21.30509461953598,-47.84910360250051,454.23419590570546,247.52105464751023,457.7463258235946
557,-64.91073593527103,-236.44519060707094,-30.31397152199666,22.039843591330783,-52.334223799848495,460.7196746164337,247.23427215274762,464.460828951749
558,-66.10776352863792,-235.83136221820644,-30.132427933655105,22.843754466328658,-56.52527735935933,466.72551245513097,246.94729046012415,470.72045226602575
559,-67.27394641100852,-235.21975893544607,-29.99875259226939,23.725837351524934,-60.41164650586698,472.2314761792536,246.6639829614191,476.50125558795435
560,-68.4051430130419,-234.6157641040353,-29.916356444556282,24.69281298781118,-63.985524702964774,477.22427539531316,246.38818649966842,481.78609431401884
561,-69.49744787901177,-234.02477245138022,-29.88738954473529,25.749262828593935,-67.24152823557915,481.69732555888936,246.12365282505235,486.56444441748255
562,-70.54731518927359,-233.45209371788397,-29.912717208420304,26.8978316859377,-70.17628210255135,485.65038411844984,245.8740007197841,490.8321015400552
563,-71.55168485728957,-232.90285134559085,-29.99193146834224,28.13945857440708,-72.78800220800076,489.0890835678235,245.64266917755808,494.5907763456076
564,-72.50810622519879,-232.3818784867586,-30.12339669010761,29.4736128530759,-75.0760928021144,492.02438702679694,245.43287207113121,497.84761002898597
565,-73.41485427810808,-231.8936138005258,-30.30432724513292,30.898517084336454,-77.04077410414362,494.4719920385412,245.2475547430759,500.6146339382556
566,-74.27103335832831,-231.4419996814246,-30.530894198343116,32.41134448304476,-78.68275068722768,496.45170628651346,245.089352975301,502.9081954601497
567,-75.0766635815241,-231.03038567045394,-30.798356996484262,34.00838610171528,-80.00292720120424,497.9868150677427,244.96055479811798,504.7483687946913
568,-75.8327456859786,-230.6614396756606,-31.10121534785886,35.685189377625385,-81.00217485129795,499.1034554642393,244.8630655103574,506.1583647701026
569,-76.54130098031264,-230.33706922133135,-31.433376090558305,37.43667402969724,-81.68114986947471,499.830007314153,244.79837610413404,507.16394939909094
570,-77.20538428175678,-230.05835440570908,-31.78832983551429,39.25723286088723,-82.04016390468345,500.19650700558185,244.7675351284246,507.7928770909896
571,-77.82906904699207,-229.82549376638676,-32.15933232614531,41.14082376702513,-82.07910576134137,500.2340870680873,244.7711239745554,508.0743415846956
572,-78.41740514556395,-229.63776391597065,-32.53958565305822,43.08105565800664,-81.79741426346757,499.97444270185673,244.80923564725074,508.03844598270433
573,-78.97635080728615,-229.4934936871243,-32.9224147834934,45.07126593627778,-81.19410304714758,499.4493259731884,244.88145734051832,507.71569297954693
574,-79.5126810561369,-229.39005371952533,-33.30143534515986,47.1045817655043,-80.2678392654895,498.6900694424222,244.9868576265308,507.1364974852884
575,-80.03387533131486,-229.32386289699622,-33.67070904100701,49.17395277368829,-79.01707893334387,497.727143177886,245.1239796978026,506.33072602288433
576,-80.54798707058569,-229.2904135209877,-34.02488327044762,51.27214015392474,-77.4402616408679,496.58975194949113,245.2908426143681,505.3272700739731
577,-81.06349802188929,-229.28431724687013,-34.359311570512396,53.391647199199994,-75.53606658345242,495.3054823629172,245.4849526635622,504.1536635399123
578,-81.58916012508837,-229.29937345285055,-34.67015158943301,55.524579561990365,-73.30373018126994,493.9000122410968,245.70332667522584,502.83575721411535
579,-82.13382792510873,-229.3286609191547,-34.95443761585956,57.662429826305605,-70.74342270783146,492.39689605613114,245.94252851496861,501.3974650187474
580,-82.70628453561275,-229.36465263496078,-35.21012530158864,59.795789615230824,-67.85667711093078,490.81744007906616,246.19871914081676,499.8605971118137
581,-83.31506424025442,-229.39935237728687,-35.43610716794382,61.91400231033549,-64.64685772464982,489.1806788381733,246.46771973002217,498.24479341854664
582,-83.96827507808132,-229.4244505488025,-35.632198594500316,64.00477915687044,-61.11965031129058,487.50346048287724,246.74508661631114,496.5675675844194
583,-84.67342521100223,-229.4314957624093,-35.79909492186572,66.05380953820055,-57.283548622596754,485.8006430133905,247.02619620285634,494.844465923561
584,-85.4372572965144,-229.41207788623876,-35.93830097983284,68.04440101790847,-53.15030755362112,484.08539649129045,247.30633760745343,493.0893389900307
585,-86.26559532589721,-229.35801761985098,-36.05203509982614,69.95718532532548,-48.735330231349415,482.3695987547323,247.58081045936103,491.31471540402015
586,-87.16320843944507,-229.26155709685153,-36.14311075026849,71.76992268294005,-44.05795690879536,480.66430426803515,247.84502498080008,489.532259078266
587,-88.13369606644608,-229.11554567103556,-36.21480014993536,73.45742962723187,-39.14162745509725,478.98025824399343,248.0946013634019,487.75328285599466
588,-89.17939824254353,-228.91361517613345,-36.27068518765973,74.99164629850637,-34.01389601645133,477.3284222358011,248.32546560513808,485.9892850337914
589,-90.30133415845272,-228.6503395440838,-36.31450162796414,76.3418497888914,-28.706285216535726,475.7204741951984,248.53393939158812,484.2524715354177
590,-91.49917111924034,-228.32137444340142,-36.34998308454539,77.47501196610779,-23.253977116306515,474.16924621346476,248.7168221295156,482.55622630866714
591,-92.77122530539467,-227.9235732389542,-36.38071159096407,78.35629392392788,-17.695348159618753,472.6890668588669,248.87146363089872,480.91549585276783
592,-94.11449494635644,-227.45507596556635,-36.40998150044394,78.9496646083436,-12.07136487943857,471.295981810404,248.99582602860062,479.3470601788462
593,-95.524725559805,-226.91536829666887,-36.44068273081514,79.21862731834524,-6.424866038311244,470.007835611742,249.08853332472765,477.8696711158408
594,-96.99650574034519,-226.3053079252312,-36.475208270620854,79.12703369719655,-0.7997650161925295,468.84420772734063,249.14890677759985,476.5040485238816
595,-98.5233907705516,-225.62711656834009,-36.51538970690548,78.63996010172303,4.759786997755199,467.82620636701523,249.17698442305635,475.2727343482953
596,-100.09805024498856,-224.88433708232273,-36.56246328516975,77.72461636063586,10.21023243545547,466.97613256369726,249.17352356996142,474.19981245964215
597,-101.71243495878146,-224.0817568702527,-36.61706739476134,76.35125309456097,15.509389030392523,466.317034002637,249.13998602165896,473.31050840794046
598,-103.35795752025497,-223.22530055518797,-36.67927041235612,74.4940322330872,20.61714267729496,465.8721729140687,249.07850676735984,472.63068774639305
599,-105.02568064502064,-222.3218963553567,-36.748625936503615,72.13182693982125,25.4960225240987,465.6644350252374,248.99184768318707,472.18627483919306
600,-106.70650702528393,-221.37932149065827,-36.82425092006819,69.24892195091427,30.11164273413991,465.7157071508467,248.88333826420626,472.0026161764423
601,-108.39136503563826,-220.40603229245326,-36.90492102125758,65.8355926396805,34.43300949594029,466.0462496248225,248.75680559591748,472.10381306796467
602,-110.07138524266891,-219.41098455652929,-36.98917659802117,61.888549539519175,38.4327040411755,466.67408707113805,248.61649571094088,472.5120482859174
603,-111.73806361013267,-218.40344907794986,-37.07543238611414,57.411242967216715,42.08696059461005,467.6144379966676,248.46698816652514,473.24693023957036
604,-113.38340819239455,-217.3928263405097,-37.16208425838319,52.41402853153416,45.37566152449857,468.8792011610771,248.3131051463104,474.32487705052563
605,-115.00006670935092,-216.38846332910123,-37.2476074599335,46.91419814046045,48.282271034885255,470.47651474223585,248.15981578881082,475.75856151220034
606,-116.58143269794033,-215.39947473705462,-37.330642035970946,40.93588282733453,50.793724938345704,472.4104024341945,248.01213603984084,477.55643599297014
607,-118.12172826130089,-214.43457059693645,-37.410062599166196,34.50983405627083,52.90028898293332,474.680518018395,247.8750243598394,479.72235335755374
608,-119.61606204469656,-213.50189254412112,-37.48503103581139,27.673090137920415,54.59539337094691,477.2819961280428,247.7532741683773,482.2552956748557
609,-121.06046185764622,-212.60886141060928,-37.55503208095684,20.468534804355155,55.875447693220565,480.2054119627761,247.65140480530172,485.1492171277126
610,-122.45188205433057,-211.76203942004625,-37.61989266158702,12.944356137622655,56.73963913842955,483.43684723285384,247.5735536725871,488.39300185517067
611,-123.78818626789025,-210.96701060603976,-37.67978641783417,5.153415620052088,57.18971735879712,486.95805442427644,247.52337276329888,491.9705322049352
612,-125.06810648572254,-210.2282829470095,-37.735225066968326,-2.847461509156065,57.22977095963721,490.7467071928158,247.5039328509775,495.86085853576
613,-126.2911799003338,-209.54921506522686,-37.78703852393715,-10.998262625790701,56.866002239128065,494.7767216495681,247.51763828262983,500.03845848580784
614,-127.45766554484669,-208.931969423314,-37.83634593589436,-19.23661884219849,56.10650783715031,499.01863173070063,247.56615483913973,504.47357167856194
615,-128.56844345905762,-208.37749312889653,-37.884519883952684,-27.498679417678094,54.96107304945509,503.4400019995361,247.6503528039007,509.13259541514213
616,-129.62490000631095,-207.88552690232453,-37.933145943111384,-35.7200185927761,53.440986674963064,508.0058631549047,247.7702673498245,513.978528068907
617,-130.62880381350655,-207.45464236451176,-37.98397966345367,-43.8365641829903,51.558881561684096,512.6791587860877,247.92507845547132,518.9714492614546
618,-131.5821774189348,-207.08230735222787,-38.03890281369855,-51.785536698373924,49.32860394785446,517.4211957143913,248.11311249659752,524.0690287016268
619,-132.48716998544396,-206.7649783403771,-38.09988027401381,-59.50638617433295,46.76511284141505,522.1920938227137,248.3318672477921,529.2270580923328
620,-133.34593641356366,-206.49821821590675,-38.168918276946734,-66.94171122358289,43.88440940728584,526.9512341522216,248.57806126505858,534.4000023388057
621,-134.16052794185822,-206.27683662461735,-38.248024003612386,-74.03814122860929,40.70349557821583,531.6577060538625,248.84770758875135,539.541567245796
622,-134.93279887042655,-206.09504895514866,-38.3391661220377,-80.74715864638769,37.240360560508385,536.2707552243171,249.13621050278505,544.6052808930244
623,-135.66433333715074,-205.94664885469822,-38.444235822718305,-87.02583500748058,33.513993308691965,540.7502345323335,249.43848279976024,549.5450850088856
624,-136.356395016197,-205.825188193546,-38.56500821875406,-92.83745241832634,29.54441824743273,545.0570588215643,249.74907974169832,554.3159312352202
625,-137.00990118167252,-205.72415781705905,-38.70310452904921,-98.15198314809471,25.35275038572031,549.153663628581,250.06234481903223,558.874375635543
626,-137.62542098037932,-205.63716234016383,-38.859956129265235,-102.94640372942804,20.9612643724771,553.004466235437,250.3725616572342,563.1791635513996
627,-138.2031962828819,-205.55808265105915,-39.03677216938774,-107.2048267926434,16.393470021219475,556.5763258703136,250.67410613128263,567.1917961916544
628,-138.74318232029705,-205.4812206659926,-39.23451278196833,-110.91844274784872,11.674184632955939,559.838998222772,250.96159295891624,570.8770700999745
629,-139.24510449175827,-205.40142211771504,-39.453869725863846,-114.08527321826791,6.8295904060815396,562.7655776434935,251.2300116533222,574.203580577551
630,-139.70852718965406,-205.3141745862173,-39.69525564612926,-116.70974765300491,1.887263669082682,565.3329183465576,251.47484754723,577.1441799020471
631,-140.13293018900106,-205.21567939411352,-39.958802278875986,-118.8021229053886,-3.123838017088331,567.5220236763499,251.69218450960585,579.676380618764
632,-140.51778810684382,-205.1028972158465,-40.24436720199905,-120.37777217804062,-8.173444253778344,569.3183902299219,251.8787868816692,581.7826933203122
633,-140.86264871004374,-204.9735681552081,-40.55154823105409,-121.4563744553338,-13.230106963687955,570.7122916379587,252.03215899780355,583.4508874082568
634,-141.16720638942135,-204.8262075908223,-40.8797042451234,-122.06103860841712,-18.261410039512565,571.6989855728611,252.15058136803768,584.6741628261583
635,-141.43136778363444,-204.66007933116876,-41.22798107286635,-122.2173981176569,-23.23425645557012,572.2788276517134,252.23312314785628,585.4512212849243
636,-141.655307234836,-204.47514765137169,-41.59534106001717,-121.9527129419844,-28.115230100323753,572.4572777859901,252.2796309320506,585.7862275194135
637,-141.8395105080194,-204.27200979768196,-41.980594969699396,-121.29501429080285,-32.87102331549836,572.2447883249716,252.29069433641615,585.6886547007158
638,-141.98480606481894,-204.05181093302278,-42.38243474867876,-120.27232559898233,-37.468915032531996,571.656568795705,252.26758959750714,585.173012982441
639,-142.09238410810727,-203.8161445401996,-42.79946539795548,-118.91198868410834,-41.87727933167534,570.7122285449747,252.21220373014677,584.2584656715206
640,-142.16380436936905,-203.5669426667103,-43.23023397859571,-117.24011807858572,-46.06610078937812,569.4353052954755,252.12694327544904,582.9683429357494
641,-142.20099394937867,-203.3063613145635,-43.67325390988652,-115.28119956716013,-50.007471366911815,567.8526937559731,252.01463261943545,581.3295676996108
642,-142.20623649107978,-203.03666634719525,-44.12702310431808,-113.05784199228792,-53.67604401608298,565.9939934851461,251.8784069479735,579.3720121962457
643,-142.182153830463,-202.76012476380785,-44.59003495758306,-110.59068517761305,-57.04942083819852,563.8907990275858,251.7216044625623,577.1278065692513
644,-142.1316811885113,-202.47890549049276,-45.06078176951677,-107.89846155075072,-60.108458378060405,561.5759579170485,251.54766193627952,574.6306230128267
645,-142.05803689323432,-202.1949931146644,-45.53775082379218,-104.9982044099943,-62.83747867484679,559.0828234744031,251.36001714781918,571.9149600967564
646,-141.9646874908172,-201.9101172745492,-46.01941393722051,-101.90559130766682,-65.22438085920764,556.4445293512747,251.1620211531501,569.0154518907743
647,-141.8553089284273,-201.62569977906546,-46.504211639774375,-98.63540633571971,-67.26065341336472,553.6933114443511,250.95686277216885,565.9662250707443
648,-141.73374435021208,-201.34282098164198,-46.990533309606235,-95.20210002763146,-68.94129129897973,550.8599001989338,250.74750714267776,562.8003243455681
649,-141.60395905415507,-201.06220630797088,-47.476694714119084,-91.62042031658942,-70.26462514966282,547.9730025906296,250.5366496920276,559.5492224829096
650,-141.46999334604527,-200.784232972113,-47.960914482082295,-87.9060831263336,-71.23207204024283,545.0588884232997,250.3266862781626,556.2424262751969
651,-141.33591428019832,-200.50895583274644,-48.441290861840514,-84.07644759446384,-71.84781937905683,542.1410903116706,250.1196994743056,552.9071844535415
652,-141.2057673888119,-200.2361502605329,-48.91577968862723,-80.15115936509675,-72.11845543330828,539.2402213075306,249.91746007053808,549.5682984293244
653,-141.08352936267679,-199.96536902126974,-49.382174129969506,-76.15272600885785,-72.05256194646016,536.3739091227707,249.72144201291306,546.2480323750021
654,-140.97306240709813,-199.69600957392336,-49.83808686943247,-72.10699098076401,-71.66028623979233,533.5568416180937,249.5328483880129,542.9661157676265
655,-140.87807097186715,-199.42738778389963,-50.28093589903647,-68.0434759010534,-70.95291206560134,530.800914621324,249.35264581581603,539.7398289303637
656,-140.80206184895687,-199.15881388417537,-50.707935646535894,-63.995564892655416,-69.94245013196942,528.1154700099382,249.1816047433325,536.5841600071273
657,-140.74830900785508,-198.88966667221106,-51.11609546970222,-60.00050931254261,-68.64127027435232,525.5076092193196,249.02034351765406,533.5120200257479
658,-140.71982474738638,-198.6194623760067,-51.50222760982655,-56.09923687918007,-67.06179715880545,522.9825649023317,248.86937459380252,530.5345012117016
659,-140.71933878611347,-198.3479151710417,-51.86296654528434,-52.335956141905704,-65.21628966132755,520.5441113671039,248.72915165740812,527.6611624744021
660,-140.7492868515892,-198.07498682509473,-52.1948011437789,-48.75755516012241,-63.11672050312208,518.1949927460358,248.60011668869296,524.9003250198692
661,-140.8118100799688,-197.80092335049528,-52.4941200138485,-45.41280153002904,-60.77476760250369,515.9373468849246,248.48274597153343,522.2593605645075
662,-140.9087660202506,-197.52627686973105,-52.757269386081056,-42.35135895078222,-58.201922435974005,513.773103052099,248.3775938016545,519.744954973805
663,-141.04175130748703,-197.2519111950939,-52.98062212514727,-39.622643021942274,-55.409713847457255,511.7043329626299,248.2853323188013,517.3633315398127
664,-141.21213519923418,-196.9789899248803,-53.16065600049172,-37.27454579678478,-52.41003834138977,509.7335373028308,248.2067855323476,515.1204205691593
665,-141.42110216919653,-196.70894616640607,-53.294038853034614,-35.352064949307064,-49.2155802309148,507.8638538335587,248.1429551775644,513.0219654433929
666,-141.6697006777769,-196.4434333672653,-53.37771788210378,-33.89587958733936,-45.84029784352341,506.09917804425515,248.09503562934674,511.07355973994544
667,-141.9588942409439,-196.1842573428487,-53.40901018413522,-32.940920856080304,-42.2999462551888,504.44419285445093,248.06441498715395,509.2806150907548
668,-142.28961015319936,-195.9332905384149,-53.38569172294031,-32.51499104329206,-38.61260336018947,502.9043095324763,248.05265977214006,507.64826473944817
669,-142.66278083782714,-195.69237076408646,-53.306081685278365,-32.637488987826956,-34.799164822309585,501.4855273144611,248.06148137185866,506.18121269465615
670,-143.0793730201065,-195.46318792146354,-53.16911878641245,-33.3183012313975,-30.883774949890796,500.1942236730823,248.09268344217,504.8835424676535
671,-143.5404009655239,-195.24716349272623,-52.97442617749351,-34.556916763128115,-26.89416494781502,499.03689039534606,248.14809109943306,503.7585022258194
672,-144.0469218471916,-195.04532867071728,-52.72236238320465,-36.3418177643969,-22.861876718853956,498.019832352942,248.22946483342426,502.80828452496644
673,-144.6000134912604,-194.85820775440953,-52.41405659044024,-38.65018896884608,-18.822358235151164,497.1488461225682,248.33840411392984,502.03381856354036
674,-145.20073678369968,-194.68571358590248,-52.0514271466419,-41.44797408375633,-14.814924553847298,496.4288947201908,248.47624707502138,501.43459136739546
675,-145.85008657908386,-194.52706128719865,-51.637182588819854,-44.69029019718642,-10.882586296857589,495.86379306424453,248.6439732535251,501.00851186317726
676,-146.54893586027455,-194.38070551245826,-51.17480530349984,-48.32219242674338,-7.071754096924838,495.45591679221945,248.8421162311338,500.75182880523397
677,-147.29797804980112,-194.24430511942447,-50.668518787472024,-52.2797639482865,-3.4318320306183514,495.2059450494025,249.0706922709665,500.65911026720215
678,-148.09767185589598,-194.11471775657134,-50.12324002230517,-56.49149304935398,-0.014714877946479101,495.11264598997917,249.32914974581402,500.72328908201865
679,-148.94819218204154,-193.9880253847582,-49.54451882756395,-60.87988965196268,3.1257961744947345,495.17271191701775,249.6163425714918,500.9357752960636
680,-149.84938970990942,-193.85959022740147,-48.93846655726009,-65.36328812076476,5.934645761020987,495.38064913923984,249.93052923807048,501.28663343732524
681,-150.80076072609594,-193.7241392166084,-48.31167685994069,-69.85777976202641,8.35623172695905,495.72872578316867,250.26939739669524,501.76481929540523
682,-151.80142747959943,-193.5758737868827,-47.67114081945925,-74.27921630725668,10.335155332339399,496.2069791376554,250.63011219635038,502.35846818474147
683,-152.85012806367507,-193.4086007678866,-47.024157787522526,-78.54522503746247,11.817001815308808,496.8032827818275,251.00938476659235,503.0552245898368
684,-153.9452139881343,-193.21587901763624,-46.378242550905476,-82.57717801174431,12.749138287134778,497.50347281564297,251.40355578095995,503.84260194172344
685,-155.08465343509425,-192.99117544978347,-45.741029612670644,-86.30206288003659,13.081515297810407,498.291531895998,251.8086882187681,504.70836116205925
686,-156.26603842458704,-192.7280235735581,-45.12017566525232,-89.65421074174589,12.767458283627956,499.14982927351554,252.22066325304715,505.64089736311263
687,-157.486594466054,-192.4201778223202,-44.52326099551377,-92.5768462040998,11.764435625199248,500.0594143465203,252.63527348793775,506.6296252536134
688,-158.74319170405133,-192.06175782379137,-43.9576897610937,-95.023434460093,10.034790832499063,501.00036010324294,253.04830858133306,507.6653547528887
689,-160.03235715764026,-191.64737821937226,-43.43058864626657,-96.95880820448444,7.546427146573061,501.95215097389354,253.4556297049018,508.74064847857306
690,-161.3502883254388,-191.17226137388067,-42.94870366183138,-98.36006243221553,4.27343378431473,502.89410702462453,253.85323109300356,509.8501518645662
691,-162.69286889966455,-190.63233192483133,-42.518295346694046,-99.21720738779287,0.1966443241089421,503.8058333533158,254.23728854812086,510.99088486379924
692,-164.05568733461408,-190.02429328236803,-42.14503304538088,-99.53356992343194,-4.6958811192412515,504.66768048728665,254.60419574182833,512.1624820841738
693,-165.43405865939158,-189.345686857358,-41.8338896293312,-99.32593273342174,-10.408458065030155,505.461199149633,254.95058958158248,513.367366622234
694,-166.82304967307223,-188.59493515344138,-41.589039348639815,-98.62440085392737,-16.93747326069145,506.16957156391965,255.27336630183396,514.6108426298036
695,-168.2175077053359,-187.771370127417,-41.41376299599025,-97.47198640935979,-24.271184128996826,506.77800192818495,255.56969047980397,515.901093325722
696,-169.61209315914522,-186.87524845455167,-41.31036534321337,-95.9239061384999,-32.38963315403111,507.27405086232017,255.8369995480518,517.2490748072054
697,-171.00131585066447,-185.907755405884,-41.28010954249117,-94.04659160411704,-41.26468750882415,507.6479021647218,256.07300628110136,518.6683011884445
698,-172.37957486858846,-184.87099884183846,-41.32317229739938,-91.9164188891426,-50.860211613148834,507.8925544648394,256.275701255251,520.1745225387374
699,-173.74120142380164,-183.7679943937551,-41.438622572446484,-89.61817272696103,-61.13237561243182,508.00393463015945,256.44335661837624,521.7853029879501
700,-175.0805039611225,-182.60264233843847,-41.62442553223972,-87.24326915938457,-72.03009624729556,507.9809335775271,256.5745317622827,523.5195116178845
701,-176.39181477320875,-181.37969601033777,-41.877472346993684,-84.88777062892211,-83.49559953224919,507.82536826782723,256.66808078715366,525.3967431377652
702,-177.66953763943027,-180.10472091875312,-42.19363568985743,-82.65023721291057,-95.4650891046001,507.5418761922443,256.72316117675916,527.4366888929603
703,-178.90819653351258,-178.78404322565072,-42.56785026258401,-80.62946644112436,-107.86950170197136,507.1377507412023,256.73924295520425,529.6584816010649
704,-180.10248594058774,-177.42468604448212,-42.994217253377045,-78.92218077595952,-120.63533243451882,506.6227276082646,256.7161176585037,532.0800394352652
705,-181.24732358669928,-176.034292167657,-43.46613095412277,-77.62072583267222,-133.68551655621494,506.0087337872146,256.6539065532916,534.7174366065013
706,-182.33790635817212,-174.62103231283808,-43.97642485848979,-76.81084376428852,-146.94035965006384,505.30961148434244,256.55306762729623,537.5843280281405
707,-183.36976992308195,-173.19349879825324,-44.51753358555926,-76.56958508187978,-160.31851235055706,504.54082896315595,256.4144010177148,540.6914542669932
708,-184.33885215109873,-171.7605856319522,-45.08166590929126,-76.96341842268284,-173.73798693187484,503.7191886868939,256.2390527329084,544.0462491363695
709,-185.2415599489431,-170.33135713333618,-45.660982989096155,-78.04659098739855,-187.1172105384952,502.8625402016498,256.02851667979724,547.6525658600144
710,-186.07483862750277,-168.91490814970922,-46.24777487259663,-79.85978225008694,-200.37610453574413,501.9895014429062,255.78463504176403,551.510529397336
711,-186.8362423976201,-167.52021944402938,-46.834627934870205,-82.42908063238484,-213.43717340962218,501.1191881874142,255.50959688041476,555.6165134793472
712,-187.52400410171023,-166.15601178933179,-47.41457631615578,-85.7652987643268,-226.22658153815573,500.2709478247835,255.2059344492714,559.9632324046972
713,-188.1371019319912,-164.83060182680418,-47.98123145745945,-89.86362999792487,-238.67519284854146,499.46409092715993,254.8765162420616,564.5399306454626
714,-188.67532072298818,-163.55176212518296,-48.528885334095854,-94.70363901895706,-250.7195471894994,498.71761254542184,254.5245354730926,569.3326485143939
715,-189.13930537757045,-162.3265874214695,-49.052584903663124,-100.24957378323417,-262.30274816255314,498.0498949937753,254.1534926584959,574.3245400071776
716,-189.53060395618255,-161.16136894522322,-49.548177412124225,-106.45098446178498,-273.375239622383,497.47838520501233,253.767171240052,579.496219437824
717,-189.85169782202928,-160.06147913273256,-50.01232803209644,-113.24363639748013,-283.89545116944635,497.01924234509846,253.36960565456957,584.8261160048542
718,-190.10601603337818,-159.03126983378257,-50.44251242411119,-120.55070616062233,-293.83029616992917,496.686954762882,252.9650417902838,590.2908190212736
719,-190.297931126831,-158.07398798381635,-50.836987318899,-128.2842501304849,-303.15550936689027,496.49392894170137,252.55789036404363,595.8654004246209
720,-190.4327337843211,-157.19171321187613,-51.1947425567549,-136.34693156113366,-311.85581548632246,496.45005653285665,252.15267438308607,601.523704905972
721,-190.5165846684227,-156.38532161704413,-51.51543839458189,-144.63398412845547,-319.92492545493144,496.56226869455713,251.75397237364618,607.2386013773589
722,-190.55644274491874,-155.65447890170896,-51.799332101377445,-153.03537853312395,-327.3653625332711,496.83408992098856,251.36635923532484,612.9821925644964
723,-190.55997042903874,-154.99766447502887,-52.047197696704664,-161.43814615064082,-334.1881264248595,497.26520638931413,250.99434635258254,618.7259824855637
724,-190.53541678695916,-154.41222647763487,-52.260242270994425,-169.72880263962455,-340.4122089851052,497.85106647701593,250.64232218420764,624.4410047006468
725,-190.49148083067516,-153.89446626285766,-52.44002192679014,-177.79580698166652,-346.0639800881382,498.58253323410617,250.31449424148167,630.0979174746171
726,-190.43715768146512,-153.43974980354523,-52.58835998639583,-185.53198866135062,-351.1764657978328,499.44560987247627,250.01483322874998,635.6670750076264
727,-190.38157100977458,-153.04264273025802,-52.707269528225275,-192.83687734699734,-355.7885426913913,500.42125940667734,249.74702005816116,641.118586118995
728,-190.3337956640063,-152.69706517120673,-52.79888162069881,-199.61887420786908,-359.94407209163666,501.4853382120362,249.51439641394464,646.4223728347857
729,-190.30267478755488,-152.39646217859726,-52.86538016534617,-205.7972102109797,-363.6909966205117,502.6086604188955,249.31991956032687,651.5482410651466
730,-190.2966360125257,-152.13398518124117,-52.90894413551926,-211.30364302613853,-367.08041939098246,503.7572058515815,249.16612212800848,656.4659739334066
731,-190.3235115369169,-151.90267951756337,-52.931697860118916,-216.08384997529862,-370.1656836179277,504.89247882036636,249.05507757544666,661.1454554469275
732,-190.3903670588445,-151.6956727234912,-52.93566949675987,-220.09848007590236,-373.00146772565705,505.97201876039037,248.98837187179626,665.5568285003836
733,-190.50334461226362,-151.5063580094317,-52.922757013571086,-223.32383442246993,-375.6429084221253,506.95005700141724,248.96708174471254,669.6706874280486
734,-190.6675242113237,-151.3285673350981,-52.8947002196825,-225.7521516230558,-378.14476181832237,507.77830755539435,248.9917596135791,673.4583022635186
735,-190.88680877045502,-151.1567286685574,-52.85305698896365,-227.3914839621719,-380.5606104714517,508.4068743570961,249.06242507798157,676.8918700028096
736,-191.16383598329935,-150.98600240788497,-52.7991819640662,-228.26516010940662,-382.9421222322991,508.7852532547643,249.17856256388905,679.9447876210726
737,-191.49991968250146,-150.81239266998983,-52.73420671470428,-228.41084100634436,-385.3383651908909,508.8634043501152,249.3391245024044,682.591942326579
738,-191.8950217174371,-150.6328303408865,-52.65902134920557,-227.8791864989605,-387.79518219490814,508.5928689917257,249.5425393069785,684.8100164600161
739,-192.34775387580189,-150.44522633969467,-52.57425845232592,-226.73216084698734,-390.35462858535936,507.92790566228507,249.78672348031057,686.5778073297017
740,-192.855408228491,-150.24849512096188,-52.48028045380956,-225.04101497860785,-393.05447781602425,506.8266199137719,250.06909738359775,687.8765656437872
741,-193.4140135840027,-150.04254972406042,-52.37717110191867,-222.88399184591978,-395.92780103800106,505.25206510745227,250.3866044091665,688.6903594135503
742,-194.01841523557897,-149.82827065714957,-52.26473113147723,-220.3438081332316,-399.0026279517231,503.1732926626477,250.73573341237702,689.0064725445568
743,-194.6623746426968,-149.6074516836795,-52.14247799868842,-217.50497060731905,-402.301696712649,500.5663323561312,251.11254428725059,688.8158480798304
744,-195.338685183793,-149.38272615293505,-52.009649776375056,-214.45098831507042,-405.8423001235899,497.41508450333254,251.5126965824326,688.1135846592416
745,-196.03929989542922,-149.1574777577313,-51.865213694607114,-211.26154247217897,-409.6362339224509,493.71210645877534,251.93148110631472,686.8994912096864
746,-196.75546732689702,-148.9357394118484,-51.707880158703006,-208.0096745214264,-413.6898512365207,489.4592760896836,252.36385457566018,685.1786998795606
747,-197.4778722666246,-148.72208336048922,-51.53612332866406,-204.75905041516174,-418.00422563396944,484.6683152292484,252.80447752317608,682.9623317853788
748,-198.19677900952334,-148.5215048644437,-51.34820941846945,-201.56135707305765,-422.5754233913852,479.36115711117117,253.2477559004033,680.2682049800842
749,-198.9021758338385,-148.33930104759403,-51.1422335437069,-198.4538863332027,-427.39488277774666,473.5701437866828,253.68788702156442,677.1215694004321
750,-199.5839202054084,-148.18094586793126,-50.91616502387186,-195.45736282048995,-432.44989364408656,467.3380426621259,254.1189105271465,673.5558492724407
751,-200.23188478152912,-148.0519616773621,-50.66789963840819,-192.57407415730256,-437.72416450216883,460.7178753930016,254.53476481685948,669.6133693236652
752,-200.83610459144194,-147.95778751291027,-50.39531583791422,-189.78636318491638,-443.1984575070924,453.77255696326375,254.9293490456799,665.3460370136955
753,-201.38692594428426,-147.9036441545113,-50.09633075906983,-187.05554054106253,-448.85126569304026,446.57434728846016,255.29659049846651,660.8159488906946
754,-201.8751576479453,-147.89439603636234,-49.768951348929626,-184.32127075929426,-454.6595027754551,439.20412166991963,255.63051697065134,656.0958854687058
755,-202.2922249012002,-147.9344102265581,-49.41131606354363,-181.5014756645739,-460.5991746843054,431.75046975152975,255.92533356885173,651.2696562991446
756,-202.63032572632943,-148.02741294966813,-49.02172350599579,-178.49278586366722,-466.646003710272,424.30863542743464,256.175503134862,646.4322556744212
757,-202.88258913812047,-148.1763446335644,-48.598645947685846,-175.17155592547846,-472.77597972585636,416.9793127428297,256.3758294241087,641.6897897460672
758,-203.04323348728104,-148.3832151454762,-48.140727554624206,-171.39544312334104,-478.9658169330193,409.8673156214054,256.52154218847784,637.1591375975992
759,-203.10772261016834,-148.64896148322086,-47.6467687019823,-167.00553500566656,-485.1932979789347,403.0801425137052,256.60838317617055,632.96731194563
760,-203.07291658734079,-148.9733105124817,-47.1156986653409,-161.82899870289992,-491.4374900519204,396.7264606959025,256.63269160669574,629.2504899042838
761,-202.93721310742563,-149.3546494383359,-46.546539463758606,-155.68221507910258,-497.6788205117924,390.9145384786768,256.59148702412216,626.1526910099697
762,-202.70067474897897,-149.78990678746007,-45.93836411283665,-148.37435308735655,-503.89900371543087,385.75065639819223,256.48254687171715,623.8240887049617
763,-202.36513708779873,-150.27444695414403,-45.29025305805194,-139.71133296460457,-510.08081663461047,381.33753005309757,256.30447591936303,622.4189526702312
764,-201.93429260191914,-150.80198184069639,-44.60125281934057,-129.500120095329,-516.2077287224321,377.77277729786675,256.0567649215287,622.0932323855757
765,-201.4137460349403,-151.36450362997255,-43.87034074408064,-117.55328371805604,-522.26340073185,375.14746087831617,255.73983658758806,623.0018063598354
766,-200.81103814974867,-151.95224313889017,-43.09639930198818,-103.69374605579314,-528.2310767682335,373.54473442635623,255.35507802236296,625.2954357108464
767,-200.1356363571386,-152.55365857403675,-42.27820257117579,-87.75963859032609,-534.0929025307466,373.0386153566532,254.90486004902004,629.1174743184239
768,-199.3988921471731,-153.15545986064032,-41.4144164059834,-69.60917415100516,-539.82920949316,373.69290303337084,254.39254495737387,634.6003999934557
769,-198.6139663063577,-153.7426738227406,-40.50361240718922,-49.12543711915325,-545.4178092613057,375.56025498398327,253.82248490778179,641.8622416802671
770,-197.79572345536863,-154.29875509630273,-39.544294650451434,-26.220989600557395,-550.8333446083136,378.6814282907053,253.20001329149937,651.0029865713068
771,-196.96059753157806,-154.80574671401698,-38.53493745391375,-0.8421886462660998,-556.0467440929298,383.0846879046398,252.53143085936512,662.1010581962086
