time,ax,ay,az,gx,gy,gz,accmagnitude,gccmagnitude
0,31.970423501879022,-252.94812903181148,32.11933764856271,-36.03565631980472,13.034765569185218,-2.797025463314975,256.97554887541355,38.374804989078605
1,31.861133415710714,-252.79992219655716,31.968727998280663,-36.25147575488392,13.103911651836555,-2.7344482777780583,256.8002312940347,38.61943742019218
2,31.755058924868827,-252.65561356375215,31.806763298030166,-36.469194045324116,13.169233725344466,-2.676316033676419,256.62773061232303,38.86567285267365
3,31.652393665691,-252.51559128960324,31.636322378564977,-36.685475681717,13.232864413980682,-2.62374418894195,256.4587761995015,39.11102192774912
4,31.55331342260565,-252.38020668397147,31.46036109230085,-36.89711570137678,13.296913099990874,-2.5778550724038047,256.29406964855787,39.35311182698392
5,31.457989349108473,-252.2497794234464,31.281846579237516,-37.101141712319595,13.3633929019139,-2.539754521461899,256.13428411476906,39.589757470821326
6,31.366596197366555,-252.12460174437052,31.103696792761035,-37.29489719020882,13.434153975124755,-2.5105084701553557,255.9800626075196,39.81901644480852
7,31.27931454737117,-252.0049406475484,30.92872665191035,-37.47610198923254,13.510826395000429,-2.4911200816083623,255.8320143090776,40.03922487456147
8,31.196326821950702,-251.89103740601584,30.75960144310532,-37.64288836474309,13.594775765921527,-2.4825077510695808,255.69070826258684,40.24901366240973
9,31.117807744939075,-251.78310424380277,30.59879751847958,-37.79381325131779,13.687073994138165,-2.485484051952912,255.5566643819084,40.44730661187069
10,31.043910663847196,-251.6813187611469,30.448569941515533,-37.927849628030856,13.788486319241938,-2.5007355468527446,255.43034248243814,40.633303567824605
11,30.974751693262927,-251.58581726045355,30.310926486004526,-38.04436123894305,13.899473945080707,-2.528803364200911,255.31213063951768,40.8064525670872
12,30.910393908384265,-251.4966883603977,30.18760730079175,-38.14306563072262,14.020209869170092,-2.5700645244284264,255.20233443256208,40.96641514715662
13,30.850833804345214,-251.41396812359213,30.08006963964197,-38.223990445863485,14.15060422147083,-2.6247141563794814,255.10116848268285,41.11302855272342
14,30.79599187277798,-251.33763750372702,29.989477273356684,-38.28742723425933,14.290334873982339,-2.692748957480628,255.0087512628936,41.246267777557726
15,30.745708454152627,-251.26762247564454,29.916694386381728,-38.33388584950521,14.438879293470961,-2.773952503251958,254.9251036667417,41.36620933875995
16,30.699745218900826,-251.20379692805133,29.862283827792808,-38.36405101691137,14.595544377055756,-2.8678832585156675,254.85015145623552,41.47299756777293
17,30.65779196060343,-251.14598827698484,29.826509638346213,-38.3787412002744,14.75949207612731,-2.9738663070181057,254.783731517056,41.56681320659942
18,30.619477910673385,-251.0939856535771,29.809343888857484,-38.37886872687726,14.929759806939602,-3.0909898328234204,254.72560170194268,41.64784340089163
19,30.58438643660033,-251.04755030757343,29.810477907342722,-38.365399418804735,15.10527586431847,-3.2181072508825332,254.67545379636746,41.71625189376146
20,30.552071761868213,-251.00642755498126,29.829337768519405,-38.33930976487772,15.284871139249116,-3.353845649797315,254.63292878019442,41.772148328558764
21,30.52207632752065,-250.9703592805085,29.86510352285136,-38.301539935047025,15.46728912694744,-3.4966209358246125,254.59763319559102,41.81555596242446
22,30.493947622282857,-250.9390957942591,29.9167312789863,-38.252941671333495,15.651196282151199,-3.6446597700943775,254.56915520261975,41.84637769098868
23,30.46725361236856,-250.9124058266514,29.98297706062261,-38.19422122671322,15.835194272059192,-3.79602806569729,254.54707889826815,41.864361053094854
24,30.441596131825072,-250.89008365903533,30.062421338799673,-38.12587887326261,16.01783488747217,-3.9486654795822123,254.530995705463,41.869063747144835
25,30.41662170299566,-250.8719527942488,30.15349329734972,-38.04814773960249,16.19763761319618,-4.10042504502727,254.5205120667225,41.8598219527026
26,30.392029357029614,-250.85786607535272,30.25449423601215,-37.96093554111941,16.37310926011787,-4.24911688898707,254.51525322393738,41.835724157779886
27,30.367575235016925,-250.8477026175144,30.363619977873185,-37.86377296038956,16.542764585267275,-4.3925548842711235,254.51486339484876,41.795593077264094
28,30.343074041420746,-250.84136221983758,30.478982568834017,-37.755772052849984,16.705146412822966,-4.52860507233497,254.5190030395997,41.737977629277715
29,30.318397670584744,-250.83875809576844,30.598631779321085,-37.63559730524732,16.858843432708152,-4.655234696993183,254.52734413713765,41.6611560178044
30,30.293471491353788,-250.8398088849037,30.720576848946436,-37.50145115689274,17.002503694419154,-4.77056067989345,254.53956452469865,41.56315006718535
31,30.26826892337024,-250.84443097527418,30.84280859443025,-37.3510751177035,17.134841979918065,-4.872896370633147,254.55534239676857,41.44175033285754
32,30.24280512879416,-250.85253207341137,30.963321642380862,-37.181767082251476,17.254639818901847,-4.960795450137775,254.57435194740142,41.294551222568764
33,30.217130820630498,-250.86400665827293,31.080136419243757,-36.9904149104972,17.360737826300358,-5.0330919470726005,254.59626084813428,41.11899525311739
34,30.191327222608464,-250.87873353428506,31.191320715391072,-36.773545771597405,17.452021100509196,-5.088935418372985,254.6207298675278,40.91242550474992
35,30.165503029198245,-250.89657533216655,31.295010963664428,-36.527390262939676,17.52739946543676,-5.127820451259752,254.64741459852686,40.67214536814776
36,30.13979385799683,-250.91737961174903,31.389433627807993,-36.24796010629283,17.585785318710762,-5.149609800126175,254.67596906156558,40.39548495009361
37,30.114364267882987,-250.94098117977057,31.472927237411415,-35.93113828332981,17.626072721865537,-5.154550693506799,254.70605088109053,40.07987399506343
38,30.089412014551144,-250.9672052315687,31.54396564120719,-35.57278055003962,17.64712199587456,-5.14328409735121,254.73732768641915,39.722921601752084
39,30.06517388032628,-250.99587086042405,31.601182898725728,-35.168827052469524,17.647754249268367,-5.116846935157991,254.7694842645907,39.32250298855343
40,30.0419321754481,-251.02679435678021,31.643399799182184,-34.7154221393593,17.626759812260087,-5.076667390597951,254.80222979102322,38.87685291720945
41,30.02002086170303,-251.0597916436732,31.669651341633823,-34.20903958447294,17.58292350475468,-5.02455342789099,254.83530429107327,38.384664267101
42,29.999830190294315,-251.09467927679117,31.679213842602238,-33.646609579244064,17.515068209787522,-4.962674556525234,254.86848347734227,37.8451889976015
43,29.981808775359756,-251.13127368703712,31.671629869173348,-33.02564326231144,17.422116567645222,-4.893536666096445,254.90158129839335,37.25833763671149
44,29.96646213776319,-251.16938865640665,31.646729035673403,-32.34435029548673,17.30316889911639,-4.819949536842906,254.93444983510696,36.624772628646
45,29.954346960480024,-251.20883130678797,31.604642885734048,-31.601745064548844,17.157593795601354,-4.744986530158874,254.96697651192088,35.945990400151146
46,29.946060618478313,-251.24939713199154,31.545812570935883,-30.797737487123925,16.985126251479997,-4.671936137617911,254.99907893665002,35.22438692288828
47,29.942225949244694,-251.29086476523068,31.470988660513626,-29.933205147031554,16.78596689322108,-4.60424551944773,255.03069796833736,34.463301915848234
48,29.943471633039046,-251.3329911452762,31.38122294914397,-29.010044371526593,16.560875038656356,-4.545456618834899,255.06178969783338,33.6670375725633
49,29.950408904779007,-251.37550754175996,31.27785249113767,-28.03119862673873,16.311248301438166,-4.499135558806457,255.09231691118296,32.840848637385264
50,29.963605588321727,-251.41811668509908,31.162476372455735,-27.00066313380521,16.0391823338058,-4.468795817372271,255.12224045904327,31.99090174279669
51,29.983558565327815,-251.46049112342135,31.03692601490196,-25.923465123363187,15.747505808538818,-4.457815517695875,255.15151088204198,31.1242032534857
52,30.010665761481935,-251.5022728636055,30.90323004508981,-24.805619819577164,15.439787427208916,-4.469349411710051,255.18006060271085,30.248496406542557
53,30.045198680003374,-251.54307430181228,30.76357490932551,-23.654062898609574,15.12031328289579,-4.5062367878481915,255.20779695458543,29.372129983488495
54,30.087276570662027,-251.5824804268402,30.620262520040892,-22.47656048390004,14.79403421686075,-4.570907371142857,255.234596315254,28.503901764794207
55,30.136843492355055,-251.620052293283,30.47566630421503,-21.281597627152404,14.466483929770858,-4.665288052362772,255.26029965168283,27.652880501049875
56,30.193649717736413,-251.65533175803935,30.332187012872055,-20.07824582550786,14.143669580039639,-4.79071378829718,255.284709801646,26.828210186242643
57,30.257239052786662,-251.68784739620423,30.192209489503988,-18.876009644272948,13.831937448015646,-4.947846198309032,255.30759073271847,26.038900193650022
58,30.326943598226716,-251.71712137012352,30.058061366446758,-17.684652188423193,13.537816979230941,-5.136603363583585,255.32866884815778,25.293604543797535
59,30.401887147231587,-251.74267688976656,29.93197448153067,-16.51399934864221,13.26784712683099,-5.356104296940319,255.34763621824922,24.600393516867072
60,30.480997811472424,-251.76404583772458,29.816049694093373,-15.373723821628552,13.028389355411406,-5.60463154008334,255.36415547097187,23.966521295316248
61,30.5630297839745,-251.78077614942418,29.712225669510275,-14.273112063582127,12.825431981283646,-5.879615226431398,255.3778660008168,23.398194483898937
62,30.646593576158775,-251.79243863535962,29.6222520823,-13.220820453882675,12.664390899747874,-6.177641531477758,255.38839116649854,22.900348171272906
63,30.730193691202633,-251.7986331248827,29.547667599297228,-12.224630567800594,12.549912436813873,-6.494487620869161,255.3953462801199,22.47643840721577
64,30.812272512061966,-251.7989940636486,29.489782973492744,-11.291216861888332,12.485685127634458,-6.8251840414304485,255.39834741002096,22.128262036256213
65,30.891259097837455,-251.79319586375104,29.449669592600397,-10.425942448077095,12.47426844857013,-7.164104138865203,255.39702117181486,21.85581607244087
66,30.96562142683822,-251.78095827251155,29.42815382167948,-9.632699311356044,12.516947521981656,-7.505078734346404,255.39101562692423,21.657208684824653
67,31.03392028095387,-251.76205187433916,29.4258173607206,-8.913808003496817,12.613623140291175,-7.841533104296024,255.38001220078152,21.528632193590397
68,31.094862493245394,-251.73630377683202,29.4430035526895,-8.269988638267277,12.76274576151664,-8.166642328407931,255.36373837876127,21.464405433493667
69,31.147350878859665,-251.70360366856676,29.479829165612497,-7.70041037813168,12.961300311991137,-8.473500303384647,255.34198097511626,21.45708892183492
70,31.190528038874067,-251.66391066677792,29.53620071969148,-7.202821106641185,13.20484594281469,-8.755297179502096,255.31459992919727,21.497672081491853
71,31.223811472748586,-251.61726146977313,29.61183400655565,-6.773753062269811,13.487611747981454,-9.005499631929883,255.28154266012365,21.575827758941124
72,31.24691803832347,-251.56378016596375,29.706275110083077,-6.408794140896793,13.802646208417242,-9.218028135877804,255.24285888717327,21.68022561281578
73,31.259876604355888,-251.50368969763633,29.81892104861458,-6.10290873721075,14.14201498298075,-9.38742525445884,255.19871555424413,21.798892634616998
74,31.263028532063096,-251.43732454310842,29.949038187552166,-5.850787162569952,14.497038759971183,-9.509009025710384,255.14941117186763,21.91960613038016
75,31.2570162745956,-251.36514370802635,30.095776904818813,-5.647199826650259,14.858560323087346,-9.579006097735414,255.09538854604395,22.03030218665172
76,31.24276089021705,-251.28774267110242,30.258181660694326,-5.487332092397499,15.217227938930192,-9.594660447487001,255.03724456837256,22.11948142834538
77,31.221429619622494,-251.20586265383116,30.435196487382242,-5.367077812535759,15.563780937763287,-9.554315193681584,254.9757356191335,22.176594105235985
78,31.1943948779795,-251.12039558743487,30.62566669788404,-5.2832732307835135,15.889323260796315,-9.457466783239052,254.91177725797925,22.192388140005068
79,31.163186146645607,-251.0323834017532,30.82833811048818,-5.233857333415466,16.185571889335527,-9.304792281307442,254.84643719985357,22.159206324638472
80,31.129436412372165,-250.9430106088481,31.041855267952318,-5.217949420357434,16.44506924578762,-9.098151463417901,254.78092095676251,22.07122200431287
81,31.094824950110084,-250.85358946790484,31.264760085056487,-5.23583957901811,16.66135147220427,-8.840566003614416,254.71654984582634,21.924606167545626
82,31.061018273931097,-250.76553732536405,31.4954921664414,-5.288892862631809,16.829067529658076,-8.536178445493798,254.65473134483997,21.71762268016213
83,31.029611025927622,-250.68034618645896,31.732391749892127,-5.379373015265442,16.94404697136939,-8.190193864870807,254.59692218793512,21.450652089879434
84,31.002068623125087,-250.5995452846494,31.97370592097236,-5.510196085851937,17.00331681096722,-7.808807054490483,254.54458526006664,21.126147560326373
85,30.979673711356153,-250.52465822663459,32.217598506803974,-5.68462783930434,17.005070104809594,-7.399117545601423,254.49914214612227,20.748528835909376
86,30.96347866606336,-250.45715687391277,32.46216391928895,-5.905941313735796,16.948590795668668,-6.969033869066697,254.46192377158667,20.324021744964732
87,30.954266270264363,-250.39841422004292,32.70544511119093,-6.1770521909106915,16.83414105697747,-6.52716741848996,254.43412164164602,19.86045177187442
88,30.952520321897175,-250.3496581592206,32.94545563345409,-6.500149965311042,16.662818683529846,-6.0827154684657305,254.41674175790777,19.367000737598435
89,30.95840750716512,-250.31192751161484,33.18020548353212,-6.876342384645417,16.436392865686095,-5.645332575746523,254.4105626781147,18.8539356892724
90,30.971771504983778,-250.2860313511331,33.407730029758746,-7.305329448879558,16.157127056407095,-5.224989799961551,254.41609876870504,18.332318909482673
91,30.99213984581236,-250.27251277616855,33.62612089532515,-7.785121511377664,15.827597802280826,-4.8318218144076255,254.43356968533269,17.813707733060962
92,31.01874345826784,-250.27161863581043,33.833557454797486,-8.311813792166898,15.450518488270516,-4.475962857596614,254.46287737972844,17.30985269032667
93,31.050548178640618,-250.28327700386427,34.02833765455812,-8.87942693201218,15.028576976499892,-4.167373399728165,254.50359213404315,16.83240234456815
94,31.08629691330096,-250.30708411448467,34.208907199656004,-9.47982017951251,14.564296049667295,-3.9156601907858333,254.5549490185904,16.392622945280245
95,31.124560697182414,-250.34230205378677,34.37388660363579,-10.102680675974256,14.059925188918845,-3.7298929611910348,254.61585576081202,16.001140502710253
96,31.163796546948102,-250.3878679149404,34.522095970059404,-10.735589532595522,13.517371178579804,-3.6184215185509268,254.68491244104507,15.667711945795185
97,31.202409723470158,-250.4424145140116,34.65257751774602,-11.36416336724555,12.938173020359287,-3.5886973573700254,254.760442811279,15.40103061058232
98,31.238817817009412,-250.50430217432324,34.764615740313936,-11.97226869585034,12.323523569053883,-3.647104079309986,254.84053640844135,15.208569483270486
99,31.27151398291981,-250.57166049062505,34.85775475583816,-12.542305699581313,11.674336459379614,-3.7988007658770355,254.9230999886475,15.09646351132725
100,31.299126685472725,-250.64243840213604,34.93181200187724,-13.055557014695015,10.991352945922731,-4.047581919747057,255.00591618517387,15.069430107447651
101,31.320473479224628,-250.71446047650593,34.986887196558946,-13.492596119095838,10.275280014932012,-4.395756829753051,255.08670686419364,15.130725033506137
102,31.334606732387147,-250.78548717208872,35.02336556452774,-13.833748563455316,9.526949083754369,-4.844050429442474,255.1631985801324,15.282129478557993
103,31.34084974092527,-250.8532769972161,35.04191465518827,-14.059597672374336,8.747483876641944,-5.391527078542144,255.2331877971618,15.523963446497067
104,31.338822226713702,-250.9156487872252,35.043474521196366,-14.151524431028259,7.938466419900434,-6.035538277955965,255.29460397170328,15.855120446522314
105,31.328454636659202,-250.97054257514938,35.02924147420643,-14.092269228903799,7.102091198489157,-6.771695132004749,255.34556895878777,16.273118773639276
106,31.309991017853456,-251.01607755514735,35.000645955140094,-13.86650120112795,6.241299083779008,-7.593866352035894,255.38445131851574,16.774165259892957
107,31.28398063803534,-251.05060540656393,34.95932514837248,-13.46137929602534,5.359884517575407,-8.494202704778038,255.40991393500326,17.353228209198186
108,31.25125894802723,-251.0727569955496,34.90709097348806,-12.867088052014203,4.4625715418419105,-9.46318902000122,255.4209531686325,18.004117290836817
109,31.212918877214186,-251.08148053580112,34.84589427249537,-12.077330539675332,3.5550564964562077,-10.489725154042322,255.4169279007376,18.71956946295771
110,31.170273768922947,-251.07606981202755,34.777786419684396,-11.08976114237343,2.6440173510068212,-11.561237582645289,255.3975774374348,19.491341451113193
111,31.12481348921932,-251.05618187071914,34.70487998194721,-9.906341811388275,1.737091371763002,-12.663823462978694,255.36302810755154,20.310310724131615
112,31.078155422352122,-251.02184431841178,34.62931021939171,-8.533607011854134,0.8428238701337687,-13.782428960289186,255.3137891543376,21.16658806221311
113,31.031992272986084,-250.97345279996853,34.553199092755825,-6.982824613526111,-0.029408960962622892,-14.901063286171484,255.25073895152292,22.049645534750034
114,30.988038810435366,-250.91175937246163,34.47862309840316,-5.27004235412899,-0.8695005182334951,-16.003049182276506,255.17510269224454,22.948463928167246
115,30.947979753911206,-250.83785252450676,34.40758576188839,-3.4160121553600953,-1.6667357627923731,-17.07130952359656,255.08842267322837,23.851703395498433
116,30.913420781229362,-250.75312966298029,34.341995063295,-1.445987499957657,-2.409933781497363,-18.088688377166175,254.9925222645805,24.747900369192166
117,30.885844211053328,-250.65926299380473,34.28364550233781,0.6106076903541126,-3.0876106885809027,-19.038303276554558,254.88946462803386,25.625692587390652
118,30.866570448156793,-250.55815975982182,34.234204004270346,2.720636642485307,-3.688162825047639,-19.903923664847916,254.78150715548392,26.47407243158376
119,30.85672591310175,-250.45191771966378,34.19519853686775,4.847827711588574,-4.200069767598603,-20.670368447850915,254.67105242944308,27.282666718798506
120,30.857217869210643,-250.34277663012733,34.16800826990944,6.953462203620161,-4.612115486987996,-21.32391348793923,254.56059634157597,28.042038723122673
121,30.86871621399045,-250.2330664328292,34.153854344263095,8.997156844061246,-4.913624231383809,-21.852697829842946,254.45267393136888,28.744005556921067
122,30.89164191913123,-250.12515287007943,34.15379064941396,10.937721341231411,-5.094705771089292,-22.247115697871564,254.34980352586106,29.381961158509327
123,30.926161528040204,-250.02138134770095,34.16869421879165,12.734067815323145,-5.146503087107654,-22.500180082589548,254.25442984434747,29.951192228228127
124,30.972187125404222,-249.92402004119657,34.19925484734303,14.346145979170846,-5.061434805228769,-22.60784328720597,254.16886690468212,30.449171975939233
125,31.02938149016345,-249.83520351525544,34.245963438689955,15.735875834487876,-4.833424700634858,-22.569260335080205,254.09524185792645,30.875814994780587
126,31.097168475624265,-249.75687841052718,34.30909868314003,16.868048367891205,-4.4581112158151965,-22.386982775954586,254.03544121027036,31.23367634659803
127,31.174748663355164,-249.69075292659758,34.388712163585744,17.711164578049647,-3.93303092131339,-22.067073098329267,253.99106113272532,31.528079213938142
128,31.261119905193535,-249.63825187172498,34.484612788323005,18.238184510641297,-3.257771020010142,-21.619133225191334,253.96336366039728,31.76715813485142
129,31.355101841916962,-249.60047899621043,34.596352191427805,18.427161077878942,-2.4340870821459406,-21.056243719726368,253.95324057330623,31.96180852357007
130,31.455363367376247,-249.57818812483785,34.72321309852,18.26173824263332,-1.4659827765430131,-20.394812778072115,253.96118659490293,32.125537467197255
131,31.560452423475656,-249.57176413386145,34.86420257971281,17.73149920895029,-0.3597480417065745,-19.65433580131829,253.98728313262376,32.274215362339945
132,31.66882806366478,-249.58121410985368,35.01805173019656,16.832156881329958,0.8760490652926599,-18.857067769054037,254.03119311293383,32.42573260075565
133,31.77889489702152,-249.6061683158479,35.18322276178184,15.565585366458466,2.230623017809789,-18.0276122816424,254.09216671371266,32.59957001380738
134,31.889039680878973,-249.64589008234944,35.35792390036671,13.939697231310472,3.6910906089507067,-17.192433197418097,254.16905717533686,32.81629589245626
135,31.99766922013023,-249.69929345759988,35.540132030213634,11.968176348743247,5.242655010800411,-16.379297188413847,254.2603454534114,33.097005899288355
136,32.1032481754869,-249.76496732677364,35.72762275731002,9.670080411619175,6.868855432023849,-15.616658119392278,254.36417224313405,33.462724952124766
137,32.20433504676113,-249.8412047290297,35.91800739287279,7.069330734374356,8.551878178383244,-14.932996714965373,254.47837585294917,33.93379201198993
138,32.29961454394148,-249.92603630178257,36.108776213031334,4.194109978907391,10.272918788732907,-14.356131171259223,254.6005345700039,34.529249255528555
139,32.38792483314577,-250.01726716552537,36.297347240905424,1.0761909280911908,12.01257942437083,-13.912515803624212,254.7280125526126,35.26625586509596
140,32.4682786916423,-250.11251703573032,36.4811197163397,-2.2497788733990887,13.751281908537864,-13.626545366459434,254.8580088049207,36.159543544405096
141,32.5398782142573,-250.2092637508735,36.65753129476935,-5.747011178692587,15.46967536605831,-13.519882561915203,254.98760924177458,37.22092650730803
142,32.60212317281118,-250.3048906003817,36.824117760168164,-9.37730494914009,17.14901825559706,-13.610825806661042,255.1138420641741,38.458874143638226
143,32.65461341387267,-250.39673775175976,36.97857362211225,-13.101744956301495,18.771517151033397,-13.913733699326796,255.23373656131642,39.87815068567233
144,32.697145882272565,-250.48215768437439,37.11881151469512,-16.881350594131796,20.32060825195175,-14.438521764320498,255.3443850349235,41.47952340679805
145,32.729706987590156,-250.5585738701932,37.243018026794104,-20.6776581155541,21.781171810876653,-15.190245850644317,255.44300686389357,43.2595393981694
146,32.752461004824006,-250.62354117627368,37.34970353447537,-24.453224377061147,23.139674117745937,-16.168785049454733,255.52701296346524,45.21037093499236
147,32.76573507233184,-250.67480591047627,37.437743678592184,-28.172046203498326,24.384236064126767,-17.368635236313803,255.59406834166913,47.31973079445635
148,32.77000137671553,-250.71036332863824,37.50641031411229,-31.799896205800536,25.504631408042773,-18.778822374902454,255.64215038315965,49.57086122665497
149,32.76585746859462,-250.72851074513892,37.55539019079368,-35.30458244565574,26.49222171071094,-20.382942510770693,255.6696009185654,51.94260302153903
150,32.75400615186088,-250.7278949037346,37.58479033458671,-38.656144856701026,27.339838712847087,-22.159332936927825,255.6751708156353,54.40955369875834
151,32.73523662489844,-250.70755271923872,37.59512986578145,-41.82700515146716,28.041628660122946,-24.081376418591542,255.65805642205942,56.94232575100492
152,32.710408312370696,-250.6669447752317,37.58731861894149,-44.79208865147078,28.592876289691887,-26.117937726031457,255.617927524039,59.50791643327053
153,32.680438294685835,-250.6059811017358,37.562623434216306,-47.52893580225665,28.98982801439109,-28.233928994599424,255.55494662505942,62.07019899439754
154,32.64629275467508,-250.52503884314265,37.52262340489556,-50.017818019285556,29.22953365462822,-30.39099736268626,255.46977942534417,64.59054091385828
155,32.60898256270377,-250.42497142817106,37.46915563727648,-52.24186730998072,29.309723952554947,-32.548324650142774,255.3635963737826,67.02854779133617
156,32.56956290278274,-250.30710865114193,37.40425319510433,-54.1872226621447,29.228737814422267,-34.6635244384581,255.2380649401137,69.34292300942677
157,32.52913650058274,-250.1732466542811,37.33007693891166,-55.843189591680684,28.985509604404356,-36.69361699176741,255.09533179037737,71.49242449756171
158,32.48885945251791,-250.0256263465954,37.24884301862024,-57.20240355070349,28.579623170291292,-38.59605745922934,254.93799352371934,73.43689202358941
159,32.44994797599046,-249.866898583975,37.16274794381479,-58.260983783395226,28.011435307240593,-40.3297883195934,254.76905434427144,75.13831209968414
160,32.4136838054303,-249.7000746801447,37.07389356363224,-59.01866190586189,27.28226655553761,-41.856283663882046,254.59186924849627,76.56188309368102
161,32.38141554736791,-249.52846154391986,36.9842149657312,-59.47886894426745,26.394651370625965,-43.1405511075399,254.4100720468471,77.67704064242577
162,32.35455301707628,-249.3555817777377,36.895415124454146,-59.64876569269142,25.35263304792172,-44.15205707241158,254.22748861979224,78.45840309360291
163,32.334551376388276,-249.18508021184618,36.808910808390976,-59.539203868964165,24.162081945331,-44.86554277632723,254.0480369813639,78.8865984007192
164,32.322882070493975,-249.0206194745028,36.72579436988147,-59.1646093118371,22.831009369129692,-45.26170116970786,253.87561686177324,78.94893734369042
165,32.32098870513071,-248.86576829660012,36.64681521156538,-58.54278290701206,21.369845014813173,-45.327688924270035,253.71399264419165,78.63990278625164
166,32.33022841428051,-248.7238873108921,36.57238297386752,-57.69461957351455,19.791644295130865,-45.05745238725238,253.56667463852776,77.9614308764737
167,32.351802398042864,-248.59801805400943,36.50259229579583,-56.643750087701434,18.112194329741243,-44.45185253031727,253.43680475711454,76.92296800756075
168,32.38668198159406,-248.49078153043715,36.43726700580723,-55.416114468098996,16.349994174427888,-43.51858170836322,253.32705340595862,75.5412972689124
169,32.43553780459254,-248.40429279193768,36.37602016482426,-54.03947883932468,14.52609526228358,-42.27187427737618,253.2395344773389,73.84013958015551
170,32.498679480042576,-248.34009730534152,36.318325455180165,-52.54290990977943,12.663800354816495,-40.73202283707057,253.1757444912183,71.849546369215
171,32.576011765725944,-248.29913337910787,36.26359475165235,-50.95622228445541,10.788231657711176,-38.924720856663555,253.13653018263653,69.60511087307836
172,32.6670114506718,-248.28172277614956,36.21125623242492,-49.30941380696576,8.92578952130118,-36.88025985144179,253.1220864094882,67.14703266923864
173,32.77072703209299,-248.28758922336476,36.160827215368144,-47.63210319250168,7.1035311366264,-34.63261468095723,253.13198357773317,64.51907434339891
174,32.88580118101676,-248.3159022293073,36.11197622257929,-45.95298271072967,5.348503110033846,-32.218453719881985,253.165221302715,61.7674503082513
175,33.01051439649517,-248.3653417012813,36.06456966646961,-44.29929697707873,3.6870625717098755,-29.676111546915216,253.22030306236144,58.93968623156838
176,33.142847237138845,-248.43417747395074,36.01869996430077,-42.69635737081761,2.1442191136801005,-27.04456063789569,253.29532531241924,56.083484225214036
177,33.280557798703036,-248.5203572002068,35.974693668177366,-41.16710050439434,0.7430255039161954,-24.362415856491882,253.38807403928686,53.24562492077288
178,33.42127038345993,-248.62159622541853,35.93310009320301,-39.73169860582426,-0.4959600991196631,-21.667001879432238,253.49612206107716,50.470933550487956
179,33.5625705334386,-248.73546395305956,35.894662656050066,-38.40722942218385,-1.55512319148853,-18.993509471564018,253.61692139124102,47.80133338800691
180,33.70210086377144,-248.85946251442755,35.860276494320765,-37.207412862416255,-2.4201415608085486,-16.374261945039784,253.7478863397622,45.275006213300784
181,33.83765158839616,-248.9910950004845,35.83093681997519,-36.14242066373222,-3.080227438656768,-13.838108325083317,253.88646448014902,42.92567560392792
182,33.967239561182716,-249.1279219322205,35.80768280349764,-35.21876374624134,-3.5282625490664383,-11.409954837395544,254.0301940255145,40.78202474601781
183,34.089170384755846,-249.2676058942854,35.79154157045974,-34.43925979825527,-3.7608304768883114,-9.11044145754188,254.17674744071667,38.86725624780966
184,34.202079744018356,-249.40794515450978,35.78347623343169,-33.803081419134195,-3.778154972524634,-6.955765504496872,254.3239621230888,37.198797399141235
185,34.304952285136245,-249.54689753782864,35.78434100307181,-33.30588328272053,-3.583955661159642,-4.957649674434887,254.4698595983901,35.78815074982149
186,34.397118567563716,-249.6825959313159,35.794845497025904,-32.9400055354256,-3.1852338544806393,-3.123447563714565,254.61265496155997,34.640887000197715
187,34.47823243953726,-249.81335680190932,35.81552945021091,-32.69474992651461,-2.592000892050275,-1.4563757104048503,254.75075841859876,33.75677500884267
188,34.548232404426784,-249.93768314947826,35.846748138328174,-32.55672455458006,-1.8169601436867675,0.04414241849404718,254.8827708637139,33.130041909913416
189,34.60729114974893,-250.05426338531203,35.88866801067133,-32.510252021124046,-0.8751521403585405,1.382038192855333,255.00747545237294,32.74975437292618
190,34.655757590423384,-250.16196763126229,35.94127137909197,-32.53783376235971,0.21642910290393794,2.56408566579632,255.12382705878863,32.600309473688974
191,34.694095779906654,-250.25984276022083,36.004368573640214,-32.62066032462721,1.43924130520834,3.599337915504585,255.23094126214517,32.66202036181241
192,34.72282499049274,-250.34710708342473,36.077615711209795,-32.7391537974833,2.7736136486801017,4.498535678121575,255.32808404249178,32.91177826287894
193,34.74246512164178,-250.42314504601873,36.160536103974664,-32.87352533996799,4.199173896104618,5.273512457153602,255.41466278720708,33.323769069937946
194,34.75349125624319,-250.4875018434341,36.2525434232509,-33.004328620817546,5.6952754532306775,5.936619463283606,255.49021872875065,33.870220685613454
195,34.75630053086692,-250.53987762560544,36.35296503658959,-33.11298969754526,7.241416292928201,6.500191695916922,255.55442064740328,34.52215699403461
196,34.75119345469033,-250.5801208515409,36.461064253339124,-33.18229558535815,8.817640684944985,6.976073450315632,255.60705948232444,35.25013605339378
197,34.73837052262679,-250.60822035330278,36.57606036932379,-33.196827151041944,10.404913637240481,7.375217758237635,255.64804334995077,36.024953439220596
198,34.717943704157165,-250.62429583073543,36.69714551786029,-33.143326141839886,11.985457357507231,7.707369876062034,255.67739248503773,36.81829582389633
199,34.68996136261342,-250.62858683958214,36.82349762529501,-33.01099005392064,13.543039379680767,7.980840051387791,255.69523386500293,37.60333391277534
200,34.65444437320459,-250.62144071918388,36.95428918608906,-32.79169130797303,15.063203523248283,8.202365729758437,255.70179561150564,38.3552470756857
201,34.61143056917475,-250.6033001625936,37.08869194923753,-32.480118534159494,16.53343747593974,8.377058599020735,255.69740148399825,39.0516741806059
202,34.56102410845582,-250.57469119403356,37.22587796869008,-32.07383801922581,17.943274167519355,8.50842788898007,255.68246582114256,39.673086509440694
203,34.5034459503197,-250.53621221117723,37.36501792237901,-31.573273320257478,19.28432785183316,8.598468409607591,255.65748919233366,40.20307982029481
204,34.439081468707165,-250.4885245447288,37.50527807807957,-30.981601545117922,20.550269666783983,8.64779998199899,255.62305486814333,40.628584288047364
205,34.36852144727218,-250.4323447835192,37.64581755159561,-30.30456635841867,21.736751181522052,8.655844191689265,255.5798260890778,40.93999359386008
206,34.29259334026915,-250.36843895348878,37.785787377175886,-29.55021039030859,22.841287760608996,8.621024721501307,255.52854402908045,41.131217716508324
207,34.212380572185744,-250.2976184609504,37.92433240413493,-28.72853293454513,23.863116045102053,8.540978690264057,255.47002622961088,41.199667383379115
208,34.12922852355566,-250.22073745604843,38.060596344190294,-27.851081949095136,24.803041028444756,8.41276807935156,255.40516505402695,41.146180837647236
209,34.044736584867735,-250.13869099310213,38.193729635827246,-26.930491874181065,25.663287794695947,8.233082166128279,255.33492544375832,40.974904938106626
210,33.96073629658832,-250.05241317383417,38.32289932571416,-25.97998047422402,26.447370935785713,7.998423791904271,255.2603410893451,40.69314246198974
211,33.8792561693483,-249.9628744408755,38.44730003907074,-25.01281892672033,27.159991184769055,7.705274267087458,255.18250817168374,40.31117606164607
212,33.802474264418336,-249.87107734320608,38.566165337983804,-24.04178995087038,27.80696430941288,7.350233683431573,255.10257608109197,39.84207698666837
213,33.73266001554102,-249.7780503344819,38.67877910286861,-23.078649057928345,28.395182323097757,6.9301351936859295,255.02173486057274,39.30150373258804
214,33.672107157927215,-249.6848393910069,38.784486705560106,-22.133604129518734,28.932602160786594,6.44213326635297,254.94119941016362,38.70749253983235
215,33.623060044851705,-249.59249741432228,38.88270561285055,-21.214828591700417,29.42825275049162,5.883766940730762,254.86219069563083,38.08023856872766
216,33.587636070581695,-249.50207150601972,38.97293486743913,-20.3280235017644,29.89224842768889,5.25299973291562,254.78591434952213,37.44186408333962
217,33.56774733060594,-249.414588236041,39.054762865284,-19.47604383594369,30.33579518257488,4.548238252965066,254.71353713134914,36.81616842568025
218,33.565024915082134,-249.33103695869585,39.12787305894534,-18.65860397376326,30.771176278400414,3.768332015537857,254.64616171033754,36.22835405289245
219,33.58074922410303,-249.252351124406,39.192047552191525,-17.87207660068241,31.211705124957362,2.912557494839591,254.58480017439882,35.70472336227869
220,33.615789435235556,-249.1793874758973,39.247168791161066,-17.109397848581946,31.671635685629376,1.9805901490195243,254.53034660522852,35.2723423040161
221,33.670554878892425,-249.11290304385543,39.29321956650294,-16.360089389753828,32.166023856592226,0.9724687556582592,254.4835490265122,34.95866869275894
222,33.74496063063013,-249.05352998072323,39.33028141955021,-15.610405314883627,32.710536783632975,-0.11144318686962948,254.44498106415966,34.79114535987314
223,33.83840902515247,-249.00174852733994,39.358531528130804,-14.843607888360415,33.321210495000464,-1.2704940594883913,254.41501381430302,34.79676043258787
224,33.949787987786294,-248.95785880663735,39.378238344906784,-14.040371767171386,34.01415915065535,-2.5037738392342526,254.39378871812136,35.00157879150715
225,34.07748616862919,-248.92195261298187,39.389756557317035,-13.179311292023241,34.805241493579004,-3.810132412458742,254.38119261985352,35.430250088119294
226,34.21942401744769,-248.89388683141084,39.3935221129035,-12.237620387759868,35.70969177728342,-5.188182803447811,254.37683654101005,36.10549971050764
227,34.373099229171075,-248.8732605560303,39.3900479778441,-11.191809743454861,36.741723659046386,-6.636286967732001,254.3800400086938,37.0476099175215
228,34.53564436975298,-248.85939839745558,39.379921090833925,-10.018521508661891,37.91411645406524,-8.152523418947249,254.38982305748638,38.273899164638884
229,34.70389390129822,-248.8513428356728,39.36380094384039,-8.69539793572576,39.237793922779645,-9.734637655594952,254.40490828518227,39.798208573314064
230,34.87445736591536,-248.84785853988265,39.342420433363195,-7.201977348036902,40.72140655371478,-11.379978071617746,254.42373537477417,41.630405674805495
231,35.043795445430575,-248.84745089208138,39.31658963295936,-5.520588630477675,42.37092914812102,-13.085421696022742,254.44448984774758,43.775916993253986
232,35.2082961755279,-248.84839935198355,39.287202490558656,-3.6372142997108297,44.18928635971877,-14.847295387509755,254.46514629276172,46.23530257677488
233,35.364349530801505,-248.8488043696488,39.25524542849633,-1.5422922521529434,46.1760196324303,-16.661298576342947,254.48352448015868,49.00388704135945
234,35.50841944715843,-248.8466451512105,39.22180615370511,0.7685726055745944,48.327009669498295,-18.52243314289742,254.49735547945755,52.071462897951875
235,35.63711288823038,-248.83984499394313,39.18808095880088,3.294013756369724,50.634269026830985,-20.42494484590419,254.50435441191473,55.42208271767499
236,35.747245908097796,-248.8263408391399,39.15537908494023,6.026449934291545,53.08581933626117,-22.3622794061114,254.50229648466063,59.033956806391785
237,35.83590696698624,-248.80415386843967,39.12512293667732,8.951794712512513,55.665666660964455,-24.327055368913292,254.48909317705218,62.87947226208963
238,35.90051798585686,-248.77145829224003,39.098842986559845,12.049346015026135,58.353886394711125,-26.31105538192418,254.462865777305,66.9253474818431
239,35.93889358551942,-248.72664589347443,39.07816621835854,15.291867679454173,61.12682604638502,-28.30523743130339,254.4220138427866,71.13293343410257
240,35.949298529300044,-248.66838438997908,39.064797135314244,18.645869252592096,63.957430426606706,-30.299767667936365,254.3652765903959,75.45866940556046
241,35.930502729079556,-248.59566827302865,39.06049080420861,22.072083757723895,66.81568936444067,-32.28407652291883,254.29178575857628,79.85469650360358
242,35.88183252268093,-248.50786136334412,39.067018062898995,25.526136813986525,69.66920332363097,-34.2469397261842,254.20110903956444,84.26962702310966
243,35.803216285539435,-248.4047307032518,39.086123784504885,28.959394805558542,72.4838574395045,-36.176585531312384,254.0932835517514,88.64946211537276
244,35.69522161592606,-248.28647143098848,39.1194798996298,32.31997511441385,75.22458981274592,-38.060828919589866,253.96883883278818,92.9386443521947
245,35.55908029146329,-248.15372192008417,39.16863564447611,35.55389761059001,77.8562353754508,-39.88723290260811,253.82880842721818,97.08122589859232
246,35.39669617002982,-248.0075677894955,39.234968049706445,38.606353053957356,80.34442199183316,-41.643296370517014,253.67472839725093,101.02212687729359
247,35.210630623568946,-247.84953265012945,39.3196358090087,41.42305996846367,82.65649033979498,-43.316667206589315,253.50862027733604,104.70845170001694
248,35.00406047183173,-247.68155303881042,39.42353929450174,43.951676190099136,84.76240360494354,-44.89537842502241,253.33295557188268,108.09082347645105
249,34.780705156014236,-247.50593523366086,39.54728871404712,46.14322449945155,86.63560790880207,-46.368103737510836,253.150599271825,111.12468868577191
250,34.54472305892966,-247.32529266938968,39.69118139019677,47.95348425480513,88.25380125588224,-47.724427179691986,252.96473119023696,113.77153766574013
251,34.30058080721762,-247.14246439901785,39.85518804877632,49.34429442736777,89.59956952078889,-48.955119281244016,252.77874604175915,115.99998333735505
252,34.05290299457945,-246.9604172276189,40.03894706239751,50.2847101596867,90.66085395028192,-50.052410037675266,252.59613573119682,117.7866429964475
253,33.806312039591575,-246.782136326078,40.241765036008665,50.75195690143206,91.43122562383817,-51.01024731607704,252.4203597141991,119.11677686450422
254,33.56526851517502,-246.61051077589488,40.46262204349472,50.73213411988627,91.90995628627317,-51.82452898941534,252.254710982322,119.98465144267503
255,33.33392166707283,-246.44822123248144,40.70018016146845,50.22063373431101,92.10188910017882,-52.49329819118968,252.10218590328867,120.393613107215
256,33.115978517221855,-246.29763670773565,40.95279456190924,49.222254764791096,92.0171249835777,-53.0168932210751,251.96536586765518,120.35587511266637
257,32.91459815690906,-246.16072658673414,41.21852711491291,47.75101287524524,91.67054938087949,-53.39804627996498,251.84631768451757,119.89203721009208
258,32.732315682490544,-246.0389926368207,41.49516298464099,45.829659602323844,91.08123043085288,-53.64192790777942,251.7465181333357,119.03037017051551
259,32.57099797614428,-245.9334240810287,41.78023100318705,43.48893978027126,90.27172262350906,-53.75613635337491,251.66680617173174,117.80590681650251
260,32.43183149134379,-245.8444769360545,42.07102879953068,40.766626174185625,89.26731040317263,-53.750632857294896,251.60736421645015,116.25938631613161
261,32.315340499827,-245.77207697958565,42.364653817196505,37.70637727139546,88.09522430152694,-53.63762490111739,251.56772790172732,114.43609968038834
262,32.22143288684267,-245.71564416179484,42.65804136763236,34.3564677209812,86.78385888786202,-53.431400016802165,251.5468220025791,112.38468246100472
263,32.149469519077044,-245.67413522170344,42.948010609938194,30.76844160024707,85.36201801032293,-53.148113084823855,251.54301897314943,110.15589680047066
264,32.09835236731207,-245.64610081964503,43.23131883110578,26.99573716327518,83.85820917579758,-52.80553054760944,251.5542158906071,107.80144039909004
265,32.066625733581176,-245.62975356374253,43.50472372345168,23.09232855626874,82.30000571803257,-52.42273580296666,251.57792541783726,105.37281528262125
266,32.05258395634683,-245.6230436292027,43.76505258086558,19.11142566518081,80.71349235182402,-52.019801078594604,251.61137643903956,102.92028446462793
267,32.05437805235062,-245.62373901513047,44.0092764685779,15.104268235387845,79.12280622187939,-51.61743196768316,251.6516200858448,100.4919392604783
268,32.07011350339298,-245.62950779800607,44.234586538478965,11.119044993443753,77.54978114572204,-51.2365912515649,251.69563699630382,98.13289374776765
269,32.09793236248791,-245.63800004761012,44.438469010160645,7.199962824472141,76.01369743597091,-50.898108694074104,251.74044197478398,95.88461583663627
270,32.13607496523814,-245.6469273502723,44.61877520280384,3.3864850159201008,74.53113409216239,-50.62228350810796,251.78318276592591,93.78439740429408
271,32.18291911617641,-245.65413811544266,44.7737834481897,-0.28724898020686607,73.11591513799479,-50.428486547310825,251.8212303159698,91.86495995126533
272,32.23699703657434,-245.65768705963436,44.90225047077188,-3.7928168235487196,71.77913798830139,-50.3347700818641,251.85225856647082,90.1541878105558
273,32.29699241242761,-245.65589747454268,45.00345047977751,-7.107721271618204,70.5292690307068,-50.3574940508219,251.87431241813013,88.67497802590675
274,32.3617215959557,-245.6474150301054,45.07720058925444,-10.215421337679585,69.37229002766513,-50.510978589850765,251.88586292707828,87.4451943256345
275,32.43010430524676,-245.63125191250745,45.12387140225946,-13.105201169538384,68.31187853318185,-50.807193173190505,251.88584904295604,86.47771200145348
276,32.50112983462081,-245.60682012505148,45.14438188232901,-15.771896195954977,67.34960631706203,-51.25549275381832,251.87370535335046,85.7805408355478
277,32.573824692241146,-245.5739528619009,45.14017805057857,-18.215499600647593,66.48514163960797,-51.86241070033019,251.84937543192882,85.3570142035722
278,32.647226697575555,-245.53291298861853,45.11319552678254,-20.44067405624515,65.71644385020078,-52.63151696888777,251.81331047637693,85.20603375545936
279,32.72036898198923,-245.48438777304582,45.06580643018789,-22.45619415199799,65.03994204521341,-53.563347731473975,251.76645291814464,85.32236048284614
280,32.79227530055275,-245.4294691054032,45.00075170676758,-24.27434456939559,64.4506934073957,-54.655409635301886,251.71020462858885,85.69694457078486
281,32.86196605979839,-245.36961862035216,44.9210606132977,-25.910298100696583,63.94252122983392,-55.902258213526444,251.6463793932784,86.31728820521573
282,32.928472990415045,-245.30661753183207,44.82995983372525,-27.381496053308883,63.50813700220056,-57.295646214053676,251.57713967124013,87.16783725402749
283,32.99085962540506,-245.24250173861031,44.730775404864126,-28.7070513316596,63.139254508616354,-58.82473445759373,251.50491841600203,88.23039910914427
284,33.04824452453825,-245.17948385987614,44.62683115912305,-29.907191555014798,62.82670590288765,-60.476355797336986,251.4323278728111,89.48458464635434
285,33.09982436572694,-245.11986512920774,44.52134767474693,-31.002756087205203,62.56056977239365,-62.23532188091858,251.36205857165442,90.90827201050331
286,33.14489459262312,-245.06594120972989,44.417345774980454,-32.014756933874494,62.3303192696588,-64.08476241356743,251.29677291990504,92.47808870372515
287,33.18286614319832,-245.01990676694814,44.317558555964055,-32.964009122345445,62.12499484046657,-66.00648719344656,251.2389986462508,94.16990641329471
288,33.21327759231615,-244.98376397012913,44.2243558068115,-33.870831431660044,61.933401596281925,-67.98136214946726,251.19102775283352,95.95934055372123
289,33.23580262873637,-244.95923995895933,44.13968435147084,-34.754813372310814,61.744326897379956,-69.98969169622865,251.15482651270864,97.82224406784466
290,33.25025320458026,-244.947717695669,44.06502708706389,-35.63463959092613,61.54677014682319,-72.01160053599051,251.13196136340974,99.73518300707045
291,33.25657909285552,-244.95018361662554,44.001382376328394,-36.527959072040645,61.33017463983987,-74.02740834784055,251.12354441541416,101.675880081073
292,33.25486501166768,-244.9671942981323,43.949264246940665,-37.451284254158196,61.0846504511971,-76.01799078835666,251.13020096156623,103.62361196256863
293,33.2453267867975,-244.99886312235927,43.908722737346054,-38.41990469296298,60.801177346962575,-77.96512030039916,251.15206001286757,105.55954676533848
294,33.22830801696746,-245.04486672362933,43.879382659519685,-39.44780090274626,60.471777316167646,-79.8517806454762,251.188767514556,107.46700973118016
295,33.20427831513185,-245.10446980905343,43.86049794036865,-40.54754601811763,60.08964757163179,-81.6624497909835,251.2395204903812,109.33166761178335
296,33.17383360410898,-245.17656582400036,43.851017708590305,-41.73018571317722,59.64924689296613,-83.3833465716697,251.30311901599694,111.14162537094886
297,33.137698388648694,-245.25973000510174,43.84965973968885,-43.00509048099803,59.14633097920747,-85.00263720005836,251.37803185087375,112.88743256921049
298,33.09672952028303,-245.3522807836714,43.85498685600111,-44.37977903053261,58.57793584267464,-86.51059815129443,251.46247093859816,114.56200101740892
299,33.05192075690517,-245.45234534799943,43.86548218079966,-45.85971700957119,57.94231180204036,-87.89973225434113,251.55446985858603,116.16043973112328
300,33.00440746015056,-245.55792544232202,43.879619641676705,-47.44810087559545,57.238813787849146,-89.16483512712314,251.651961664754,117.6798174151959
301,32.95547103855362,-245.66696013396736,43.89592692468496,-49.145641598515546,56.46775598925748,-90.30300959602523,251.75285235922343,119.11886615542349
302,32.906543012640455,-245.77738322940115,43.91303916372492,-50.950366164594286,55.630240138289324,-91.31362664902423,251.85508740169857,120.47764240550349
303,32.85920861401225,-245.88717408965175,43.92974264539556,-52.857456154050794,54.72796706062256,-92.1982328909215,251.95670988104922,121.75716273966768
304,32.81520959382701,-245.994401564516,43.94500835890821,-54.85914212553671,53.76304086593727,-92.96040627231551,252.05590998807108,122.9590323708209
305,32.776445539848325,-246.09726147277235,43.95801527574453,-56.944670675138795,52.73777471107352,-93.60556372275998,252.15106607918563,124.08508428448613
306,32.7449726472453,-246.1941084679665,43.96816304554899,-59.1003583186748,51.65450670303864,-94.1407259328789,252.240777941492,125.13704609534749
307,32.722998667800425,-246.28348330968151,43.97507371281302,-61.30974284526401,50.5154341728129,-94.57424584080225,252.32389300330195,126.11625036925109
308,32.712872703235696,-246.36413657424015,43.97858237776906,-63.55383825804442,49.322473922564896,-94.91550852773705,252.39952629955752,127.02340205743384
309,32.717068561868075,-246.43504967043572,43.9787174350359,-65.81149372241173,48.07715474037111,-95.17461132993795,252.46707497445914,127.85841374587982
310,32.73816053151419,-246.4954536243617,43.97567184186241,-68.05985040081801,46.780546296320544,-95.3620339456317,252.52622787928385,128.62031561450618
311,32.77879069072353,-246.54484550665217,43.96976750401428,-70.27488341354342,45.43322564881983,-95.4883089064731,252.57697039851266,129.3072425047301
312,32.841627351169606,-246.58300173996162,43.96141521814316,-72.43201035078302,44.035279537073166,-95.56370273693156,252.6195841425392,129.91649572990343
313,32.929314871802234,-246.60998697740126,43.951072699630984,-74.50674356909907,42.58633815179968,-95.59791730464481,252.65464071266658,130.44467282338186
314,33.04441580662614,-246.62615686578425,43.93920309972061,-76.47536136997338,41.08563475186354,-95.59981931488188,252.6829884497411,130.88785486818864
315,33.18934702643093,-246.63215287118769,43.926236155752946,-78.31557306611917,39.53208545047988,-95.57720386969343,252.70573098952943,131.2418387251595
316,33.36631201439205,-246.6288875085774,43.91253382893906,-80.00715449761786,37.924384342553715,-95.5365958859188,252.72419663260953,131.5024003924955
317,33.57723195508389,-246.61751879940851,43.89836197635349,-81.53253316267903,36.26111024888412,-95.48309132828959,252.73989801045096,131.66557564801212
318,33.8236784911015,-246.5994135424932,43.88386916646729,-82.8773051701771,34.54084216489657,-95.42023890072177,252.75448223306435,131.72794469171964
319,34.10681104703001,-246.5760999232493,43.86907310444545,-84.03066925468201,32.762280760116944,-95.34996208377933,252.7696725175309,131.6869083991557
320,34.42732140349402,-246.5492109609161,43.85385436146435,-84.9857659139655,30.924373026712647,-95.27252106787938,252.78720309098557,131.54094481307885
321,34.785387855438,-246.52042119356383,43.8379563650593,-85.7399123703492,29.026436677538733,-95.1865139903269,252.8087498712749,131.28983559408175
322,35.18064095730808,-246.49137978063473,43.82099007589791,-86.29472673613806,27.0682805003161,-95.08891674808619,252.83586005722228,130.93485342361754
323,35.6121425783493,-246.463643773004,43.802441615407986,-86.65613777559804,25.05031695701345,-94.97516040856897,252.86988425443138,130.47890301106688
324,36.078379646876236,-246.43861547848846,43.78168138628524,-86.83428023360825,22.973664135401894,-94.83924481620252,252.9119149395275,129.92661057032007
325,36.577273427308945,-246.41748751049604,43.75797381190321,-86.84327984328857,20.84023567518773,-94.67388637636276,252.96273476245096,129.28435936919027
326,37.10620448570722,-246.40119832430238,43.7304874686332,-86.70093652091622,18.652819130634075,-94.47069723510224,253.0227774387703,128.56027193350317
327,37.66205281430584,-246.39040003371983,43.698305921070194,-86.42831838296205,16.41514486841429,-94.2203922711541,253.0921029914609,127.7641422912755
328,38.24125197564416,-246.3854392746379,43.660439922902285,-86.04928253383505,14.13194856822295,-93.91301959517052,253.17038807063503,126.90732388178357
329,38.839855547809684,-246.38635102809292,43.61584178442104,-85.58994068441545,11.809030404900673,-93.53820966424938,253.25693118222185,126.00258016182046
330,39.45361357675563,-246.39286478994066,43.56342262848942,-85.07808844397401,9.453312980599351,-93.08543763058812,253.35067204093394,125.06390542326757
331,40.07805618906764,-246.40442227490044,43.502073035551284,-84.54261671944714,7.07289821545837,-92.5442930812697,253.45022394219774,124.10632299089674
332,40.708581027389336,-246.42020576304336,43.430687359920015,-84.01292233985174,4.677121060968606,-91.90475087806468,253.55391785066536,123.14566704069965
333,41.34054086329651,-246.43917604178895,43.348191889705554,-83.51833309444567,2.276595533666305,-91.15743646342793,253.65985667745497,122.19835307753479
334,41.96932779856559,-246.46011867445665,43.25357698159937,-83.08756008594435,-0.11675340823791534,-90.29387893074225,253.76597799562728,121.28114095208362
335,42.590450931581394,-246.4816971430312,43.1459331487131,-82.74818786063126,-2.489679969244115,-89.3067454950826,253.87012330479837,120.41089341200893
336,43.19960507836225,-246.5025112709545,43.0244906374867,-82.52621030261702,-4.827638112180935,-88.19005171299945,253.97011184926325,119.60433260241227
337,43.792728878953994,-246.52115912433408,42.88866129367535,-82.44561777299906,-7.114841259443188,-86.93934269817733,254.06381677976327,118.87779648740708
338,44.36605128346391,-246.53630026475057,42.7380806599145,-82.52803840820813,-9.334369257162587,-85.55184146188441,254.1492410880623,118.24699665637277
339,44.916126024139935,-246.54671789697116,42.572647493988676,-82.79243395518824,-11.468329590526565,-84.0265612614609,254.22459038837775,117.72677835121901
340,45.43985430836113,-246.55137730313152,42.3925574485821,-83.25484826513375,-13.498077710450163,-82.36437944870855,254.2883394937411,117.33088292896349
341,45.934496613708205,-246.54947805425712,42.19832764041607,-83.92820488727328,-15.404498148149932,-80.56807082869973,254.33928993181092,117.07171256877953
342,46.39767503179393,-246.54049777833455,41.99080927356973,-84.82214930710086,-17.168344102979262,-78.64229908680258,254.37661598843934,116.96009705145282
343,46.82736798018729,-246.52422566963455,41.771186297386464,-85.9429313186166,-18.770628942252987,-76.59356553948724,254.39989745670925,117.00506300478494
344,47.2218992604472,-246.5007844251657,41.540959176057505,-87.2933236796486,-20.19305918820849,-74.43011534595215,254.40913796288254,117.21360707027674
345,47.57992343849979,-246.47063985362416,41.30191408423676,-88.87257428150593,-21.4184955806855,-72.16180231781274,254.40476848770493,117.59047578565995
346,47.900409412811314,-246.4345979416017,41.05607902558294,-90.67639026054894,-22.43142689536424,-69.79991451779169,254.38763640112492,118.13795636283564
347,48.182623849119935,-246.3937896469487,40.80566933854018,-92.69695360991417,-23.218440257826305,-67.35696394853241,254.35898092568078,118.85568385655752
348,48.42611592132284,-246.34964416237324,40.5530257465555,-94.92296887945078,-23.768671427072753,-64.84644480957287,254.32039647382288,119.7404714326108
349,48.63070450538798,-246.30385188395883,40.30054848883859,-97.33974452847482,-24.07421863703667,-62.28256596833303,254.2737857910694,120.78617151743326
350,48.796468629130196,-246.2583187769422,40.05063104834488,-99.92931046840657,-24.130503946925106,-59.67996431080746,254.22130521765104,121.98357648444673
351,48.92374164971702,-246.2151141358018,39.80559653637084,-102.67057525568204,-23.93656669210068,-57.05340642488599,254.16530454767585,123.32036813045985
352,49.01310937738261,-246.17641377381662,39.56763898565105,-105.5395270991835,-23.49527462300231,-54.41748664462745,254.10826383335657,124.78112541483266
353,49.06541212899571,-246.14444043753272,39.338770847727716,-108.50948312475182,-22.813439715634118,-51.78632987910559,254.05272906202154,126.34739964833295
354,49.08175036091219,-246.12140286663399,39.12077717464703,-111.55139104134814,-21.901827503913772,-49.17330779527846,254.0012480855833,127.9978654019705
355,49.06349308191482,-246.10943464708052,38.915176554341464,-114.63418637301194,-20.775051261622302,-46.59077669879491,253.95630777346082,129.70855375595278
356,49.01228776736774,-246.11053400702335,38.72318889610929,-117.72520667400615,-19.451345559231488,-44.04984484431331,253.92027327797646,131.45317208120431
357,48.93007009158644,-246.12650594159854,38.54571039739197,-120.79066161046616,-17.952217573118432,-41.560176049027,253.89533049270895,133.20351137527308
358,48.819071574496704,-246.15890831337455,38.383296189279775,-123.79615455745004,-16.30197880177457,-39.12983555278248,253.8834330229731,134.92993835766586
359,48.681823235937436,-246.20900366745158,38.23615111587568,-126.70724765651526,-14.527164347119102,-36.765183111820335,253.88625507271422,136.60196525056855
360,48.521153480142075,-246.27771836762383,38.10412887330116,-129.4900585108531,-12.655851640968214,-34.47081720965284,253.90515151646056,138.18888576920958
361,48.3401786025551,-246.3656103736412,37.986739447810244,-132.11187336111524,-10.71689551098145,-32.24957283728897,253.94112613940993,139.6604617680059
362,48.14228453635172,-246.47284667466485,37.88316457169681,-134.5417590891921,-8.739101645887839,-30.102573446500866,253.99480874460895,140.98764159922638
363,47.93109880254175,-246.5991911522752,37.79228077541951,-136.75115494691542,-6.75036531618306,-28.029335475369802,254.06644163699585,142.14328871629186
364,47.71045209376818,-246.74400341535247,37.71268947988066,-138.71442456604882,-4.776805894179233,-26.027921448999553,254.15587583790497,143.10289745318812
365,47.48432941531905,-246.9062488245845,37.64275335479078,-140.40934956581467,-2.8419296829951226,-24.09513526243715,254.26257712878254,143.8452722846866
366,47.25681115131891,-247.08451947999407,37.58063785213555,-141.81754786324265,-0.9658535357574409,-22.226751042068894,254.38564162642172,144.35314728060268
367,47.03200486422661,-247.27706544725777,37.524356526894934,-142.9248024813228,0.8353802580213334,-20.417765158425798,254.52382014402562,144.6137239551144
368,46.813969172292985,-247.48183503657683,37.47181864691834,-143.7212900874347,2.5503711297270204,-18.662659796691614,254.6755502231018,144.61910828896524
369,46.60663168013676,-247.6965225621245,37.420877722601745,-144.20170250718644,4.1727879365210665,-16.95566627076717,254.83899447798657,144.36663130496996
370,46.413703527184715,-247.918621696198,37.36937986501171,-144.3652587910327,5.701641745065164,-15.291017124550768,255.01208373490599,143.85904197633624
371,46.23859354863871,-248.14548231872894,37.31521120169466,-144.21560969771534,7.141394474573618,-13.663177845488903,255.19256336058888,143.1045660222528
372,46.08432532462311,-248.3743687262021,37.256343927961005,-143.7606403352628,8.501900188331552,-12.06705137052694,255.37804123641072,142.1168288341806
373,45.95346055072032,-248.60251723595732,37.19088095911879,-143.01217993703568,9.798181351499702,-10.498151155820091,255.56603608194138,140.9146450609209
374,45.84803208298353,-248.8271915362773,37.11709946281079,-141.98563026762204,11.050047362230007,-8.95274115888302,255.7540251665664,139.52168112177864
375,45.76948953896668,-249.04573448332488,37.033493588136274,-140.69952597644297,12.281567139989733,-7.427943400145123,255.9394907091379,137.96600009440766
376,45.71865950833692,-249.25561537620848,36.93881638302306,-139.1750414548824,13.520411553358054,-5.921815569215148,256.1199643917462,136.27950110239897
377,45.69572151768506,-249.4544720779808,36.83212031322344,-137.4354595604848,14.797084992700272,-4.433402264761549,256.2930694954316,134.49726762861138
378,45.70020024222448,-249.64014772982287,36.712795155321395,-135.50561804993652,16.14406841203356,-2.9627639496014186,256.4565603256019,132.6568411873461
379,45.730974186210176,-249.8107221773062,36.580601496297824,-133.4113496637321,17.59489862946772,-1.5109877475901732,256.6083588293946,130.7974384438204
380,45.78630093019101,-249.96453849310112,36.4356977788654,-131.17893135224037,19.183210487347413,-0.08018398721362027,256.74658850032205,128.95913097280445
381,45.8638586677878,-250.1002250938462,36.278658893860936,-128.83455694968842,20.941769412056868,1.3265280103382353,256.8696057176557,127.18200717509093
382,45.96080294673841,-250.21671390909574,36.11048471218119,-126.403845631159,22.901521650753207,2.705041999001108,256.9760285423689,125.50533529275582
383,46.073836492216685,-250.31325489352648,35.93259751038909,-123.91139580308334,25.09068773076241,4.050292625710304,257.06476272615816,123.9667449904624
384,46.19928911034301,-250.38942697736715,35.7468278336464,-121.38039087476082,27.533921516478642,5.356287826794096,257.13502442623263,122.60144275479396
385,46.33320419134304,-250.4451454473167,35.555388889338595,-118.83225996950387,30.251553065322803,6.616145620054532,257.1863590091743,121.44147373233496
386,46.47142823017949,-250.4806657672852,35.36083999184383,-116.28639351443321,33.25892901247398,7.822136081313321,257.218655383434,120.51504005299023
387,46.60969988984991,-250.49658389243194,35.16603979561287,-113.75991127191845,36.56586010923607,8.965730171825012,257.2321553916542,119.84588366493705
388,46.74373534719476,-250.4938330674351,34.974090099694095,-111.26747908363852,40.17618220394907,10.037657750727513,257.2274577786275,119.45274059564541
389,46.86930703139597,-250.47367683819817,34.78827101800658,-108.82117047986628,44.087434521269586,11.027977436597997,257.2055160651412,119.34887344604739
390,46.982313497232184,-250.43769756159557,34.6119683621602,-106.43037017934314,48.290657558410665,11.9261608682255,257.16762934748397,119.54168965198204
391,47.07883910243704,-250.38777923071567,34.44859420688783,-104.10171799758967,52.77031221348011,12.721193292375853,257.1154247739984,120.03245425830961
392,47.155203292972914,-250.32608319167704,34.3015018613974,-101.83909338148636,57.50432177795571,13.401691330830603,257.0508304582177,120.81610725958036
393,47.20800042846115,-250.255015501424,34.17389686112439,-99.64364237881803,62.46423898833368,13.956037503552718,256.97603801831616,121.8811966718794
394,47.23413193771164,-250.17718526538349,34.06874602420315,-97.51385015435626,67.6155411760388,14.372529974067534,256.8934547224674,123.20993921819894
395,47.2308330593393,-250.0953541044608,33.988686989369846,-95.44566308003465,72.91805724101584,14.6395452953625,256.8056461425494,124.77842061340829
396,47.195696580346464,-250.01237765136864,33.93594095205302,-93.43266486134489,78.32653008411118,14.745711688024391,256.71527101464557,126.5569465806137
397,47.12669587154729,-249.93114048177608,33.912231557923455,-91.46631098201472,83.79131665661338,14.68009039489852,256.62501050495956,128.51055350052812
398,47.02220893961597,-249.854486188466,33.918713094242115,-89.53622475243066,89.2592245489415,14.432362668144386,256.537494293457,130.5996836004583
399,46.88104405719914,-249.78514457881062,33.955911214946255,-87.63055617777941,94.67447896140185,13.99301974646452,256.4552259602453,132.78102354036736
400,46.70246612472412,-249.72565827671363,34.023679388343076,-85.73640154053682,99.97980712387205,13.353552724023023,256.38051019766226,135.0084970756568
401,46.4862218262942,-249.67831124193745,34.12117396896888,-83.84027710339804,105.11761913130988,12.506638624462385,256.31538436267726,137.23439248661785
402,46.23256114995303,-249.64506181599208,34.24685016963652,-81.92863511146281,110.03125541496748,11.446318471310287,256.2615568014913,139.41059448032883
403,45.94225282049907,-249.62748289420236,34.39848023313998,-79.98840502623582,114.66626268903323,10.168162845664117,256.22035422789907,141.4898795743242
404,45.616591388442515,-249.6267116972155,34.57319393351984,-78.00753854219464,118.97165341521591,8.669420409480193,256.19268018469467,143.42722510745162
405,45.25739396164039,-249.64341129843322,34.76754047531578,-75.97553424874847,122.90109973752178,6.949145118283969,256.1789861983947,145.18107642908925
406,44.866984755717944,-249.6777455956378,34.977570182495334,-73.88391733012989,126.41401221391965,5.008298265643859,256.1792567071352,146.71451544804526
407,44.44816576711981,-249.72936899428063,35.19893412755799,-71.72665156685349,129.47645677928216,2.849822046712346,256.1930084011718,147.99627688932955
408,44.00417213122868,-249.79743178014309,35.42699973398128,-69.50046494559038,132.06186998708765,0.4786820319307944,256.2193043462865,149.00156603338982
409,43.538611458119014,-249.88060172460948,35.656979848722315,-67.20507604282909,134.15154205969955,-2.098123158250366,256.2567828932947,149.7126426638722
410,43.05538781808492,-249.97710154751292,35.88407155815871,-64.84331543519086,135.73484877925756,-4.871585636750557,256.30370058276384,150.11914938329235
411,42.55861283400196,-250.08476062925243,36.10359949211426,-62.42114380069082,136.80922589968736,-7.830745114698199,256.3579871920233,150.21817715347206
412,42.05250800585144,-250.2010784395852,36.311157236389654,-59.94757493880261,137.37989271334402,-10.962777735274482,256.4173103285306,150.01407558924146
413,41.541303510803054,-250.3232969123351,36.50274015414341,-57.43451651355104,137.45934382711792,-14.253115609150946,256.47914688517596,149.51802894628327
414,41.0291391009373,-250.44847922198116,36.67486331032708,-54.89654329807104,137.06663926317887,-17.685596205825128,256.5408589902871,148.74742990646672
415,40.519972385662726,-250.5735926375612,36.82465902426307,-52.35061734444793,136.22653190750484,-21.24264134720968,256.59977233117615,147.7250915492138
416,40.017498954081006,-250.69559305136215,36.949949634301944,-49.815767785371484,134.96847738447792,-24.90546578703212,256.6532546384597,146.4783429844082
417,39.525087763249736,-250.8115084288033,37.04929222602501,-47.312740839778726,133.325574180501,-28.654314968006947,256.69879174776185,145.0380558890421
418,39.04573420092426,-250.91851807150192,37.12199334846717,-44.86362842705276,131.33348127147892,-32.46873055921609,256.734058305318,143.43764774410698
419,38.582032308790616,-251.0140245766061,37.16809328844537,-42.49148157510127,129.0293571290547,-36.32784094825575,256.75698023883024,141.71210336065514
420,38.136166829389715,-251.0957159060512,37.18832140622506,-40.21991263644691,126.4508585733019,-40.21067218070705,256.7657867858261,139.8970500886369
421,37.70992494846164,-251.16161592804326,37.18402605243018,-38.07268861178325,123.6352312511929,-44.096473122904534,256.75905097850057,138.02791479165515
422,37.304726736505586,-251.210122843669,37.15708409259435,-36.07331708880421,120.61851605839306,-47.965047114667584,256.7357186008259,136.13918294587916
423,36.921672285804846,-251.24003582838873,37.109795759791176,-34.2446266741727,117.43488788371766,-51.79708125263825,256.6951264704383,134.26377251342453
424,36.56160242517605,-251.25057092099723,37.044770633816555,-32.60834525055996,114.11613491224848,-55.57446372107731,256.63701141481647,132.43252780724234
425,36.22516885688088,-251.2413676622288,36.96481032703701,-31.184681605291466,110.69127879559882,-59.28057915074601,256.56151157017285,130.6738316582976
426,35.91290893656936,-251.21248822205015,36.87279305661482,-29.991918540628493,107.18632891013719,-62.900571776297134,256.46916170079334,129.01332822652842
427,35.625320390991696,-251.16441075979438,36.77156469909361,-29.04602807536025,103.62415841107718,-66.42156636688904,256.3608841568977,127.47374437486269
428,35.36293200443631,-251.09801852264775,36.663840248255624,-28.360321300596734,100.0244864752488,-69.83283793213006,256.23797685519907,126.07479526202931
429,35.126367369276394,-251.01458570258362,36.55211895115008,-27.94514624869387,96.40395021108564,-73.12592342510358,256.10209924340455,124.83315995775108
430,34.91639977771883,-250.9157603424899,36.438615718558594,-27.807646105579277,92.77625072296897,-76.29467213432277,255.9552565332416,123.76251503467496
431,34.73399691391647,-250.80354369698952,36.32521051444276,-27.951586795156924,89.15235963353668,-79.33523579108787,255.79978157304615,122.87361716480771
432,34.58035409312948,-250.68026472079958,36.21341629278292,-28.377257765496875,85.54077373840731,-82.24600386207962,255.6383128665522,122.17442844594106
433,34.45691459124045,-250.54854812517274,36.10436483318454,-29.081444343300944,81.94780567925572,-85.02749323762647,255.47376682273094,121.67027972172781
434,34.36537548623797,-250.41127475347514,35.99880875174834,-30.057466478144402,78.37789773157324,-87.68220404766167,255.30930246713302,121.36406765301487
435,34.30767767718975,-250.2715336747255,35.897137273931925,-31.295278171951857,74.8339447879273,-90.2144545078327,255.14827742834626,121.25648138495374
436,34.28597941839582,-250.1325661798884,35.79940320555626,-32.78162351479207,71.31761220389983,-92.63020762305383,254.9941948662578,121.34625478160696
437,34.302613680563766,-249.99770257806708,35.70535876098642,-34.50024704654403,67.8296348650904,-94.93690143838458,254.85064188166058,121.63044035902027
438,34.36003071027925,-249.87029307291817,35.61449810819665,-36.432156674108626,64.37008579225107,-97.14329249819654,254.72122050335113,122.1047010668141
439,34.46072810252505,-249.75363396764342,35.52610445856858,-38.555936428996226,60.93860571984679,-99.25931941743262,254.6094724491748,122.76361589389607
440,34.607171375072944,-249.65089023497643,35.43929942246149,-40.84810459225587,57.53458891684844,-101.29599024012789,254.51879873668477,123.60099491036021
441,34.80170831482875,-249.5650155175578,35.35309250854507,-43.283510753998804,54.15732428714188,-103.26529395409571,254.45237532587404,124.61019871197955
442,35.04648025398834,-249.4986711620148,35.266429282317134,-45.83576350613588,50.80609368668761,-105.18013354180032,254.4130666062762,125.78445617651788
443,35.3433331694443,-249.45414676955127,35.1782376676116,-48.477678907831134,47.48023104557233,-107.05427549062185,254.40333953563618,127.11717301865738
444,35.69373140361103,-249.43328549074695,35.087472721812404,-51.18173893049294,44.17914653116082,-108.90230879197237,254.425182100632,128.60222217320225
445,36.09867693131616,-249.4374175607245,34.9931605550918,-53.920549023750105,40.90232034483416,-110.73960514719225,254.48003011462998,130.2342060689638
446,36.55863720015056,-249.46730536595248,34.89444179784965,-56.667284684398055,37.649271600168944,-112.5822714906007,254.56870615141645,132.00868087190238
447,37.07348445751514,-249.52310283900135,34.790614287567024,-59.39611811252457,34.419509509493246,-114.44708619870529,254.69137381421876,133.9223339953126
448,37.64244919719699,-249.60433136487774,34.68117375948368,-62.082617286480954,31.212476566632667,-116.35141157136131,254.84750977696086,135.9731084434916
449,38.26409000757467,-249.70987377833123,34.565850645299335,-64.70411079986509,28.027495715566577,-118.31307729345453,255.03589529562444,138.16027044488447
450,38.93628161635876,-249.83798751460108,34.444640757799306,-67.24001250374623,24.863734636647617,-120.35023235166145,255.25462826005736,140.48441980903908
451,39.65622218700207,-249.98633748245166,34.31782756132075,-69.67210045108843,21.720199616449314,-122.48116583695182,255.50115625016576,142.94744503601723
452,40.420460010985764,-250.1520484970088,34.185993862064585,-71.98474498076422,18.595768951822446,-124.72409973839294,255.7723302316837,145.55242715046887
453,41.22493888284001,-250.33177594793108,34.05002126538833,-74.1650811854268,15.48927194052377,-127.09695890109568,256.06447734380936,148.30349750457532
454,42.06506068401573,-250.52179203071427,33.91107666946446,-76.20312167557518,12.399614931337789,-129.61712460953987,256.3734899369636,151.20565550877498
455,42.93576287706457,-250.71808386819234,33.77058611251165,-78.0918066211091,9.325951322790033,-132.30117871111918,256.69492706193665,154.26455253681505
456,43.83160771242934,-250.9164594629645,33.630197184854346,-79.82698950074057,6.267888291354869,-135.1646449230674,257.02412420885963,157.48624824184967
457,44.74687923383367,-251.11265749721775,33.49173188814243,-81.40735854229855,3.2257195967635,-138.2217333014403,257.35630712944186,160.87694535394047
458,45.67568390118946,-251.30245729496067,33.357132264360565,-82.83429506592279,0.20067101626527337,-141.48509324023362,257.6867058613237,164.44270883965703
459,46.61205088696507,-251.4817856556231,33.22840130961295,-84.11167065383144,-2.804857288610442,-144.96558013630025,258.0106654969437,168.18917523513463
460,47.55002864824951,-251.64681765057824,33.107541686441316,-85.24558561445163,-5.787068815895346,-148.6720410477123,258.3237506754238,172.1212582075135
461,48.483774893882206,-251.79406873876334,32.99649467207437,-86.24405228134644,-8.74058730712639,-152.61112508033938,258.6218410804373,176.242857115094
462,49.40763735021979,-251.9204757477845,32.897081712405935,-87.11662877228653,-11.658329565955379,-156.78712453241621,258.90121542033273,180.5565764740328
463,50.3162229350159,-252.02346459996275,32.81095086100791,-87.87401186582714,-14.531450298538738,-161.20185271673512,259.1586216881558,185.06346549266303
464,51.20445340996946,-252.10100327350185,32.73953015282428,-88.5276011450247,-17.349371458472724,-165.85456370396238,259.39133212780433,189.76278778623626
465,52.06760639594588,-252.1516392219681,32.68398951317348,-89.08904989268561,-20.09990429694415,-170.74191799734515,259.5971821236444,194.65183169271725
466,52.901341586486105,-252.17452106741177,32.645212131460504,-89.5698208153576,-22.76946752051095,-175.8579965103191,259.77459288684423,199.7257710821708
467,53.70171288603678,-252.16940475109763,32.6237754219011,-89.98076602269559,-25.3433997694111,-181.19436334283463,259.9225782268279,204.9775850778401
468,54.46516802806864,-252.1366445288925,32.619941015968244,-90.33175041291496,-27.8063588196957,-186.74017580984912,260.0407359617164,210.39804258238203
469,55.18853802186892,-252.07716927670077,32.6336530025939,-90.63133551307095,-30.142793343844684,-192.48233802318205,260.1292247211457,215.97575393509064
470,55.8690194122938,-251.99244458963983,32.66454383589248,-90.8865369637663,-32.33746615633348,-198.40569228229108,260.1887270619122,221.69728772226233
471,56.5041526087342,-251.88442124792314,32.71194756985002,-91.10266364714433,-34.376001617351605,-204.49324092346927,260.2203999854041,227.5473463192035
472,57.09179937343765,-251.75547087529742,32.774920030605514,-91.283240736372,-36.245425424160175,-210.72639032825637,260.2258141483821,233.508989828926
473,57.63012207166555,-251.60831002015175,32.8522652314107,-91.43001373273754,-37.9346632763556,-217.08520848910965,260.20688331062644,239.56389526677168
474,58.11756661220365,-251.44591437492795,32.94256700370427,-91.54302677848735,-39.43496631791463,-223.54868774271625,260.16578585369325,245.69263652255256
475,58.552850250291094,-251.2714253468316,33.044224652561894,-91.62076658620944,-40.74023581415913,-230.095004919516,260.10488051517325,251.87497097819187
476,58.93495479815673,-251.08805165535995,33.15549149477129,-91.66036291830991,-41.84722664874881,-236.70177221036323,260.0266188185401,258.0901205081895
477,59.26312549351525,-250.8989690386352,33.27451530781516,-91.65783694857913,-42.75561790085284,-243.34627350617268,259.93345704672,264.3170374708668
478,59.536875723726915,-250.7072215110466,33.399379856121456,-91.60838928403754,-43.46794787258289,-250.00568274793582,259.8277709744642,270.5346496171097
479,59.755997707739276,-250.51562796323708,33.52814668777112,-91.50671942665555,-43.98941967678107,-256.6572627824458,259.71177690071625,276.7220810971593
480,59.92057892947059,-250.32669823684705,33.658896377506366,-91.34736783165377,-44.327591470916296,-263.2785451526765,259.5874627858058,282.8588496000978
481,60.031023596049984,-250.14256306337205,33.78976845551374,-91.12507049691753,-44.49197245034588,-269.8474929996655,259.4565334427659,288.9250419472572
482,60.08807773862959,-249.9649222770102,33.91899942742255,-90.83511434104946,-44.49355157647339,-276.3426508019427,259.32037363035585,294.90147218818583
483,60.092855892585604,-249.79501530271216,34.044958481246134,-90.47367980101829,-44.34429038012427,-282.74328612018985,259.18003237578813,300.76982755135765
484,60.04686669068606,-249.63361689795133,34.166180634899746,-90.03815562192496,-44.05661369073502,-289.02952983367476,259.0362307558678,306.5128085851288
485,59.95203424164819,-249.48105943389788,34.28139715480048,-89.52741032895003,-43.64293254324504,-295.18252229091735,258.8893936418984,312.1142704204514
486,59.81071192923625,-249.33728083954918,34.38956296206898,-88.94200580971483,-43.115231683882605,-301.18457295217803,258.73970376543383,317.5593720846241
487,59.625685413040415,-249.20189511474268,34.489880365586224,-88.28434091476947,-42.484750004639174,-307.0193401871788,258.5871743151386,322.8347400062806
488,59.400162286883855,-249.07428045246584,34.58181792388295,-87.55871680246622,-41.76177597160373,-312.67203588594094,258.43173456907215,327.9286502438035
489,59.13774701085381,-248.95367872391216,34.665122778234455,-86.77132042170014,-40.955571962025836,-318.1296566465849,258.27332203958076,332.83123163456145
490,58.84240112477343,-248.83929940933214,34.73982465546531,-85.93012731427457,-40.074431953266,-323.38123980000984,258.11197426745866,337.53468909358804
491,58.51839005818905,-248.7304209257578,34.80623005352358,-85.04472907440173,-39.12586707258233,-328.4181386845873,257.9479136176592,342.0335427692457
492,58.17021883953529,-248.62648258114837,34.86490585917497,-84.1260938829279,-38.11690413548559,-333.23430766541156,257.78161901778304,346.3248748814077
493,57.802559599040116,-248.52716096186253,34.916652546347514,-83.18627056089025,-37.05447435021265,-337.82658371048655,257.6138793833719,350.4085721947839
494,57.420174042034205,-248.43242541216568,34.962467805309345,-82.23804787207284,-35.94586336242831,-342.19494825574407,257.4458244398658,354.28754871463445
495,57.02783422161159,-248.3425684798502,35.00350180841279,-81.29458168287759,-34.79918993033225,-346.34275103778555,257.2789298903966,357.96793087773597
496,56.630245143303796,-248.25820889826159,35.04100560859794,-80.36900332681888,-33.62387876693154,-350.2768769521538,257.11499558833657,361.45918673483925
497,56.2319730542894,-248.18026680754795,35.07627476272709,-79.47402332670364,-32.43109346274262,-354.0078380405576,256.9560975783458,364.77418168187216
498,55.83738356255149,-248.1099131611288,35.11059100897383,-78.62154559582862,-31.234097888900173,-357.54977541464183,256.80451719892585,367.92914622586653
499,55.450593727320246,-248.0484971898763,35.14516509832123,-77.82230827433078,-30.048518911860736,-360.9203600607849,256.66265233326493,370.9435458203829
500,55.07544176442246,-247.99745721132456,35.18108342110799,-77.08556817781218,-28.892489240804466,-364.1405866290345,256.5329170838507,373.83984847472044
501,54.71547697645013,-247.95822102631385,35.21926023165458,-76.4188461001236,-27.786656244556966,-367.2344599510875,256.4176367209842,376.6431919742465
502,54.3739710128953,-247.93210265116622,35.26039649925294,-75.8277496416837,-26.75405007396315,-370.2285796236177,256.31894480360677,379.38095850682544
503,54.05394975453482,-247.92020209070066,35.30494585671066,-75.31588860335722,-25.819811946635145,-373.15163311039066,256.23868885482295,382.0822697674201
504,53.75824326151979,-247.92331426369694,35.35308776451349,-74.88489502647766,-25.010790644743306,-376.0338121337969,256.17834994508223,384.77741981437975
505,53.48954959545,-247.94185222591705,35.404707821940185,-74.53455540206977,-24.355021908336525,-378.90617039889537,256.13898021653046,387.4972657802542
506,53.250507115504874,-247.97578876392555,35.45938507917654,-74.26305636981378,-23.881111309838584,-381.79994283396053,256.12116106512747,390.2725979043865
507,53.04376914952404,-248.02461949333156,35.51638620453771,-74.06733775396415,-23.617546189406916,-384.74584765834703,256.12498363034507,393.13351042738304
508,52.872074739253605,-248.08734981310064,35.57466644590678,-73.94353883081094,-23.591966110651384,-387.7733928870444,256.15005245070864,396.1087939666842
509,52.73830939018226,-248.16250716677482,35.632877455968355,-73.88751631588927,-23.83042391994577,-390.91020840674037,256.19551234019997,399.2253682857919
510,52.64555038428496,-248.2481787565161,35.68938215948827,-73.89540667504555,-24.356670832962013,-394.18142342171944,256.2600974301533,402.50777195229153
511,52.5970922042896,-248.3420732135395,35.74227694025255,-73.96420164751964,-25.191499035548375,-397.60910680614467,256.3421999606884,405.9777223170081
512,52.596448863325435,-248.44160304981708,35.78942153998371,-74.09230450782293,-26.352173980634763,-401.21178480725257,256.4399550665206,409.6537556910143
513,52.6473312989463,-248.5439831995163,35.828477087230276,-74.28003540177413,-27.851985651494147,-405.00404687145686,256.55133663390205,413.55095378580296
514,52.75359942174704,-248.6463397066383,35.85695242616166,-74.53005671207944,-29.699943264870416,-408.99624643371936,256.67425837150154,417.68075868334455
515,52.919189912887056,-248.74582181168,35.87225828739533,-74.84769343414634,-31.90063110348546,-413.1942996095379,256.80667370409776,422.05087503812103
516,53.14802239574642,-248.83971053446152,35.87176790685629,-75.24112853232947,-34.4542346811996,-417.59958106634696,256.94666815734513,426.6652550093297
517,53.443888048057076,-248.92551739889512,35.852881741397006,-75.72145875917109,-37.356736956620765,-422.2089131177036,257.09253862369803,431.5241586823005
518,53.81032594530161,-249.00106813660986,35.813093388246045,-76.30260213658464,-40.60027474068075,-427.01464152505105,257.2428552585938,436.6242806464774
519,54.250493317412,-249.06456789677227,35.750053984241774,-77.00105408729922,-44.173636639619986,-432.0047898339895,257.3965036306417,441.9589321631611
520,54.7670363673434,-249.11464636178647,35.66163306661642,-77.83549501846237,-48.062876435580776,-437.16328337092546,257.55270678598686,447.5182680537478
521,55.36196832119697,-249.1503827871229,35.54597457476546,-78.82625787793617,-52.25201007945686,-442.47023413143563,257.7110285776999,453.2895479397602
522,56.03656102003052,-249.17131209004395,35.401546939995214,-79.99466960900946,-56.723760660171926,-447.9022784399485,257.8713606586708,459.2574225231563
523,56.79125571201387,-249.17741377266918,35.22718605489565,-81.36228528758132,-61.46031399375127,-453.4329601626733,258.0338960264256,465.40423695075657
524,57.625597781660055,-249.16908587736125,35.02212962779794,-82.95003787658176,-66.44404801463462,-459.03315313519687,258.1990921780726,471.7103447415269
525,58.538198928290306,-249.14710643771923,34.78604129613159,-84.77732992799879,-71.65820205303507,-464.6715171180519,258.3676269125397,478.1544271444283
526,59.526728822556386,-249.112585000183,34.51902303856613,-86.86109624528257,-77.08745723360643,-470.3149819453759,258.5403496268157,484.7138141273137
527,60.5879367157386,-249.0669067518634,34.221614913983714,-89.21486850453708,-82.71840614970793,-475.92925458267274,258.71823063793653,491.3648044577658
528,61.717702101656286,-249.01167166830828,33.894781918113274,-91.8478739893753,-88.53989779679286,-481.4793435166483,258.90231073563456,498.0829833542552
529,62.911112481385324,-248.94863095144242,33.53988866659581,-94.76420067478489,-94.54325147914818,-486.930094216997,259.0936529053532,504.843536712586
530,64.16256548415156,-248.87962283217968,33.158663462334594,-97.96205973381544,-100.72234018335506,-492.2467284531487,259.2932978816475,511.62156087737725
531,65.46589185301542,-248.8065095079726,32.75315381979133,-101.43317423593255,-107.07354927401757,-497.39537933724034,259.5022247638258,518.392366561142
532,66.81449499890394,-248.73111659993464,32.32567562793306,-105.16231973697316,-113.59562034725796,-502.3436134460082,259.7213173411612,525.1317752107295
533,68.20150202871262,-248.65517613394755,31.878758066562263,-109.12703906929082,-120.28939311794517,-507.0609314245479,259.95133616552675,531.8164062011563
534,69.61992053963746,-248.580273739409,31.41508642545981,-113.2975500911213,-127.15746082302327,-511.51923903965746,260.19289591836423,538.4239537614941
535,71.06279520867638,-248.50780051659953,30.93744517564634,-117.63686117679369,-134.20375700073726,-515.6932815158054,260.4464472983043,544.9334532773049
536,72.52335833822242,-248.43890979843468,30.448663882850845,-122.10110431897395,-141.43309348876528,-519.5610349006856,260.7122624567538,551.3255371830554
537,73.99516897255623,-248.374478830759,29.95156863763957,-126.64008950349564,-148.85067073708657,-523.1040490160258,260.99042289951706,557.5826807469492
538,75.47223591099669,-248.31507534066026,29.44894138420969,-131.19807651996035,-156.46158177571616,-526.3077372728038,261.28080883533465,563.6894375916463
539,76.94912089189881,-248.26092914201766,28.943488714231947,-135.71475198536297,-164.2703303575148,-529.1616093889089,261.58308925634134,569.632663934112
540,78.42101934046268,-248.2119092270654,28.43782046203665,-140.12639072468747,-172.28038216388902,-531.6594439114839,261.8967124701233,575.4017294879417
541,79.88381725500142,-248.1675070074692,27.934437203737144,-144.36717246832262,-180.4937659723742,-533.7993983761774,262.22089718916516,580.98871194264
542,81.3341239824887,-248.12682643027523,27.43572495158824,-148.3706176922152,-188.91073969258863,-535.5840558442203,262.55462458042194,586.3885710342691
543,82.7692817016675,-248.08858166160195,26.94395502656551,-152.07110082044267,-197.52953414937772,-537.0204073859629,262.8966319156636,591.599297486021
544,84.1873531701217,-248.05110292291718,26.46128704114146,-155.40539536468899,-206.346185030006,-538.1197708292473,263.2454085654934,596.6220315253555
545,85.5870895196635,-248.01235085456148,25.989772910398088,-158.3142043426698,-215.35446007942608,-538.8976468370707,263.59919494246253,601.4611453481593
546,86.96787966400925,-247.96993950585798,25.531359865087246,-160.74363088577064,-224.54588430089782,-539.3735142153702,263.9559846776465,606.1242839722681
547,88.3296824843844,-247.92116780558334,25.08789070817387,-162.64654835469537,-233.90986083977126,-539.5705672637991,264.31352999683213,610.6223594910902
548,89.67294267561164,-247.86305922715115,24.661100028967425,-163.98383590190028,-243.4338797565712,-539.5153987819825,264.669350108582,614.9694945751904
549,90.99849116835425,-247.7924093640462,24.25260561186919,-164.72545297128704,-253.10380128260857,-539.2376328105578,265.02074250715503,619.1829116862162
550,92.30743149511056,-247.7058412507845,23.863894750939775,-164.8513332592404,-262.9041945909554,-538.7695112988089,265.3647974327,623.282764482156
551,93.6010143290641,-247.59986839654565,23.496305596917896,-164.3520841017879,-272.81870801887516,-538.1454388674649,265.6984162176367,627.2919073398529
552,94.88050356300536,-247.47096550198336,23.15100400198265,-163.22948055508638,-282.83044280041725,-537.4014899099925,266.0183347049012,631.2355981581101
553,96.14703856522283,-247.3156466666806,22.82895660909734,-161.49674441655202,-292.92230051936815,-536.574882469545,266.3211532686633,635.1411289613586
554,97.40149857281827,-247.130550672865,22.530901294050132,-159.17859720054966,-303.0772751070641,-535.7034234961865,266.6033752872077,639.0373784419996
555,98.64437641157068,-246.91253272979483,22.257316645666332,-156.31107321289872,-313.2786632659957,-534.824930149864,266.86145624160076,642.9542806077673
556,99.875669562987,-246.65876176323155,22.008392917989973,-152.9410755469249,-323.5101724766694,-533.9766318562914,267.09186571437766,646.9222044943702
557,101.0947967662168,-246.3668217262275,21.78400756922819,-149.12565568310575,-333.7559130055552,-533.1945579852736,267.2911641232696,650.9712419477935
558,102.30054778647161,-246.03481443156517,21.583708819961387,-144.93099812042604,-344.00026925935714,-532.5129163695125,267.45609494081975,655.1304041532943
559,103.49107277032007,-245.66146018820783,21.406710402368752,-140.4310965603164,-354.22765585276744,-531.9634684283047,267.58369154405136,659.4267330210663
560,104.66391576249258,-245.24619124222798,21.251899795861235,-135.70611863096107,-364.42217399488004,-531.5749074836239,267.671395879923,663.8843406433609
561,105.81609446283551,-244.78923186326432,21.11786093624548,-130.84047230423084,-374.5671931986468,-531.3722481921318,267.7171840037306,668.5233985547469
562,106.94422529060566,-244.29165813540789,21.002910926371843,-125.92060820132616,-384.644890792432,-531.376237186436,267.71969155378866,673.3591078982305
563,108.04468963352186,-243.75543042651805,20.905148831170667,-121.03261569503444,-394.63578621845426,-531.602798150365,267.67833079611586,678.4006907149227
564,109.11383413480934,-243.1833923600808,20.822513296478242,-116.25969381925364,-404.5183077662981,-532.0625282984485,267.5933903585547,683.6504497509491
565,110.14819522099258,-242.57923187743393,20.75284470803876,-111.67959699660794,-414.2684258177001,-532.7602667818345,267.4661092478307,689.1029476481799
566,111.14473593949698,-241.94740238198358,20.69394715648121,-107.36216771806,-423.85937931399684,-533.6947579776805,267.29871802657044,694.7443550877705
567,112.10108173055403,-241.29300467515853,20.643645599796827,-103.36707209074099,-433.26151233753944,-534.8584332616025,267.09444189105113,700.5520114891407
568,113.01574120406738,-240.62163319366653,20.59983413753865,-99.7418495174684,-442.44222724870355,-536.237333440403,266.8574626974789,706.4942323416512
569,113.88829848912422,-239.9391927507769,20.56051214627655,-96.52037558092344,-451.3660514402632,-537.8111906654742,266.59283963767126,712.530385746358
570,114.71956527100951,-239.25169432787933,20.523806200613226,-93.72181884214183,-459.9948076037379,-539.5536838181471,266.3063910637873,718.6112488271958
571,115.5116830145785,-238.5650401865948,20.487977162048104,-91.35014915683458,-468.28787291456473,-541.4328756587518,266.00454258546955,724.6796435092308
572,116.26816877779636,-237.88480949853687,20.451413331485366,-89.39422858697681,-476.2025106115638,-543.4118339389053,265.6941487122497,730.6713413424712
573,116.99390117502853,-237.2160557867784,20.41261180025224,-87.82848730689037,-483.6942575286795,-545.4494323911591,265.3822968261182,736.5162185613586
574,117.69504626084496,-236.56312678332682,20.370150797825637,-86.61415746593953,-490.7173524785546,-547.5013210055095,265.0761030791551,742.1396350050912
575,118.37892619017053,-235.92951585380038,20.32265583189787,-85.70100939675095,-497.22519227201576,-549.5210482169523,264.7825098567842,747.4640034259537
576,119.05383628967347,-235.3177519468338,20.268762027839987,-85.02950859893681,-503.1708041615785,-551.4613106381014,264.50809369166177,752.4105089122409
577,119.72881853286513,-234.7293322537711,20.20707479982629,-84.53329028432246,-508.50732561265187,-553.2752990360889,264.2588910844821,756.9009319196325
578,120.41340131069533,-234.1646987821506,20.136131089694256,-84.14183249045139,-513.1884848205423,-554.91810276929,264.0402479098343,760.8595233590773
579,121.11731680570253,-233.62325729634557,20.054363718769903,-83.78320013115035,-517.1690785533544,-556.3481293267283,263.85669631766274,764.2148770173832
580,121.85020815966122,-233.10343487940864,19.960071570391236,-83.38673163755985,-520.405447576393,-557.5284914138057,263.7118615132418,766.9017437303429
581,122.62133889541407,-232.60277082954806,19.851398155081796,-82.88554718448589,-522.8559535194789,-558.4283116259318,263.60839955692063,768.8627332599269
582,123.43931662265238,-232.11803466706593,19.726320670136403,-82.21877238674163,-524.4814638465631,-559.0238945013864,263.5479662857698,770.0498535799908
583,124.3118419057848,-231.6453645786583,19.582651236038796,-81.33339266717256,-525.2458530619075,-559.2997179072673,263.5312165354387,770.4258430340428
584,125.24549144790116,-231.1804195637014,19.418051756510497,-80.18567953600778,-525.1165282961513,-559.2492004251045,263.5578320221916,769.9652583819071
585,126.24554270043753,-230.7185388042473,19.23006359620486,-78.74215860947487,-524.0649860743775,-558.8752086038426,263.6265755677683,768.6552907733861
586,127.31584483812058,-230.25490232025092,19.016152636908846,-76.98011790921099,-522.0674045040628,-558.1902773074328,263.7353688353853,766.4962915801304
587,128.4587388363094,-229.78468774405263,18.773769187175656,-74.88768139080399,-519.1052712459957,-557.2165273820528,263.8813903799773,763.501999909553
588,129.67502723491745,-229.30321894163708,18.50042092648711,-72.46349459434144,-515.1660421364326,-555.9852769655106,264.0611905525808,759.6994725794051
589,130.96399217472378,-228.8061030626232,18.193755865079382,-69.71608520104904,-510.2438180282723,-554.536355444061,264.270819564212,755.1287246651517
590,132.3234585001702,-228.28935325801086,17.85165139999162,-66.66297030372121,-504.34001878511515,-552.9171417338151,264.50596470659247,749.842094295784
591,133.74989712710115,-227.7494946711699,17.47230503984502,-63.329584416387135,-497.46402480093565,-551.1813605121896,264.76209226618334,743.9033496717598
592,135.23856251200976,-227.18365145525098,17.054322261056463,-59.748098564871896,-489.63374990860524,-549.3876804984243,265.0345891384464,737.3865602399476
593,136.78365706185727,-226.5896127550876,16.596797192868245,-55.95619273721019,-480.87610672052614,-547.5981671051381,265.3188988368174,730.3747582950812
594,138.37851481745005,-225.96587606087195,16.099382307632172,-51.99583329492486,-471.22732680468533,-545.8766469647751,265.610646768652,722.9584219035644
595,140.01579676278263,-225.31166712204242,15.562343897633134,-47.91209533098334,-460.7331029811488,-544.2870434451327,265.9057503547146,715.2338142556118
596,141.68769061108335,-224.62693655349565,14.986600770549297,-43.752058810648116,-449.4485283293735,-542.8917403952224,266.2005106458722,707.3012177359811
597,143.38610880100128,-223.91233424149524,14.37374429092375,-39.56379759793444,-437.43781531909724,-541.7500266945673,266.49168338332703,699.2631030620635
598,145.1028795259847,-223.16916363172356,13.726038698139652,-35.39547250228926,-424.77378819101654,-540.9166676246782,266.77652884457626,691.2222749738361
599,146.82992663862458,-222.39931895330614,13.04640159530364,-31.294533102347437,-411.5371517572758,-540.4406413924434,267.05284117300585,683.2800362771525
600,148.55943498437676,-221.60520932473048,12.338365557114317,-27.30702789858532,-397.8155495212931,-540.3640707133837,267.3189590144303,675.5344113298553
601,150.28399811567323,-220.78967431857623,11.606022733816323,-23.47701792019698,-383.70243274238027,-540.7213703292064,267.5737600103675,668.0784678949312
602,151.9967455935523,-219.9558957451839,10.85395494395501,-19.846085084095055,-369.2957692281385,-541.5386218353061,267.81664195334605,660.9987723838531
603,153.69144736781814,-219.1073101209313,10.087152053823793,-16.45292355677232,-354.69662595123214,-542.8331776688314,268.04749326220553,654.3740080534461
604,155.36259312414828,-218.24752564728166,9.310921557118702,-13.333000603970241,-340.00766310055013,-544.613487265626,268.26665505495987,648.2737793395286
605,157.00544503154725,-217.38024669292923,8.530792243099446,-10.518273398669903,-325.3315791064463,-546.8791309722704,268.47487663797205,642.7576190181248
606,158.61606300411978,-216.50920783240298,7.752414640098744,-8.036949975374792,-310.7695466940331,-549.6210418192917,268.6732657644502,637.8742089081276
607,160.19130238587414,-215.63811849859198,6.981460569561403,-5.913285289384094,-296.4196791289784,-552.8218919015993,268.86323457548104,633.660819630418
608,161.72878490241735,-214.77061829039357,6.22352375043297,-4.167406123057484,-282.37556347537856,-556.4566187102824,269.0464417760762,630.1429704651139
609,163.22684481374768,-213.9102419914388,5.484023016425202,-2.8151605215285334,-268.72489395584165,-560.4930669156398,269.22473137152855,627.3343064184462
610,164.6844533478748,-213.06039248105415,4.768109369400266,-1.8679882842661977,-255.54823369249738,-564.8927223145358,269.400068200546,625.2366860720084
611,166.1011255277068,-212.22431904115916,4.0805778925730625,-1.3328091991664432,-242.9179277291778,-569.6115164497005,269.57447052164645,623.8404705880586
612,167.47681433593706,-211.40509814759693,3.425785619476798,-1.2119259969896596,-230.89718488297345,-574.6006824263563,269.74994003896137,623.1250014340703
613,168.81179780916116,-210.60561370972354,2.807576747668025,-1.502940231588919,-219.53934110271558,-579.807644499425,269.9283900202222,623.059252064026
614,170.10656509286795,-209.8285338958072,2.2292168557081196,-2.1986819360056007,-208.88731277388288,-585.1769260301918,270.11157254712737,623.6026370189655
615,171.3617075957656,-209.07628217822278,1.6933378570829385,-3.287158003985171,-198.9732446883747,-590.6510624360309,270.30100637930155,624.7059606895826
616,172.57782102914751,-208.35100108503462,1.2018953433109372,-4.751529375622442,-189.8183539852038,-596.1715078170593,270.49790735418793,626.3124872862178
617,173.7554233213972,-207.6545083356831,0.7561397949839876,-6.570132398882542,-181.43296806712658,-601.6795260349567,270.7031236824332,628.3591133080455
618,174.89489232600013,-206.98824645821946,0.35660283555619265,-8.716564082360923,-173.816751105504,-607.117059040035,270.91707894585034,630.7776238169381
619,175.99642607481758,-206.3532284391618,0.003099265837092145,-11.159853369593884,-166.95911007708145,-612.427567008153,271.1397260192281,633.4960138538594
620,177.06002711841532,-205.74998321522625,-0.30525484106954465,-13.864740509857041,-160.83976732220498,-617.5568361784941,271.3705153693603,636.4398561957712
621,178.08551116376285,-205.1785056989451,-0.5700081246200908,-16.792083963597804,-155.42948265938853,-622.4537510514552,271.60838104662344,639.5336962801732
622,179.07253869421248,-204.63821645269834,-0.7933245980128356,-19.899409156985435,-150.69090461256337,-627.0710277462126,271.8517470669445,642.7024545586017
623,180.0206665943887,-204.12793607194763,-0.9779201272520719,-23.14160591624351,-146.57952772171657,-631.3659048474708,272.09855580999846,645.872815863588
624,180.9294152076932,-203.6458788555759,-1.126986449508971,-26.47177177747817,-143.0447314052415,-635.3007870929318,272.34631870001925,648.9745846769504
625,181.79834499561855,-203.18966955138845,-1.2441049800593884,-29.842187105460454,-140.03087539013356,-638.843835842952,272.59218805808604,651.94198446779
626,182.6271362503608,-202.7563859698261,-1.3331530217758734,-33.20539605522918,-137.47842713115432,-641.9694983616614,272.8330478361654,654.7148783388462
627,183.41566520298838,-202.3426290197334,-1.3982050775663302,-36.51535615092778,-135.32509757549414,-644.6589654144511,273.06561998750163,657.239886835624
628,184.16407034226899,-201.94462012905197,-1.443431800773648,-39.728609830198614,-133.50696270329325,-646.9005437278122,273.2865824042184,659.471376987413
629,184.87280374524207,-201.558324094888,-1.4729988928760793,-42.805424615855436,-131.95954926678348,-648.689927105363,273.4926936358841,661.3722950480924
630,185.5426635890863,-201.17959337532503,-1.4909681648737028,-45.71084527630297,-130.61886430551388,-650.0303483171186,273.6809190622087,662.9148149322032
631,186.17480557230672,-200.80432795764202,-1.5012031128866656,-48.41560186526965,-129.4223500492922,-650.9325939677484,273.84855289536495,664.080775895098
632,186.770732539528,-200.42864339092787,-1.5072817007039778,-50.896822135392014,-128.30974952353742,-651.4148666904252,273.9933303374778,664.8618871141537
633,187.33226307382552,-200.0490384114266,-1.5124194201486587,-53.13850555308362,-127.22387386688945,-651.5024830864337,274.1135243845865,665.2596835207977
634,187.86148116097075,-199.66255284434678,-1.519405831592698,-55.13172885298169,-126.1112695911593,-651.2274014337173,274.2080221457212,665.2852260738475
635,188.36067020525277,-199.26690626887503,-1.530557483439256,-56.87456927300847,-124.9227915410641,-650.6275797993695,274.2763762051487,664.9585498907381
636,188.83223558685586,-198.86060851926663,-1.5476894211627457,-58.37175023048892,-123.61409353358394,-649.7461722769995,274.31882760119913,664.3078743119279
637,189.27862048829707,-198.44303459641583,-1.5721065903953435,-59.634033443869264,-122.14605206877535,-648.630578110862,274.3362984505793,663.3685990437482
638,189.70221988689408,-198.0144588201995,-1.6046154038349982,-60.677399125579804,-120.48513818518342,-647.3313650235581,274.33035399849484,662.1821191228397
639,190.1052975259489,-197.57604569832696,-1.6455546020638114,-61.522069682883775,-118.60374852953397,-645.9010938545271,274.30313573206024,660.7944980611637
640,190.48991040562106,-197.12979772142782,-1.6948433770119882,-62.19144069804154,-116.48050017088197,-644.3930765129587,274.25726898111566,659.2550430944226
641,190.8578448127091,-196.67846296898577,-1.7520437090160652,-62.71098498932353,-114.10048649691636,-642.8601031527602,274.19574999608835,657.6148291765592
642,191.21056709093585,-196.2254078610229,-1.8164331738391495,-63.1071914716198,-111.45548543454032,-641.3531772158697,274.12181868596787,655.9252194618607
643,191.5491913639281,-195.77446231487738,-1.8870842282068576,-63.40659144802979,-108.54410701951144,-639.9202983094174,274.0388238868598,654.2364295410945
644,191.8744654602973,-195.32974567476785,-1.9629461871838203,-63.63491249880579,-105.37186465680728,-638.6053325112196,273.95008813860727,652.5961804953489
645,192.18677544289534,-194.8954820066079,-2.042926655221606,-63.81638603126218,-101.95115243584414,-637.4470073981753,273.85877848859025,651.0484816629966
646,192.48616839768886,-194.47581286735624,-2.1259699151294638,-63.97322051311367,-98.30110919987085,-636.4780647059633,273.7677889402061,649.6325777673577
647,192.7723924869169,-194.07461474581692,-2.211130508649774,-64.12524003648353,-94.44734925907471,-635.7245971150131,273.6796390204387,648.3820869760902
648,193.04495275086788,-193.695327275129,-2.297640637414624,-64.28967841128791,-90.42154089063621,-635.2055876322951,273.59639175650494,647.3243472735612
649,193.3031807915986,-193.34079720303683,-2.3849698308647125,-64.48111304697709,-86.26081816341356,-634.9326611316969,273.5195932708811,646.4799792088514
650,193.54631628342204,-193.01314209853652,-2.4728747156922495,-64.71152025185302,-82.00701938542412,-634.9100486639597,273.45023531150554,645.8626645237789
651,193.7735981280866,-192.7136369747702,-2.5614361673270767,-64.99043343348387,-77.70575579754824,-635.1347568960455,273.3887413345479,645.4791329139091
652,193.9843628432068,-192.44262645274014,-2.651081048281831,-65.32518683648475,-73.40532558691427,-635.5969280455347,273.33497616316913,645.329343417486
653,194.178147328364,-192.1994647150205,-2.7425862287055423,-65.72122870811195,-69.15549937772789,-636.2803702456587,273.2882786349418,645.406842589531
654,194.35479251183645,-191.98248518883975,-2.8370635128748676,-66.18248827761778,-65.00621290850063,-637.1632344207774,273.2475159559069,645.6992784495432
655,194.5145436673034,-191.78900153009644,-2.935925330205377,-66.71178030289501,-61.00620982564961,-638.2188112209477,273.211157703217,646.1890468329087
656,194.65814256626123,-191.61534089797073,-3.040832462100689,-67.31122923086163,-57.201681927706794,-639.4164200188679,273.1773665658684,646.8540449009971
657,194.7869062429354,-191.4569095476707,-3.1536264479116167,-67.98269263472933,-53.63495562146683,-640.7223611727198,273.14410196769944,647.668505032527
658,194.90278710056182,-191.30828938464035,-3.276250397415858,-68.72816129800721,-50.34327199497059,-642.1009026279912,273.1092317219182,648.6038812255632
659,195.00840944610576,-191.16336248980824,-3.41066261700061,-69.55011216827475,-47.35770424390409,-643.5152725008481,273.0706459881261,649.6297597345023
660,195.1070783327294,-191.01545903972715,-3.5587477680605364,-70.45179137354872,-44.702250781735266,-644.9286305850943,273.02636727032126,650.7147661849831
661,195.20275781066823,-190.857522776083,-3.7222302895967188,-71.43740795364054,-42.39313570898442,-646.3049937038317,272.97465019295623,651.8274429215935
662,195.30001729071506,-190.6822873977542,-3.9025945554032475,-72.51222446953936,-40.438340752183336,-647.6100923762439,272.91406540797266,652.9370727385528
663,195.40394662112666,-190.4824570277884,-4.101015695142492,-73.68253727978627,-38.83738464454007,-648.8121393082843,272.8435632043889,654.0144282573359
664,195.5200425530854,-190.2508842206306,-4.318304232989286,-74.95554613288917,-37.58135773275532,-649.8824937347022,272.762514111424,655.0324299486884
665,195.65407134614583,-189.98073970190876,-4.55486680234991,-76.33911925717646,-36.653211969288726,-650.7962096815246,272.6707257971239,655.966700133024
666,195.811914046735,-189.66566899660089,-4.810684255140874,-77.84146598366364,-36.02829972287961,-651.53246079846,272.5684375312208,656.7960052006983
667,195.9994021259211,-189.299932135534,-5.08530745872307,-79.47073387113655,-35.67514887768446,-652.0748393760157,272.45629504839377,657.5025835678695
668,196.2221515369166,-188.87852363193147,-5.377869920544219,-81.23455122823148,-35.556456033418,-652.4115321117533,272.3353096357456,658.0723620845539
669,196.4854029590928,-188.39727084314617,-5.687115175167481,-83.1395388619115,-35.63027376049978,-652.5353796045404,272.20680572285175,658.4950681942856
670,196.79387524694837,-187.85290966799266,-6.011435784602741,-85.19081677184664,-35.85136154209053,-652.443830012942,272.0723613208909,658.7642486607737
671,197.15163806209364,-187.2431372945741,-6.34892007075155,-87.39153223458456,-36.17266346086184,-652.1387995953871,271.93374547093015,658.8772078849541
672,197.56200843259387,-186.5666424307929,-6.697402520720242,-89.74243530332302,-36.54686950581514,-651.626453938488,271.7928565108312,658.8348797264797
673,198.0274746199081,-185.82311412880583,-7.054514163818226,-92.24152643472824,-36.9280122892901,-650.9169237147147,271.651664504664,658.641646494948
674,198.54964923153995,-185.01323095393127,-7.417729853037985,-94.88379899387824,-37.273047404437506,-650.0239680078927,271.5121606271764,658.3051176402735
675,199.12925206299118,-184.13863283541795,-7.784410093084895,-97.6610967442931,-37.543363751944284,-648.9645968498859,271.3763156930882,657.8358788901087
676,199.7661217515314,-183.20187842368514,-8.151835877262489,-100.56210271098996,-37.706169949824506,-647.7586628878967,271.2460493833657,657.2472203728706
677,200.45925404895982,-182.20639109241753,-8.517235980933684,-103.57247052164097,-37.73570447857372,-646.4284302721363,271.12321105025404,656.554849799118
678,201.2068634985683,-181.15639680792964,-8.87780720458316,-106.67510227688784,-37.61422065034732,-644.9981270390737,271.0095723299355,655.7765941640483
679,202.00646465437325,-180.05685689736947,-9.230729010350023,-109.8505684232919,-37.33270303651018,-643.4934855379985,270.9068312110935,654.932090806909
680,202.8549686679743,-178.91339822669357,-9.573174726913045,-113.07765560193482,-36.89127982946731,-641.9412739302622,270.816626631738,654.0424662395194
681,203.7487909102471,-177.73224245455427,-9.902321868268391,-116.33401885644302,-36.29930572870816,-640.3688206627941,270.74056197524516,653.1299992295311
682,204.68396517260226,-176.52013500025052,-10.215364026924071,-119.59690595705912,-35.57510199697655,-638.8035332587829,270.68023501587066,652.2177634941895
683,205.65625992612277,-175.2842733551112,-10.509526330465997,-122.84391509923782,-34.745353823583365,-637.2724129094072,270.6372710789327,651.3292452969031
684,206.66129216629216,-174.03223349792975,-10.782085833246034,-126.05374386708162,-33.8441795453179,-635.8015672707312,270.61335556655587,650.4879324620207
685,207.69463454728267,-172.77189246919343,-11.030397758843396,-129.20688764452353,-32.91190102431243,-634.4157255931424,270.61026159156984,649.7168739406143
686,208.75191178857173,-171.511344628811,-11.251928378976023,-132.28624951077708,-31.993558674232258,-633.1377627579105,270.62986825608317,649.0382129514119
687,209.82888273497724,-170.25880880314315,-11.44429534557177,-135.27763039382947,-31.137227039850345,-631.988241715612,270.67416513750226,648.4727014583159
688,210.92150503621315,-169.02252346215892,-11.605316113113892,-138.170076889117,-30.392196266011144,-630.9849867784894,270.74523886852154,648.0392086587663
689,212.0259801804379,-167.81062731840578,-11.733064511484955,-140.95607372754574,-29.807090500974866,-630.1427026830147,270.84523834817935,647.754240530092
690,213.13877747062367,-166.63102339600323,-11.825934722872288,-143.6315776899657,-29.427996174415682,-629.4726558095007,270.97631608609777,647.6314907268544
691,214.25663645805926,-165.4912257712293,-11.882711140998941,-146.1958993441119,-29.29667153815973,-628.9824340248882,271.1405445172757,647.6814448267542
692,215.37654846156647,-164.39818985246035,-11.902641901405307,-148.65144796054125,-29.4489043330329,-628.6758000899121,271.33980793346547,647.9110598634512
693,216.49571915836916,-163.3581291208692,-11.885513141786523,-151.00336295672918,-29.913077362575844,-628.5526505423119,271.5756729178935,648.3235393097427
694,217.6115157193807,-162.37632350279605,-11.831720203227446,-153.25906174552892,-30.708992563320262,-628.6090878337245,271.849242631703,648.918220479197
695,218.7214034214252,-161.45692686490486,-11.742331118308778,-155.42773837174198,-31.84699339474609,-628.8376087214367,272.16100278759006,649.6905870229234
696,219.82287801093563,-160.6027834025819,-11.619137102611035,-157.51984921860162,-33.327413446908224,-629.2274068166734,272.51066953141475,650.6324139861347
697,220.91340121664655,-159.8152646400905,-11.464684664038959,-159.54662077895716,-35.14036624387189,-629.7647819789987,272.89705149459564,651.7320468348557
698,221.99034746520294,-159.09413989995275,-11.282284545098328,-161.51960963879657,-37.26587750297141,-630.4336441615485,273.3179395040131,652.974809123905
699,223.05096967621063,-158.43749301139832,-11.075993938665988,-163.45033659295703,-39.674347301418834,-631.2160946894518,273.7700372980602,654.3435264270498
700,224.09239073588842,-157.8416965540477,-10.850569980094567,-165.35000614851265,-42.3273169715878,-632.0930641861243,274.24894478090533,655.8191473857236
701,225.1116249224009,-157.30145214150767,-10.611394155409624,-167.22931106676265,-45.1785053387483,-633.044983763843,274.7492019289517,657.3814368996316
702,226.1056305439811,-156.80990133811264,-10.364368876751216,-169.09831064221146,-48.17507166209608,-634.0524647570978,275.2643968560946,659.0097120367203
703,227.07139181851758,-156.35880708993517,-10.115789009007322,-170.96636247187698,-51.25905802192147,-635.0969620675195,275.78733631148145,660.6835883754438
704,228.00602496769997,-155.938800507714,-9.87219247206682,-172.84208156553072,-54.36896122295562,-636.1613969103644,276.3102716112841,662.3837032851613
705,228.90690092873226,-155.53968303732177,-9.640195078523348,-174.73329852796468,-57.44138311168779,-637.2307162791398,276.8251682646869,664.0923832147816
706,229.77177523966995,-155.15077006226105,-9.426315463003897,-176.646990584624,-60.412708550075884,-638.2923687174766,277.3240038564975,665.7942245222189
707,230.59891469133737,-154.76125925419822,-9.236796375949071,-178.58916519591142,-63.2207623254935,-639.336678929472,277.79907648021816,667.4765616948688
708,231.3872103359289,-154.36060572667893,-9.07742884540246,-180.56468488024825,-65.80639989341158,-640.3571072483687,278.2433053552063,669.129802628502
709,232.13626737704612,-153.93888617263318,-8.953385759672223,-182.57703193897675,-68.11499150892462,-641.3503839025138,278.65050614492833,670.7476173413944
710,232.8464641954219,-153.4871354505411,-8.869071205403825,-184.62802119504516,-70.09776434274437,-642.3165123202847,279.01562567183805,672.3269734790694
711,233.51897502473878,-152.99764126533006,-8.827991365313599,-186.71747620177547,-71.71297225968345,-643.2586404207061,279.3349238304789,673.8680187992537
712,234.15575327331564,-152.4641853395305,-8.832651963244928,-188.8428889469913,-72.92686826870161,-644.1828039515995,279.60609409326906,675.3738173611271
713,234.75947499845026,-151.88222243490455,-8.88448619600539,-190.99908483606524,-73.71446072554568,-645.0975513417873,279.8283177267721,676.8499523244215
714,235.3334445760822,-151.24899152972344,-8.983815900020751,-193.1779141569372,-74.06004139475863,-646.0134648839373,280.0022505551359,678.3040139276316
715,235.88146720074988,-150.56355628391358,-9.129847420932295,-195.36798920392843,-73.95748105711381,-646.9425978499369,280.12994479291814,679.7449960651854
716,236.4076953802907,-149.82677458017918,-9.320702239594537,-197.5544839242952,-73.4102957182001,-647.8978509063807,280.214711990663,681.1826286963172
717,236.91645876980235,-149.04119936385325,-9.553480813173694,-199.7190113482176,-72.4314930242581,-648.8923136713856,280.2609362250278,682.626676019003
718,237.4120882028433,-148.21091519505535,-9.824356393394964,-201.839593512294,-71.04321397623696,-649.938598240235,280.2738490450548,684.0862318038523
719,237.89874542828574,-147.34131691629534,-10.128693997859079,-203.89073867794372,-69.27618936302753,-651.0481908111415,280.2592792214228,685.5690431948896
720,238.38026980968934,-146.4388387339934,-10.461188536163554,-205.84364053281402,-67.16903331625026,-652.2308451155145,280.22339107067376,687.0808923410204
721,238.8600521250892,-145.51064390195054,-10.816015581281025,-207.66651281294978,-64.76739773360252,-653.4940374704785,280.17242512709754,688.6250613845125
722,239.3409436604863,-144.56428702872597,-11.186988442178903,-209.32506959414368,-62.1230108970198,-654.842498512314,280.1124542205089,690.2019009202608
723,239.82520610160853,-143.60736259103155,-11.567715844083528,-210.78315592304565,-59.29262168476264,-656.2778318228492,280.0491665336087,691.8085157058026
724,240.31450446998088,-142.6471542452627,-11.951755484304364,-212.00352559957108,-56.33686799252256,-657.7982255433011,279.9876849520993,693.4385750283577
725,240.80994180740072,-141.69029979705286,-12.33275989871674,-212.94875342351972,-53.319085192674784,-659.3982603088164,279.9324291236608,695.0822495838299
726,241.31213089949057,-140.74248616221203,-12.704612270110715,-213.58225901847254,-50.30406850872653,-661.0688156718218,279.8870234301308,696.7262725553845
727,241.82129552139978,-139.8081873960364,-13.061550795492208,-213.86940948203983,-47.35680269764784,-662.7970774140429,279.8542509917344,698.3541199408241
728,242.33739181202048,-138.8904570083417,-13.398280868375195,-213.7786596753656,-44.5411737052171,-664.5666492327307,279.83605121355646,699.9463038746064
729,242.86023942041874,-137.99078343404398,-13.710074625188774,-213.28268303860014,-41.91867982907871,-666.357773480847,279.83355631072607,701.4807723083412
730,243.38965178018339,-137.10901476285355,-13.992857390781783,-212.35944322899937,-39.54716374657143,-668.1476661295505,279.8471605528359,702.93340837984
731,243.92555510582264,-136.2433557289368,-14.24328028329871,-210.99315790092777,-37.47959052090784,-669.9109702038971,279.8766145742529,704.2786224755647
732,244.4680865235569,-135.39043668142193,-14.458777782948797,-209.17511022123549,-35.762899358046326,-671.6203292531015,279.9211361390161,705.4900288645653
733,245.01766325030655,-134.54545100513764,-14.637608541635444,-206.90427041851544,-34.4369579184374,-673.247078023102,279.97952842470085,706.5411966400263
734,245.57501694627655,-133.7023544217083,-14.778877305700814,-204.18769782740702,-33.53364760910172,-674.7620418120944,280.05029732090924,707.406461641715
735,246.1411902313153,-132.8541169025463,-14.882535863166597,-201.0407026492702,-33.07610707908008,-676.1364295689523,280.13176045171355,708.0617823287047
736,246.71749570719945,-131.99301563228673,-14.949361692022908,-197.48675538811116,-33.07815934917575,-677.3427991421081,280.22214252569927,708.4856185066656
737,247.30544133027837,-131.1109555845229,-14.980914493777187,-193.5571402836233,-33.54394513347279,-678.3560665444387,280.319653899565,708.6598075740877
738,247.906629147158,-130.19980282863725,-14.979472744006609,-189.29035700306994,-34.467780088461865,-679.154524964557,280.4225514717346,708.5704087719826
739,248.52263676588984,-129.25171479996874,-14.947954248327394,-184.73128265767753,-35.83424645713434,-679.7208339809512,280.5291828036435,708.2084823112676
740,249.15489219996832,-128.2594516892532,-14.889825882836568,-179.93011440152006,-37.61852022485079,-680.0429356752719,280.63801552770303,707.570768004705
741,249.80455283491816,-127.21665410817472,-14.809007867747479,-174.94112192012585,-39.7869245997574,-680.1148528109296,280.74765470061186,706.6602279935214
742,250.47239829746644,-126.11807437397813,-14.709777133866991,-169.82124904239652,-42.29769075983389,-679.9373255463194,280.8568509224569,705.4864209438913
743,251.15874508217485,-124.95975198067339,-14.59667303319453,-164.6286138026854,-45.10189853273217,-679.5182475726459,280.96450183383695,704.065680803449
744,251.86338815710405,-123.73912772840022,-14.474407340803824,-159.42096514461923,-48.14456365764871,-678.8728698866043,281.0696490904972,702.4210813164487
745,252.5855718342987,-122.45509513278135,-14.347779462763736,-154.2541604480224,-51.36583456872091,-678.0237499633009,281.1714722480875,700.5821770003733
746,253.3239893933907,-121.10799172626871,-14.221596960959358,-149.18072990519514,-54.702259757268756,-677.000435057643,281.2692803518265,698.5845211607829
747,254.07680863830868,-119.69953634612921,-14.10060085155298,-144.24859102640883,-58.088086108348655,-675.8388799558068,281.36250155774695,696.468971013038
748,254.8417189914817,-118.23272123388037,-13.989394718264391,-139.4999695837819,-61.45654890972584,-674.5806110483095,281.4506709263903,694.2807986449528
749,255.61599497483266,-116.71166961158984,-13.892376629929165,-134.9705728986554,-64.74111572987763,-673.2716595822027,281.5334166622639,692.0686341984443
750,256.39657087301043,-115.14147025111018,-13.813673147578028,-130.6890483339155,-67.87664946535882,-671.9612970275095,281.61044539252185,689.8832742281857
751,257.18012180451456,-113.52800036355251,-13.757075232860808,-126.67674477621831,-70.8004606869221,-670.7006143811074,281.68152738696904,687.7763936372418
752,257.96314716989497,-111.87774703417958,-13.725976486517393,-122.94777829105792,-73.45322554339613,-669.5409945745223,281.746482829545,685.7992036435171
753,258.74205337455084,-110.19763574747756,-13.723314690040606,-119.50938573563185,-75.77975207664406,-668.5325325151197,281.80517038459175,684.0011005196649
754,259.51323369028717,-108.49487268199994,-13.751517982931151,-116.36253322073736,-77.72958400852842,-667.7224602768615,281.8574793859196,682.428350078253
755,260.2731439602799,-106.7768056326886,-13.812457173832781,-113.502731727862,-79.25743642151767,-667.1536353628888,281.90332695694434,681.1228510358366
756,261.0183734165531,-105.05080663727205,-13.907405627785131,-110.92100157474061,-80.32346247201089,-666.8631478530973,281.94266110928726,680.1210168124275
757,261.745710076313,-103.3241776026418,-14.037007764095549,-108.6049216108984,-80.89335521410067,-666.8810979082688,281.9754702605286,679.4528105385053
758,262.452200031122,-101.60407854066688,-14.201256416713933,-106.53969790038202,-80.93829483863762,-667.2295889039873,282.00179870961625,679.1409625793012
759,263.1351995614044,-99.89747656452589,-14.399478480861601,-104.70918959918785,-80.43475963036862,-667.9219737682728,282.0217665877992,679.2003940941408
760,263.79241854197085,-98.21111257669426,-14.630327914787264,-103.0968361367702,-79.36422805198669,-668.9623831622982,282.0355918254804,679.6378641031584
761,264.42195317652767,-96.55148152490916,-14.891785496285127,-101.68643924291341,-77.7128079040625,-670.3455541489657,282.0436108383746,680.4518510923025
762,265.0223058654277,-94.92482123390928,-15.1811654443023,-100.46276552752883,-75.47083451029158,-672.0569671067017,282.0462940735363,681.6326731789027
763,265.5923901624503,-93.33710432043719,-15.495129612730887,-99.4119497683027,-72.63248186071897,-674.0732871427416,282.04425248281365,683.1628432747463
764,266.13151942725045,-91.79402778308935,-15.829710173759446,-98.52169485209704,-69.19542808755789,-676.363094601046,282.03823157554694,685.0176477371363
765,266.6393788787472,-90.30099560838458,-16.18034156776634,-97.78127995084712,-65.16060997077777,-678.8878780786137,282.0290909250317,687.1659290839065
766,267.11598212798634,-88.86309103895559,-16.54190221176396,-97.18140226763907,-60.53209145150327,-681.6032534083358,282.01776867300066,689.5710459931099
767,267.5616147044499,-87.4850367722268,-16.908766231771445,-96.71388816593729,-55.31705977280231,-684.460364096148,282.00523242111507,692.1919776430111
768,267.97676832219776,-86.17114301226232,-17.27486539550116,-96.37131599322433,-49.52595129652313,-687.4074133035119,281.99241957516654,694.9845350724921
769,268.36207031855776,-84.92524467495439,-17.633761421866268,-96.14659545064978,-43.17269848639156,-690.3912748335594,281.9801712888697,697.9026399733888
770,268.71821260420063,-83.75062992067814,-17.978728824619886,-96.0325475133702,-36.27508091442566,-693.3591303872458,281.9691643403129,700.8996310235999
771,269.04588373929363,-82.64996260280154,-18.302848317302796,-96.02152557572624,-28.855156918674304,-696.2600818958159,281.95984471657846,703.9295590018842
772,269.3457068652107,-81.62520147188592,-18.59911058075135,-96.10511362314932,-20.939748568991945,-699.0466902443376,281.9523659202576,706.9484338475578
773,269.6181855630159,-80.67751932270104,-18.860529980024495,-96.27393140430348,-12.560950118521255,-701.676394701862,281.9465345012829,709.9153890876715
774,269.86365933671414,-79.80722573184273,-19.08026764067537,-96.51756976416105,-3.7566281415695557,-704.112770819236,281.9417651207493,712.7937315385816
775,270.0822701681509,-79.01369746831877,-19.251763031708744,-96.82467103314677,5.429120601543906,-706.3265886757245,281.93704736468965,715.5518470357299
