time,ax,ay,az,gx,gy,gz,accmagnitude,gccmagnitude
0,-7.0554923553386315,-257.8519885356817,-11.850258723239582,3.5605867142428007,66.78026276731984,-1.9219400215192726,258.22119231651595,66.86331633635618
1,-7.119862640190871,-257.5579247089325,-11.684187099280505,3.9793080569860497,67.10533977651232,-1.94320566195823,257.9235324540104,67.24053220568578
2,-7.181591311439012,-257.2773740260324,-11.525901084304097,4.411875359615059,67.42277217814683,-1.9689489516552563,257.6395999431798,67.612377435488
3,-7.24025094565424,-257.0125947007685,-11.375134497228247,4.854399070135835,67.72776630017852,-1.9991665869820563,257.37162366618685,67.97352571450982
4,-7.295440745939744,-256.7656085284518,-11.231588426184363,5.302966764801984,68.0160139835545,-2.0337982511438364,257.12159592343227,68.31912812158036
5,-7.346789761670652,-256.53815961101253,-11.094953684410925,5.753718431121169,68.28382314743492,-2.0727263602375654,256.89123222881676,68.6449544825655
6,-7.393961573187484,-256.3316774524297,-10.964931440425108,6.202918030829535,68.52822622745455,-2.115775105798217,256.6819354329379,68.94751162556584
7,-7.43666058425665,-256.14724551802306,-10.841251030113867,6.647017801327424,68.74706209391255,-2.16270848305027,256.49476522911414,69.22413373299807
8,-7.474639878693286,-255.98557655871792,-10.723683905314324,7.082711175427899,68.93902807099826,-2.2132272284840244,256.330414296736,69.47304099953872
9,-7.507710335969336,-255.84699611457492,-10.612052795614302,7.506970670901336,69.1036999458294,-2.2669649823871842,256.1891924474164,69.69336415542924
10,-7.535750333080357,-255.7314355375212,-10.506235379929656,7.917068635495136,69.24151929151402,-2.323484428188735,256.071020064547,69.88513404617619
11,-7.558715005835424,-255.6384355840157,-10.40616206919765,8.310581012301759,69.35374886728219,-2.382274477567522,255.97543184165275,70.04923718771947
12,-7.57664390841398,-255.56716112914563,-10.3118079566496,8.685376767121422,69.44239821656497,-2.442749653581431,255.90159134282254,70.1873398866946
13,-7.589666065032465,-255.51642690943092,-10.223179583559725,9.039597666577869,69.51012289276807,-2.504252663567043,255.8483162956805,70.30178506999633
14,-7.598001712448062,-255.48473354075347,-10.140297758487648,9.37163419884572,69.56010202692715,-2.5660608188738405,255.81411390154062,70.39546736258754
15,-7.601960326770822,-255.47031250003445,-10.063178108942498,9.680103393900389,69.59590012513355,-2.6273965385882767,255.79722491646018,70.47169308630778
16,-7.60193478361337,-255.4711783612523,-9.991811242673917,9.963833334332683,69.62131988890418,-2.6874417510883357,255.7956748728874,70.53403260454266
17,-7.598391754119675,-255.48518633051205,-9.926144284514235,10.221857694315975,69.64025334609708,-2.7453556523076403,255.8073305664303,70.5861727220349
18,-7.5918586970294015,-255.5100929813771,-9.86606512580563,10.453422095708403,69.6565385596926,-2.800295035569429,255.82995977739353,70.63177660539306
19,-7.582908049664042,-255.5436179882044,-9.81139012344468,10.658002603109939,69.6738285857922,-2.8514362720239292,255.86129207538676,70.67435787609294
20,-7.572139430905057,-255.5835045316203,-9.76185547430758,10.835335298801434,69.69547819618114,-2.8979979479538343,255.89907841627777,70.71717416151253
21,-7.560160820209431,-255.62757590898218,-9.717112238366957,10.98545455814896,69.72445227172557,-2.9392630959583745,255.94114709134263,70.76314357606763
22,-7.547569728371864,-255.6737858800333,-9.67672496307463,11.108736412334597,69.76325787811491,-2.9745998776813103,255.98545358235052,70.8147855156793
23,-7.534935311333445,-255.7202606270843,-9.640173952806522,11.205942313005341,69.8139000519832,-3.003479543658954,256.0301222218069,70.87418499439849
24,-7.522782227973569,-255.76533093548773,-9.60686134159982,11.278257830519763,69.87785947841454,-3.0254905819110527,256.0734782786625,70.94297778007312
25,-7.511576840818265,-255.8075541065224,-9.57612121176934,11.327320516556044,69.95608877347661,-3.040348201009832,256.11406998980056,71.02235207380632
26,-7.50171613168889,-255.84572597500693,-9.54723398006541,11.355231520687626,70.04902319291399,-3.047898667433074,256.15068091022266,71.11306165382337
27,-7.493519512880469,-255.87888407507,-9.51944503207789,11.364546605295068,70.15660134127309,-3.0481184936844388,256.1823336149362,71.2154453490417
28,-7.487223603967288,-255.90630338134315,-9.491987076304882,11.358243824718366,70.27829181437617,-3.041108983367215,256.2082861527783,71.3294483596879
29,-7.482979987959515,-255.9274860959395,-9.464105068231895,11.339667098895632,70.41312259343486,-3.0270870905725067,256.22802267616464,71.45464217867871
30,-7.480855926891158,-255.94214674368536,-9.435082114126885,11.312446952913216,70.55971129514589,-3.00637385650964,256.2412394497761,71.5902415061494
31,-7.480837984803924,-255.95019362825934,-9.40426467879348,11.280401547933907,70.71629582505678,-2.9793817959932056,256.24782723053085,71.73511829443696
32,-7.482838402696914,-255.95170768505966,-9.371085624874349,11.247422611751178,70.88076625383279,-2.9466025243603142,256.2478510013449,71.88781455510022
33,-7.486703851911674,-255.94691986849529,-9.335083937282185,11.217351919663917,71.05069956659122,-2.9085956942705615,256.24152815082556,72.04655652947996
34,-7.492225942744973,-255.93618821358604,-9.295920339690795,11.193854559587733,71.22339919185404,-2.8659800306645806,256.22920620108175,72.20927314540955
35,-7.499152694924716,-255.91997553867543,-9.253388348703009,11.180295299894823,71.39594089085315,-2.8194269677204646,256.2113410219012,72.37362134942119
36,-7.507200133783803,-255.89882848223635,-9.207420584659914,11.179623935337949,71.56522577713798,-2.76965708844288,256.18847620471604,72.5370200130899
37,-7.516063298109323,-255.87335824161164,-9.158090355310758,11.194274588129591,71.72804013743107,-2.717439187147302,256.16122395432956,72.69669287116139
38,-7.525426245369282,-255.84422303377048,-9.105608699438724,11.226082782682472,71.88112059260382,-2.6635913207497555,256.130247522314,72.84971963900702
39,-7.534971010833537,-255.81211201959835,-9.050317242386793,11.2762229241111,72.0212222199016,-2.6089828012404377,256.09624494322054,72.99309335699473
40,-7.544385749328843,-255.77773031990588,-8.992677303369879,11.345167759891984,72.14518674233462,-2.5545358618051863,256.05993373125375,73.12378133234664
41,-7.553372386630859,-255.74178481810074,-8.933255625756589,11.43267055765407,72.25000787954055,-2.5012257831474147,256.022036260291,73.23878690665492
42,-7.561654080183441,-255.70497063086353,-8.872706945001678,11.537770057208107,72.33289143830251,-2.4500785643401524,255.98326572800863,73.33520965671009
43,-7.5689827094706,-255.66795834112216,-8.81175358051753,11.658817646361396,72.39130854616677,-2.4021656641821023,255.94431281292532,73.41030236790438
44,-7.575146518846746,-255.63138224408414,-8.751162454614246,11.793525559425149,72.42304130842362,-2.3585958125995403,255.90583329363315,73.46152389747638
45,-7.579977940715484,-255.59582992527413,-8.691720238028852,11.939034177272625,72.42622081573778,-2.320504302479839,255.86843697477212,73.48658758295464
46,-7.583361556969617,-255.5618335051011,-8.63420741971873,12.091995792926282,72.39935774324556,-2.289040448960353,255.83267828038814,73.48350505375248
47,-7.585242078057058,-255.52986289315476,-8.57937193682921,12.248671604505411,72.34136584467194,-2.265354001711342,255.79904887479162,73.45062526638606
48,-7.5856320513877895,-255.5003213661555,-8.52790280411483,12.40503827366822,72.25157861112996,-2.250581214497351,255.76797262882087,73.38666846938384
49,-7.584618761887738,-255.47354364523545,-8.480404207747004,12.556900167984255,72.12975936358767,-2.2458310661963377,255.73980310407035,73.29075474881613
50,-7.58236959180051,-255.44979642252704,-8.437370803628545,12.700003409390213,71.97610513732113,-2.25217187578736,255.71482350550343,73.16242687397232
51,-7.579135057607115,-255.42928111002703,-8.399165294198573,12.830148078193488,71.79124486784706,-2.270618350388825,255.69324888590145,73.00166733189046
52,-7.575248780835317,-255.4121385663603,-8.365999553252156,12.943295320186497,71.57623253024035,-2.302119005767129,255.675230375987,72.80890963338958
53,-7.571123693165782,-255.39845562919416,-8.33792055341253,13.03566658231201,71.33253596747682,-2.347543891719196,255.66086128649013,72.58504412733369
54,-7.567243860371623,-255.3882732295831,-8.314802140137129,13.10383268083052,71.06202215089678,-2.4076725684964355,255.65018487154512,72.33141864107084
55,-7.564151534679926,-255.3815955999481,-8.296343343680467,13.144790839864347,70.76693952922157,-2.4831822486263717,255.6432032725097,72.04983424591686
56,-7.562429436356524,-255.37839978950032,-8.282073536302688,13.156028202928274,70.44989792942825,-2.574635958290579,255.6398868622092,71.74253631103386
57,-7.562678750630445,-255.37864459215118,-8.271364455347332,13.135570608582492,70.1138462118224,-2.682470587540285,255.64018310604536,71.41220079694179
58,-7.565493814121519,-255.38227808424986,-8.263448957136742,13.082015654397589,69.76204762609636,-2.8069848836602773,255.6440241582042,71.06191553027267
59,-7.5714348670894,-255.38924315115153,-8.25744623280805,12.994549284622622,69.39805258591815,-2.948327779399951,255.65133260021,70.69515602054503
60,-7.581000478192599,-255.39948060571277,-8.252392944753781,12.87294535937244,69.02566832446436,-3.1064878006196466,255.6620249505907,70.31575517755991
61,-7.5946013048202285,-255.41292975526991,-8.247279248994788,12.717547967404263,68.64892458842239,-3.2812844981234393,255.67601281282091,69.92786604840221
62,-7.612536815908623,-255.42952648308105,-8.241088024239373,12.529236760638462,68.27203426306917,-3.4723628000527356,255.69320171563496,69.53591652662156
63,-7.634976494931229,-255.44919900517314,-8.23283506590997,12.309376411478949,67.89934774482623,-3.6791908999957648,255.71348777332506,69.14455505934045
64,-7.661946782054208,-255.47186148695488,-8.221607814139924,12.059752342154404,67.53530008158698,-3.9010618860440553,255.73675230399147,68.75858676758644
65,-7.693324547399404,-255.49740578856677,-8.206600471714687,11.782495884552922,67.18435038374257,-4.1370989316300815,255.76285462509983,68.38290005054063
66,-7.7288372324437855,-255.52569182762636,-8.18714392695645,11.480002718675868,66.85091371132502,-4.386263657117353,255.79162346552013,68.02238455708623
67,-7.768069081691676,-255.5565373089059,-8.162729444305699,11.154848676849937,66.53928646333979,-4.647367290679094,255.82284769149905,67.6818422583574
68,-7.810472357507592,-255.58970769480703,-8.133025530190123,10.809706828261083,66.25356709549632,-4.919084447930032,255.85626716698275,67.36589411707698
69,-7.855382290379793,-255.6249072242138,-8.09788776480525,10.447269291970146,65.99757464213765,-5.19996958756787,255.89156450981235,67.07888541542431
70,-7.902034703045715,-255.66177167510668,-8.057361685313229,10.07017656850753,65.77476794295848,-5.488476371127168,255.92835840674286,66.82479311417526
71,-7.949585489143497,-255.69986357505974,-8.011678949736076,9.680956394856114,65.58816866399822,-5.7829801969977,255.96619916945727,66.60713866912918
72,-7.997131244637923,-255.73867066165502,-7.961247078994951,9.281973293291234,65.44029118990105,-6.0818040807981255,256.00456731824573,66.42890957136471
73,-8.043730387925411,-255.77760839132262,-7.90663324425857,8.875389231327476,65.33308228658302,-6.383247824382051,256.0428759881744,66.29249255958302
74,-8.088424177903018,-255.81602707915937,-7.848542887073129,8.463135268597128,65.26787307789701,-6.6856200778384505,256.0804777569481,66.19962098262344
75,-8.130257173096949,-255.85322386172766,-7.787794292701759,8.046893781225101,65.2453453125788,-6.987272522713624,256.11667612421996,66.15133814460908
76,-8.16829681768679,-255.88845918009616,-7.725290419582813,7.628090778879242,65.26551314847111,-7.286635084380466,256.15074138974256,66.14797767265001
77,-8.20165194519596,-255.9209769756324,-7.661989247753215,7.207897900878089,65.32772085829997,-7.582250867537833,256.18193017352473,66.189161109655
78,-8.229490031969295,-255.95002743546902,-7.59887368454064,6.787243837411851,65.43065608495141,-7.872809405287657,256.2095074565125,66.27381216589146
79,-8.2510529878448,-255.9748910363688,-7.536921793189649,6.366835052451928,65.57237762704679,-8.157176814936264,256.2327699182481,66.40018643350489
80,-8.265671155309306,-255.9949027832687,-7.477077928349636,5.947185600420113,65.75035626509737,-8.43442154722897,256.25106948204535,66.56591490543617
81,-8.272775101266262,-256.00947577298126,-7.4202252997734135,5.5286554076086425,65.96152686141829,-8.70383457354456,256.2638362037479,66.76805934652036
82,-8.27190486480267,-256.0181233605127,-7.367160484682769,5.1114956967052745,66.20234985199716,-8.964943070657137,256.27059978664204,67.00317741627696
83,-8.262716598846382,-256.02047917846755,-7.318570419581469,4.695899471682547,66.4688802282603,-9.217516940218268,256.2710089859787,67.26739539394293
84,-8.244986845195765,-256.0163141476864,-7.275012389211925,4.282054349232243,66.75684214267818,-9.461567819172949,256.26484806391653,67.55648638278684
85,-8.21861477984215,-256.0055496100199,-7.236897457439315,3.870194627459067,67.06170736973223,-9.697340558077325,256.2520494503539,67.86595197993759
86,-8.183622619068254,-255.98826590248348,-7.20447765807919,3.460649336915621,67.37877600043763,-9.925297440335187,256.2327019453806,68.19110557343515
87,-8.140154176511082,-255.96470597229944,-7.177837159433776,3.0538831123737222,67.70325790832173,-10.146095670705515,256.20705406921655,68.52715562957279
88,-8.088471498799308,-255.93527383030042,-7.156887623983288,2.6505270744427345,68.03035369098927,-10.360558858573077,256.17551236030397,68.86928755169687
89,-8.028949600441853,-255.90052772882214,-7.141368117019032,2.251397530727825,68.35533397257545,-10.569643361984408,256.1386345160884,69.21274293465088
90,-7.962069457223926,-255.8611680997504,-7.130850068417818,1.8575011398167953,68.67361611891191,-10.774400484946064,256.0971174277913,69.55289527873227
91,-7.888409511880142,-255.81802061444387,-7.124747788862414,1.4700261120781437,68.98083751480182,-10.975935685639868,256.0517804880929,69.88532140781172
92,-7.808636006673754,-255.7720150744963,-7.1223347775549035,1.0903199314138563,69.27292455538637,-11.175366149065695,256.00354489130666,70.20586792143064
93,-7.723492520011951,-255.72416098159127,-7.12276558974049,0.7198548950096513,69.54615643989389,-11.3737782163825,255.95340977312622,70.51071200900545
94,-7.63378910253365,-255.6755205736221,-7.1251025736991025,0.3601834684777406,69.79722279771474,-11.572186155236523,255.9024259632233,70.79641592146393
95,-7.540391308201882,-255.62718003816772,-7.1283465574419465,0.01288606855235854,70.02327418961836,-11.771493601851526,255.8516680375795,71.05997439925969
96,-7.444209228058122,-255.58021962447177,-7.13147057118328,-0.3204855765215059,70.2219646165949,-11.97245879719878,255.8022053605733,71.2988544175288
97,-7.346186467896521,-255.5356834469207,-7.133455697677588,-0.6384659149350884,70.39148528039269,-12.175664559000445,255.75507287240023,71.51102668831659
98,-7.247288894383138,-255.4945499010567,-7.133327928712749,-0.9397300721797979,70.53058891233813,-12.381493778691597,255.71124249528424,71.6949883965697
99,-7.148492839275758,-255.45770382819117,-7.1301945118401635,-1.2231414717934295,70.63860400026377,-12.590111064803954,255.67159623246192,71.84977661723256
100,-7.050772321508499,-255.42591179554896,-7.123277945593306,-1.487788897675828,70.71543822657671,-12.801450965091618,255.6369022530445,71.97497179923296
101,-6.9550848963595024,-255.3998019000897,-7.111945739303924,-1.733009905196977,70.76157044744392,-13.015213019235636,255.60779529848654,72.07069068448003
102,-6.862356081908577,-255.37984919404173,-7.095734331261178,-1.958398508302824,70.7780306741744,-13.23086373742329,255.5847624553998,72.13756814640135
103,-6.773462817423692,-255.3663672304591,-7.0743660514875675,-2.1637964867404937,70.76636784234805,-13.447645447400507,255.56813477069267,72.17672776156905
104,-6.689216799077858,-255.35950558762013,-7.047758557875483,-2.3492693149746517,70.72860570716021,-13.664591766006346,255.55808457518955,72.18974149196781
105,-6.6103486072018685,-255.35925278376442,-7.01602661683673,-2.5150693737718184,70.66718792406252,-13.8805492181161,255.5546279511707,72.17857957730004
106,-6.537493280611451,-255.36544380102325,-6.979476408408885,-2.6615905239509723,70.584914124408,-14.094204294288394,255.55763158846761,72.14555247252461
107,-6.471177604693017,-255.37777141168465,-6.9385927996484495,-2.789319112598311,70.4848694337981,-14.304115081477251,255.5668232439676,72.09324727804037
108,-6.41180914471495,-255.3958005062473,-6.894020334919664,-2.898786918618821,70.37035027602775,-14.50874653954669,255.5818050271816,72.0244614730233
109,-6.359667131223852,-255.4189845835598,-6.846539052466378,-2.990531357669358,70.2447893327716,-14.706508484816961,255.60206870825598,71.94213675083748
110,-6.314895573355555,-255.44668353079388,-6.797036599249923,-3.0650674664602566,70.11168213291043,-14.895795323989764,255.6270122324602,71.84929531366551
111,-6.277499181383659,-255.47818191496816,-6.7464783245305275,-3.122874874388505,69.9745170191198,-15.07502652366532,255.65595673458932,71.74898020612515
112,-6.247342694164271,-255.51270724230426,-6.695876910305108,-3.1644013270343168,69.83670941216077,-15.242686699871022,255.68816358191833,71.64420038389316
113,-6.224154074742214,-255.5494478854285,-6.646262660736629,-3.190082586040938,69.70154062988537,-15.397364121207788,255.72285120454376,71.53788049302563
114,-6.2075318188271975,-255.5875705163209,-6.598655057881557,-3.200376935301098,69.5721011948255,-15.537786434298816,255.75921159038774,71.43281496967958
115,-6.196956338423351,-255.62623692532443,-6.554035825863835,-3.195811264491162,69.45123858439992,-15.662852605308048,255.79642634646376,71.33162607630919
116,-6.1918050780816545,-255.6646201170988,-6.5133235964004506,-3.17703486786027,69.34150958552299,-15.771660405681603,255.833682224922,71.23672571751139
117,-6.1913707503401465,-255.7019195876322,-6.477350280427487,-3.144876659431742,69.2451376258227,-15.8635291601785,255.87018601649478,71.1502811299541
118,-6.194881862513095,-255.7373757150401,-6.446839352113792,-3.100401368146917,69.16397560141394,-15.938017797950929,255.90517873686446,71.07418472737928
119,-6.201524546847516,-255.7702832436171,-6.422386393107613,-3.0449603714077647,69.09947487375582,-15.994938421779755,255.937949074766,71.01002855311782
120,-6.210464615833893,-255.8000038952606,-6.404442372012168,-2.980233150881789,69.05266132918304,-16.034365652914712,255.96784612316767,70.95908401727534
121,-6.220868786540777,-255.825978197986,-6.393300193568128,-2.9082559196907223,69.02411963666326,-16.056641996253965,255.99429146934784,70.92228784659943
122,-6.231924190510262,-255.84773666522887,-6.389085038880166,-2.8314347458944034,69.01398698180753,-16.062379449019623,256.0167907646019,70.90023534451075
123,-6.242855591640282,-255.86491043845822,-6.3917489727171715,-2.752541409503357,69.0219574948851,-16.052457530086997,256.0349448771419,70.89318203884784
124,-6.252940079995755,-255.87724134540957,-6.4010702420133745,-2.674691189746086,69.04729827249629,-16.028017803456688,256.0484605768858,70.90105451849273
125,-6.261519295458758,-255.88459102542254,-6.416657597790969,-2.6013027326433433,69.08887730992006,-15.99045479819025,256.05716040290474,70.92347071438968
126,-6.268009420076091,-255.88694846300962,-6.43795977939266,-2.5360410874883863,69.14520288815754,-15.941403004897438,256.06099105155255,70.95976914037732
127,-6.271909216289855,-255.88443512773162,-6.464280021762363,-2.482745895815672,69.21447317366395,-15.882719399636718,256.06002947238113,71.00904585481004
128,-6.272806211059628,-255.87730699453684,-6.494795231230497,-2.4453474834583018,69.29463420261195,-15.81646078589691,256.0544859245943,71.07019735353103
129,-6.270380798505672,-255.86595290389877,-6.528579458902684,-2.4277741714525507,69.3834441779354,-15.744855223784562,256.04470342443074,71.14196740809096
130,-6.26440781740093,-255.8508888861949,-6.564631403208013,-2.433854493494801,69.47854213919284,-15.670266944254033,256.0311531780168,71.22299605534032
131,-6.254755274868815,-255.8327481980448,-6.601905633540214,-2.4672182495568133,69.57751949997315,-15.595154387527641,256.0144257209466,71.31186945043906
132,-6.241380268866005,-255.81226697063533,-6.639346862638197,-2.531200459096806,69.67799350889938,-15.522021314451804,255.99521763976423,71.40716993564222
133,-6.224322539834981,-255.79026561035096,-6.6759259714320285,-2.628752227927339,69.77768214838505,-15.453361288476836,255.9743139858907,71.50752622066238
134,-6.203696266257037,-255.76762638927633,-6.710675852964768,-2.7623621909869778,69.87448016265593,-15.39159620943485,255.95256677901614,71.61166384095036
135,-6.179680705188756,-255.74526794780965,-6.742724729677539,-2.9339915008750923,69.96653574134892,-15.339009998503247,255.930870269814,71.71845599670267
136,-6.1525100950890765,-255.72411770752063,-6.771324528492553,-3.145024409820246,70.05232690460382,-15.297678943254999,255.91013389962978,71.82697449483665
137,-6.122462878340388,-255.70508350126352,-6.795872231395696,-3.3962355314055346,70.13073590054763,-15.269400543146853,255.89125420444654,71.9365398623269
138,-6.089849888322116,-255.68902598427405,-6.815922891585836,-3.6877740075546055,70.2011190124969,-15.255622953996442,255.87508718365635,72.04676884752418
139,-6.055000961623237,-255.67673336628826,-6.831194070506117,-4.019164074563704,70.26336819901067,-15.257377408713399,255.86242266406538,72.15761661180204
140,-6.0182496518916775,-255.66889956622992,-6.841562441006709,-4.389320890009155,70.31796014572696,-15.275216345517089,255.85396179087684,72.26941013358783
141,-5.97991623153831,-255.66610621356998,-6.84705390446616,-4.796579955866758,70.36598785241917,-15.309160343375758,255.85029813115656,72.38286893877621
142,-5.940289745330912,-255.66880838124337,-6.847828752700835,-5.238738121084725,70.4091700811517,-15.358657239099697,255.85190235253967,72.49910947812367
143,-5.899610379482369,-255.6773237740231,-6.844163332567721,-5.713104045623349,70.44983503421214,-15.422556888899603,255.85911028401262,72.61963045948048
144,-5.85805374798197,-255.69182523679132,-6.836429525148778,-6.216556181490726,70.49087651042021,-15.499104850993527,255.87211430491945,72.74627819803663
145,-5.815718781046358,-255.7123366415577,-6.825073220923384,-6.7456067416517165,70.53568325306536,-15.585957727034398,255.89095819685278,72.8811933151612
146,-5.772620692385842,-255.7387322861279,-6.810592817910489,-7.296470720383619,70.5880447724013,-15.68022200456947,255.91553565583905,73.02674242674293
147,-5.728690082394492,-255.77073987416023,-6.793518538571389,-7.865139713128143,70.65203904616534,-15.778517104453114,255.9455925833588,73.18544028805807
148,-5.683778690578672,-255.807947017367,-6.774393132822478,-8.44746094481886,70.73190875465338,-15.877062126722086,255.98073312888766,73.35986881352096
149,-5.637671670828046,-255.84981109044548,-6.753754442629356,-9.0392224022115,70.83193292605017,-15.971784606732395,256.0204293305895,73.55259930560669
150,-5.59010561024965,-255.89567224056347,-6.732120330369902,-9.63624512553092,70.95630012657233,-16.058448436264737,256.0640341570509,73.76612316436356
151,-5.540791023197668,-255.94476941264872,-6.709976447226384,-10.234483466051508,71.10898787283317,-16.132796957213266,256.110797797834,74.00279453742395
152,-5.489437842039951,-255.99625934002117,-6.687767109072168,-10.83013347453124,71.29365111646734,-16.190706164627983,256.1598871250182,74.26478616538556
153,-5.435782447002981,-256.04923849028717,-6.6658891812566,-11.41974859866821,71.5135208668565,-16.228342112916042,256.2104082754754,74.55405752074701
154,-5.379614900163468,-256.1027679135659,-6.644688492049485,-12.000360554515227,71.7713127166059,-16.242316179175035,256.26143225024134,74.87233270065292
155,-5.320805154743419,-256.15590083639626,-6.624458056455087,-12.569601621544562,72.06914454716078,-16.229831907081582,256.31202331710375,75.22108476484142
156,-5.259327017177163,-256.20771272777625,-6.605437385999639,-13.125822813863874,72.40846307885289,-16.18881770866709,256.3612698837889,75.60152337780663
157,-5.195278548272734,-256.2573334375795,-6.587812385830263,-13.668200663562237,72.78997995834901,-16.118040602907353,256.40831738581295,76.01458349292075
158,-5.1288975213254915,-256.3039807968067,-6.571715743341751,-14.196824088921629,73.21361934870603,-16.017197233739683,256.45240253089304,76.46091403111059
159,-5.06057068242615,-256.34699468853285,-6.557228174474806,-14.71275240138463,73.67848008047713,-15.886979452783336,256.49288787619474,76.94086668458503
160,-4.990835983957755,-256.3858700587882,-6.5443812244963535,-15.218036222338197,74.18281598119593,-15.729112628093294,256.52929519388556,77.45448583032032
161,-4.92037759605652,-256.4202867756334,-6.5331623585382905,-15.715695016842602,74.72403781372577,-15.546365478167303,256.56133553584374,78.00150091560226
162,-4.850014071145329,-256.45013387244626,-6.523522825822912,-16.209647927240763,75.29873931466685,-15.342530663186855,256.58893354326227,78.58132258203665
163,-4.780680316071511,-256.4755257088046,-6.515388397244293,-16.704598198887123,75.90274832016782,-15.122375723010327,256.6122435403283,79.1930433510879
164,-4.713404043334293,-256.4968079993881,-6.508672736301305,-17.205875211226957,76.53120219115438,-14.891564407159068,256.6316553585091,79.83544307490428
165,-4.649277361624458,-256.51455239366976,-6.50329298249609,-17.719241459293503,77.17864498983405,-14.656549135935167,256.6477885639444,80.50699870870415
166,-4.589424325044484,-256.5295391618183,-6.499187134545472,-18.2506743917887,77.83914234195186,-14.424436302375966,256.66147463607206,81.2058973952977
167,-4.53496556448757,-256.5427283993083,-6.496332901260415,-18.80613458382815,78.50640884140499,-14.202827299790457,256.6737275118171,81.93005148654416
168,-4.486981374225279,-256.55522087910225,-6.494767573783118,-19.391332262877853,79.17394240666201,-13.999639416276834,256.68570363059905,82.67711412105612
169,-4.446474695477637,-256.56821019095923,-6.494607957457843,-20.011503813786685,79.83516032807208,-13.822911965366869,256.6986531187398,83.44449449213768
170,-4.414335413320576,-256.58292817522533,-6.496068591902351,-20.671208712343052,80.4835328880197,-13.68060412677498,256.71386410459473,84.22937304425946
171,-4.391307400063208,-256.6005860046945,-6.499475767509161,-21.374155520572085,81.11271225262264,-13.580391843097912,256.7326024901026,85.02871841862947
172,-4.377959759465678,-256.6223136209858,-6.505274556601285,-22.123063292524847,81.7166564459445,-13.529471633949987,256.7560498556108,85.8393096767258
173,-4.374663593072488,-256.64910051610093,-6.514026332036533,-22.919562237133352,82.28975004499104,-13.534379247232042,256.7852424691084,86.65776862971074
174,-4.381575269363545,-256.68174094995135,-6.526395038658682,-23.7641351020142,82.82692420829315,-13.600830599224565,256.8210144949269,87.48060749576776
175,-4.398626717736601,-256.7207865065683,-6.543121703936725,-24.65609885890913,83.32377848685925,-13.733591439396204,256.86394834583365,88.30429640426276
176,-4.425522769909656,-256.7665084345612,-6.564987988354021,-25.59362519759752,83.77670567314505,-13.93638067926979,256.91433470420355,89.12535366792245
177,-4.461745064259949,-256.81887163946,-6.5927705938809575,-26.573798156129797,84.1830191214308,-14.21181049739616,256.9721441863141,89.94045969926229
178,-4.506561604335187,-256.8775215801261,-6.627188971652827,-27.592707716198575,84.54107998088193,-14.561364363566213,257.0370120191264,90.74659337777949
179,-4.559040854431558,-256.9417846322817,-6.6688491609739255,-28.645578936469697,84.85041991514586,-14.985412225748963,257.1082364130296,91.54118776739668
180,-4.618069332699991,-257.0106817420001,-6.718186865324289,-29.72693668861198,85.11185319408311,-15.483260469156535,257.18479057603383,92.32230026604621
181,-4.682372007563796,-257.0829545352321,-6.775412995512034,-30.830805891900784,85.32757047771744,-16.053233008543877,257.26534765957604,93.08879037891522
182,-4.75053531452756,-257.15710258719616,-6.840464835934449,-31.950946108477872,85.50120520954059,-16.692779062845375,257.348317461695,93.84049633145803
183,-4.821033087677477,-257.23143030780085,-6.912965721779034,-33.08111754723481,85.63786254635488,-17.398602816735007,257.43189345604924,94.57839994967397
184,-4.892255921599367,-257.30410182336016,-6.992195703090594,-34.21537324900145,85.74410061926682,-18.166810310442152,257.51410861930503,95.30476815040316
185,-4.962544362183381,-257.37320223824764,-7.077075214641584,-35.348369847375906,85.82785516532482,-18.99306948148019,257.5928985033067,96.02325959065804
186,-5.030225989597371,-257.4368036288576,-7.166163380445104,-36.475687069573404,85.89830156607646,-19.8727801926558,257.66616993279115,96.73898692430471
187,-5.093656102921277,-257.4930339944603,-7.257672295604781,-37.594144218112405,85.96565302957589,-20.801252087537847,257.73187354637776,97.45852866281494
188,-5.151261440432128,-257.54014719828973,-7.349498377366445,-38.70210040830563,86.04089941648367,-21.77388888945357,257.7880781712426,98.18988922423267
189,-5.201586110850676,-257.5765917656774,-7.43927153461804,-39.79972453162832,86.13549691500143,-22.786377997198734,257.8330448150471,98.94241036130738
190,-5.243338533092632,-257.60107632222673,-7.524422352940538,-40.88922099796917,86.26102319202867,-23.834883798027345,257.86529792661395,99.72664075147426
191,-5.2754376499875955,-257.6126293962924,-7.602266690107068,-41.97499841723506,86.42881494072134,-24.916242128712852,257.8836914633972,100.55417246879675
192,-5.297056192947926,-257.6106510722141,-7.670106029054166,-43.06377046895952,86.64960471013696,-26.02815204617495,257.8874670148691,101.43745327994962
193,-5.307658566398906,-257.5949533867394,-7.725340567588141,-44.16458106569631,86.9331719574381,-27.169359796579887,257.87630060025765,102.38958262206769
194,-5.307030919533861,-257.56578563307284,-7.765590304370498,-45.28874922637833,87.28802020663751,-28.339828783772333,257.8503340074662,103.42409736758978
195,-5.295300918708838,-257.52384059067504,-7.788817642979508,-46.44973247500475,87.72108893874722,-29.540888573283848,257.81018637191573,104.55475170928355
196,-5.272944631853369,-257.4702388442683,-7.793443882858325,-47.66291069213245,88.23750613839672,-30.775355666686764,257.7569428164488,105.79529420308214
197,-5.240778115963748,-257.4064908710999,-7.778451811583262,-48.945294810113914,88.84038572050241,-32.047619081358995,257.69211948560593,107.1592444254894
198,-5.199932118891742,-257.3344396891172,-7.743467565669098,-50.315166273005,89.53067340619418,-33.36368478048175,257.6176074789727,108.65967179529228
199,-5.151809866971118,-257.25618929297343,-7.688816872620199,-51.79165370657292,90.3070446779307,-34.731174725832034,257.5356007672954,110.3089795969415
200,-5.098029821422567,-257.17402495874694,-7.615553244743813,-53.39425302372547,91.16585861045616,-36.15927860540519,257.4485142243111,112.1186977113745
201,-5.040356812167715,-257.09033094782944,-7.5254579203865735,-55.142296792578094,92.10117097934857,-37.65865880252857,257.3588975222868,114.09928763672046
202,-4.9806256151134605,-257.00751006883957,-7.421012869648411,-57.05437880033587,93.10480861725567,-39.24131158198467,257.2693496537335,116.25996290750118
203,-4.920660957383112,-256.9279086091263,-7.305349040263209,-59.147740894335904,94.16650440845655,-40.920389516288616,257.18243791160023,118.60852711211187
204,-4.862197559485154,-256.853749402417,-7.182172472175503,-61.437631561496694,95.27408887873462,-42.709991729353,257.1006243962748,121.15123067986552
205,-4.806803448369586,-256.7870751009881,-7.055671165589068,-63.936649096737455,96.41373065608772,-44.62492956649659,257.0262023866842,123.89264682505463
206,-4.755809419167682,-256.7297029689939,-6.930405797798095,-66.65408607883654,97.57021485951196,-46.68047583029224,256.96124412501257,126.83556676062236
207,-4.710247120030354,-256.6831917203617,-6.811187622126712,-69.59529559329633,98.72724628409154,-48.89210579389774,256.907560736856,129.98091461883828
208,-4.670797851075901,-256.64882020718443,-6.702947066552025,-72.76110265876909,99.86776336125504,-51.27523789752681,256.8666742585897,133.32768336293
209,-4.637753982059356,-256.6275772599106,-6.610596547242415,-76.14728614856466,100.97424925998277,-53.844981450855855,256.83980120842455,136.8728941078046
210,-4.610994892132962,-256.6201617148723,-6.538890890454417,-79.74415674854211,102.02902793566129,-56.61589786323188,256.82784684623425,140.6115823391341
211,-4.58997918736222,-256.6269915160645,-6.492288802636175,-83.53625493924808,103.01453514860741,-59.601780897269826,256.83140910117163,144.53681520693186
212,-4.573754385981182,-256.64822050662735,-6.4748192303989125,-87.50218970972708,103.91355724816482,-62.81546015179242,256.8507908649622,148.63974423148716
213,-4.56098440497951,-256.6837608658279,-6.489956970754308,-91.61463403412583,104.70943368108608,-66.26863040258637,256.8860186841088,152.9096974099442
214,-4.549994304598661,-256.7333081429462,-6.540511943028907,-95.84048751533055,105.3862224685516,-69.97170759458646,256.9368648759746,157.33431385611817
215,-4.538830940392253,-256.7963651562669,-6.628535782572352,-100.14121046916642,105.92883085372894,-73.93371030344515,257.00286940616115,161.89972264636233
216,-4.525337473753932,-256.8722614925678,-6.755248239108989,-104.47332748997793,106.32311541547958,-78.16216356519044,257.0833583273892,166.59076535601383
217,-4.507239203090423,-256.9601669488978,-6.920984890516716,-108.78909252744633,106.55595679720327,-82.6630203497602,257.17745717884884,171.39125887023036
218,-4.482237870584266,-257.059099034749,-7.125167055966298,-113.0373019203838,106.61531381621795,-87.44059486368448,257.2840995022388,176.28429170725897
219,-4.448111250164347,-257.16792571227796,-7.366294279072178,-117.16423678059508,106.49026051815275,-92.49750149761147,257.40203165592516,181.25254380270388
220,-4.402814250762341,-257.28536482252684,-7.641959325969118,-121.11471171800264,106.17100838744774,-97.83459370082441,257.529815336324,186.27861710108115
221,-4.344577043157557,-257.4099815843517,-7.948885477603878,-124.83320339003791,105.6489150742772,-103.45089840370713,257.6658291146928,191.34536301293525
222,-4.2719951503690625,-257.540185604797,-8.28298596557211,-128.2650300645727,104.91648106824455,-109.34354374020693,257.8082703191297,196.4361932534567
223,-4.184106390210018,-257.6742291558459,-8.639445453038485,-131.3575525145469,103.96733675022264,-115.50768047039017,257.9551588869395,201.53536277452125
224,-4.080450115222468,-257.8102088391614,-9.012823282315365,-134.06136705985762,102.79622375067584,-121.93640022476696,258.1043451642318,206.6282169115961
225,-3.9611050789562445,-257.9460728217016,-9.397177648707949,-136.33146314241085,101.3989758522115,-128.62065607212097,258.2535236734872,211.70139869092725
226,-3.826703139566603,-258.0796355053219,-9.786208726724306,-138.1283200379308,99.77250519184675,-135.54919271673847,258.40025452320094,216.74301574396816
227,-3.6784168637102166,-258.2086010444266,-10.173417139514427,-139.41891970368988,97.91479893867265,-142.7084947576648,258.5419936558634,221.74276892036352
228,-3.517920142241912,-258.33059664388077,-10.552272674242737,-140.17765491144462,95.82492997402207,-150.08276181364315,258.6761326409061,226.69204614839444
229,-3.3473223771941534,-258.4432158016676,-10.916387517816938,-140.3871134776066,93.50308271008437,-157.65391886521803,258.8000479808432,231.58398528540687
230,-3.1690786421281225,-258.54407051829526,-11.25968847461962,-140.03872062440357,90.95059260907416,-165.40166889605857,258.91115881104184,236.41350887222714
231,-2.9858802026462286,-258.63085035776123,-11.57658298221523,-139.13322263049434,88.16999583397863,-173.30359295767713,259.0069907868241,241.17733237666684
232,-2.80053144997626,-258.70138552331383,-11.862113863703666,-137.68099650336936,85.16508418886718,-181.33530037021768,259.0852432562898,245.87394629943617
233,-2.6158201851689142,-258.753710883905,-12.112097760818886,-135.70217297403477,81.94096010660097,-189.47062917351408,259.14385659084854,250.503571888562
234,-2.4343881796363975,-258.78612805842016,-12.323242301112659,-133.22656396902258,78.50408659915843,-197.68189440346336,259.1810767010999,255.06809033460135
235,-2.258608340420812,-258.79726311463844,-12.493237365117727,-130.29339074849602,74.86232738426118,-205.94017952005373,259.1955141962038,259.5709460916386
236,-2.090474019526319,-258.786117983122,-12.620816421846508,-126.95081465361515,71.02497250019766,-214.21566455710862,259.18619618018624,264.0170261096125
237,-1.9315052111496542,-258.75211415004475,-12.705784910916842,-123.25527824016525,67.00274446087246,-222.4779834101419,259.1526091597363,268.41251792486753
238,-1.7826755495977598,-258.69512758179104,-12.749014106295826,-119.27066986139516,62.80777950011927,-230.69660211864516,259.09473197575744,272.76475044204955
239,-1.644363018158586,-258.6155142603561,-12.752400645966885,-115.06732908873887,58.45357807483447,-238.84120995491688,259.013058170215,277.08202173349764
240,-1.5163260656891053,-258.5141261539191,-12.718793605781947,-110.72091366087517,53.95491900225615,-246.88211551449143,258.9086077201685,281.3734183832333
241,-1.3977055912969236,-258.3923177432421,-12.651892314429796,-106.31115115235936,49.32773280539664,-254.7906407064963,258.78292842137074,285.6486310226209
242,-1.2870521800762835,-258.2519432522101,-12.556119041628722,-101.92050052567171,44.588932299933454,-262.5395064173821,258.63808726179576,289.91777089057786
243,-1.1823769829760182,-258.09534450408904,-12.436471487608365,-97.6327502907247,39.75620219702889,-270.1032045268281,258.47665192001983,294.19119250579377
244,-1.081223610132838,-257.92532894469156,-12.298360800358244,-93.53158107682488,34.84775416440432,-277.4583518199948,258.3016621654094,298.479327752123
245,-0.9807574373258802,-257.74513700312684,-12.147441563120443,-89.69912089209484,29.88205861223769,-284.5840221208325,258.1165905857452,302.7925366575105
246,-0.8778679495686869,-257.5583977777263,-11.989440662229587,-86.21452115110144,24.87756839924526,-291.4620535305978,257.925291892824,307.1409796237646
247,-0.7692791621738039,-257.36907212597066,-11.829991921803776,-83.15258080725236,19.85245164984499,-298.07732776572675,257.7319401380695,311.5345145996816
248,-0.6516627770198571,-257.1813825664804,-11.674482607117158,-80.58244489680992,14.824350279588208,-304.41801810370436,257.54095346455864,315.9826206700285
249,-0.5217486722314241,-256.9997299028825,-11.527916457624327,-78.566402755435,9.810177636699182,-310.47580145881,257.35690646461035,320.4943470588614
250,-0.37642761304534433,-256.8285971441949,-11.394796435923434,-77.15881020177044,4.825963540513079,-316.2460289095415,257.18443081066494,325.07828407507265
251,-0.2128415902846296,-256.6724421457678,-11.279029450996491,-76.40515895769086,-0.11325097587785724,-321.7278478987899,257.02810562282593,329.74255043616375
252,-0.028457932198574887,-256.53558141485564,-11.183854949172,-76.34131519393465,-4.993472552473277,-326.9242685963985,256.8923400213113,334.49478992227586
253,0.178875545422384,-256.42206856901413,-11.111799071183492,-76.99294699841361,-9.801775716516003,-331.84216686288187,256.7812513338515,339.3421696458049
254,0.41089549443200046,-256.3355716833195,-11.064655684463212,-78.3751574365352,-14.526294688519968,-336.49221727968495,256.6985431606754,344.2913726503679
255,0.6689072957970488,-256.27925399046234,-11.043494839383744,-80.49233548911066,-19.15619772918617,-340.8887521228445,256.6473877169493,349.34857928225915
256,0.953785906715978,-256.25566231821523,-11.048697995756815,-83.33823145351637,-23.68165400621894,-345.04954588861335,256.6303167785098,354.51943467582737
257,1.2659892508989,-256.26662772690287,-11.080017780785127,-86.89625651243283,-28.093800706742083,-348.99552951392735,256.64912560440484,359.80900321319814
258,1.6055798551760863,-256.31318315896976,-11.136658399783082,-91.13999849541686,-32.38471496293448,-352.75044301886675,256.70479451495845,365.221714216435
259,1.9722512361911484,-256.39550302048383,-11.217371673173053,-96.03393803315029,-36.54739145180154,-356.3404392245499,256.79743288041817,370.76130576163285
260,2.3653569199030833,-256.5128688722616,-11.320563394930604,-101.5343421479846,-40.57572270960005,-359.793653922938,256.9262495415189,376.43077494761536
261,2.783941320348729,-256.6636638859532,-11.444405099285571,-107.59030661332834,-44.46447588812949,-363.1397590066523,257.08955220359087,382.2323429961647
262,3.2267725961833276,-256.8453970774437,-11.58694679920817,-114.14491468540344,-48.20925759334929,-366.40951439854825,257.2847767468989,388.16744219703554
263,3.692377998520389,-257.0547569917872,-11.746226524589996,-121.13647822971687,-51.806458157080485,-369.6343322123693,257.5085460790421,394.2367291593623
264,4.179082319224029,-257.28769338235287,-11.920372718616667,-128.49982757893093,-55.253168463617584,-372.8458628006334,257.75675702185487,400.44012551738155
265,4.68504999306219,-257.53952435276994,-12.10769596950039,-136.16761805976108,-58.54706621944211,-376.0756078032378,258.02469263553974,406.77688366261316
266,5.2083312012649055,-257.80506547438426,-12.306767178006963,-144.07162319360665,-61.6862738649939,-379.35456068509075,258.3071564051813,413.24567165334645
267,5.746911916857818,-258.07877658977253,-12.51648000177895,-152.14398623604023,-64.66919628124623,-382.7128712181582,258.59862388954235,419.8446684424382
268,6.2987672334299445,-258.3549212806889,-12.73609614896276,-160.31840225044286,-67.49435180923543,-386.1795274870266,258.8934066777002,426.5716580672785
269,6.861916718762446,-258.62773333031663,-12.965272653539143,-168.53120204205052,-70.16021363693038,-389.78204759309426,259.1858228322681,433.42410946518874
270,7.434480240002897,-258.8915840973196,-13.204070564591404,-176.72230747034644,-72.6650794310687,-393.5461732958382,259.4703675768831,440.3992271390145
271,8.014732838638217,-259.1411446223595,-13.452944661621826,-184.83602607952778,-75.00698495158372,-397.49555911000476,259.74187789607083,447.4939571792651
272,8.601157587675939,-259.37153642607063,-13.712714196711886,-192.8216531314918,-77.1836727501707,-401.6514525404059,259.99568488082684,454.7049335198113
273,9.192495585586647,-259.57846518057204,-13.984515520059263,-200.63385227730404,-79.19262095097407,-406.0323638834521,260.2277479200574,462.02835121977506
274,9.78779207197703,-259.7583316711701,-14.269738767386796,-208.23279295535298,-81.0311307947697,-410.65372712284665,260.43476512302016,469.45975738175014
275,10.386437140137586,-259.9083149222462,-14.569952362966891,-215.58403314345196,-82.69646618430512,-415.5275567137579,260.61425486473644,476.99375613951975
276,10.988199059168101,-260.0264235164974,-14.886820563064557,-222.658149656331,-84.1860345104763,-420.6621083393238,260.7646045514253,484.6236317453532
277,11.59324816197381,-260.1115132072927,-15.222020063114872,-229.43013359324266,-85.49759562855184,-426.0615548635879,260.88508481754974,492.3409025429203
278,12.202169540134092,-260.1632714149787,-15.577161237286335,-235.87858429740874,-86.62948466783224,-431.7256914329158,260.9758298679384,500.13482756398207
279,12.815963062234712,-260.18217127560484,-15.953717946509475,-241.98474969298323,-87.58083397789603,-437.6496857144277,261.0377867156327,507.9918955534685
280,13.43602933696408,-260.1693991905022,-16.352967993957066,-247.73147266604948,-88.35177966308181,-443.8238904744398,261.072637280123,515.8953325260775
281,14.06414035133708,-260.12676053446256,-16.77594517371667,-253.10211113150405,-88.94363875817216,-450.2337361281184,261.08269797536263,523.8246679437742
282,14.702393897039288,-260.0565686873996,-17.22340347097171,-258.0795029065543,-89.35904414618729,-456.85972056502555,261.0708019194961,531.7554009764665
283,15.3531517184181,-259.9615230318689,-17.69579366447486,-262.6450453309174,-89.60202569743402,-463.6775123631539,261.0401693987655,539.6588068846058
284,16.018962608381408,-259.84458196540595,-18.19325194417294,-266.77795401166514,-89.67802757298558,-470.6581812332763,260.9942726687954,547.5019192635235
285,16.702473297474253,-259.7088371349624,-18.715599431380557,-270.4547556412867,-89.59385304210454,-477.76856599157327,260.9367014084699,555.2477167773877
286,17.406331513587222,-259.5573948650116,-19.262351042118837,-273.64905705318984,-89.35752978526865,-484.9717854295299,260.87103499680967,562.8555332896013
287,18.133086487201858,-259.3932701495433,-19.832731906814267,-276.33161696927465,-88.97809130311138,-492.2278911390521,260.8007272444485,570.2816983312953
288,18.885092161791842,-259.21929770180697,-20.425699328739555,-278.4707287766357,-88.46527479298489,-499.494653850996,260.729008339829,577.4804012591258
289,19.664417681581405,-259.0380633966518,-21.039968111366342,-280.0329030081149,-87.82914332146206,-506.7284665980168,260.65880758321225,584.4047581331994
290,20.472768857708225,-258.85185797810027,-21.674037230243258,-280.9838182972724,-87.07964976198978,-513.8853396580872,260.5926990005333,591.0080463051529
291,21.31142352857817,-258.66265322076106,-22.326216265196614,-281.2894910596984,-86.22616985460667,-520.9219544930257,260.53287024594636,597.2450588880071
292,22.181182974324457,-258.4720989611705,-22.994650585023454,-280.9175987673863,-85.27703923573978,-527.7967374816761,260.48111343387853,603.073520579901
293,23.08234068941236,-258.28153774391285,-23.677344857824515,-279.8388810264979,-84.23913212361356,-534.4709098672654,260.438834862025,608.4554987241518
294,24.014668896413276,-258.0920325729185,-24.372184920568,-278.0285378265927,-83.117516519274,-540.9094686781464,260.4070793036313,613.3587400577651
295,24.977422383799322,-257.9044027236573,-25.076958250984017,-275.4675456011826,-81.91521280080784,-547.0820549547782,260.38656396368833,617.7578651226204
296,25.969358671613662,-257.7192627929768,-25.789373243280032,-272.1438186273147,-80.63307116502027,-552.9636705657877,260.3777173515722,621.6353589815097
297,26.98877299811456,-257.53706090322197,-26.507077403062198,-268.0531547166266,-79.26977076328508,-558.5352129270173,260.3807189931944,624.9823081965916
298,28.033545969187955,-257.3581129560435,-27.227674675736484,-263.19991874874154,-77.82193169414984,-563.7838073742237,260.3955368156832,627.7988489385438
299,29.10120099750838,-257.1826308481541,-27.94874239988999,-257.5974339781842,-76.28432178414633,-568.7029287959875,260.42195999411246,630.0943081863045
300,30.188968198979076,-257.0107434608035,-28.667848614965934,-251.26806792510618,-74.65013411374684,-573.2923162323955,260.45962590510857,631.8870376668057
301,31.29385138221361,-256.8425099290141,-29.38257045173634,-244.24301587989993,-72.91130865012069,-577.5576953446905,260.5080404946772,633.2039569362153
302,32.41269504144907,-256.677925218319,-30.090513992004723,-236.56179955536544,-71.05887178213442,-581.5103330577211,260.5665918493605,634.0798365155616
303,33.54224866652594,-256.51691850235017,-30.789335268081253,-228.27151030009458,-69.0832704792268,-585.1664556800785,260.6345571590115,634.5563633028537
304,34.67922616819873,-256.3593453782205,-31.476761114598713,-219.425834942403,-66.97468268456075,-588.5465661143938,260.7111037207679,634.6810380347572
305,35.82035879727119,-256.2049756475291,-32.15060771357743,-210.08390761826024,-64.72329192146378,-591.674697325784,260.7952852627448,634.5059582343403
306,36.962440593410555,-256.0534790701576,-32.808794213178935,-200.3090331554911,-62.319521481734036,-594.577638204424,260.88603554076593,634.0865401180483
307,38.10236611524531,-255.90441173322753,-33.44934891662992,-190.16732739392592,-59.75423149449171,-597.2841647152409,260.98216147989524,633.480229921391
308,39.23716096291415,-255.75720514505835,-34.070406266991775,-179.72631810883163,-57.01889000469632,-599.8243043253502,261.08233778675884,632.7452498252424
309,40.364006301516895,-255.6111591215802,-34.67019413464099,-169.05354796192998,-54.105735909307214,-602.2286557736714,261.1851041811472,631.939416963627
310,41.480259046013984,-255.46543860787025,-35.2470125958819,-158.2152189888908,-51.00795575638816,-604.5277799008157,261.28886575482124,631.1190665968086
311,42.583469491895976,-255.3190741020752,-35.799207214700864,-147.27491698674538,-47.719896405649926,-606.7516709353016,261.39189674092233,630.3381029133477
312,43.67139807483354,-255.1709652428147,-36.32514134307295,-136.29245356195932,-44.237330217166416,-608.9293115367091,261.4923480428217,629.6471932292434
313,44.74203277841457,-255.01988725727227,-36.82317257976096,-125.32286257830621,-40.55777871687266,-611.08830911255,261.5882590479443,629.0931135465617
314,45.79360850944706,-254.86450025864832,-37.29163803456421,-114.41558487699874,-36.680886044482264,-613.254605687565,261.677574423821,628.7182456149
315,46.82462940193554,-254.70336171102159,-37.728851679252706,-103.61386903891662,-32.60881782911771,-615.4522493394393,261.75816665826505,628.5602181749482
316,47.833894430218464,-254.534942710845,-38.13311523379418,-92.95440574739388,-28.34664813160758,-617.7032123330205,261.82786507266434,628.6516784816635
317,48.820526037474366,-254.35764909641696,-38.502742046258305,-82.46719904010288,-23.902690075183173,-620.0272398836381,261.8844919974045,629.0201751323784
318,49.78400088979448,-254.16984867215942,-38.836091561882746,-72.17566066799006,-19.28872666999589,-622.441714202806,261.9259067019933,629.6881303702758
319,50.72418138682395,-253.96990576507434,-39.13161054736333,-62.09689628452418,-14.520107001113098,-624.9615211949022,261.9500573152069,630.6728798868093
320,51.64134611146595,-253.75622374542783,-39.38787645012903,-52.242137228603184,-9.615687315910158,-627.598911539763,261.9550402027998,631.98676058286
321,52.53621688132787,-253.5272950841486,-39.603638209920085,-42.61726211034052,-4.5976132012658075,-630.3633532186167,261.93916513293505,633.6372310638498
322,53.40997951295539,-253.28175722508843,-39.77785052681615,-33.22335044269816,0.5090457804709528,-633.2613780886185,261.9010233062061,635.6270149953137
323,54.26429510589647,-253.01845136721218,-39.90969894007846,-24.057217060829323,5.676786888470733,-636.2964302834696,261.83955434079485,637.9542631285557
324,55.10129892222355,-252.73648044121185,-39.99861475461011,-15.111890128391662,10.876263341007915,-639.4687284778696,261.7541078495695,640.6127351739082
325,55.92358480715287,-252.43526218712722,-40.04428039007862,-6.37701455456552,16.076945046496853,-642.7751569150123,261.64449531125763,643.5920070548905
326,56.73417425179591,-252.11457326809978,-40.04662681795651,2.160816916107586,21.247828184687314,-646.2092012566446,261.51102838311493,646.8777117906251
327,57.53647026579334,-251.77458079110073,-40.005825396543855,10.517784484785068,26.35817623873678,-649.7609447695788,261.35454055150956,650.451822987273
328,58.33419705594897,-251.41585842436115,-39.92227670164681,18.71258066981866,31.378279353832546,-653.4171383828575,261.1763900301355,654.2929887640207
329,59.13132720247612,-251.03938542798912,-39.79659882802373,26.76612963894734,36.2802202152312,-657.1613551606924,260.97844303720336,658.3769213902347
330,59.93199872971181,-250.64652825451347,-39.62961700981737,34.70125066886708,41.0386321672246,-660.974236122287,260.76303793988205,662.6768446260517
331,60.740425125805956,-250.23900577359342,-39.42235536378891,42.54223990581884,45.6314295206952,-664.8338302607128,260.5329320961237,667.1639972061165
332,61.5608017435519,-249.81884040275247,-39.17603036056056,50.31435949858273,50.04048264069783,-668.7160270015441,260.2912343190229,671.8081871843916
333,62.39721199313312,-249.388298298937,-38.89204458348498,58.04323983999332,54.25220393612804,-672.5950741349642,260.0413265776389,676.5783878789722
334,63.25353650857244,-248.94982221935524,-38.57197875352995,65.75421596580242,58.2580076826858,-676.444168652842,259.7867788569195,681.443361993254
335,64.13336833926513,-248.50596072927115,-38.217580108750866,73.47163078285432,62.05460824112822,-680.2361024290768,259.5312611621001,686.3722965468515
336,65.03993725381687,-248.05929720483797,-37.83074597693689,81.21814454362067,65.64412805744803,-683.94393994588,259.27845655655466,691.3354281430795
337,65.97604625848426,-247.61238162220963,-37.41350245575243,89.01409165268197,69.03399815428564,-687.5417019250838,259.0319788438932,696.3046364394941
338,66.94402324722255,-247.16766744889713,-36.967979195570344,96.87692290934594,72.23664813545601,-691.0050272971677,258.7952979643786,701.2539838968518
339,67.94569022500603,-246.727455051361,-36.496382177439244,104.82076446552445,75.26899797495162,-694.3117867266677,258.57167531503256,706.1601820512834
340,68.98235171338246,-246.2938419994106,-36.00096699255521,112.85611515449021,78.1517778089563,-697.442623870203,258.3641100812472,711.0029683929296
341,70.05480279035557,-245.86867972022787,-35.48401539804399,120.98969256943343,80.90871270268039,-700.3814053321628,258.1752965112009,715.765382906519
342,71.1633559254879,-245.45353537335586,-34.94781776028536,129.22442648848624,83.56561590877672,-703.1155663686387,258.00759114007803,720.4339388554703
343,72.30788452589334,-245.04965766212908,-34.39466325962932,137.55958705041988,86.14943649373188,-705.6363460326634,257.86298838461823,724.998687856698
344,73.48787995983986,-244.65794546428728,-33.826838375139175,145.99102543268575,88.68730609464941,-707.9389116453112,257.7431025926066,729.4531839242281
345,74.70251780138665,-244.2789184722609,-33.24663245475347,154.51149738003755,91.20562581240348,-710.0223770980169,257.6491544157564,733.7943540891874
346,75.95072826233674,-243.91268934719372,-32.65634761267705,163.11103521482914,93.72922846984518,-711.8897217385371,257.58195924780904,738.0222838435192
347,77.23126539381968,-243.55893717956508,-32.05830924750939,171.77733206635153,96.28064416699738,-713.5476164083802,257.5419155048057,742.139924100665
348,78.54276970790504,-243.2168823338741,-31.45487334876859,180.49610278333793,98.879488862671,-715.0061614028892,257.5289907885485,746.1527235184894
349,79.88381936505053,-242.88526304386977,-30.848427379780222,189.25138888165998,101.54198736669395,-716.2785391267034,257.54270446560895,750.0681873120518
350,81.25296596271954,-242.56231441801285,-30.24138260519871,198.02577946220302,104.28063442086517,-717.3805834100352,257.58210587246987,753.895362486635
351,82.64875220553115,-242.2457508386162,-29.636156903712592,206.80052606970463,107.10399118576434,-718.3302686309794,257.64574819178074,757.6442505886778
352,84.0697102422913,-241.9327531559102,-29.035148091646768,215.55553694314088,110.01660998178131,-719.1471249607321,257.731659031138,761.3251527203254
353,85.51434108102275,-241.61996264525547,-28.440698499916078,224.26924506006492,113.0190777499473,-719.8515906365916,257.83730987384894,764.947957220114
354,86.98107712310748,-241.30348440732558,-27.85505206450818,232.91835465610708,116.10816804736322,-720.4643173580981,257.95958783045694,768.521387263391
355,88.46823139206093,-240.9789036818174,-27.280305583769064,241.47748210373032,119.27709160089016,-721.0054498801236,258.0947744170499,772.052232719098
356,89.97393831608817,-240.64131927267184,-26.718356070024132,249.9187184863529,122.51583539288643,-721.493904921583,258.23853723661193,775.5445969085071
357,91.49609176354777,-240.28539869385884,-26.170846301079763,258.211151908677,125.81157895793281,-721.9466770040563,258.38594114131666,778.9991934343449
358,93.0322863198718,-239.90545945995473,-25.639110864573194,266.320396191896,129.14917355092106,-722.3781992932203,258.531485417763,782.412730029113
359,94.5797675581155,-239.49558001664403,-25.124125253063106,274.2081775630423,132.51166537744828,-722.7997857177497,258.6691726381164,785.7774147316408
360,96.13539633775288,-239.0497421364998,-24.62646082744293,281.832030906867,135.88083915633354,-723.2191768398595,258.79261306459773,789.0806145778615
361,97.69563093354309,-238.56200426820797,-24.146248569672885,289.14515143510994,139.23775438019095,-723.6402068050572,258.8951659199306,792.3046890121739
362,99.2565290357469,-238.0267024997304,-23.683154416504376,296.0964365831177,142.5632453646941,-724.0626027656116,258.9701155918071,795.4270103140182
363,100.81376959576059,-237.43867284378945,-23.236368653583966,302.63073797719886,145.8383589110021,-724.4819215976237,259.01087734750917,798.420172370978
364,102.36269259721239,-236.79348591933757,-22.804611443382655,308.689326720568,149.04471078829022,-724.8896217502435,259.01122398766375,801.2523782490678
365,103.89835358850866,-236.08768310128767,-22.386156022016202,314.21055979516115,152.16475360355406,-725.273261785283,258.9655225314811,803.8879880613742
366,105.41558942320557,-235.31900202973168,-21.9788702492481,319.13072372871943,155.1819617427649,-725.6168133903227,258.8689687359235,806.2882037631945
367,106.90909199286722,-234.48657914944283,-21.58027592968386,323.3850256897841,158.08095069665717,-725.9010766174567,258.717807083474,808.4118678803259
368,108.37348738553287,-233.59111772359427,-21.187623803671322,326.90870231645073,160.84755522240104,-726.1041883641102,258.50952470897107,810.2163580469306
369,109.8034183220386,-232.6350113928175,-20.797980704184937,329.6382216628309,163.4688919950013,-726.2022194773892,258.2430092616495,811.6585659688991
370,111.1936277160956,-231.62241560638998,-20.408324440163746,331.51256106986006,165.93342828476548,-726.1698583443244,257.9186626571432,812.6959545335021
371,112.53904124336023,-230.55926190969458,-20.01564167967568,332.4745503631206,168.23107076129907,-725.9811772779682,257.53846506775255,813.2876874568035
372,113.83484754979797,-229.45321285841462,-19.617024521655612,332.47227277332416,170.35327989348846,-725.6104726227445,257.1059863553181,813.395821524829
373,115.07657614040833,-228.3135578876602,-19.209762483700988,331.4605136188644,172.29320711199256,-725.033162765157,256.62634511674173,812.986543929019
374,116.26017416817028,-227.1510524901798,-18.791427961391083,329.40223857062495,174.04584509863034,-724.22672281283,256.10611790293564,812.0314288464888
375,117.38208336319109,-225.97770454537437,-18.35995431923793,326.270070098369,175.60817745843042,-723.1716311978072,255.55320254626665,810.5086794177273
376,118.4393171411074,-224.80651292349242,-17.913706306534003,322.04771493379076,176.979313462032,-721.852300412379,254.97664013906274,808.4043134552642
377,119.42953637434655,-223.65116493986346,-17.451542460600503,316.73128091977816,178.1605962701315,-720.2579602041704,254.3864007599495,805.7132438193323
378,120.35112138423762,-222.52570089138504,-16.97286878124937,310.33041256023955,179.15567754058463,-718.3834576673888,253.7931390266647,802.4401993846002
379,121.20323765114486,-221.44415542806604,-16.477682497492584,302.8691736763453,179.9705555107535,-716.2299372353481,253.2079267790502,798.6004326953782
380,121.98589303508898,-220.4201864874673,-15.966604493063318,294.38661302655055,180.6135761008412,-713.805366332806,252.64197109855547,794.2201670616424
381,122.69998446790072,-219.466702801971,-15.44089910240446,284.9369624480892,181.0953971834989,-711.1248787346501,252.1063261263714,789.336747512492
382,123.34733219690396,-218.59550071535284,-14.902480423151841,274.5894340122851,181.4289159207376,-708.2109153071381,251.61160691399536,783.9984737048017
383,123.93070009972988,-217.8169204352274,-14.353904699910997,263.42760049506745,181.62915925509185,-705.09314924803,251.1677131797746,778.2641064837346
384,124.45380139656567,-217.1395310538445,-13.798348484599162,251.54836110484504,181.71313894015103,-701.8081903759063,250.78357049265523,772.2020531438819
385,124.92128982326116,-216.5698528110208,-13.239572098058218,239.0605117907991,181.69967465238165,-698.3990712675519,250.46689594728343,765.8892501442645
386,125.33873652502172,-216.1121242870176,-12.681867460633322,226.08295659074813,181.60919073694097,-694.9145269376423,250.22399472637923,759.4097757039837
387,125.71259252723763,-215.76812153045836,-12.129988887131336,212.74261276272549,181.4634927046876,-691.4080879420766,250.05959308129528,752.8532366276028
388,126.05013599675067,-215.53703536824818,-11.589065393584493,199.17207638970427,181.28552773305518,-687.9370128759896,249.97671224869424,746.3129819212669
389,126.35940308571877,-215.4154120930819,-11.064493784984007,185.50712469810802,181.0991291453806,-684.5610897607066,249.97658672163132,739.884199238953
390,126.64910117432474,-215.39716130733723,-10.561813307590258,171.884134619073,180.92873949603614,-681.3413371829422,250.05862915854343,733.6619492016436
391,126.9285036947787,-215.47363292662834,-10.08656468635425,158.43749329381933,180.7991027005031,-678.3386360395908,250.22044298378466,727.7391883934444
392,127.20732623472365,-215.63376321316593,-9.644138515461634,145.2970659670282,180.73491468839453,-675.6123221683772,250.45788229004657,722.2048260917608
393,127.49558424215567,-215.86428730465514,-9.239619755235719,132.5857722208838,180.76042526686945,-673.2187697890205,250.76515702552317,717.1418543038143
394,127.8034334626572,-216.1500132851416,-8.87763603530342,120.41730595633761,180.89899074941397,-671.2099961699972,251.1349798746154,712.6255868015927
395,128.14099525890754,-216.4741507475831,-8.562217283572584,108.894021400836,181.172585828575,-669.6323195033074,251.55875001277084,708.7220411430818
396,128.5181701141769,-216.81868525380187,-8.296673010463648,98.10499980619466,181.601292186493,-668.5251042385179,252.02676819812396,705.4864978488212
397,128.94444377564022,-217.16478912420905,-8.083491854006985,88.12431131214574,182.2027887546648,-667.9196301291754,252.52847742250046,702.9622719382692
398,129.42869150119893,-217.49325843903347,-7.924266242045472,79.0094936475201,182.99187323331378,-667.8381217105949,253.05272339482855,701.179732404924
399,129.97898659443248,-217.78496577728728,-7.8196435020030135,70.80028169247478,183.98004593693645,-668.2929727635742,253.58802921028692,700.1556033354063
400,130.60241975795492,-218.0213178385583,-7.769303455972787,63.51763558979546,185.17518527827175,-669.2861950374573,254.12287843389655,699.8925751216232
401,131.3049357210598,-218.18470657214468,-7.77196150841946,57.163125683820546,186.58133974810949,-670.8091123994012,254.64600037788088,700.37924531389
402,132.09119305947698,-218.25894179643336,-7.825395629584648,51.71873624455051,188.19865490227127,-672.8423115754388,255.14665057461002,701.5903968345326
403,132.9644521120641,-218.22965264692306,-7.926495524890252,47.147144223279774,190.02344651282152,-675.3558500546144,255.61487843621856,703.4876080300406
404,133.9264945107676,-218.0846448146175,-8.071332394823628,43.39251348506676,192.04842347730454,-678.3097119573397,256.04177312137614,706.0201763089403
405,134.9775763030017,-217.81420084614481,-8.255247608046234,40.38182025647326,194.26305692422312,-681.6544949744748,256.4196781598434,709.1263266744716
406,136.11641523041246,-217.41131208400049,-8.472958103513553,38.026694799003195,196.6540855272855,-685.3323066299051,256.74236581131646,712.7346693842265
407,137.34021159835106,-216.87183311790875,-8.71867546411172,36.22573161907503,199.20614131835407,-689.277846153063,257.0051635269629,716.7658672920664
408,138.64470128602895,-216.19455269627474,-8.986234607549397,34.86719027307115,201.9024750216205,-693.4196484516259,257.2050270503596,721.1344722492961
409,140.0242386575446,-215.381178738472,-9.26922726905535,33.83198501193671,204.72575491491438,-697.6814677518985,257.34055742055284,725.7508898446551
410,141.4719063797627,-214.4362392046693,-9.561135211676785,32.996847022482775,207.6589085426756,-701.9837789644926,257.4119622342944,730.5234314007931
411,142.9796485250918,-213.36690477301292,-9.855458449473389,32.23753909800188,210.68597273310792,-706.2453736128546,257.42096473395765,735.3604107403776
412,144.53842295137727,-212.1827431093611,-10.145834527780597,31.432008513715626,213.79291505594168,-710.3850238183074,257.37066729580386,740.1722407672718
413,146.13836886349318,-210.8954176467087,-10.42614588321428,30.463377314812174,216.96838983217032,-714.3231828122342,257.26537843745865,744.8734820334411
414,147.76898566861607,-209.51834599181328,-10.690613402226711,29.222686874452975,220.20439451552906,-717.9836849435144,257.1104143589705,749.3847932925974
415,149.4193196393177,-208.0663341675938,-10.933875397976921,27.61133225662837,223.49679767860619,-721.2954037384424,256.91188708437363,753.6347338052019
416,151.07815531322106,-206.55520278721366,-11.151052148459156,25.54313925811534,226.84571739040044,-724.193824653515,256.6764913073289,757.5613697868669
417,152.73420886230375,-205.001420008509,-11.337796724528848,22.946051775656183,230.25573745510974,-726.6224905301219,256.4113010621745,761.1136431981065
418,154.37632084909188,-203.42175394844352,-11.490333061053574,19.763409192860124,233.73595755982,-728.5342824125516,256.12358552248287,764.2524696572544
419,155.99364584657397,-201.83295444818552,-11.605482197267209,15.954803475561853,237.29988066741774,-729.8925055961897,255.82065082955415,766.9515426122731
420,157.57583628635007,-200.25147104991214,-11.680677447652807,11.496514844330113,240.96514615209372,-730.6717592931429,255.50971216169637,769.1978316774029
421,159.11321760159473,-198.69321115605638,-11.713968986823856,6.38153475908372,244.75311998925102,-730.8585767245833,255.19779757180766,770.9917728972391
422,160.59695132364135,-197.17333981948923,-11.704017994793704,0.619196686414967,248.6883542076717,-730.4518295801668,254.89168267838366,772.3471566878513
423,162.01918240176613,-195.7061205097254,-11.650080344415919,-5.765551190841948,252.79792754675609,-729.4628959388176,254.59785322356245,773.290724876355
424,163.37316673753014,-194.30479445863307,-11.551980076856875,-12.733182991794019,257.1106785583905,-727.9155937912449,254.32249083631328,773.8614916131835
425,164.65337478764664,-192.98149465512645,-11.410073606039465,-20.230881565588316,261.6563418576201,-725.8458835850412,254.0714759611653,774.1098043667984
426,165.8555671685557,-191.7471890558869,-11.225206456958974,-28.19400700480054,266.46459845883635,-723.3013434607541,253.85040073696337,774.0961615953374
427,166.97683868667926,-190.6116461123832,-10.99866504755983,-36.54767971353194,271.56405270414473,-720.340421081759,253.6645837511913,773.8898042944776
428,168.01562828431523,-189.5834145047355,-10.732126337167712,-45.208417312597554,276.9811514728602,-717.0314673137688,253.5190783177661,773.5671007980593
429,168.9716939713141,-188.66980826656567,-10.427608018721003,-54.08577709530858,282.73906587218596,-713.451560452502,253.4186663737134,773.2097489097297
430,169.84605366219316,-187.8768884357482,-10.087421405079589,-63.0839712038572,288.8565606293181,-709.6851356805047,253.36783122066998,772.9028267896302
431,170.64089471781801,-187.2094330622721,-9.714128408363887,-72.10343707432764,295.3468809203655,-705.8224425752705,253.37070406269373,772.7327331292428
432,171.3594567674262,-186.67088887398444,-9.310503194779827,-81.04235818095904,302.216689591953,-701.9578625393573,253.43098154661038,772.7850663456534
433,172.00589401474514,-186.2633001187568,-8.879498269656484,-89.79813787957504,309.4650892684269,-698.188126184189,253.5518142429294,773.1424998301648
434,172.58512465036083,-185.98721304615376,-8.4242138452692,-98.26883171304773,317.08276357250685,-694.6104761920852,253.73566915150542,773.8827139399574
435,173.10267599097554,-185.84155811622233,-7.947868376892533,-106.35454159173563,325.05126963950744,-691.32082275408,253.98417269901825,775.0764443304233
436,173.56453420371025,-185.823516119083,-7.453767346680652,-113.95877037368079,333.34251054684626,-688.4119358675281,254.29794393685148,776.785700221892
437,173.97700667678538,-185.92837851187187,-6.945267037989262,-120.98972972830585,341.9184118373508,-685.9717119285181,254.6764302396403,779.0621960992733
438,174.34660319617296,-186.14941583278494,-6.4257303294531445,-127.36159008200659,350.7308216459495,-684.0815423415903,255.11775925330986,781.9460277966788
439,174.67993922491493,-186.4777704527231,-5.898472393130087,-132.99566044175123,359.7216491795735,-682.8148012553023,255.6186208004262,785.4646109920379
440,174.98366113333128,-186.90239074621485,-5.366695424058254,-137.8214878765136,368.8232509489269,-682.2354604568338,256.17419084386245,789.6318888356292
441,175.26438978833454,-187.41002284159805,-4.833412938404743,-141.7778696519521,377.95906769259375,-682.3968341618063,256.7781067084315,794.4478072966829
442,175.5286761540381,-187.9852735618563,-4.301365610997817,-144.8137729367871,387.04450764539985,-683.3404562212264,257.4224991124009,799.8980527078921
443,175.782961030268,-188.61075423648492,-3.772932103993985,-146.88915558504854,395.9880649082874,-685.0950970959116,258.0980827424291,805.9540460663053
444,176.03353100271147,-189.267310020533,-3.2500398846992815,-147.9756761573485,404.6926566184736,-687.6759364300783,258.79430350424866,812.5731922081499
445,176.28646399361506,-189.93433362532943,-2.7340823793457205,-148.05727313189567,413.05716011504495,-691.0839167369058,259.4995374353802,819.6993873483834
446,176.54756014405672,-190.59015661045706,-2.22584947634033,-147.13058411034766,420.97813099702347,-695.3053116342712,260.2013337958955,827.2637932452026
447,176.8222566901179,-191.21250628621397,-1.725478050676925,-145.2051674903093,428.3516837887434,-700.3115455653315,260.8866932179811,835.1858878940924
448,177.11552854331418,-191.77901223399675,-1.2324279157821267,-142.303482777027,435.0755175366795,-706.0592993755114,261.5423709470504,843.3747993726475
449,177.43177899038872,-192.26774353879438,-0.7454868077177513,-138.46058278988468,441.05106781399394,-712.4909274005338,262.15519488326004,851.7309208259604
450,177.7747269593427,-192.65775589465974,-0.26280606559357245,-133.7234736186686,446.1857632422583,-719.5351983853583,262.71238800958196,860.1477918122598
451,178.14729858029375,-192.92962657071902,0.21803320391806147,-128.1501088751437,450.39535800005353,-727.1083573181211,263.2018846719422,868.5142167900251
452,178.5515314536023,-193.0659546974441,0.6999254460375056,-121.80800534344343,453.60630172731504,-735.1154910419068,263.61263009274927,876.7165782213045
453,178.9885003301777,-193.05180458840925,1.1861209967546764,-114.77249734311508,455.7580955663666,-743.4521693130479,263.9348527056387,884.6412916556491
454,179.458272929734,-192.87507119141512,1.6800862875917641,-107.12468430130377,456.80556964559975,-752.0063252835614,264.1602997387684,892.1773438871854
455,179.95990436706782,-192.5267495984142,2.1853499106081182,-98.9491652380174,456.7210055355013,-760.660334238267,264.2824282044714,899.2188520059993
456,180.49147793892152,-192.0010950363996,2.7053416885698147,-90.33168854466433,455.49601931076,-769.2932450659489,264.2965461220876,905.6675790869997
457,181.05019844855534,-191.29566596697003,3.243232971679789,-81.35686863830944,453.14311811736866,-777.7831136659055,264.1999022134619,911.4353394724112
458,181.63254137441945,-190.41125065054666,3.801787028443019,-72.10612718544225,449.69684560569146,-786.0093803218873,263.9917260542518,916.4462220602376
459,182.23445685415498,-189.35168611705498,4.383228268428046,-62.65600281408346,445.2144383234081,-793.8552243625427,263.67322412342037,920.6385542010928
460,182.85162197283333,-188.12358672953758,4.98913791589207,-53.07694024797015,439.77592504690375,-801.2098210457285,263.24753964162517,923.9665238979909
461,183.4797289953042,-186.73600602676063,5.62038148137703,-43.43262169210444,433.4836136570975,-807.9704205711598,262.71968494411686,926.401377333764
462,184.11479193244165,-185.20005916391395,6.277070007691148,-33.77984708105122,426.46092631031115,-814.0441705910015,262.0964541846301,927.932115775248
463,184.75344997043644,-183.52853348522225,6.958553205497261,-24.168914221183293,418.8505647935762,-819.349613604245,261.3863215794506,928.5656329356098
464,185.3932442598389,-181.7355115844781,7.663439311971146,-14.64440347118977,410.8120148964721,-823.8178092833084,260.5993265993888,928.3262610409713
465,186.03284453213118,-179.8360251694931,8.389634780565418,-5.246240688313082,402.51843019806904,-827.393057076071,259.74694314685803,927.254728684409
466,186.67220406136383,-177.84575022983807,9.134397140696226,3.9891006064074594,394.1529685197492,-830.0332227576183,258.84192574983206,925.406571497203
467,187.3126255989445,-175.7807460218463,9.894396255605798,13.027392545494314,385.90468410555445,-831.7096996894609,257.89812329746763,922.850072229559
468,187.95672683584638,-173.65723384660637,10.665781976393516,21.8355586906897,377.96410169653,-832.4070573292315,256.9302507145487,919.6638349386677
469,188.60830116980583,-171.4914074285669,11.444258989076605,30.380783155700293,370.5186131534526,-832.1224430273006,255.95361140157348,915.9341151041397
470,189.27207742599887,-169.29926499146288,12.225171831022365,38.62988456119299,363.74784307964404,-830.8648070751138,254.98376778963825,911.7520323197754
471,189.95339009240374,-167.0964535258424,13.00360413663825,46.5489877966472,357.8191281733656,-828.6540160286006,254.0361632734368,907.2107857326787
472,190.65777906270378,-164.8981177495308,13.774495803909803,54.10350173954295,352.88324757564845,-825.5199077934558,253.12570536455587,902.4029773734408
473,191.39054430890778,-162.71874923994383,14.53277988446647,61.25839096229971,349.0705302058027,-821.501326818873,252.26632634158815,897.4181285242448
474,192.1562857495953,-160.57203446291064,15.273537967783644,67.97871335835876,346.4874516276169,-816.6451618347508,251.4705430758336,892.3404526716278
475,192.95846122620978,-158.47070336970626,15.992169385935528,74.23038190943961,345.2138182426079,-811.0053940650472,250.74904126849182,887.2469278379042
476,193.79899541505895,-156.42638255854362,16.684566514015412,79.98109618252981,345.3006205008062,-804.6421522523453,250.11031045546994,882.2056926023694
477,194.67796941126758,-154.44945858307068,17.347286348417516,85.20137770424672,346.76861860752683,-797.620763154879,249.5603545562791,877.2747746542842
478,195.59341481398243,-152.54895782651667,17.977707570186798,89.86563492374869,349.6077030650255,-790.010783115535,249.1024986090829,872.5011487637131
479,196.54122808944356,-150.73244943523295,18.57416231780097,93.95318075974173,353.77704820620295,-781.8849980926449,248.7373061378587,867.9201130427481
480,197.51521169331878,-149.0059770940464,19.136032727231722,97.44913089381627,359.20605079194036,-773.3183856811415,248.46261399441397,863.5549684629613
481,198.50723881245125,-147.3740239709071,19.66380380326895,100.34512431396483,365.79601993591007,-764.3870417863587,248.27368322143258,859.4169863471761
482,199.50752953850508,-145.83951315671487,20.159066244228445,102.63982719182452,373.4225613704455,-755.1670848674707,248.1634563059724,855.5056507797397
483,200.50501866300976,-144.4038437163136,20.624465433800193,104.33920359074047,381.9385797946467,-745.7335602071129,248.12290402710255,851.8091659072206
484,201.48778973966887,-143.06696038749394,21.063596057529246,105.45655810006619,391.17780799074677,-736.1593740420686,248.1414397140862,848.3052201650275
485,202.44354696612842,-141.82745321838277,21.480845712637397,106.01237321093858,400.95875993178277,-726.5142915699172,248.2073755757897,844.9619989875914
486,203.3600959146904,-140.68268212792034,21.88119507451503,106.03397583823192,411.08899631493193,-716.864033191109,248.30839498040174,841.7394334070815
487,204.2258060424231,-139.62892063885715,22.26998595386128,105.55507147709808,421.36958412980863,-707.2694997744393,248.43201604701008,838.5906637679923
488,205.03003175572405,-138.66151294298757,22.652671247363376,104.61518084432895,431.5996268075181,-697.7861507891558,248.56602524913438,835.4636862105572
489,205.7634738712529,-137.77503886313923,23.03456195082507,103.25900383269932,441.5807386139696,-688.4635497888979,248.6988642263513,832.303136081897
490,206.4184688858403,-136.9634818622826,23.42058603032921,101.53572220477162,451.1213372437293,-679.3450810836796,248.81995789857842,829.0521490756785
491,206.98919900638805,-136.2203958020266,23.815072327153874,99.49823979065219,460.04063338241156,-670.4678306709391,248.91997674780498,825.6542300567137
492,207.47182102069246,-135.53906666791124,24.221570234953052,97.20235103936585,468.1722066172498,-661.862614775163,248.99103049474311,822.0550535406582
493,207.86451649908636,-134.91266605508162,24.64271301629212,94.7058281719824,475.36707415532527,-653.5541316751368,249.02679417073753,818.2041204284665
494,208.1674693025892,-134.33439390095666,25.080129608618446,92.06742428942844,481.49618187424727,-645.5612075854716,249.02257064390184,814.0562034146955
495,208.38277893010263,-133.79760869448356,25.534406776458784,89.34580290005829,486.45227441956126,-637.8971055533285,248.97529596724658,809.5725275923534
496,208.51431995199619,-133.2959440008319,26.005100545867098,86.59842029678593,490.15112951879,-630.5698676556109,248.88349544776568,804.7216510570868
497,208.56755869511036,-132.8234104583402,26.490793031718283,83.88040225127455,492.53216843904875,-623.5826650075174,248.7471990406211,799.4800302212522
498,208.54933851552312,-132.37448244389768,26.989188141528267,81.24346702276276,493.55847735594926,-616.9341368134525,248.56782460864684,793.832273895726
499,208.4676445440018,-131.94416849076552,27.49723746563094,78.73495011049611,493.2162922198408,-610.6187083276674,248.34803695105964,787.771107560646
500,208.33135785772507,-131.5280643805464,28.011286356419806,76.3969815844157,491.51401237600464,-604.6268872792049,248.09158951622288,781.2970838497267
501,208.1500077276067,-131.12238769429266,28.527230136332008,74.26585522631387,488.4808161735532,-598.9455478027986,247.8031545490463,774.4180865901096
502,207.93352903850234,-130.72399260084183,29.04067159202083,72.37161269854384,484.16495566330843,-593.558218734497,247.488146258203,767.1486832092504
503,207.69203043880782,-130.33036386740895,29.54707304818037,70.73784877865741,478.63180764952443,-588.4453979911078,247.15254064931273,759.5093833775297
504,207.43557760090826,-129.93958949707684,30.04189883236798,69.38172821710886,471.96175508582104,-583.5849158584638,246.80269519161465,751.5258600525759
505,207.1739953242103,-129.55031195970918,30.5207463129068,68.3141927644738,464.24796641424024,-578.9523670917711,246.44517149672743,743.2281826647638
506,206.91669186133657,-129.1616585986173,30.97946542493121,67.54032889257503,455.5941314442409,-574.5216249681112,246.08656438927397,734.6501014867803
507,206.67250840604106,-128.77315242622424,31.414267336904356,67.0598622544217,446.1122014030331,-570.2654405189115,245.7333407498091,725.8284081487373
508,206.4495959540665,-128.38460522705404,31.82182260722974,66.86774309678736,435.9201686411752,-566.1561184614824,245.39169117688337,716.8023812423804
509,206.25532081265968,-127.99599575908687,32.199348152921154,66.95478678464504,425.1399092509817,-562.1662498939918,245.06739700382607,707.6133101889926
510,206.09619906601097,-127.60733689919833,32.54468113259862,67.30833476244374,413.895101165469,-558.2694730161279,244.7657147380186,698.3040778207072
511,205.97785941261156,-127.21853672804154,32.856336970117134,67.91290356194787,402.3092230869942,-554.4412290082151,244.49127967817407,688.9187751798802
512,205.90503300697114,-126.8292596456261,33.13354854973026,68.75079317068632,390.5036374367389,-550.6594816680661,244.24803029955515,679.5023225806316
513,205.88156828862972,-126.43879446113878,33.376284154082754,69.80263154401669,378.5957639237841,-546.9053759759773,244.03915491254148,670.10007893929
514,205.91046827215465,-126.04593679292702,33.58524282923822,71.04783911917818,366.6973583813211,-543.163820687937,243.86706197302382,660.757434799406
515,205.993947296543,-125.64889284405245,33.76182727178426,72.46500493729737,354.91292198919433,-539.4239908192773,243.73337502661698,651.5193999127289
516,206.13350365952937,-125.2452106003685,33.9080957778103,74.03217307841265,343.33827583237724,-535.6797547913969,243.63895241553453,642.4302095994605
517,206.33000395586492,-124.83174289863578,34.02669612303261,75.72704367256698,332.05934171457886,-531.930035913493,243.58393068972836,633.5329817303849
518,206.58377453094772,-124.40464500232461,34.12078537286819,77.52709680768336,321.1511697769251,-528.1791177125244,243.56778951871829,624.8694558756206
519,206.8946953732445,-123.95940759277498,34.19394040088142,79.40965094252388,310.6772458613368,-524.4368977145836,243.58943502776123,616.4798379022094
520,207.26229190773918,-123.49092445224062,34.2500641627365,81.3518706772006,300.6890977456968,-520.7190861014104,243.64729779094077,608.4027590767472
521,207.68582041596397,-122.993592451566,34.2932925143273,83.33074210279742,291.22620206266345,-517.0473364277757,243.7394410515238,600.6753419204449
522,208.16434325997426,-122.46143970534087,34.327905650963146,85.32303692627492,282.31617646834894,-513.4492876584341,243.86367414860484,593.3333494660949
523,208.69679084634723,-121.88827603731947,34.35824709596294,87.30528818276963,273.9752278229064,-509.95849209295307,244.01766577315107,586.4113833646421
524,209.28200827975422,-121.26785842663203,34.38865164548163,89.25379964024606,266.20881883962033,-506.6142032838873,244.1990516274315,579.9430911953216
525,209.9187856968139,-120.59406306259726,34.42338209429074,91.14470750708647,259.012512897327,-503.4610016796764,244.40553125244472,573.9613441817771
526,210.60587216161713,-119.86105510514777,34.466573378174445,92.95410717876466,252.37295779783506,-500.5482423780002,244.63494916289383,568.498351624909
527,211.34197376692217,-119.06344731806944,34.522182240608224,94.65825071163776,246.2689719894955,-497.92931759963193,244.8853560867394,563.5856855594888
528,212.12573736160152,-118.19643960634711,34.59394061735961,96.23381390263127,240.67269980050875,-495.66073499647194,245.15504725901505,559.2541968121741
529,212.9557221784884,-117.25593326552449,34.68531140580979,97.65822624396081,235.55080541368204,-493.80102092485663,245.4425764499233,555.5338111634569
530,213.83036243947097,-116.23861619438648,34.79944588985528,98.91005286345369,230.8656791972613,-492.409465183677,245.74674644496517,552.4532018211697
531,214.74792455377536,-115.1420178869651,34.939142633214836,99.96941451766698,226.57663475725,-491.5447307100736,246.0665785540861,550.0393421766984
532,215.70646271229438,-113.96453526368452,35.10680810136106,100.8184291582428,222.64107979954187,-491.2633587156074,246.40126510325965,548.3169507000341
533,216.70377659533165,-112.7054322060837,35.30441972529214,101.44165605224633,219.01564670808216,-491.6182068787745,246.75010977805,547.307847115775
534,217.73737466747394,-111.36481709188459,35.533492602894924,101.82652092341189,215.6572679286297,-492.6568652770008,247.1124612786761,547.0302448152444
535,218.8044461948685,-109.94360375355686,35.79505139641149,101.96369872730492,212.52417678489147,-494.4201011830357,247.48764607575873,547.4980084173935
536,219.90184470400283,-108.44346211351453,36.08960907877367,101.8474305291767,209.57680858911942,-496.94038874499194,247.8749061246189,548.7199077925526
537,221.0260850455594,-106.86676522184777,36.417154035944144,101.47575368311016,206.77857345255134,-500.24058170400264,248.27334712840278,550.6989012898791
538,222.17335538749361,-105.21653939477358,36.77714681626914,100.85063105574811,204.0964738596781,-504.3327855035648,248.68190217345082,553.431481675343
539,223.3395442800504,-103.49642343308552,37.16852766634595,99.97797558365959,201.5015474179318,-509.2174787619258,249.09931418567805,556.9071181669442
540,224.520281611161,-101.71064133086917,37.589735842284576,98.8675797622619,198.96912674104053,-514.8829233718495,249.52413878458233,561.1078263374503
541,225.71099115123027,-99.86399041032703,38.03874129512269,97.53297275177299,196.4789218663669,-521.3048887061044,249.95476700861678,566.0078940037978
542,226.9069517030792,-97.96184356775892,38.513088553563826,95.99123652605488,194.01494384256628,-528.4467004955179,250.38946530592852,571.5737854805996
543,228.1033636378549,-96.01016072680879,39.00995163996659,94.26281325432495,191.56529942676067,-536.259611002773,250.8264283478842,577.7642392511266
544,229.29541769378721,-94.0155014476196,39.52619802088503,92.371327665872,189.12189472513927,-544.683475755858,251.26383888286279,584.5305660634657
545,230.47836322619517,-91.98502881535754,40.05845912780091,90.34343257430794,186.68008909968614,-553.6477140992494,251.69992826977213,591.8171466132826
546,231.64757357360293,-89.92649479690624,40.603204792218015,88.20866762597065,184.23833964981625,-563.0725260695684,252.13303167069444,599.5621210751817
547,232.79860681219554,-87.84819920086599,41.156818775193,85.99930590760123,181.79787195062315,-572.8703358359529,252.56163306411256,607.6982572126869
548,233.92726081360678,-85.75891769971565,41.71567232588018,83.75015425625122,179.36240589120405,-582.9474309880322,252.9843969589989,616.153979626476
549,235.02962204360344,-83.66779838235084,42.27619253711943,81.49827262891635,176.93795752398725,-593.2057660521674,253.40018555318517,624.8545394429073
550,236.10210778481797,-81.58423035558454,42.83492246820149,79.28258516113571,174.53272909067184,-603.5448968275863,253.80806173776358,633.72330068135
551,237.14150136844395,-79.51769146431678,43.38857070630845,77.14336857606445,172.15708951882917,-613.8640091021348,254.20727956215978,642.6831160335867
552,238.14497967205168,-77.4775848040831,43.93404903510748,75.12161979694872,169.82363666940088,-624.0640012336133,254.59726446164296,651.6577606001298
553,239.11013181691038,-75.47307500245776,44.46849778526899,73.25832124238983,167.5473214374869,-634.0495754958065,254.97758575979128,660.5733874932546
554,240.0349678470335,-73.5129350457369,44.98929902387085,71.59363667587479,165.34560429579074,-643.7312886836559,255.3479237748202,669.3599647674075
555,240.91791624859832,-71.60541282551601,45.49407805403832,70.16608030473208,163.23860888506061,-653.0275091086868,255.70803340727548,677.9526498075096
556,241.75780949758754,-69.75812405941718,45.98069396653049,69.01170568350868,161.2492358094162,-661.8662258116374,256.05770560185834,686.2930561987033
557,242.553857413855,-67.97797543567228,46.44722045235847,68.16335900176674,159.40320255207365,-670.186657540381,256.3967278100185,694.3303701735083
558,243.30560890748575,-66.27111912047086,46.89191887271143,67.65003514343901,157.72898081555965,-677.9406143025622,256.72484463034147,702.0222793291158
559,244.0129036791807,-64.64293714211719,47.31320656884154,67.49636670186678,156.2576085156229,-685.0935728613683,257.0417201053309,709.3356849050059
560,244.67581659063404,-63.098051511948185,47.70962427778791,67.72226744027321,155.02235856565864,-691.6254384093648,257.3469036284489,716.2471792921463
561,245.29459874045202,-61.640353327825245,48.07980703510288,68.34274260124421,154.0582502822291,-697.5309763390138,257.63980201562504,722.7432811132436
562,245.8696205721823,-60.273041807705695,48.42246297172275,69.36786809049839,153.40139287374933,-702.8199088758033,257.91966087712683,728.8204297591384
563,246.4013232418763,-58.99866262611218,48.73636393107954,70.80292824973796,153.08815564577918,-707.5166799351533,258.18555873598143,734.4847486236373
564,246.89018462167516,-57.81913455193777,49.02035088325224,72.64868842967127,153.15416717742153,-711.6598971217948,258.43641715421404,739.7515909046109
565,247.33670548249822,-56.73575456352127,49.27335574500295,74.90176607525382,153.63315548839927,-715.3014623477352,258.67102932404475,744.6448837915224
566,247.7414195788739,-55.74917435075966,49.49443945005587,77.55505515284574,154.5556520057992,-718.5054028501057,258.88810816084214,749.1962867488297
567,248.104928830593,-54.85934507503877,49.68284399761573,80.59815523222693,155.9475928555565,-721.3464135661776,259.08635308821425,753.444178411004
568,248.42796199479508,-54.06543193209465,49.83805396207256,84.01775881344264,157.82886104952865,-723.9081210123153,259.2645327528544,757.4324854131658
569,248.7114525175117,-53.36570483466493,49.9598610939973,87.79795818641489,160.21182208484072,-726.281078970886,259.42157912959317,761.2093662169837
570,248.95662888209375,-52.757415774518854,50.04842484001225,91.92044573764582,163.09991225926555,-728.5605081196884,259.5566870624159,764.8257642138963
571,249.16510893133284,-52.23667660351542,50.1043222268112,96.36459850928073,166.48634171153037,-730.8437956671479,259.6694123760989,768.3338471714974
572,249.33898855168198,-51.798352645744515,50.12858241208203,101.10745733498486,170.35297098560892,-733.2277771742604,259.7597613893875,771.7853540390988
573,249.48091496026112,-51.43598738218604,50.12270374518052,106.12362982510697,174.66941052514923,-735.8058307907237,259.82826499943826,775.2298745526681
574,249.59413566761265,-51.141771375156736,50.08865379435366,111.38516064819392,179.39237884649,-738.6648235594893,259.87603142555577,778.7130912599762
575,249.6825158340552,-50.90656494283142,50.02885496590647,116.86141836459964,184.46534047690753,-741.8819595580699,259.90477302040813,782.2750170506708
576,249.7505188942953,-50.71997947139121,49.94615964884715,122.51904414060868,189.81843212440268,-745.5215897783149,259.9168040349747,785.9482639328246
577,249.8031477170246,-50.5705174011255,49.843819033081495,128.32199543395873,195.36867671673016,-749.6320532117113,259.91500768002476,789.7563808147569
578,249.84584606578707,-50.445766483202675,49.72544896302899,134.23170072622545,201.02048017733551,-754.2426270210681,259.90277226281626,793.7122995502932
579,249.88436272445202,-50.33264023379989,49.59499484829015,140.20732380958535,206.66640424775102,-759.3606703847482,259.8838977261762,797.8169294417505
580,249.9245832805299,-50.217653705797225,49.45669633091625,146.20612152138838,212.18820898424795,-764.9690512798522,259.8624756407304,802.0579407679282
581,249.97233700717504,-50.08722175342173,49.3150514816262,152.18386907089177,217.45815962918002,-771.0239481499772,259.8427474670115,806.4087779513753
582,250.03318828430164,-49.927965874482354,49.17477983713173,158.09532241160392,222.34059386786305,-777.4531192161226,259.82894747575875,810.8279430025178
583,250.1122233712891,-49.72701546510157,49.040783465128634,163.89468646231276,226.6937469229305,-784.15473108349,259.82513790165615,815.2585899088442
584,250.21384399491845,-49.47228991239122,48.9181052213174,169.53605994883898,230.3718333364663,-790.996834969483,259.8350445852703,819.6284703245269
585,250.34157903480912,-49.15274938855194,48.811883246505154,174.97383112979284,233.22738511373132,-797.8175728197784,259.8619013962354,823.8502696064002
586,250.49792440951967,-48.75860444866683,48.72730055407353,180.16300324172707,235.11384520269175,-804.4261860093586,259.90831096981435,827.8223689823749
587,250.68421901975475,-48.28147743340834,48.66952849723884,185.05943421642945,235.88841176778357,-810.6048852119246,259.97612767944923,831.43006320564
588,250.90056153281316,-47.714512021358026,48.643663218671435,189.61998222165553,235.41512101440827,-816.111620468678,260.06636654288815,834.5472523112851
589,251.14576947382128,-47.05243082708586,48.65465500726309,193.80255666056402,233.56814354693967,-820.6837652941106,260.1791394468869,837.0386105849695
590,251.41737917935671,-46.291544494106894,48.707231767303,197.56608277571831,230.2352517671226,-824.0426985612443,260.31361824407776,838.7622161413688
591,251.71168305878592,-45.42971909477548,48.80581920132537,200.87039601154726,225.3213957595176,-825.8992343765298,260.4680231882772,839.5726021253147
592,252.0237993254358,-44.466311591886694,48.954461317320494,203.67608896995975,218.75230577906376,-825.9598149666123,260.63963471069934,839.3241675570226
593,252.34776877250096,-43.40208535066553,49.15674518862145,205.94433874483147,210.4780236835776,-823.9333466000622,260.8248264634377,837.8748642951161
594,252.6766732031097,-42.23911882620882,49.41573354624601,207.6367456571174,200.47625426385358,-819.5385256604299,261.0191177490413,835.0900581561797
595,253.0027707397375,-40.980720102317875,49.733907928221385,208.71521595600916,188.7554194039374,-812.5114731179356,261.21724385158944,830.8464481172053
596,253.31764430080366,-39.631357620762515,50.11312383720521,209.14192053708274,175.35729233781825,-802.6134724923729,261.41324324948073,825.0359185482569
597,253.6123608169258,-38.19661349275961,50.55457768626453,208.87935863836097,160.3590865559894,-789.6385898789291,261.6005610682724,817.5691959887548
598,253.87764005979807,-36.68316106869038,51.05878338227154,207.8905499426065,143.87487605981056,-773.4209446624909,261.77216837615737,808.3791840080906
599,254.1040331330053,-35.098763922098605,51.62555464712487,206.13937181668595,126.0562319948286,-753.8413955025723,261.92069710902047,797.4238565941755
600,254.28211160413406,-33.452289759814086,52.253988269107886,203.59105249020354,107.09197456468648,-730.8334075410214,262.03859062660916,784.6886015023733
601,254.40266878710764,-31.753730298329888,52.9424439359681,200.212827226302,87.20695643792511,-704.3878739191691,262.11827013924227,770.1879195773714
602,254.45693462520256,-30.01421691189733,53.688518164710956,195.97476296122204,66.65981307259396,-674.5566787900268,262.1523173500921,753.9664043280634
603,254.43680479758737,-28.246021837932776,54.489012617810744,190.85075617857612,45.739637118053516,-641.4548114511559,262.1336733615926,736.0989484376038
604,254.3350829669921,-26.46253574157475,55.33990008447411,184.81970719594335,24.76156070317771,-605.2608727100943,262.05585292271314,716.6901505310115
605,254.14573253066928,-24.678214081525574,56.236294034463235,177.86687007947242,4.061263006492155,-566.2158548508063,261.91317129020223,695.8729255731914
606,253.86413106929044,-22.9084865394362,57.172429488729236,169.98536983048982,-16.01153917383914,-524.6201248130874,261.700978411979,673.8063540699436
607,253.48731742813357,-21.169625541103855,58.14166365024277,161.1778661048613,-35.10051523907838,-480.82859578865487,261.41589220840683,650.6728369630752
608,253.01421871334412,-19.47857156497114,59.13650414291426,151.4583246163618,-52.85090929905229,-435.24413490939446,261.0560200715144,626.6746531951017
609,252.4458430217494,-17.852714547424288,60.14867089375282,140.8538338206249,-68.91829599655176,-388.3093230891341,260.6211559152571,602.0300438075617
610,251.7854236711536,-16.309632390677454,61.16919487249965,129.4063779142294,-82.97765969554872,-340.4967552155178,260.11293947689114,576.9689679257278
611,251.03850199138193,-14.866789534124074,62.18855335905162,117.17445226257638,-94.73251081806899,-292.2981412567271,259.5349651040661,551.7286890904272
612,250.21293821578243,-13.541200841430744,63.196837502150295,104.23438969847493,-103.92372024322873,-244.21253695524118,258.8928288885866,526.5493521234133
613,249.31884351480895,-12.349068567455479,64.1839440850949,90.68126041308385,-110.33773499761854,-196.73409164980177,258.1941056402842,501.6696992815026
614,248.36843049185794,-11.3054025963782,65.13978020262003,76.62921683626054,-113.81384056968317,-150.3397453102795,257.4482506975749,477.3230503003883
615,247.37578412160218,-10.423636098803444,66.05446780387054,62.2111778777401,-114.25015875354968,-105.47733222952583,256.6664257370111,453.7336369021868
616,246.35655969867483,-9.715249994040851,66.91853552156424,47.577782083156954,-111.60811305898004,-62.554550804517596,255.86125231740408,431.11334319076326
617,245.3276184999813,-9.189420202504758,67.72308792143151,32.895583295488464,-105.91515179581486,-21.929234580007776,255.0465015429897,409.65886492141306
618,244.3066152247296,-8.852701943349695,68.45994639595763,18.3445110772499,-97.26558659164603,16.098691502922666,254.23673245917192,389.5492689199669
619,243.31155354663264,-8.708765491987814,69.12176012273292,4.1146664567761935,-85.81947692831653,51.293261749924135,253.44689499471747,370.94391393423473
620,242.36032711969804,-8.758197743562684,69.70208874736309,-9.597433854581736,-71.79956628700222,83.48631506637753,252.6919149888168,353.9806885468666
621,241.47026326578157,-8.998383200419186,70.19546017320053,-22.593019546075876,-55.48635039475718,112.57903093330366,251.98627906504376,338.77452989305334
622,240.657685719677,-9.423476108254187,70.59740705708123,-34.675471266543525,-37.211430308260425,138.5411640568968,251.34363620011587,325.41620519517306
623,239.9375115624124,-10.024472120572582,70.90448479570762,-45.65479923530118,-17.349369239858053,161.40809359415144,250.77643125167,313.9713607716758
624,239.32289593706332,-10.789383157187888,71.11427260455658,-55.35203517838034,3.691671842414618,181.27589885418715,250.295583745207,304.4798635706873
625,238.82493615569211,-11.703513459259963,71.2253583113145,-63.60339374502129,25.480202211998364,198.29475132862447,249.91022288428394,296.9554725114725
626,238.45244413918402,-12.749828865816673,71.23730702698475,-70.26408194288632,47.57222836093129,212.66096856071624,249.6274868991915,291.3858773212033
627,238.21179273195358,-13.909405728879259,71.15061397006102,-75.21165950944643,69.52228462711159,224.60810683492997,249.4523914439239,287.7331308170786
628,238.1068375296093,-15.161941212468532,70.96664230926788,-78.34887689496016,90.89431762578668,234.39747755397494,249.3877679836598,285.9344801050155
629,238.138911840794,-16.486303350513175,70.68754788035594,-79.60593929366779,111.27209582050686,242.30845922513768,249.4342693543345,285.9035791327741
630,238.3068886506209,-17.86109735493742,70.31619393419876,-78.94216442903986,130.26885102048664,248.62894744507255,249.59043628514195,287.5320459806543
631,238.6073002801644,-19.265224337673263,69.85606041472238,-76.34701828200492,147.5359052255351,253.6462440550273,249.8528159116043,290.6913172304245
632,239.03450417683874,-20.678409817552303,69.31115320547036,-71.84052638233909,162.77008935079587,257.6386385024567,250.21612139160132,295.2347490031057
633,239.58088223115863,-22.081681965550473,68.68591900077972,-65.47306887172635,175.71981467343213,260.8678834681535,250.67342088861867,300.9999173772783
634,240.23706128435026,-23.457783192086094,67.98517096112252,-57.32457626394876,186.1897087331924,263.57271622420234,251.21634449363984,307.8110767345555
635,240.99214390025745,-24.791503051062307,67.21402927818292,-47.50315099155655,194.04377159925806,265.9635294291584,251.83529900262295,315.4817405175435
636,241.8339408061954,-26.069925242074785,66.37787919130655,-36.143148362939996,199.2070441991646,268.21825187307974,252.51968263790292,323.81735329508575
637,242.74919945027395,-27.282586466948466,65.48234670627741,-23.402759633980576,201.66580792079907,270.4794619765426,253.25809454401423,332.61802535440074
638,243.72382645228274,-28.421549688390417,64.53328949257171,-9.461149157583165,201.46635577473486,272.85272468988785,254.0385368059519,341.68130165578515
639,244.74310466003948,-29.48139851618671,63.53679794750162,5.484793541637101,198.71239288980883,275.4061152540783,254.84860930085566,350.80493676866985
640,245.791907448009,-30.459162601635484,62.499199931183874,21.224017972476663,193.5611411042158,278.1708702216208,255.67569942470627,359.78964733879286
641,246.85491354567216,-31.354185774426217,61.42706233214047,37.53511779992402,186.21824179256507,281.14308628789183,256.50716937764696,368.4418146108879
642,247.9168251330929,-32.16794915087893,60.32718318647883,54.19029647386183,176.93157508818646,284.28636990320024,257.3305432587444,376.57611210233773
643,248.96259044161675,-32.90386080153191,59.2065693262886,70.95940919394879,165.98414330914142,287.5353244161906,258.13369493292555,384.0180374909233
644,249.977629962863,-33.56702220373813,58.072396294773164,87.6139942559369,153.68620086548898,290.7997460227149,258.9050357924812,390.6063319461485
645,250.94806295587333,-34.163980006299006,56.931949302357395,103.93120504245195,140.36684939621713,293.96938497001264,259.63369946473006,396.1952724297616
646,251.86092865700437,-34.702469845963826,55.79254606090596,119.69755380639505,126.36535065816757,296.91911481287,260.309718568719,400.6568205488764
647,252.70439486235716,-35.191157279291644,54.6614441753642,134.71238114927232,112.02243486287094,299.5143411568411,260.92418716764996,403.8826038229423
648,253.4679457327817,-35.63937953140477,53.545737102818336,148.7909719326117,97.67189300474551,301.61647384785385,261.4694019120023,405.7856923225821
649,254.14254097753576,-36.056890841616344,52.4522433044538,161.76724979628085,83.63273421393588,303.08828467327197,261.9389751980027,406.30211874471956
650,254.72073997132452,-36.453613697032644,51.38739325121432,173.4959979156617,70.20216180260398,303.79897760833217,262.3279149787146,405.39207779869736
651,255.19678657756106,-36.83939806622438,50.357118800831756,183.85457160945842,57.64957570602163,303.62881098278064,262.6326679740759,403.0407354818227
652,255.5666531174842,-37.22379072175328,49.36674940596652,192.74408701555637,46.211748533319124,302.47313037128754,262.85112561509214,399.25858250578045
653,255.82804469194738,-37.615816826834795,48.42091958072947,200.09008749385484,36.089254108930135,300.245696726768,262.98259477379594,394.0812784246275
654,255.98036754940287,-38.02377622739301,47.52349187480785,205.84270430679507,27.444159337093108,296.8812252684709,263.02773777957714,387.56895183633407
655,256.02466694755884,-38.45505737430707,46.67749921352785,209.97633964427325,20.39893018777275,292.33708568157954,262.98848795554613,379.80494472788445
656,255.96354064141255,-38.91597246126582,45.88510988341761,212.48890802884424,15.036456094910545,286.5941515447617,262.8679475987297,370.8940131679576
657,255.80103373116532,-39.41161809128596,45.147617699435706,213.40067704220098,11.40106633636542,279.6568242173107,262.6702749488131,360.9600201937451
658,255.5425194120835,-39.94576630311941,44.46545896259833,212.75275114210348,9.500396082574365,271.5522910747015,262.4005654814048,350.1431784928994
659,255.19456865753298,-40.52079069315463,43.83825666266671,210.6052443184792,9.307955557196502,262.329107678609,262.0647312165529,338.5969194041181
660,254.76481051987741,-41.13763143339871,43.2648909873307,207.03518958593853,10.766259038312434,252.0552165237211,261.66938008770813,326.4844801884538
661,254.26178382783763,-41.795801352193656,42.74359363783736,202.13423647727393,13.790377447432224,240.81553028272697,261.22169607067315,313.97531283228597
662,253.69478060690778,-42.49343324043524,42.272061917082105,196.0061918128452,18.271786393295592,228.70921421080948,260.7293198157413,301.24142413625583
663,253.07368150680662,-43.22736646350911,41.84758735907782,188.76446357303288,24.08238965370771,215.8468002942993,260.20022900338796,288.4537579610496
664,252.40878392308102,-43.99326904176364,41.4671930842463,180.52947183919437,31.078606374555076,202.3472553877922,259.64261766612196,275.7787261262835
665,251.71062434970378,-44.78578981876995,41.12777414731195,171.4260934280275,39.10541950632458,188.33510850870667,259.0647743246443,263.3749850159813
666,250.98979764896728,-45.59873425257776,40.826235716155765,161.58120697059965,48.00029386040787,173.93772087191016,258.4749598172927,251.3905412685847
667,250.25677712945586,-46.425256695038605,40.559624720316876,151.12140198616535,57.59688496621621,159.2827586097636,257.8812868741803,239.96025313937872
668,249.52174028822958,-47.25806168424764,40.32525143047636,140.17090853383908,67.72847461242792,144.49590481869564,257.2916044733535,229.20377552670442
669,248.7944054809087,-48.08960669666242,40.12079819648872,128.84979321975948,78.23108510542185,129.69882676806196,256.7133904868713,219.22397759908077
670,248.0838844091396,-48.91229897220808,39.94441328615123,117.27245314232808,88.94624075615747,115.0073975882059,256.1536558669487,210.10584361121042
671,247.39855414304532,-49.71867953870311,39.794788360728674,105.54642295092827,99.72336009785914,100.53016070191592,255.6188626362891,201.91585062634445
672,246.7459506042782,-50.50158859264595,39.671218445640285,93.7714934106325,110.4217738572982,86.36702010484699,255.11485641983026,194.70180183255295
673,246.13268334286113,-51.254307976139295,39.57364329716198,82.03912476933466,120.91237048001358,72.60814001665472,254.6468125057224,188.49308106303565
674,245.56436947479824,-51.9706784114175,39.502669032617696,70.43212652383052,131.07887309834592,59.333042377621545,254.21919285545428,183.30128299505586
675,245.0455832427922,-52.645191095833525,39.459568964837246,59.02456778726226,140.8187505989949,46.609898436804095,253.83571048254498,179.12116419614762
676,244.57981711936876,-53.27305496205344,39.4462627795523,47.88187935971789,150.0437631050456,34.49501909332461,253.4992974260488,175.93185265678753
677,244.16945079506146,-53.850242200726456,39.465273496540995,37.06110907584575,158.68014117929857,23.032555529880742,253.21207322183366,173.69824806934602
678,243.815725735113,-54.37351543499679,39.51966208382521,26.611295017975078,166.66840041466392,12.254425243296613,252.97531225832446,172.37254283905165
679,243.5187250647789,-54.84044019041854,39.61294014274439,16.573925795682698,173.96279983305885,2.18047768543911,252.78941051071288,171.89579578729425
680,243.27736102563807,-55.24938599767617,39.748961749129,6.983462638204063,180.53046344315644,-7.181091988340186,252.65385455673555,172.19949740804742
681,243.08937470370125,-55.59951863546433,39.931796439224094,-2.1320959764278777,186.35019823794977,-15.833082523906842,252.5671981012805,173.2070771988047
682,242.9513546976681,-55.89078481648053,40.16558658744127,-10.75062059621133,191.41105729763763,-23.788393660193844,252.5270530756487,174.83531903869815
683,242.85878238195784,-56.12388924564898,40.45439389655497,-18.855236423090396,195.71071187590763,-31.06892812965469,252.53010327439472,176.9956682303763
684,242.80611102973683,-56.300262649315755,40.802041028395664,-26.433693310318592,199.25370960742936,-37.70432776725961,252.5721480481046,179.59543156579468
685,242.78688421165148,-56.42201833430046,41.211955210307096,-33.47772388411246,202.0497053308275,-43.73059149318333,252.64818170155462,182.53888729346414
686,242.793895841997,-56.49189432462074,41.687020822708675,-39.98239479989076,204.11175473198938,-49.18862727222584,252.75251124250983,185.7283331342467
687,242.81939047606883,-56.513178277874424,42.229447511889276,-45.94545974564213,205.45475812365427,-54.12279008515331,252.87891147626436,189.06510637761076
688,242.8552985106511,-56.48961322084645,42.840659388630776,-51.3667279734324,206.09413234101075,-58.57945405719568,253.02081269065303,192.4506105456726
689,242.89349731419196,-56.42528358516365,43.52120955316493,-56.2474677177928,206.04477397591097,-62.605660219988806,253.17151282885652,195.7873788582378
690,242.92608642988742,-56.32448290852387,44.270722726790616,-60.58986864329052,205.32035832251532,-66.24787311660828,253.3244034937261,198.98019667686123
691,242.94566318385222,-56.19156668664799,45.08786733206002,-64.39659033599335,203.93299670391005,-69.55087070861589,253.47319765667706,201.9372940069264
692,242.9455844910197,-56.03079594687104,45.97035702716298,-67.67042382763961,201.89325149830628,-72.5567836983323,253.6121466929267,204.57160571373052
693,242.92020132060543,-55.84617882087566,46.91498042549877,-70.41408957556517,199.21048462373273,-75.30429297805904,253.7362351837339,206.8020823837521
694,242.86505387581508,-55.64131840843781,47.91765644863857,-72.63018824037755,195.8934932323173,-77.8279876560468,253.84134346037501,208.55502022666332
695,242.77701778834378,-55.41927539790475,48.97351152871857,-74.3213108269697,191.9513677654735,-80.15788099179977,253.92436983670214,209.76536583708952
696,242.6543943781252,-55.18245324863182,50.0769738765503,-75.49030370961027,187.39449390049253,-82.3190775962859,253.98330678467948,210.37794266843014
697,242.49694114906367,-54.93251234910464,51.22187942234491,-76.14067338782543,182.23561225707914,-84.33158248965545,254.01726787889476,210.3485418928027
698,242.305841967644,-54.670317649971786,52.401583871881684,-76.27710693850393,176.4908483255056,-86.21024116679766,254.02646502453143,209.64482146791642
699,242.08361953409224,-54.395922115669855,53.60907554857821,-75.90607792323513,170.18062970506975,-87.96479969780451,254.01213808129387,208.246963648745
700,241.8339955983427,-54.108586175723985,54.83708417724568,-75.03650422043013,163.33041796641743,-89.60007485872475,253.97644132943827,206.14805242659588
701,241.5617068344503,-53.80683131455646,56.078181453160894,-73.6804236061836,155.97119775336407,-91.11622591864216,253.92229325611194,203.35414775294458
702,241.27228633824043,-53.48852411585348,57.32487029116731,-71.85365432045256,148.1396852814781,-92.50912150395428,253.85319790494637,199.8840518292852
703,240.97182219445554,-53.15098559980924,58.56966124185843,-69.57641058749101,139.8782406256427,-93.77079643848903,253.77304744615745,195.76878247480823
704,240.66670527679216,-52.791119662655554,59.80513653475313,-66.8738463606739,131.23449075744554,-94.88999413411241,253.68591649038933,191.05078716984787
705,240.3633783905524,-52.40555391087261,61.0240040284346,-63.77650384839244,122.26069048121244,-95.85278948411968,253.5958588752938,185.78294613431552
706,240.06809823191514,-51.990786229430924,62.21914443286164,-60.320646451454635,113.01286395734523,-96.64328491935044,253.50671725815445,180.02742168920196
707,239.78672061546325,-51.543331022602835,63.3836552007652,-56.54845892287694,103.54977914186857,-97.24436834733486,253.42195496133894,173.85441345014408
708,239.52451806288258,-51.059860062442425,64.5108935078892,-52.50810148618719,93.93181099051394,-97.6385167071403,253.34451816555844,167.340875283105
709,239.2860370352624,-50.537334043780376,65.59451912851658,-48.253609693131715,84.21974718582094,-97.80862382095407,253.2767346569478,160.56924186125207
710,239.07499966880292,-49.97312212166211,66.62853633435611,-43.84463751011759,74.47358349232395,-97.73882694150667,253.22025285735197,153.62620153052373
711,238.89425185013275,-49.36510785537297,67.6073327265835,-39.34604616345486,64.75134619945027,-97.41530316126928,253.1760219313781,146.6015390254997
712,238.745756143531,-48.71178108951247,68.5257124108955,-34.82734406593038,55.10796853424713,-96.82700450431884,253.1443107172076,139.58705717955587
713,238.6306249396305,-48.01231632121828,69.37892111599453,-30.361982841278323,45.594238677719716,-95.96629892950037,253.12476051449602,132.67557226420573
714,238.54918670494658,-47.266638949026365,70.16266156270669,-26.026511603643222,36.255831022013304,-94.82948390323499,253.1164647690306,125.95996462805972
715,238.50107672334764,-46.475481370042445,70.87309841823257,-21.899587979999556,27.132430602504403,-93.4171404059976,253.11806767999389,119.53225674834268
716,238.4853433962114,-45.64043109599023,71.5068533196558,-18.060841979408814,18.256963143509022,-91.73429924538,253.12787380478295,113.4826861593023
717,238.50056190689614,-44.76397279023084,72.06099150725697,-14.589589404516182,9.654948740000036,-89.79039922732427,253.1439616793131,107.8987417062328
718,238.54494849308705,-43.84952524810523,72.53300241194754,-11.56339603958353,1.344003928810739,-87.59902831606544,253.16429590248086,102.86413797836506
719,238.61647025364823,-42.90147283490082,72.92077705640709,-9.056502477479823,-6.666477572728737,-85.17745373082353,253.18683361410612,98.45771352302675
720,238.71294705167026,-41.92518903758028,73.22258534526637,-7.138131419632245,-14.375433004434157,-82.54596349988371,253.20962259230768,94.75225186518692
721,238.83214358763504,-40.92704801434593,73.43705616420635,-5.8707131060559545,-21.789997494156893,-79.72705829183225,253.23088928827832,91.81323850310156
722,238.97185103919668,-39.91441865730557,73.56316267072361,-5.30807832605394,-28.925106578744654,-76.74454613127301,253.24911598844798,89.69757995571999
723,239.1299585704625,-38.89563486418866,73.60021438253175,-5.493680333158983,-35.802821532517314,-73.62260181165037,253.26310679453474,88.4523209115785
724,239.3045152839951,-37.8799355202609,73.5478568266854,-6.45891534791803,-42.45137743410193,-70.38485595451372,253.27204209246045,88.11340160829997
725,239.49378288953787,-36.87736819687166,73.40607872020242,-8.221615142334288,-48.90396778618388,-67.0535751463482,253.275520748723,88.7044998507746
726,239.69627879750024,-35.8986519101241,73.17522602828673,-10.78478414552876,-55.19729359082294,-63.64898479334069,253.27358876985173,90.23600152492754
727,239.9108087439736,-34.954996592322495,72.85602188152377,-14.135647994052274,-61.36991822814617,-60.18877150727462,253.26675285704582,92.70414133119095
728,240.13648748333136,-34.05788015567555,72.44959117829163,-18.245071378749593,-67.46048168560718,-56.68778388115446,253.255977221969,96.09035277005773
729,240.37274563286,-33.21878779611001,71.95748860709645,-23.067391478225353,-73.5058383755497,-53.157931723536734,253.2426621752863,100.3608637746287
730,240.61932064295098,-32.44892192943637,71.38172871715491,-28.540700154500225,-79.53919181821358,-49.60826646317405,253.22860344304726,105.46657195255156
731,240.8762303431979,-31.758894377896667,70.72481653034961,-34.58759408392842,-85.58830640206742,-46.04521140322538,253.21593205316353,111.34323082844234
732,241.14372869566606,-31.158414830704455,69.98977698425846,-41.116397398774225,-91.67388023822616,-42.47290114692223,253.2070360232176,117.91197503441003
733,241.4222451645036,-30.65599098476378,69.18018122550345,-48.02284611694221,-97.80816236783636,-38.8935855761912,253.20446685677334,125.08020723296312
734,241.71231115372098,-30.258655952388573,68.30016753569504,-55.19220731138816,-103.99389098522593,-35.30805532335492,253.21083572524395,132.74286201016739
735,242.0144788238904,-29.97173744677094,67.35445451092288,-62.50178838675608,-110.22361647957887,-31.716052127259545,253.22870577082088,140.7840516965268
736,242.32923884281175,-29.798681067970033,66.34834390916377,-69.8237731813319,-116.47945477431564,-28.116637523833614,253.2604877994134,149.07908588969107
737,242.65694392979023,-29.740936976179775,65.28771025446363,-77.02830279085802,-122.73329448126708,-24.50850508868921,253.30834644768962,157.49684024379033
738,242.99774430038738,-29.79791566780024,64.17897404524403,-83.98670171522801,-128.94745806665432,-20.890232681108596,253.37412268163345,165.90243110959247
739,243.35153947895105,-29.967014828719336,63.029055607882164,-90.5747363723943,-135.0757947370559,-17.26047984144943,253.45927650668708,174.16013220809242
740,243.71794879937102,-30.243715680511507,61.84530743996285,-96.67578528623469,-141.06516281053635,-13.618140596112895,253.56485148074805,182.13645034139066
741,244.09630065736673,-30.621744062091967,60.635424173457096,-102.1837996712851,-146.85724293580483,-9.962463504154927,253.69146038185295,189.70326221900368
742,244.48563851002518,-31.093288712236745,59.407330796296705,-107.00594004404142,-152.39061086421066,-6.293149724306435,253.83928940733335,196.74090588095163
743,244.88473995332058,-31.64926677220647,58.16905135336722,-111.06478828137635,-157.60298911771568,-2.610437354689881,254.0081167274708,203.14111835198722
744,245.29214414148902,-32.27962445355794,56.928562021869986,-114.30005385411928,-162.43359006662314,1.0848226180926182,254.1973402827354,208.8097150684645
745,245.7061825494906,-32.97365930756962,55.6936342163519,-116.66971597829233,-166.82545803220592,4.791095849415365,254.40600962280934,213.66891467244056
746,246.12500870416198,-33.72034975054267,54.47167505419853,-118.15056837232697,-170.7277150621119,8.506097994998271,254.63285739912754,217.65922363184302
747,246.54662380403806,-34.50867741506048,53.26957380515247,-118.73815885974433,-174.0976147173333,12.226729923400267,254.8763275674029,220.74080829485067
748,246.9688966852474,-35.32792843915658,52.09356348109278,-118.44614139080437,-176.9023117401855,15.9490109241581,255.13459894738733,222.8942976501137
749,247.38957803039585,-36.1679610553568,50.94910615145446,-117.30508252270124,-179.12026400560853,19.66800318633973,255.4056041564491,224.12097871762532
750,247.80630993062195,-37.01942889027936,49.84080888322831,-115.36078709931796,-180.74219737066878,23.377718024353836,255.68704498448017,224.44236826690707
751,248.21663286906562,-37.873952056660706,48.772374808820814,-112.672227497042,-181.7715837833637,27.070992823044023,255.9764060480586,223.89916887277593
752,248.6179928642591,-38.72423105115742,47.746591196347055,-109.3091758232441,-182.2246072022915,30.739328477739093,256.2709690672255,222.54964288041967
753,249.00775187151328,-39.56410144886748,46.76535379443241,-105.34964754918089,-182.12961861193247,34.37268070880544,256.5678303500212,220.46746289932284
754,249.38320456721138,-40.38853042663226,45.8297242915111,-100.87726751585411,-181.52610832206284,37.959204883750324,256.8639240593567,217.73912009452272
755,249.74160425064363,-41.19355924880007,44.94001566667629,-95.97866513272297,-180.46324842309502,41.48496215970577,257.1560535252453,214.460990094173
756,250.08019970277454,-41.97619878134925,44.09589872628539,-90.74099565838665,-178.99807872054885,44.9336037359315,257.44093216093637,210.73616947052872
757,250.3962835043951,-42.734287505973384,43.29652230578634,-85.24966996827861,-177.19342430413246,48.28605846898134,257.71523445405415,206.67120265548414
758,250.68725075777988,-43.466323159259545,42.54063941884568,-79.5863577585882,-175.11564148086177,51.52025581088774,257.9756561953009,202.37281959113545
759,250.95066563877413,-44.171280033335,41.82673197841719,-73.82731047572427,-172.83229125063505,54.61092001488773,258.21898181851407,197.94479882685516
760,251.18433198195552,-44.84842424417632,41.153127541638405,-68.04203207934293,-170.40983659580243,57.52947223603183,258.4421557080857,193.48506016840474
761,251.38636336993906,-45.49713890822687,40.51810273147239,-62.29230925985604,-167.9114526989283,60.24407438150413,258.6423537582312,189.08307664782834
762,251.55524803465198,-46.116770070717685,39.91996936549665,-56.631598498293066,-165.39502894116222,62.719842555598696,258.81705136640124,184.81767876521957
763,251.68990424816607,-46.706502345460436,39.35714067055053,-51.10475542480599,-162.9114292373145,64.91924918803089,258.96408433173923,180.75530575907624
764,251.78972272093412,-47.2652706502109,38.8281761481722,-45.74808212485145,-160.503063912318,66.8027221276339,259.0816997402499,176.9487400748152
765,251.85459376097538,-47.79171136930008,38.33180466533848,-40.58966017222568,-158.20281269994666,68.32943699487235,259.1685948083558,173.43634303605762
766,251.88491842764017,-48.284153017636264,37.86692626853312,-35.649931087569506,-156.033324984699,69.45828689450263,259.2239427342454,170.24179251005407
767,251.88160439909106,-48.74064335845085,37.432594153648054,-30.94248143378597,-154.00671020397036,70.14900218654651,259.24740570701834,167.37430733470075
768,251.8460485306967,-49.15900735636389,37.02797917892526,-26.474986542967184,-152.1246182889855,70.36338331235645,259.239136188717,164.8293285219803
769,251.78010896469408,-49.53692867977858,36.65232018977692,-22.250264518414205,-150.37869702419297,70.06660238737211,259.1997683176386,162.58961381870108
770,251.6860700768862,-49.87204680939148,36.30486408554426,-18.267390341561665,-148.75140011815407,69.22852477209425,259.1304017048049,160.62669009128783
771,251.56660347772754,-50.162062007085375,35.9847998977333,-14.522818572383036,-147.21710650292758,67.82500008784513,259.03257993965343,158.9025971435854
772,251.42472776873802,-50.404841192304445,35.69119118963087,-11.011462589629518,-145.74349807624677,65.83907284359049,258.9082657946972,157.37184704504725
773,251.2637688800764,-50.598518940946846,35.42291094706822,-7.727679272907143,-144.29313056984725,63.262065590970764,258.75981449062976,155.98351539339282
774,251.0873216344212,-50.741589204329685,35.178582944575766,-4.6661113531265554,-142.82512200577466,60.0944919926829,258.5899454952666,154.68337632405726
775,250.89921180853605,-50.83298480379717,34.95653340063531,-1.8223460686612465,-141.2968771683346,56.34676310941809,258.40171227171896,153.41599295102532
776,250.70345673212034,-50.87214313996018,34.75475647903184,0.8066414668846018,-139.66576620737317,52.039657278004114,258.19846844366134,152.12668037465397
777,250.5042218091728,-50.8590577105311,34.57089664522444,3.2222789317161964,-137.89068152423752,47.20453175165583,257.9838283717747,150.76326964452096
778,250.3057704716378,-50.794315851047266,34.40224995290922,5.424425088742919,-135.93340899516772,41.8832623690914,257.7616202973551,149.27761732296665
