time,ax,ay,az,gx,gy,gz,accmagnitude,gccmagnitude
0,-25.804772897075765,-36.694400906285814,230.17965189640688,-22.86874488898739,76.94404909433632,1.5502849654386854,234.50614919008152,80.30935920519349
1,-25.646374934562424,-36.3915378141317,230.5917302843919,-22.076694127460367,74.01942956051717,0.9714940059781948,234.85082619380702,77.34199878425981
2,-25.49382679958574,-36.10351632134704,230.99264582418044,-21.37466754420664,71.13401942316283,0.4240831577047099,235.18756343280452,74.44484060893386
3,-25.348009543280604,-35.83306504136286,231.379175730742,-20.776878209057788,68.30668731922695,-0.08419077750975115,235.51371303008497,71.64045642267402
4,-25.20981021713848,-35.58266632881509,231.74831485808002,-20.29562316662191,65.55469284382416,-0.546390939604554,235.82680348366168,68.94939171095022
5,-25.080119781903285,-35.35449666944747,232.09733662294659,-19.94088797864339,62.893309405349534,-0.9566100430784037,236.12458983044388,66.38970683753247
6,-24.9598256208334,-35.15037271508756,232.42384737616132,-19.720013597940213,60.33549506068787,-1.3101533280796582,236.40509757528778,63.97658280946824
7,-24.849797818143145,-34.971704597682205,232.72583271682754,-19.637438712886144,57.891621801594674,-1.6036880924534085,236.66665906740997,61.722005346546645
8,-24.75086892733117,-34.819458052141925,233.00169475776215,-19.694527587172384,55.56927174099882,-1.8353543601367062,236.90794156643685,59.634538140195076
9,-24.663807738742594,-34.69412680287221,233.25027982559286,-19.889490296456433,53.37310619000063,-2.0048327757114923,237.12796679411534,57.71919295226955
10,-24.58928829704059,-34.59571643341285,233.47089638326258,-20.217399224900362,51.30481094076701,-2.113367457284247,237.32612212177372,55.97740074618907
11,-24.52785594268901,-34.523740510455006,233.6633230286699,-20.67030273989782,49.3631184004035,-2.1637431473736912,237.50216360167832,54.407084563830246
12,-24.479892449969796,-34.47722919829223,233.82780631058142,-21.237434108138164,47.54390481324739,-2.160217495331101,237.65621089052397,53.00283159792027
13,-24.445582420704106,-34.454750133850524,233.96504799998425,-21.9055109527625,45.84035891181684,-2.10841067251658,237.78873394798399,51.75615909508129
14,-24.424882945374485,-34.45444104362276,234.07618157812897,-22.659117833705782,44.24321704703328,-2.015155763320233,237.9005314501876,50.655866434813305
15,-24.417498208403508,-34.47405350795408,234.1627381033067,-23.481161732915464,42.7410590092785,-1.8883144624710189,237.99270119805422,49.68846377075103
16,-24.42286033559063,-34.51100733805745,234.22660211444853,-24.35338721257283,41.32065802383137,-1.7365635072607393,238.0666032475422,48.838665623765856
17,-24.440117467418894,-34.56245503841703,234.26995859847952,-25.25693478285628,39.96737747375574,-1.5691579897632075,238.12381680814445,48.08993548339644
18,-24.468129785611055,-34.62535558525234,234.29523224964788,-26.17292276860188,38.665605641309156,-1.3956782632179334,238.16609207898767,47.42506476827796
19,-24.505473996418285,-34.69655620451206,234.30502039347056,-27.083030147082543,37.39921823038271,-1.2257675702187987,238.1952982171144,46.82676669385656
20,-24.550456630954812,-34.7728801020616,234.3020211337126,-27.970056085706517,36.152056819036524,-1.0688677049462023,238.21336867872725,46.27826322990159
21,-24.601136516420983,-34.851217365864244,234.28895857740702,-28.818431868675127,34.908409906381145,-0.9339599037017094,238.22224534103105,45.76384202459144
22,-24.65535684240676,-34.92861567088796,234.2685074806673,-29.614662872682572,33.653482057548445,-0.8293177397127655,238.2238231938307,45.26936038896555
23,-24.71078721359588,-35.00236711332548,234.24322026473433,-30.347682070536923,32.37383597760359,-0.7622781607272812,238.21989791839133,44.78267530581068
24,-24.764975770573155,-35.07008760170446,234.2154597038666,-31.009101733445075,31.057792276197752,-0.739036048143131,238.2121189812925,44.293981786154994
25,-24.81541078075034,-35.12978566859118,234.18734036285323,-31.593356036833494,29.69577230178246,-0.7644668554717878,238.20195063176024,43.796046450063166
26,-24.859589985636344,-35.17991804815764,234.16068130043342,-32.09773363395361,28.280570850267356,-0.8419810275609524,238.19064259420935,43.28432864403318
27,-24.895094509024474,-35.21942969002132,234.13697212422088,-32.52230538315976,26.807547967502018,-0.9734130273653351,238.1792117374833,42.75698739224277
28,-24.919662782610562,-35.247776174244606,234.11735408526897,-32.86975772699624,25.27473255001063,-1.1589469396633283,238.16843555077187,42.21477861415547
29,-24.93125947432995,-35.26492702840646,234.10261704480436,-33.145146276684315,23.68283480702385,-1.397079835299505,238.1588574864704,41.66085284674105
30,-24.9281350672704,-35.271349331688455,234.09321176376955,-33.355586724272094,22.035169402095214,-1.6846233977681757,238.15080310490686,41.10046867859199
31,-24.908873062645526,-35.26797207515782,234.08927549528897,-33.50990130686451,20.337495655894962,-2.0167437165418134,238.14440482627202,40.54064081878159
32,-24.872423144542154,-35.25613277095967,234.09066785596676,-33.61823892017021,18.597785047436716,-2.387038587825074,238.13963240120964,39.98974395925877
33,-24.818119785356515,-35.23750861837863,234.09701386566408,-33.69168592812808,16.825929065581747,-2.787651087696752,238.13632635281263,39.45709430080097
34,-24.745686731228307,-35.21403520738691,234.10775181926834,-33.74188295384289,15.033402100263507,-3.2094175768850888,238.13423258761526,38.95252985445587
35,-24.655228596729287,-35.18781644169637,234.1221844985371,-33.780660591092015,13.23289454002857,-3.642047681292662,238.13303738425734,38.48600854214794
36,-24.547211297315275,-35.16103019662739,234.1395323270939,-33.81970423738873,11.43793069943126,-4.074333205520562,238.1324022462279,38.06724000491676
37,-24.422433255830498,-35.13583506375933,234.1589864005522,-33.870255457221994,9.662484868850798,-4.494382378876911,238.1319976072351,37.70536338609015
38,-24.281989420448152,-35.11428394778334,234.17975856201264,-33.942854811351694,7.9206068635150135,-4.889875247097597,238.13153371561216,37.408679735007325
39,-24.12723019726069,-35.09824980565706,234.201125501799,-34.04712912472999,6.226066015369525,-5.248335354462174,238.13078678432993,37.18444440471157
40,-23.959717324454942,-35.08936738510498,234.22246444719593,-34.191624602887,4.592019632519498,-5.557412138505531,238.12961886151274,37.03872189353557
41,-23.78117848663431,-35.08899282409191,234.24327913976424,-34.38368576955697,3.030708749386276,-5.8051677732449205,238.1279906807286,36.97630282362972
42,-23.593462240378457,-35.0981809333879,234.2632160103759,-34.62937870233381,1.5531809413696975,-5.980361606116826,238.125967622315,37.00068004611711
43,-23.39849470096263,-35.117678262304544,234.2820713386274,-34.9334555385173,0.1690376430006447,-6.072724840779624,238.12371950665562,37.11407830672257
44,-23.19823935497126,-35.14792880831689,234.2997905912518,-35.29935598676674,-1.1137976733583694,-6.073217736623168,238.12151513480657,37.31752980902317
45,-22.994661141816312,-35.18908854509253,234.3164612091139,-35.72924103289215,-2.2892935892438726,-5.974261412370715,238.11971242267842,37.610986836118265
46,-22.78969549225068,-35.24104490555608,234.33230006067942,-36.224054549245274,-3.3535081392733623,-5.769936504706099,238.1187448555392,37.99346274010541
47,-22.585222422240737,-35.30343802948748,234.34763676228607,-36.78361013084311,-4.304767287258729,-5.456141602214741,238.1191050001857,38.46319408680469
48,-22.38304526555634,-35.375681816180844,234.36289412811257,-37.40670263192628,-5.143818519196079,-5.030705645981051,238.12132599562668,39.01781893435353
49,-22.184873308636593,-35.45698425167276,234.37856704245644,-38.09124557344217,-5.873950228664313,-4.4934503344992835,238.12596214474894,39.65456808747429
50,-21.992307421609684,-35.546367727679126,234.39520092631253,-38.834435892450266,-6.5010652934368744,-3.846200841281436,238.13356977128507,40.37046677914446
51,-21.80682764923709,-35.642690838906184,234.41337073771243,-39.63294599019552,-7.033696498017841,-3.0927456154424275,238.14468937093122,41.16254325737758
52,-21.629781585613742,-35.74467328452985,234.43366116119543,-40.483139975877094,-7.482952363222187,-2.2387484164214024,238.15982980469028,42.02803856256107
53,-21.4623722699811,-35.85092513013476,234.45664826032376,-41.38130716693836,-7.862384359853074,-1.2916177661492516,238.17945483549326,42.964609166006234
54,-21.305644433985826,-35.95998114823471,234.48288241887172,-42.323902197930536,-8.187770068548406,-0.26034047294538604,238.20397178832997,43.97051191095273
55,-21.16046825203912,-36.07034049778906,234.5128721102344,-43.30777822681011,-8.476811055222964,0.8447133092894636,238.23372178666494,45.044759348213816
56,-21.02752020907998,-36.180511612017575,234.54706810421527,-44.33039807905019,-8.74874838816862,2.0120058205285267,238.2689710644754,46.18723319009244
57,-20.907261225382836,-36.28906170083367,234.58584807547365,-45.39000776219599,-9.023902281714074,3.229060801056532,238.30990317746193,47.398744072376125
58,-20.79991279744238,-36.39466968680257,234.6295019700617,-46.48575745534294,-9.323145117143392,4.4826990320039055,238.35661228962584,48.68102695587175
59,-20.705432629024454,-36.49618077686408,234.67821868611824,-47.61775669151754,-9.667319221699605,5.759274015757063,238.40909787993382,50.03666329799697
60,-20.623491888420794,-36.59266035718495,234.73207454204658,-48.78705299268084,-10.07661260640139,7.0449021912403715,238.46726111418977,51.468923703466864
61,-20.553456631920405,-36.68344451837391,234.7910237461355,-49.99552672724263,-10.569907651323026,8.325682782684302,238.53090284998677,52.981528252557055
62,-20.494375939332155,-36.76818421507308,234.85489084543602,-51.245699395165715,-11.164119616643411,9.587903109930147,238.59972296510028,54.57832610253056
63,-20.44497887941165,-36.8468798140725,234.9233649890407,-52.54045770208007,-11.873543891354348,10.818225937966439,238.67332048646668,56.262901071911365
64,-20.403681652321136,-36.9199026963502,234.99599572507137,-53.882701296652314,-12.70923305676297,12.003856180405505,238.75119380797264,58.03811538779858
65,-20.368605341537027,-36.988000829473094,235.07218999364795,-55.27492743907703,-13.678426981334079,13.132684991861026,238.83274019697922,59.90560910913668
66,-20.33760388040761,-37.05228589628987,235.15121015765433,-56.71877066201715,-14.784060895531924,14.193410018084188,238.91725400803202,61.86527739332881
67,-20.308301267532045,-37.11420059265462,235.2321734055632,-58.21451932329328,-16.02437718338723,15.175631336490664,239.00392362714885,63.914751308895994
68,-20.278136760584967,-37.17546600619667,235.31405349514864,-59.76063367306999,-17.39266593377374,16.06992339903859,239.09182798229915,66.04891008667423
69,-20.244416605435404,-37.23801045417133,235.39568631590708,-61.3532916575376,-18.8771567006894,16.867884053885636,239.17993418490695,68.25945352496792
70,-20.204370719281524,-37.30388256288981,235.47578096556074,-62.9859891489728,-20.461079188666908,17.56216243095123,239.26709830422368,70.53456276068216
71,-20.155212711651135,-37.375152451457865,235.55293792024327,-64.64922050962008,-22.12290371675793,18.1464681041949,239.3520713410425,72.85867574830341
72,-20.094201791548556,-37.45380555923872,235.6256754432865,-66.33026321347269,-23.83676369991036,18.615564524314667,239.43351216792567,75.21240046169326
73,-20.018705387288346,-37.54163404387835,235.6924646859025,-68.01308668600561,-25.57305280525982,18.965250307653193,239.51000861237512,77.57258406314483
74,-19.926261474836636,-37.640130889907425,235.7517730778317,-69.67840083702376,-27.29917991547094,19.192332525146597,239.58010706893887,79.91255025046867
75,-19.814639543200443,-37.75039190927849,235.80211463838862,-71.30385434018974,-28.980456506961268,19.29459646323135,239.64235007624626,82.20251000345517
76,-19.681898884864673,-37.873030629011794,235.84210480411795,-72.86438692433289,-30.581084132007213,19.270776212180834,239.69532022756377,84.41014339855629
77,-19.5264426277552,-38.00811062640066,235.87051645617626,-74.33273405031858,-32.06520457025439,19.12052979293597,239.73768779269056,86.50134244645736
78,-19.347065734978496,-38.15509923513853,235.88633334311393,-75.68007646972166,-33.397971791551356,18.844421420199332,239.7682588315006,88.44109733342428
79,-19.142995163006823,-38.312845791807355,235.88879722468968,-76.87682131823577,-34.5466029963391,18.44391206855665,239.7860205831199,90.19450121725667
80,-18.9139205238369,-38.47958678612865,235.87744574731278,-77.89349562323676,-35.48136562298434,17.921357980515328,239.79018147072142,91.72784205504
81,-18.660013913565695,-38.65297941281429,235.8521390601558,-78.70172749979724,-36.17645839021256,17.280015373662128,239.78020392877883,93.00974408641905
82,-18.381937959034662,-38.83016403904621,235.81307423556848,-79.27528496716361,-36.61074728495326,16.524048539365644,239.75582916769642,94.01231680553171
83,-18.08084152092825,-39.00785497365754,235.7607874861433,-79.59113725225926,-36.768322091567796,15.658537824119856,239.71709375064412,94.71226571207521
84,-17.75834291023707,-39.18245768266067,235.6961448256436,-79.63049866083406,-36.63884589043957,14.689483611436607,239.66433833036453,95.09191706466271
85,-17.416501025741276,-39.35020925033021,235.62032207173,-79.3798107844517,-36.21767927989414,13.623802330308182,239.59820896043146,95.14010865442192
86,-17.057775494398317,-39.50733739605914,235.53477497980515,-78.8316154822441,-35.50577305353383,12.469310666096714,239.51965109311428,94.85290075492486
87,-16.684977521688765,-39.65023174372235,235.44120013004888,-77.98526946457818,-34.509337391275736,11.234694490939274,239.4298959897783,94.23406620692373
88,-16.301213547223913,-39.77561947573713,235.34148725981058,-76.8474521848794,-33.23931132383133,9.9294595196323,239.33043910276777,93.29532599081641
89,-15.909823871075027,-39.88073626328742,235.23766403182367,-75.43242277775448,-31.710671604477465,8.563861354830076,239.22301006815482,92.05630613053505
90,-15.51431818046468,-39.96348268524761,235.1318345247528,-73.76198933928231,-29.941632936047814,7.14881350574559,239.10953409084732,90.54420260035538
91,-15.118309458170268,-40.022556342415854,235.0261129012777,-71.86516483981204,-27.95279949378373,5.695773215531907,238.99208461283172,88.79315233387014
92,-14.725447288617556,-40.05755054126461,234.9225538540822,-69.7774979076084,-25.7663292222584,4.216606450693546,238.8728273520265,86.84332009732702
93,-14.33935131289308,-40.069011743435404,234.82308171664894,-67.54008304633025,-23.405167021607735,2.7234349855883164,238.75395626234,84.73972306571726
94,-13.963545597827833,-40.05844998385658,234.72942061917658,-65.19827302011028,-20.892391640216633,1.2284698641943197,238.6376227761687,82.5308278339793
95,-13.601394868157751,-40.02829917789894,234.64302873342336,-62.800135436159664,-18.250705955051885,-0.2561636462656295,238.52586081521147,80.26696825564963
96,-13.256043739995453,-39.98182753676721,234.56504035060115,-60.39471475242724,-15.502083885092526,-1.7186042963610058,238.42051133019768,77.99864595302317
97,-12.930360213816412,-39.92300182795306,234.4962200292737,-58.03017831077882,-12.6675717007562,-3.147431227968166,238.32315124024848,75.77478683261147
98,-12.626884768850617,-39.85631248216998,234.43693308176623,-55.75193860014138,-9.767228505233907,-4.531833740579779,238.23503224854483,73.6410344468769
99,-12.347786500518366,-39.78656919591231,234.38713611897677,-53.600851918582585,-6.820180914309281,-5.861769828567181,238.1570349287023,71.63816275447337
100,-12.09482783005109,-39.71867855655655,234.34639026668492,-51.61159440216023,-3.844760525500951,-7.128108800706768,238.08964269842104,69.80068564622873
101,-11.869339265656153,-39.657416299779335,234.31389809973027,-49.81130923151872,-0.858689340886204,-8.322753280853991,238.03293891371723,68.15572886180775
102,-11.672205387425931,-39.60720704980216,234.28856347961076,-48.21860405471982,2.1207224697471663,-9.438736179649778,237.98662848506467,66.7222137655399
103,-11.503862669341478,-39.571923694088575,234.26907153317597,-46.84295678388808,5.076400448876592,-10.470288940372898,237.95008333255257,65.51038497457728
104,-11.364309091926547,-39.55471690496437,234.25398414998327,-45.68456314096735,7.991381486004849,-11.412878482816762,237.92240884688198,64.52169743312803
105,-11.25312494160746,-39.5578829669796,234.24184475656432,-44.73463290175208,10.848765437962467,-12.26321171357183,237.90252650662526,63.74906391835313
106,-11.169503863996264,-39.58277536910761,234.2312849743134,-43.97611566931984,13.631759469445692,-13.019208125755318,237.8892662077477,63.17745050514453
107,-11.11229311420705,-39.62976288765116,234.22112536734272,-43.384812853574445,16.32382328779601,-13.679942746965375,237.881461015132,62.78479417138081
108,-11.080041887720633,-39.698234303847045,234.21046297563697,-42.930811756765735,18.908914433599925,-14.245563373367732,237.878037105148,62.54320291792005
109,-11.071056486047608,-39.78664758888355,234.19873954706492,-42.58016135582232,21.371823846608667,-14.717187475651372,237.878092485853,62.42038485796503
110,-11.083460854888331,-39.89261941414146,234.18578597977236,-42.29669820052614,23.698583382931982,-15.096785164010306,237.8809593196751,62.38123990751645
111,-11.11526080712327,-40.01304917589811,234.17184017692193,-42.04392507342727,25.876919042799198,-15.38705499994167,237.8862460469109,62.38953752141442
112,-11.164410071596901,-40.1442702933982,234.1575371927432,-41.78684463712487,27.8967167760554,-15.591299236759296,237.89385690555366,62.409597646151724
113,-11.228876188471844,-40.282220364914906,234.14387220383975,-41.49365501974226,29.750462649420378,-15.713304334616916,237.90398785965195,62.40789052203163
114,-11.306704171361677,-40.42262097726335,234.13213846562314,-41.13722393326843,31.43361700315949,-15.75723137127708,237.91709939849196,62.35447471943833
115,-11.396075768212306,-40.56115772568743,234.12384400788952,-40.69627221665196,32.94488406444218,-15.727519271147104,237.9338681787607,62.22420222507326
116,-11.495362120494633,-40.69365143578346,234.12061236826486,-40.15621607547432,34.286344805908335,-15.628801693337865,237.95512106031558,61.997634408296875
117,-11.603167710017859,-40.81621271119007,234.124074060024,-39.50963861504589,35.46343119596045,-15.465836182762263,237.98175664905358,61.661632303609856
118,-11.718363727756781,-40.92537366063853,234.13575653831734,-38.75638390407861,36.48473304683725,-15.243442124683375,238.0146608158002,61.20960694483661
119,-11.840109377425328,-41.018192778739355,234.15698093075022,-37.9032889806542,37.36164254676278,-14.966442496774771,238.05462354172982,60.64143808990168
120,-11.96786008719984,-41.09233118467721,234.1887735074442,-36.96358926452941,38.10785432880323,-14.639603664256317,238.1022645724412,59.96309021194802
121,-12.10136212649968,-41.1461004489295,234.23179868842763,-35.956049361961995,38.73874908207481,-14.267567662313077,238.15797459267208,59.18597116636179
122,-12.240633746447104,-41.17848381779362,234.28631842982222,-34.903883210223654,39.27069547815324,-13.854772531084214,238.22187702264128,58.32609027412113
123,-12.38593368586292,-41.18913372301832,234.35218031505454,-33.83353438913698,39.72030851599006,-13.405358145691515,238.29381329059075,57.40307837419473
124,-12.537718598119572,-41.17834914460072,234.42883385989558,-32.77338919656395,40.10370272837551,-12.923057404806151,238.3733518200598,56.43913316364362
125,-12.696591505468941,-41.14703678045697,234.51537176674765,-31.75249206206637,40.43577667678447,-12.411075384791319,238.45981833594988,55.45794980912639
126,-12.863243713978266,-41.096660067652024,234.61059056574686,-30.799325659370307,40.729561369617066,-11.87196183594136,238.55234286249598,54.48369045342695
127,-13.038392770171344,-41.02917983936651,234.7130636011749,-29.940707563046455,40.995660120621714,-11.307484793118405,238.64991729089067,53.54003783371125
128,-13.22271907803623,-40.946989766726816,234.82121879137867,-29.200842599854845,41.24180126888051,-10.718514702989651,238.75145676441136,52.64936852373934
129,-13.416803729824688,-40.852848832641946,234.93341398171543,-28.600556437911788,41.47251842060588,-10.104929089414878,238.85585835715278,51.83207081421443
130,-13.62106990512606,-40.74981216573561,235.04800389468116,-28.156722754661615,41.68896582060962,-9.46554731541577,238.96205152168227,51.106021392489254
131,-13.835729883354814,-40.64116085486983,235.16339440938137,-27.88188469690842,41.88886960604771,-8.798103492433968,239.06903634314926,50.486224381035335
132,-14.060739376995276,-40.530330932908406,235.27808185530017,-27.784062058919126,42.06660952840015,-8.099263161131285,239.17590746390906,49.984606716507486
133,-14.295760565765,-40.42084153133114,235.39067689143675,-27.86672890992517,42.213420595740345,-7.36468627974818,239.28186334433437,49.609956002832085
134,-14.540134845903697,-40.31622225951816,235.49991411016487,-28.128942139847677,42.31770017976415,-6.589135701771256,239.386202052277,49.36798129281388
135,-14.792865844315177,-40.21994016045121,235.60464959780938,-28.565599168579606,42.36540357453953,-5.766627156902209,239.488305868539,49.2614738882896
136,-15.052612704044767,-40.13532707572422,235.7038493423583,-29.16780238635149,42.340509825464345,-4.890614161489822,239.5876176898948,49.29054407683575
137,-15.317693126415172,-40.06550877236525,235.7965717523442,-29.92330826590507,42.22553972417267,-3.9541995421729172,239.68361263248062,49.45291038557258
138,-15.586095289556102,-40.013337590101855,235.8819476836391,-30.817040099407166,42.00210884001833,-2.950364494423809,239.7757684119641,49.74421991488281
139,-15.855497664833846,-39.98133058514033,235.95916120549384,-31.831644643834398,41.651499885285304,-1.8722063235774586,239.8635379412661,50.15838105284841
140,-16.123295920772016,-39.97161519450494,236.02743387861204,-32.948074340758005,41.15524020078385,-0.713177064614328,239.946327150719,50.6878928487398
141,-16.38663636877238,-39.98588437395653,236.0860146659349,-34.14617803413075,40.495671495352035,0.5326833217538585,240.02348039567156,51.32415819132984
142,-16.6424555399615,-40.02536297478675,236.1341768672114,-35.4052842416395,39.65650021062699,1.8705240091777886,240.09427507305418,52.05777062472479
143,-16.887525384501334,-40.09078678789188,236.17122275565706,-36.704762183458215,38.6233182151297,3.3044744176878997,240.1579263022444,52.87876730899002
144,-17.118503320642542,-40.18239520541956,236.19649595246045,-38.024547081379914,37.38408514185107,4.837452726548646,240.21360179504384,53.776843481405876
145,-17.331986091389066,-40.299937873608435,236.20940100034022,-39.34561778524993,35.92956556445461,6.470995172458583,240.26044635993168,54.74152681541645
146,-17.52456625607801,-40.442695055323966,236.2094290652586,-40.650416618852084,34.25371614770646,8.20510979823095,240.29761484450256,55.76231317111695
147,-17.69289018893412,-40.60951069089029,236.19618818343946,-41.923203535337194,32.35401959880544,10.038158631830477,240.3243116982399,56.82876819087744
148,-17.833716605527652,-40.79883638001575,236.1694359569378,-43.15033919839793,30.2317634245019,11.966772471423047,240.33983471568325,57.930601780557204
149,-17.94397477253205,-41.00878383614078,236.12911210156724,-44.320494139260994,27.89226206167396,13.985802388562904,240.3436199272705,59.057724382583764
150,-18.020821558988686,-41.23718299884561,236.07536786060152,-45.424783093474026,25.345020954901774,16.088311616147802,240.33528416156014,60.20029463371633
151,-18.061696327797534,-41.48164304623306,236.00858914638255,-46.45682447092665,22.603840692350907,18.265610580999986,240.3146616534075,61.34876711575624
152,-18.064372472411897,-41.73961387043361,235.9294104619565,-47.41272461650046,19.686858392647647,20.50733643900774,240.281831301484,62.493946416104215
153,-18.027004353477956,-42.00844586205359,235.83871722059146,-48.290985682089385,16.61652215384745,22.80157662860008,240.23713178074289,63.62705014278355
154,-17.948168506212873,-42.28544596152249,235.73763494063923,-49.092335581179285,13.419492668078357,25.135033861491852,240.18116258947052,64.73977989589467
155,-17.826898117292487,-42.56792799159514,235.62750478223757,-49.81947960008151,10.126464456946282,27.4932278555103,240.1147701025488,65.82439657402664
156,-17.66270976815273,-42.85325544699903,235.50984590499755,-50.47677617632924,6.771898190769171,29.860727162318785,240.03901872560212,66.87379541432507
157,-17.45562132924373,-43.13887528039852,235.3863061383703,-51.06984367473388,3.3936558773702594,32.22140278826573,239.9551482944637,67.88157669152503
158,-17.20615981042021,-43.42234184868824,235.25860340496314,-51.605109693088,0.032532866627655095,34.55869410728152,239.86451990086434,68.84210935986596
159,-16.91535807899994,-43.70133105038158,235.12846111021793,-52.08931859636338,-3.2683151836616666,36.855876985440155,239.76855324759154,69.75058644525082
160,-16.584739725404866,-43.973645639349215,234.99754124759573,-52.52901622421189,-6.464046254527946,39.09632417433804,239.6686593615306,70.60307236389826
161,-16.216291949703855,-44.23721354206109,234.8673792439086,-52.93003303904153,-9.508895668489858,41.26374886253167,239.5661729589847,71.39654343591363
162,-15.812427057356658,-44.49008159426008,234.73932454945958,-53.29698826421731,-12.357011349830149,43.34242364935762,239.46228889609264,72.12892339372283
163,-15.375933908737192,-44.73040736344519,234.61449065873447,-53.632837356752646,-14.963336449660963,45.317368881030866,239.35800692272926,72.79911518231445
164,-14.909921404354318,-44.95645159397893,234.49371769904153,-53.93848297692305,-17.284511015555783,47.17450605367804,239.25408844691682,73.40702855153266
165,-14.417756693603556,-45.166573346521275,234.37755003187803,-54.2124653587679,-19.27976256776434,48.90077380298323,239.1510282917746,73.95360017458664
166,-13.903001135389866,-45.35922923193125,234.26623049628435,-54.45074220113825,-20.911755956743562,50.48420596774957,239.04904352320503,74.44080014766973
167,-13.369347074718183,-45.53297740775476,234.15971194269724,-54.64656213324824,-22.147375390914483,51.913973367772044,238.9480803266319,74.87161679035985
168,-12.820558295840648,-45.686486319836135,234.05768555400545,-54.790431129720204,-22.9584155392523,53.18039311439822,238.84783863475394,75.25001163094976
169,-12.260416638433604,-45.8185475884587,233.95962425848265,-54.87016934109362,-23.322163582350562,54.27491120452811,238.7478129005038,75.58083887487676
170,-11.692676744678245,-45.92809199960259,233.86483851725674,-54.87105688133297,-23.22185939849742,55.19006560636857,238.64734628769543,75.86972826420221
171,-11.121030271208085,-46.01420733778076,233.7725410462574,-54.77606994288082,-22.647026076349032,55.91943794712689,238.5456947593097,76.12293588721512
172,-10.54908021081844,-46.076156846570036,233.68191663257466,-54.56621130527554,-21.59366713120601,56.45760230982644,238.44209711817385,76.34717269703488
173,-9.980325281882443,-46.1133973858519,233.5921931396727,-54.22094039349118,-20.06433000283511,56.80007956759326,238.33584700406095,76.549424138144
174,-9.418153687963956,-46.12559671301825,233.50271005785,-53.71870671413796,-18.068037837062672,56.94330507853568,238.22636313928837,76.73677583380307
175,-8.865844951214353,-46.11264955462376,233.41298143881437,-53.03758624963116,-15.620093617295971,56.8846164567211,238.1132546004417,76.91625963586517
176,-8.326578011849241,-46.07469215823537,233.32275056720752,-52.15601307784456,-12.741762805516563,56.62226666708305,237.99637837378475,77.09473165067243
177,-7.803443371462722,-46.01211489406396,233.2320341021294,-51.05358875952869,-9.459842919682723,56.15546585827482,237.87588677820955,77.2787894598311
178,-7.299456725934987,-45.925572363012904,233.14115361651253,-49.71194144524054,-5.806130717089503,55.484452804242416,237.7522624898393,77.47472999648198
179,-6.817571305567091,-45.81599045827005,233.05075255842846,-48.11559725935884,-1.8167994797023834,54.6105932229792,237.6263389811326,77.68854300080369
180,-6.360686133119619,-45.684569939662545,232.96179683719765,-46.25282040515247,2.468299939807139,53.53649784579426,237.4993043799744,77.92592897764294
181,-5.931647781968601,-45.53278627723763,232.87555769730164,-44.116377185601365,7.006400032874031,52.2661489911723,237.37268725375108,78.19232703832431
182,-5.533243999172108,-45.36238573237352,232.7935764434632,-41.70418320234633,11.752624746239055,50.80502186241034,237.24832377183267,78.49293837814932
183,-5.168188596369959,-45.1753778105626,232.71761197061278,-39.01980121146352,16.66082922387389,49.16018659807446,237.12830712759032,78.83273522928606
184,-4.839098066103805,-44.97402431117369,232.64957373196506,-36.07276683926012,21.68445421796231,47.340379143987406,237.0149217970952,79.21645094732146
185,-4.548461225509428,-44.76082519559539,232.59144423521929,-32.8787276998861,26.777376254378435,45.35603252818361,236.91056666346714,79.6485518077941
186,-4.298603661751226,-44.5385013736687,232.5451958549969,-29.45938714956247,31.8947325670185,43.21926414407808,236.8176717099737,80.13319355535275
187,-4.091648854759417,-44.30997426950821,232.5127065954577,-25.84224815358314,36.99369833939554,40.943818329191,236.7386127910464,80.67416609647424
188,-3.929477782713622,-44.078341702026144,232.49567883234718,-22.060157714306975,42.034193566589586,38.544966215640684,236.6756283342169,81.27482925665775
189,-3.8136888277474603,-43.84684925419364,232.49556442133644,-18.150658937965552,46.979498220294744,36.03936614995646,236.63074112869515,81.9380420233197
190,-3.745559979798131,-43.61885602941155,232.51349893385373,-14.155165349034379,51.796757345522366,33.44488820087451,236.60568769722067,82.66608719709794
191,-3.7260154941640873,-43.39779369546414,232.55024707335585,-10.117979601612118,56.457361849478275,30.780406501689374,236.60185706507446,83.46059300401667
192,-3.7555989731866193,-43.18711806374319,232.60616064910957,-6.085186312807601,60.937195443215934,28.065564408201887,236.62024015614702,84.32245343352605
193,-3.8344542338896286,-42.990252967036376,232.68115007765033,-2.1034563206378967,65.21674309895346,25.3205191998098,236.6613907558328,85.25174988849643
194,-3.9623145841374,-42.810526706673315,232.7746702080627,1.7811940493858673,69.28106165484759,22.565673756254423,236.72539891326363,86.24767753505795
195,-4.138500559665028,-42.65110188222502,232.88572104537207,5.524641862207681,73.11961899492876,19.82140181100971,236.81187754315073,87.30848000709157
196,-4.361925757782111,-42.514900069837616,233.01286357245564,9.085847916459006,76.72601399566808,17.107772295939125,236.9199627424206,88.43139583387153
197,-4.631109991237582,-42.404523486641814,233.1542504395074,12.427954483600452,80.09759407766194,14.444278307239538,237.04832803482998,89.61261914874632
198,-4.944198578485728,-42.32217632965133,233.30767077086907,15.519250285668408,83.23499003642516,11.849577259647448,237.19521234338987,90.84727577716203
199,-5.298986307654501,-42.269588840240246,233.4706076725331,18.333967236302065,86.14158903978195,9.341249801078284,237.35846089740693,92.12941384232519
200,-5.692944546266572,-42.24794726541361,233.6403063908548,20.85287915505151,88.8229669618545,6.935585212438235,237.53557767866388,93.45200627899966
201,-6.12325012070588,-42.2578327182778,233.81385065272897,23.06368027914029,91.28630112018081,4.647400150051149,237.72378756813907,94.80696208805162
202,-6.586814925955521,-42.29917152351051,233.98824438752553,24.961131719539694,93.53978413765537,2.489895974253009,237.92010595913666,96.18514438451875
203,-7.080315699284383,-42.371199149558834,234.16049560836447,26.54697634342802,95.59205890806315,0.4745581009691929,238.12141310808957,97.57639590208916
204,-7.600223913087296,-42.4724395445099,234.32769879773377,27.829634387070783,97.45169315302113,-1.388900528428637,238.32453002782526,98.96957517814373
205,-8.142836179168167,-42.60070171761367,234.48711199590568,28.82370043437999,99.12670939018521,-3.092550409882053,238.5262925948886,100.35260741441625
206,-8.704305785090863,-42.75309550061216,234.63622516821928,29.54926600411861,100.6241821221866,-4.630210058239114,238.72362092818489,101.7125522356187
207,-9.280675968055812,-42.92606819571635,234.7728172930431,30.031092394955618,101.9499092306363,-5.997365203133228,238.9135818955735,103.03568725825613
208,-9.867915351519692,-43.115463118228604,234.89500071037625,30.297658569999204,103.1081600787112,-7.191047030246695,239.09344354276138,104.30760361169905
209,-10.46195571457611,-43.316600017534405,235.00125238218277,30.380110780920823,104.10149973949527,-8.209677985948218,239.26072112755048,105.51330888182676
210,-11.05873193719572,-43.52437622977637,235.0904327095162,30.31114462268944,104.93068732822213,-9.052896754493979,239.41321519193343,106.6373345215131
211,-11.65422355136676,-43.733386278895395,235.16179326507952,30.123855331928162,105.5946461499476,-9.721375117877217,239.5490425710162,107.66384770283922
212,-12.244496897021783,-43.93805647916457,235.21497513533862,29.850596913432,106.09050363426317,-10.216638644192637,239.6666613246138,108.57677074300707
213,-12.82574652990735,-44.13278989905632,235.2499996369768,29.521893629650936,106.41369938811629,-10.540901282752172,239.76489039994934,109.35991376653202
214,-13.394334319965878,-44.31211594304761,235.26725312887086,29.165447712798947,106.55815998660651,-10.696921804232845,239.84292456509434,109.99712781319802
215,-13.946824702116963,-44.470838009275255,235.26746745854794,28.805284899137167,106.51653925257425,-10.687888192533164,239.90034481403438,110.47248619027256
216,-14.480014888252393,-44.60417241511518,235.2516971502016,28.461074675999452,106.28052248904085,-10.517334622048528,239.93712397706,110.77050147481394
217,-14.990959418628966,-44.70787221243747,235.2212937679843,28.14765449136091,105.84119188183107,-10.18909402110686,239.9536267114858,110.87638383417404
218,-15.476988894705675,-44.77833062163569,235.17787719785326,27.874776018896185,105.18944752380528,-9.70728688761719,239.9506025975757,110.77634280947005
219,-15.935722849585607,-44.8126603397441,235.1233032403387,27.64707747116701,104.31647418271588,-9.076344148721496,239.9291710080389,110.45792945213819
220,-16.36507658826781,-44.808746562963954,235.05962710425584,27.464271073679,103.21423887326766,-8.30105943926446,239.890796897175,109.91040961489058
221,-16.763261822061892,-44.76527297873171,234.98906297963174,27.321521966410394,101.87599997252167,-7.386665293525559,239.83725749067804,109.12515380413814
222,-17.128781302515232,-44.6817212113703,234.91394045731388,27.20998597983673,100.29680629524012,-6.338928354132214,239.77060068421127,108.096025646908
223,-17.460418396067478,-44.55834533970479,234.8366588729245,27.117469270153826,98.47396443324459,-5.164259167724914,239.693096522051,106.81974999393037
224,-17.7572232684806,-44.39612419276282,234.75964070211586,27.02917169636563,96.40745394104339,-3.869830586301052,239.60718343002958,105.29624216180025
225,-18.01849760264115,-44.19669510594516,234.685285122248,26.928476827229076,94.10027167975892,-2.463695284324522,239.51541107011406,103.52888087585163
226,-18.24377939753052,-43.96227353038977,234.61592287707163,26.797753877910445,91.55868865836834,-0.9548898514405599,239.42038181743672,101.52470902414287
227,-18.432828732377907,-43.69556316635765,234.55377351734182,26.61914051620611,88.79240566645265,0.6464870815374695,239.32469280936036,99.29454907439687
228,-18.5856149196411,-43.39966110315919,234.50090582660994,26.37528003336826,85.81459839503708,2.3292319657381393,239.23088019490035,96.85302434865501
229,-18.702305343079495,-43.077961983845086,234.45920187832562,26.04999076817564,82.64184817778286,4.081033759387748,239.1413667640063,94.2184824616123
230,-18.783256203365735,-42.7340647108063,234.4303249473803,25.628848322259874,79.29395981472368,5.888513975938709,239.0584138188623,91.41282143925764
231,-18.82900508673622,-42.37168470707532,234.41569156821745,25.099661340334354,75.79367230041136,7.737310836792727,238.98407810052205,88.46122133217429
232,-18.84026477366126,-41.99457418184506,234.41644832738257,24.45282096899109,72.16627173146145,9.612208409918585,238.92017473272284,85.39178517452468
233,-18.817917319385426,-41.606452314006354,234.43345423476512,23.68150562749142,68.43911887902179,11.497309599325405,238.86824726965958,82.23509469964169
234,-18.76300739621242,-41.2109469595976,234.46726938857614,22.781728619497816,64.64110729777883,13.376248591669583,238.82954574796736,79.0236895772062
235,-18.676734126718785,-40.81154937517007,234.51814998921805,21.752225750140116,60.80207112859843,15.23243545434709,238.80501299332042,75.79148359297444
236,-18.5604409115576,-40.41158321388956,234.5860488994746,20.594190830579347,56.95216430682814,17.049323990830057,238.7952785727668,72.57313542981441
237,-18.41560290260492,-40.01418844573814,234.6706204623771,19.31087688915091,53.12123432872475,18.81069313664721,238.80065921814867,69.403394385711
238,-18.243811877714172,-39.62231995828955,234.77122834850806,17.90709024263335,49.338214030719364,20.500931294070938,238.82116446464133,66.31644271546487
239,-18.04675854921644,-39.23875966342783,234.8869555151084,16.388613740918913,45.630554006799585,22.10531233611272,238.85650641960063,63.34525681572676
240,-17.826212811991134,-38.86614010670031,235.01661570485084,14.761603275511764,42.02371621757668,23.610252476320163,238.906112814443,60.52100879273697
241,-17.584002871867,-38.50697683265001,235.1587663143236,13.032005875654496,38.540746041466,25.003538966520942,238.96914279593926,57.87252717152846
242,-17.32199434825383,-38.16370607000364,235.31172282982837,11.205047199413817,35.20193583872496,26.27452384492879,239.0445051696058,55.42583045474689
243,-17.04207025950414,-37.83872369430489,235.47357519205943,9.284831392390265,32.02458861426364,27.41427787395648,239.1308788533255,53.203740798909706
244,-16.74611238300839,-37.53442098524106,235.64220647709567,7.274088437695111,29.022886035572554,28.415701076151493,239.2267352222293,51.225578429326596
245,-16.435984073671165,-37.253212579852104,235.8153142864517,5.174094195691378,26.207861086482,29.27358699530047,239.3303619850172,49.50693158252795
246,-16.113514502478886,-36.99755241640724,235.99043513581668,2.9847759954268493,23.58747204646828,29.984638453170557,239.43988818930643,48.05949306510446
247,-15.780484493731622,-36.7699343659848,236.1649719555528,0.7050009544138507,21.166771245668095,30.54743393705084,239.5533099460865,46.89095443228147
248,-15.438614395068816,-36.57287539284498,236.33622492268398,-1.6669738421540023,18.94815912796903,30.962346252725226,239.66851677669527,46.00495230089282
249,-15.089554354884083,-36.40888021602379,236.50142638395968,-4.132926271997149,16.931711633559868,31.23141812190927,239.78331920057573,45.401066073859745
250,-14.7348769999908,-36.28038757711063,236.6577811618213,-6.6940153742072805,15.11556693078794,31.358201975614357,239.89547886534294,45.07486968053883
251,-14.376072124396162,-36.18969949098913,236.80251344033147,-9.350096012581384,13.496356019659952,31.34757302232613,240.00274260626344,45.01804115263862
252,-14.014542881647191,-36.138896251498274,236.93292047946605,-12.099045690784607,12.069660279080122,31.20552633874918,240.10288110192602,45.218533980243556
253,-13.65160306965003,-36.129741281675855,237.04643191794412,-14.936144291584778,10.830477264173314,30.938970438336028,240.1937315417385,45.66081405451223
254,-13.288475183611347,-36.16358090523808,237.1406720479374,-17.853547603957196,9.773674301288777,30.55553036800469,240.27324252640776,46.32616536267005
255,-12.926288900138935,-36.24124458144249,237.21352172850385,-20.83989661732294,8.894408784633479,30.063371292751963,240.33951879030374,47.19306587223228
256,-12.566079681512697,-36.36295108045434,237.2631766126557,-23.880102225387464,8.188495647771216,29.471048750418767,240.3908633350023,48.23763255931341
257,-12.208787382316933,-36.52822569928306,237.2881987530522,-26.95533597872165,7.652706384715963,28.78738632539931,240.4258149003425,49.43413264494075
258,-11.855255002499781,-36.73583319145493,237.2875590670188,-30.043242502009704,7.28498922999254,28.021377580144883,240.4431790562395,50.75555749817544
259,-11.506227853641105,-36.98373065973379,237.26066847900918,-33.1183720496866,7.084605358071399,27.182107223431217,240.44205146943327,52.1742552254054
260,-11.162353318878518,-37.26904408422931,237.20739597942912,-36.15281652221761,7.0521804578345595,26.27868589939083,240.42183221748513,53.66261597991805
261,-10.824181193531816,-37.58807129720169,237.12807256989723,-39.117020788242975,7.18967471266174,25.320192902567143,240.38223059855335,55.193799950430474
262,-10.492164437315195,-37.93631313019899,237.02348110131214,-41.98073249936319,7.5002773122066335,24.31562133808201,240.3232607306499,56.74249243623459
263,-10.166660154449044,-38.30853334298389,236.89483303255176,-44.714046279781336,7.988234298134885,23.27382078590386,240.24522906450963,58.285664265520104
264,-9.84793077987109,-38.69884695102473,236.743733780155,-47.288491945373565,8.658620793697946,22.20343348310674,240.14871541318192,59.80331000371635
265,-9.536145730056532,-39.10083568820642,236.57213850101675,-49.678112283625296,9.517070387687541,21.11282144489592,240.03454913345468,61.27913206662381
266,-9.231384064485795,-39.50768841740885,236.38230006786497,-51.86047507391041,10.56947551992028,20.00998363453156,239.90378186563606,62.70113697236262
267,-8.933638924006269,-39.912363180664855,236.17671098056238,-53.81756677505767,11.821673070503802,18.90246387786318,239.75765803927123,64.06211086035691
268,-8.642824637680812,-40.30776628998053,235.9580411767962,-55.53652114923462,13.279129024292414,17.797251357621736,239.59758435670105,65.35994477939903
269,-8.358787376405441,-40.68694263671105,235.72907404598988,-57.010144263130506,14.946635189953785,16.700676241323492,239.4250995931397,66.59778562950473
270,-8.081320043143746,-41.04327048274884,235.49264310650565,-58.23720717771377,16.828029544627846,15.618303661483665,239.24184603678754,67.78399566110681
271,-7.8101817896861645,-41.37065342980427,235.25157158998607,-59.22248871246925,18.925949719188917,14.554830138842695,239.0495435577657,68.93191171441603
272,-7.545122263865819,-41.66370197064638,235.00861669592604,-59.97656249495964,21.24162630407159,13.513987454474545,238.84996674213616,70.05940442453556
273,-7.285910447524324,-41.91789706435361,234.76641979865707,-60.515334670120744,23.774719176120502,12.49845955667756,238.64492503369559,71.18824691494734
274,-7.03236763725377,-42.12972874763381,234.52746356080968,-60.85935075967726,26.523196360929663,11.509818126770954,238.43624557937756,72.34331163289053
275,-6.78440366223767,-42.2968039921188,234.29403668814214,-61.03290171446697,29.48325158388882,10.548481967618658,238.2257584482384,73.55162248329361
276,-6.542054910916699,-42.4179196335814,234.06820686429816,-61.062969412433304,32.64925403679573,9.613704536851468,238.0152839684962,74.84129662773763
277,-6.305522350138947,-42.49309784275774,233.85180224212712,-60.978059801115485,36.01372221734164,8.703592790773708,237.80662204540565,76.2404154679432
278,-6.075207581028207,-42.523583039795945,233.64640175423978,-60.806976816316606,39.567313045367904,7.815159070749466,237.60154345657898,77.77586688236431
279,-5.851745009273512,-42.51180041673725,233.4533343079521,-60.57759181911039,43.29881775231767,6.944406109318862,237.40178314779786,79.47220063839838
280,-5.636028277789939,-42.46127746095118,233.2736864884266,-60.31566183954736,47.195157132682105,6.08644348717345,237.20903533573457,81.35053649414618
281,-5.429229190907785,-42.37653112221557,233.10831777289894,-60.04374615588808,51.241370512869416,5.23563227869951,237.02494983630814,83.42756069179197
282,-5.23280751080397,-42.26292450792724,232.9578817251552,-59.78026554471271,55.420595197100255,4.385753447584595,236.85112873623189,85.71464227664693
283,-5.048510257026816,-42.12649813281898,232.82285135171978,-59.5387423550142,59.714036212164416,3.5301948622406925,236.68912244984242,88.21709654169014
284,-4.878359460639098,-41.97378166447094,232.7035466574108,-59.327252231086355,64.1009298759166,2.6621514653481424,236.54042422835946,90.93361897873231
285,-4.7246276769220295,-41.811592728410105,232.60016228258615,-59.14810949995928,68.55850891270485,1.7748330648198636,236.40646214844568,93.85590923468052
286,-4.589800961334157,-41.6468297273565,232.5127929452233,-58.99779810985915,73.06198119021856,0.8616744279675109,236.28858752109934,96.96850059290597
287,-4.476529538787106,-41.48626592614063,232.44145434670838,-58.86714960134547,77.58453809905983,-0.08345716471848748,236.18805865548813,100.24880647161321
288,-4.387567046749274,-41.33635234249568,232.38609728237904,-58.74176060619657,82.09741144481782,-1.0660611412837149,236.10601905256766,103.66739155065464
289,-4.325699847405693,-41.20303713833294,232.3466130102976,-58.6026361875627,86.56999881524932,-2.090813384588215,236.04346944920613,107.18847151472042
290,-4.293668309581026,-41.09160886517277,232.32282869508902,-58.42704169645465,90.97007630544482,-3.1613902028566927,236.00123383953746,110.77064158011476
291,-4.29408215068514,-41.006569758792395,232.31449310944245,-58.189542153324226,95.26411418538851,-4.280310680670103,235.97992076325696,114.36782871003538
292,-4.3293320229218475,-40.95154335249855,232.32125449665486,-57.863200858511746,99.41770585961345,-5.44880215148571,235.9798825372434,117.93045432493851
293,-4.4014996148358145,-40.92921837566421,232.3426339698551,-57.4208962099058,103.39611372561446,-6.6666937051764,236.00117618561615,121.40678297267488
294,-4.512268651924665,-40.9413286284558,232.37799852035218,-56.83669957383643,107.16492772476431,-7.932342179600468,236.04353013878634,124.74441892893798
295,-4.662839388795348,-40.98866652003871,232.42653752891766,-56.087242354407614,110.69082396379964,-9.242594169236954,236.1063202661307,127.89189920719919
296,-4.85384955519593,-41.07112635190839,232.48724591731266,-55.15299192635939,113.9424022920046,-10.59278646911908,236.18855779508542,130.8003204098271
297,-5.085305166266284,-41.18777225254021,232.55891616144953,-54.019356419378596,116.89107366823596,-11.976786114199205,236.28889056860214,133.4249302444518
298,-5.356524944005797,-41.33692488663893,232.64014059847003,-52.67754751123325,119.51196101739382,-13.387069727486056,236.40561817678483,135.72661332435956
299,-5.666102198547127,-41.516260670731974,232.72932485906662,-51.12514668158677,121.78477155930327,-14.814840285665545,236.53672082771527,137.67320483017224
300,-6.011887844328573,-41.72291731385581,232.82471273603173,-49.36634126042601,123.69459489992079,-16.25017776789041,236.6799013085992,139.24057368435624
301,-6.3909977097026935,-41.95360013450876,232.92442221051303,-47.411819426182575,125.23258017589816,-17.68221862904765,236.8326388976542,140.41342782798566
302,-6.799846352070191,-42.20468468256793,233.02649160841716,-45.27833570012941,126.39644779188417,-19.099357812058564,236.99225351314763,141.18580691040313
303,-7.234208258984378,-42.47231243549534,233.12893394347284,-42.987978586878924,127.1907969647049,-20.489466262449515,237.15597767060922,141.56124136645948
304,-7.689305812132368,-42.75247743296574,233.2297964993106,-40.56718862504163,127.627179040006,-21.84011674927599,237.32103298460046,141.55257079668974
305,-8.159921916791525,-43.041102533413294,233.3272218179414,-38.04558762587545,127.72391761634732,-23.138811217760324,237.48470717913298,141.18142823959067
306,-8.640533811021799,-43.33410463301356,233.4195058029636,-35.454688023877296,127.50566904547362,-24.373203762281697,237.64442718470954,140.47740991953793
307,-9.125463292402854,-43.62744886893027,233.50514883185676,-32.826554984430516,127.0027301334805,-25.53131445613811,237.7978241526159,139.47696210438662
308,-9.609037555962567,-43.91719257519635,233.58289658572716,-30.1924934093941,126.25011319665177,-26.6017306171756,237.94278710330173,138.22202764766487
309,-10.085754150333429,-44.19952045631846,233.65176855086028,-27.58182770425256,125.28642137780652,-27.573793539495462,238.07750323451583,136.75850443873716
310,-10.550443245540869,-44.47077296970533,233.71107356868995,-25.02083465531122,124.15256858609949,-28.437770085787964,238.20048437412552,135.13457601180164
311,-10.99842042968978,-44.7274702145879,233.7604131394292,-22.531879487422586,122.89039776949235,-29.18500953183736,238.3105804007407,133.39898043680526
312,-11.425623618034813,-44.966333700286434,233.79967419435343,-20.132792617601595,121.541257628544,-29.80808646399509,238.40698145370976,131.59928669335943
313,-11.828728383675458,-45.18430818967223,233.82901365603496,-17.836510446698412,120.14460068726802,-30.300930304742135,238.48921132794987,129.78024750455447
314,-12.205237069018816,-45.37858536208185,233.84883735235275,-15.650988600012411,118.73666460183408,-30.65894128888517,238.55711464140367,127.98229390243853
315,-12.553538333369554,-45.54663033831216,233.8597758263857,-13.57938128873594,117.34929391245964,-30.87909158737248,238.6108402616986,126.24022979866042
316,-12.872935246418997,-45.68621125360426,233.86265936322226,-11.620466820000637,116.00895170160082,-30.96000889998899,238.65082316911057,124.58217503169584
317,-13.163641510126354,-45.795431197375116,233.8584941458087,-9.769287461071746,114.73596062053228,-30.902038338824585,238.67776644329462,123.02879347593542
318,-13.426746667008524,-45.872761112476965,233.8484407556904,-8.017962352814973,113.54400133881744,-30.707277037079187,238.69262430849943,121.59282967323666
319,-13.664152067787239,-45.91707175267891,233.8337951864349,-6.356625255871305,112.43988435481889,-30.379575022026987,238.69658609953763,120.27896388933588
320,-13.878479973032833,-45.927662541055874,233.81597134669704,-4.774434688464204,111.42359876675253,-29.92449587863583,238.69105982766433,119.08398215177277
321,-14.0729586758007,-45.904285153564935,233.79648311837846,-3.2606022922032145,110.48862944236527,-29.349231822369994,238.67765315914826,117.99724519797417
322,-14.251287140531419,-45.84715990523039,233.7769236952756,-1.8053856176459808,109.6225224782467,-28.662469986637095,238.6581493733679,117.00142877908321
323,-14.41748336120655,-45.756983525363424,233.75894014007963,-0.40099355175146495,108.80766835633823,-27.874209799630194,238.63447621939287,116.07349775944058
324,-14.575721358773269,-45.6349275487608,233.74420168859743,0.95764376959643,108.02226316093713,-26.99553487395699,238.6086663392373,115.18586812674756
325,-14.730162421432551,-45.48262713577867,233.7343611824491,2.272283192284226,107.24140092009414,-26.03834633260713,238.58280891848676,114.307704541163
326,-14.884786826887792,-45.30216048381258,233.73101006787127,3.5409895839467826,106.43824488349964,-25.01506745077262,238.55899336887236,113.40629665154614
327,-15.043232787802378,-45.09601901233377,233.73562853879105,4.757993568754484,105.58522266552676,-23.93833155259851,238.5392470024806,112.4484554389613
328,-15.208649551005673,-44.86706829927364,233.74953340062007,5.913796335741754,104.6551899779829,-22.820666060420102,238.52546961139782,111.40187161572563
329,-15.383571260210667,-44.61849960027035,233.7738268381534,6.995516399627927,103.62251043687162,-21.674185395460132,238.5193684177572,110.23638176219129
330,-15.569817272908429,-44.35377193858182,233.80934937522147,7.987457026063896,102.46400488054813,-20.510304211473514,238.52239694037172,108.92509439816702
331,-15.768423182907082,-44.07654526160333,233.85664002572892,8.871857903670586,101.15973282672734,-19.339480543074707,238.53570105854214,107.44533734403173
332,-15.979605020801491,-43.79060591504356,233.91590614040317,9.62978227891913,99.69358075245876,-18.17099629175017,238.56007511282954,105.77939904003112
333,-16.202757194128758,-43.49978652152121,233.98700481780224,10.242082488100241,98.0536458310122,-17.012780385361484,238.5959303099784,103.91504911426415
334,-16.43648290241819,-43.207883091616644,234.06943699574367,10.690383280535723,96.2324180400695,-15.871278064776963,238.64327699382673,101.8458362176518
335,-16.678654212661783,-42.918572707084444,234.16235462790672,10.9580235535612,94.22677632147534,-14.751368060993773,238.70172164452228,99.57117261500989
336,-16.926497837420076,-42.63533533061816,234.2645808610081,11.030902670252447,92.03782411291535,-13.656327892024967,238.7704789487613,97.09622409116001
337,-17.176701965194372,-42.36138320727943,234.3746428062843,10.898186638653861,89.67059519486263,-12.587846137913024,238.84839889538455,94.4316298397606
338,-17.425539194139436,-42.099600963765404,234.49081608183954,10.55284112135379,87.13366245539838,-11.546079369688808,238.9340083414693,91.59308029778758
339,-17.66900054786816,-41.85249893664806,234.61117961075553,9.99197140037198,84.43868072643909,-10.529750413742178,239.02556569024523,88.6007820088307
340,-17.902935481820197,-41.62218152184616,234.73367828303537,9.216962800795814,81.5998915061094,-9.536283794579482,239.12112630833735,85.47883824706513
341,-18.12319260194528,-41.410331485968015,234.85619030132983,8.23342740818725,78.63361326142956,-8.561973461249353,239.21861535784456,82.25457276885076
342,-18.325755631187675,-41.21821030848905,234.9765955789536,7.050973171213183,75.55773683121939,-7.602177198887053,239.31590409714974,78.95782188644402
343,-18.50686923163786,-41.04667387380909,235.09284151748383,5.682819133964829,72.39124154173263,-6.651531437455475,239.410885527782,75.62021719450213
344,-18.66314981764779,-40.8962022611943,235.20300278439535,4.145285618159362,69.1537440560148,-5.704179604406213,239.50154548378472,72.2744778833942
345,-18.791677515173166,-40.76694185064692,235.30533226218265,2.457191099784749,65.86508868353188,-4.754006925842047,239.5860257823698,68.9537278943009
346,-18.890066788604887,-40.6587572987865,235.39830112647013,0.6391888747503808,62.544984942206845,-3.7948747788000836,239.66267681862502,65.69084953186979
347,-18.956514683422366,-40.57129018623873,235.48062696553077,-1.2869231220674362,59.21269573197336,-2.8208482659948517,239.73009791043373,62.51788185813262
348,-18.98982688452498,-40.50402056718675,235.5512898265692,-3.2988865405261736,55.88677762843125,-1.826411441577385,239.78716465726964,59.465469417287494
349,-18.989422796851443,-40.456327516751344,235.60953691929242,-5.374629523038557,52.584873426961835,-0.8066653925143107,239.83304346102938,56.562364554829756
350,-18.955321613301876,-40.42754510314336,235.65487736483303,-7.492847550482829,49.323555886726204,0.24249493349213003,239.8671941155509,53.83498465631219
351,-18.88811182740513,-40.417010823229596,235.68706884897261,-9.633493584592602,46.118220383180514,1.3242287150391414,239.8893619724497,51.30702399896871
352,-18.788906900128374,-40.42410421863796,235.70609827120552,-11.77815863512286,42.98302280585871,2.440625195367961,239.89956154957423,48.99911876559987
353,-18.65928986128815,-40.448274070036184,235.7121583387624,-13.910331217574635,39.93085765753875,3.59261032283723,239.89805342571256,46.928563417784375
354,-18.50124952867656,-40.48905332946674,235.7056215126115,-16.015532668758482,36.97337013186675,4.779886378765401,239.8853158541243,45.10907726255178
355,-18.317110771598344,-40.54606184659408,235.68701203901074,-18.081334272756685,34.120995176572585,6.000906227656084,239.86201200227356,43.55062160895268
356,-18.1094609449363,-40.6189978485298,235.65697638738226,-20.097270698238976,31.383016336295853,7.252882944937828,239.8289534561221,42.25927002481879
357,-17.88107443950668,-40.70761982318729,235.6162524563427,-22.054671249339147,28.767637526088635,8.531834487239134,239.7870607755255,41.2371362097021
358,-17.634837293489145,-40.8117208500523,235.5656383224982,-23.946434768352862,26.282061638821016,9.832661820339563,239.73732236050512,40.4823651070786
359,-17.373673928674148,-40.93109762261654,235.5059618792345,-25.76677492014306,23.932570753480277,11.149257581933476,239.68075349214166,39.989192490661566
360,-17.10047821550548,-41.06551650904268,235.43805322575056,-27.510959941596663,21.72460347770225,12.474641058824094,239.61835794159606,39.74807626184097
361,-16.818051109180857,-41.21467896949676,235.36272191499054,-29.175065494512594,19.662825573626368,13.80111417978559,239.55109478131124,39.745899444427636
362,-16.529046919953405,-41.378188407624144,235.28074096676903,-30.755752439443114,17.751190493108204,15.120432503939647,239.47985277854636,39.96624094498262
363,-16.235929883999418,-41.55552005056556,235.19283880847084,-32.25007482039212,15.992986776709527,16.42398485127201,239.40543390868808,40.38970622221421
364,-15.940942207628826,-41.7459947976028,235.09969913373658,-33.655318501359496,14.390869472748015,17.70297523555185,239.32854622661122,40.99430681853896
365,-15.646084242869021,-41.948757340760096,235.0019674020327,-34.96886849434419,12.946872959276698,18.948601062803167,239.2498049433738,41.755876008307254
366,-15.35310684403227,-42.16275847161008,234.9002617580149,-36.18810317387012,11.66240305595047,20.152222094571197,239.16973951944433,42.648508120278784
367,-15.063515155797555,-42.38674147740403,234.79518580661053,-37.310315815917,10.538207297275228,21.30551541374181,239.0888041937796,43.6450113712179
368,-14.778582135606102,-42.619232878332795,234.68734091032462,-38.33266726196702,9.574323765841703,22.400612586754303,239.00738959392635,44.71736766373692
369,-14.499369208174633,-42.85853832625535,234.57733621621193,-39.25217666918963,8.770010929805887,23.43021639485126,238.92583364538672,45.837196678237284
370,-14.226750835802134,-43.1027450265892,234.46579521518345,-40.06575887489412,8.123663415569444,24.387695818267787,238.84443063866973,46.97622453119554
371,-13.961439652096502,-43.34973229650936,234.35335821349804,-40.770315823217835,7.6327213390609,25.267159232842832,238.76343791311882,48.10675832187238
372,-13.704009186841299,-43.59719172799393,234.240680712411,-41.36288543251862,7.293583261175165,26.063506876774458,238.6830802169625,49.20216662031621
373,-13.454912009674858,-43.842657956165304,234.12842833014844,-41.840844743189834,7.1015344851609505,26.772464499312395,238.6035523935857,50.23736257346923
374,-13.214492174261057,-44.08355032246154,234.01726940962618,-42.20215639650467,7.050702865110434,27.3906006840542,238.52502148051406,51.1892815584238
375,-12.982991939514173,-44.31722478364481,233.90786670937928,-42.44563999649358,7.134053382532589,27.915330621827128,238.44762945498488,52.037340234351774
376,-12.760553649134255,-44.54103432498707,233.8008695623292,-42.57124418621732,7.34343056415676,28.344909077277435,238.3714977046095,52.76385959632022
377,-12.547218206096316,-44.752395094552114,233.69690763509254,-42.58029253139442,7.669654624493788,28.678414978921488,238.2967338972326,53.354432338985006
378,-12.342921772754686,-44.948854726980265,233.59658696297134,-42.475677317444585,8.10267335560411,28.915729567621817,238.22344134687515,53.798215381104654
379,-12.14749226399769,-45.12815902243049,233.5004883307814,-42.26198025407652,8.631767623326962,29.057509502619794,238.15173031589052,54.0881321122257
380,-11.960646991848002,-45.288313307755004,233.40916739437753,-41.945507121634655,9.245804283389843,29.10515583444479,238.0817300457389,54.22097528744338
381,-11.781992522007592,-45.42763534743137,233.32315532640735,-41.534233071611034,9.933526807560416,29.060779324048024,238.01359979164644,54.19740919424713
382,-11.61102745541214,-45.54479746874294,233.2429584227473,-41.03766469904056,10.683871168120028,28.927162220949647,237.94753692634637,54.021877047993556
383,-11.44714852118281,-45.638856494550524,233.16905519093513,-40.46663234195817,11.486292641298114,28.707716329567184,237.88378041932552,53.70242500447585
384,-11.289660139203535,-45.70927099175985,233.10189004376076,-39.833030065253396,12.33108813966484,28.406436986202174,237.82260874909508,53.250456737612836
385,-11.137787498469837,-45.75590608271267,233.0418637865061,-39.14952101873518,13.209698467018635,28.02785240022752,237.76433248343668,52.68043205316451
386,-10.990693138143818,-45.77902652950051,232.98932225234168,-38.429222901204696,14.114975530334828,27.576967674017517,237.70928298775752,52.00952020117019
387,-10.84749692979217,-45.77927900647936,232.94454512776,-37.685383564800865,15.041401020452653,27.059202770126245,237.65779942665102,51.25721472339261
388,-10.707299220066457,-45.757664540254886,232.9077369188054,-36.93105214490733,15.985245255170572,26.480323821827174,237.6102161366129,50.444913224939974
389,-10.569206759890196,-45.715502161864194,232.87902138680445,-36.178747979235425,16.944657541548853,25.84636751185567,237.56685184185537,49.59546341885405
390,-10.432360993798241,-45.65438497247331,232.8584400960395,-35.44012873066329,17.91968230496902,25.16355874961758,237.52800153835068,48.7326766163537
391,-10.295968314384677,-45.576130077179315,232.8459552008896,-34.72566046676313,18.912198105265933,24.43822253132527,237.49393141533923,47.88081140065479
392,-10.159331909466381,-45.48272414364238,232.841456188655,-34.044295259088045,19.925779312008494,23.67669164926722,237.46487683865902,47.0640329559524
393,-10.021884748553475,-45.37626662143383,232.84476985550572,-33.40316518416681,20.965482543933252,22.885212753663197,237.44104303983082,46.305856657814346
394,-9.883223072984581,-45.258912852051765,232.855672348742,-32.80730455970599,22.037562042471983,22.069853997689762,237.42260774855703,45.628587367134614
395,-9.743139544020625,-45.1328193840103,232.87390182653726,-32.25941418345074,23.14912010830674,21.236417923237887,237.40972473729016,45.05276792742952
396,-9.601655022742447,-45.00009374228998,232.89917030192473,-31.759681856668394,24.30770072899611,20.39036328389684,237.40252724282956,44.59665141807626
397,-9.459047830030528,-44.86275060038564,232.93117352745432,-31.30567243422173,25.520836576737292,19.53673920216579,237.40113045338754,44.275711752954464
398,-9.315879271963068,-44.72267574234184,232.96959820684808,-30.892298172334122,26.795561560380218,18.68013452180259,237.40563256486283,44.10220638046331
399,-9.173014191079528,-44.581598505531396,233.01412626813973,-30.511876569227606,28.137902977431146,17.824644512285925,237.4161142199843,44.08480337832581
400,-9.031635288114273,-44.441072747554585,233.06443634946018,-30.154278701995146,29.552368946030334,16.973856268487715,237.4326364332205,44.22828342878315
401,-8.893249983235984,-44.30246589027911,233.1202030136215,-29.80716685582858,31.04144806858872,16.130853348544157,237.45523737418497,44.53332528980731
402,-8.759688706562269,-44.16695526179019,233.1810944552536,-29.456316544897586,32.605139028210154,15.298239569790484,237.48392857036455,44.99638166226846
403,-8.633093700972577,-44.035530755353854,233.2467695097345,-29.086015072060224,34.240527971257194,14.478181489242312,237.5186911070051,45.60965086364596
404,-8.51589759260602,-43.909002756219024,233.31687461582374,-28.67952650052708,35.94143112131079,13.672468787108256,237.55947224419617,46.3611483688554
405,-8.41079108755572,-43.78801433976876,233.39104112031683,-28.21961111264337,37.69811916392929,12.882591325666926,237.60618262948248,47.23488089103859
406,-8.320679239683452,-43.67305684790204,233.46888304282766,-27.689085902049847,39.497138559576605,12.10983097505473,237.6586940457004,48.21112407997057
407,-8.248625917723777,-43.56448805748433,233.5499951828529,-27.071411215242428,41.32124307720232,11.355365471698985,237.71683743397864,49.266803006231996
408,-8.197786476376423,-43.46255229879018,233.6339512803026,-26.351287215682753,43.14944647279792,10.62038075207443,237.7804008109478,50.375972311619186
409,-8.171329215983572,-43.367402072819026,233.72030190528878,-25.515242371425366,44.95720431086614,9.906187476886887,237.84912672817612,51.510390184815414
410,-8.172346914937098,-43.27912086513287,233.8085718841532,-24.552194773038412,46.716729374598295,9.214336891461922,237.92270911043082,52.64017715964279
411,-8.20376041062779,-43.197746862403825,233.89825727695157,-23.45396600200775,48.3974409466747,8.546730825208082,238.00078954598771,53.734547259979706
412,-8.268216756899282,-43.123297127515855,233.98882208513382,-22.215726802517565,49.966543609535755,7.905720526808622,238.08295325921478,54.7625954952553
413,-8.36798480554847,-43.055791531766594,234.0796949698889,-20.836354273633603,51.38972629724928,7.294189079282762,238.16872506307163,55.69412242064478
414,-8.504851184707164,-42.995275470091315,234.17026639798544,-19.318681919346933,52.631967255906986,6.715612271350669,238.25756568017502,56.50047359840106
415,-8.680019778547496,-42.94184018594398,234.25988689073498,-17.66962678953162,53.65842542815364,6.174093077040041,238.34886904519405,57.15536945175153
416,-8.894018162094717,-42.89563943040379,234.34786736342656,-15.900182168475755,54.4353937450667,5.674365467346311,238.441961501939,57.6356993522332
417,-9.146615034205855,-42.85690113727874,234.4334826907713,-14.02526980178928,54.931285187676394,5.221764292167624,238.53610396633078,57.922253035161155
418,-9.436753312933018,-42.825932800968815,234.51597945823772,-12.063452322567517,55.117618629010884,4.822159501871244,238.6304979736808,58.000362742322125
419,-9.762503899036211,-42.80311937342084,234.5945883703363,-10.03651391479549,54.96996871823424,4.481854973244735,238.72429607831785,57.86043082697045
420,-10.12104493285338,-42.78891286712488,234.66854107975226,-7.968924655850995,54.46884272785033,4.207454443682846,238.81661643213343,57.49831978134921
421,-10.508670589548085,-42.783813490836565,234.73709041792787,-5.88721063503983,53.600447666825055,4.005699202906943,238.90656067945642,56.915584668601824
422,-10.920832127408257,-42.78834292107971,234.7995323834807,-3.819257189666106,52.35731334533652,3.8832839273315396,238.99323377790924,56.11953183774152
423,-11.352212114779759,-42.80301103251898,234.85522800636014,-1.7935759882126001,50.73874158911465,3.8466581825496284,239.075764178691,55.12309276189901
424,-11.796830655906987,-42.82827797211754,234.90362338997335,0.16143203743761125,48.751058351788444,3.901821617345179,239.15332299671266,53.944508020490474
425,-12.248180280487064,-42.864513856282144,234.9442666822329,2.0181868812927655,46.40765376120019,4.054120778813993,239.22514122114353,52.60682385530449
426,-12.699384306303813,-42.91195859774207,234.97682122844685,3.7505849408659295,43.728804674872165,4.308054905553347,239.29052446323757,51.13721216587587
427,-13.143372178004313,-42.970684439152855,235.00107454890477,5.3345770943992346,40.74128446652916,4.667097140104915,239.34886505891947,49.56613381372721
428,-13.573064533424674,-43.040563722087086,235.0169429851403,6.748653195718566,37.47777475692024,5.133536464582359,239.399651472741,47.92637396785734
429,-13.981560372837434,-43.121244257918605,235.02447193145287,7.974223884470478,33.976102839387295,5.708344414117281,239.4424749444584,46.25198606631929
430,-14.362318541356183,-43.21213431925596,235.0238316699003,8.99589747670922,30.278335955495002,6.3910693780501004,239.47703331886774,44.577186943650105
431,-14.709325790575345,-43.312398679871585,235.01530906374052,9.801655748132145,26.429768931324528,7.17976016670193,239.50313210265705,42.9352491745055
432,-15.017244148705979,-43.42096633901398,234.99929571723496,10.38293729904605,22.477844830820295,8.070919557787176,239.52068300204556,41.35743740522997
433,-15.281531402605939,-43.536549648081355,234.97627357742672,10.73464076899162,18.471049220181968,9.059487741975643,239.5297004419036,39.8720333233812
434,-15.498530203697007,-43.65767356899554,234.94679919328613,10.85506241209347,14.45781748649497,10.138854965841443,239.53029672529826,38.50348908526731
435,-15.66552341505938,-43.78271285149361,234.91148783435426,10.74578335360799,10.485491675200148,11.300902266991448,239.52267644449364,37.27174186264045
436,-15.780755418357737,-43.909934218079464,234.87099839866883,10.411521033328393,6.5993588787563615,12.536069062307533,239.50713049869114,36.191713388782794
437,-15.843420861014426,-44.037540314555706,234.82601964487992,9.85995675956708,2.8417977101354044,13.83344648369397,239.4840297389568,35.27300897479087
438,-15.853623648866154,-44.16371220855416,234.7772579480352,9.101547066665532,-0.7484468054844479,15.180895646307883,239.45381801586552,34.519821410888014
439,-15.812309956252818,-44.28664758656095,234.72542661510894,8.149321203072896,-4.136846075628074,16.565190260007146,239.41700436739856,33.93103704194945
440,-15.721179706228064,-44.40459254464712,234.67123680101724,7.0186614632939515,-7.29352097061408,17.972182929925676,239.37415426380045,33.500534173726024
441,-15.582581374572358,-44.51586591132007,234.61539015639275,5.727058308926554,-10.193523131972613,19.386994044520854,239.32588012848322,33.21765766103953
442,-15.399395091377997,-44.618876131449554,234.55857342789426,4.293829330869284,-12.816967335317177,20.794221362490322,239.2728316470941,33.06784802217447
443,-15.174908901729154,-44.712131602581486,234.501455261111,2.7397907548413953,-15.149021329382649,22.1781673628147,239.21568655390504,33.03339894233078
444,-14.912692816619384,-44.79424583791249,234.4446853936959,1.0868725006365736,-17.179762390247518,23.523080193410262,239.15514259446348,33.09431390850091
445,-14.616475053036696,-44.86393895095763,234.38889627874866,-0.6423276581455802,-18.90391220946001,24.81340275847023,239.09191122390553,33.229231138134196
446,-14.29002465210953,-44.92003687312716,234.33470697988886,-2.4250493310242827,-20.320464010293282,26.034023278578122,239.02671337606185,33.41638577062869
447,-13.937044415262754,-44.96146960288247,234.28272895063898,-4.238926228560205,-21.432218071515372,27.17051970884638,238.960277377987,33.6345790659913
448,-13.561077737796646,-44.98726970248463,234.2335730486125,-6.062580479673675,-22.245244059218365,28.20938988815351,238.8933387910011,33.864125688664174
449,-13.165432381958729,-44.996572164592806,234.18785684656197,-7.876235835778237,-22.7682905616217,29.138259391973754,238.82664162912016,34.08775184542659
450,-12.753123462608471,-44.98861663587302,234.14621103114592,-9.66232775966282,-23.012163763821476,29.94605985719596,238.76094007425397,34.29141906423502
451,-12.326836919201025,-44.962752816771115,234.10928349025139,-11.406086781190805,-22.989097999528685,30.623171963620198,238.69699954003772,34.46505074041452
452,-11.888913603323749,-44.91844965712263,234.0777396195342,-13.096071474400174,-22.712140699375748,31.161529063456072,238.6355957757087,34.60314117577459
453,-11.441352967287585,-44.85530871894378,234.05225744781944,-14.724628747753602,-22.194572913968496,31.554679327475213,238.57751067101216,34.705229593647836
454,-10.985834357252102,-44.77308179733484,234.03351645530427,-16.288261526626712,-21.44938429393535,31.797805947228994,238.52352359793903,34.77622446874506
455,-10.523753211305308,-44.67169265528378,234.02217951288327,-17.787886936913544,-20.48881853134707,31.887706307237824,238.47439759741238,34.82656649026899
456,-10.056269063944653,-44.551262573146495,234.0188681635919,-19.228971292222095,-19.32400215872811,31.822732222487502,238.43086045474828,34.87222161643422
457,-9.58436209955696,-44.41213923240654,234.02413236486373,-20.621531146638457,-17.96466642633835,31.602694473235196,238.3935815532408,34.934498950198744
458,-9.108894980316645,-44.25492811475102,234.03841666035058,-21.979992323185254,-16.418968721422036,31.22873602284648,238.3631461717066,35.039691548152945
459,-8.630676737682682,-44.08052512193341,234.0620253097737,-23.322901509653864,-14.693416543443886,30.703179441054452,238.34002936103346,35.21854188105552
460,-8.150525662006523,-43.89014863269525,234.09508891555572,-24.672488305185944,-12.792893275427973,30.029355097050473,238.32457146387847,35.50553773869884
461,-7.669328357791401,-43.685368767177906,234.1375345794286,-26.054079958082383,-10.720780892190177,29.21141754050934,238.316956774033,35.93804913267093
462,-7.18809242920817,-43.46813121287273,234.18906096545263,-27.495376528019325,-8.479170585155964,28.254158045253302,238.3171961223954,36.55532221841238
463,-6.707990615248224,-43.240772648880586,234.24911916563573,-29.025600485392104,-6.069148504279539,27.16282145049363,238.32511365962682,37.397352178254046
464,-6.23039462327436,-43.006024791671,234.31690001305924,-30.674541228584644,-3.4911408165129547,25.94293515834111,238.34033787141155,38.50366292782797
465,-5.75689736843692,-42.76700452812241,234.39132837921682,-32.471521038694384,-0.7453002814085286,24.60015745375536,238.36229685292932,39.912026932564984
466,-5.289322708433724,-42.52718840484889,234.4710649605428,-34.44431410068488,2.1680843938748633,23.14015122130744,238.3902179972301,41.657162895303806
467,-4.829722054660304,-42.290370654233435,234.5545160227113,-36.61805403373426,5.24817512797036,21.56848763948329,238.4231323896303,43.76945220663648
468,-4.380357588084317,-42.06060479792873,234.63985141555838,-39.01416764991467,8.493184881246636,19.89058260527714,238.45988420868403,46.27371655443522
469,-3.943672361159183,-41.84212967491354,234.72503084543555,-41.649373320529435,11.900008459523821,18.11166668183332,238.49914526758727,49.188098889051716
470,-3.5222483160918965,-41.63928154373332,234.80783795977533,-44.53478149070907,15.463898373232515,16.23678751721365,238.53943456048427,52.52308816779464
471,-3.118754050415779,-41.456394766429185,234.88592137560195,-47.67513278882072,19.178198015180254,14.270842098153986,238.5791424262213,56.28072516918038
472,-2.7358848516756145,-41.29769452894168,234.9568414514508,-51.06820604316843,23.034141469667137,12.218634898418797,238.6165587906405,60.45402231402756
473,-2.376297994778156,-41.167185996863054,235.01812138139525,-54.7044244256228,27.02072579436154,10.084956945148228,238.6499048993197,65.02662488762412
474,-2.0425464997286475,-41.068545026993796,235.0673010624318,-58.566682830699236,31.124657783473594,7.87468007696806,238.6773679485576,69.9727343222981
475,-1.7370144772984941,-41.005015859827715,235.10199212471565,-62.630413287424176,35.33037344440476,5.5928602183385,238.6971380038074,75.25730632146684
476,-1.4618568673311505,-40.97932104971309,235.11993249134628,-66.86389745041309,39.6201253350363,3.24484331781237,238.70744652912953,80.8365277562583
477,-1.2189458519779623,-40.993588318469975,235.11903883653983,-71.22882592240055,43.974131086437424,0.8363676800670331,238.7066057404988,86.65856680041583
478,-1.009825584276185,-41.04929815647649,235.09745536470214,-75.68109356001466,48.37077607698724,-1.6263431701707283,238.69304788802364,92.66458117746723
479,-0.8356762212843568,-41.1472548988126,235.0535975009468,-80.17180860138289,52.786864073336275,-4.136502131204054,238.66536354100836,98.78996011271374
480,-0.6972877439867478,-41.287582673652075,234.98618939725685,-84.64848224392261,57.19791114902819,-6.686698494994024,238.62233802779974,104.96576688320424
481,-0.5950438126411693,-41.46974610714042,234.89429456148645,-89.05635510864523,61.578479701544744,-9.268858607656748,238.56298532204534,111.12034095392606
482,-0.5289159114981714,-41.692594114142516,234.7773392898495,-93.33980879085351,65.9025504353798,-11.874228081666994,238.48657877174332,117.18101193959819
483,-0.4984680750163915,-41.95442368169677,234.63512882092138,-97.44380528180271,70.14393054958018,-14.493375051090474,238.39267805841865,123.07587262337093
484,-0.5028723600582332,-42.2530594550592,234.46785621126594,-101.3152950745793,74.27669599756058,-17.116212879461816,238.28115166360882,128.73555558155823
485,-0.5409348789220055,-42.585944348030615,234.27610394080685,-104.9045363914808,78.27566443499937,-19.732040059181447,238.15219402083804,134.0949578008103
486,-0.6111316965887195,-42.95023637388748,234.06083828024455,-108.1662727608068,82.11689312115729,-22.32959480099496,238.00633654377955,139.09485966668174
487,-0.7116533384614889,-43.34290731166647,233.8233965113797,-111.06072328692302,85.77819254601789,-24.897121939892564,237.84445184513973,143.68338817030426
488,-0.8404562010641822,-43.760839485600926,233.56546718607905,-113.55434848571527,89.23964222875304,-27.422450201924843,237.66775066452527,147.81727850701628
489,-0.9953189363850237,-44.20091762284124,233.2890638087693,-115.62036382122324,92.4840905549355,-29.893078477434212,237.47777133496078,151.46289311230802
490,-1.1739019288426242,-44.660113242495534,232.9964927086615,-117.23898280230176,95.49761636762184,-32.29627037668334,237.27636207257638,154.59696266374482
491,-1.373808239361581,-45.135559209698854,232.69031640282728,-118.39738175191296,98.26992697574306,-34.619156869575825,237.06565692413264,157.20702006240137
492,-1.5926447224880749,-45.624612075977886,232.3733142913443,-119.08938931229474,100.79466592869451,-36.84884716276558,236.8480467268425,159.29150638492322
493,-1.8280822728894615,-46.12489983991854,232.04844287031466,-119.31491540664534,103.06960485662064,-38.97254812884055,236.62614676666158,160.8595376087425
494,-2.0779142194332874,-46.63435292232826,231.71879762554101,-119.07914650628071,105.09669722016163,-40.97769260331883,236.40276281860736,161.93033262570432
495,-2.3401117561820217,-47.15121646181158,231.38757834284857,-118.39154618507766,106.88197802165831,-42.85207676119857,236.18085688246455,162.53231644254984
496,-2.612875030316709,-47.674042503550325,231.05805888577956,-117.26471138253596,108.43530214932694,-44.58400660789245,235.96351333534056,162.70192693501565
497,-2.8946781041616516,-48.20166134829271,230.73356173750534,-115.71314462317679,109.76992436182977,-46.1624533681906,235.7539056124379,162.48216804819936
498,-3.1843054725203968,-48.73313232749196,230.4174368375139,-113.75200967004199,110.90193478726114,-47.57721723475403,235.55526297229625,161.92096551779264
499,-3.480877275175435,-49.26767553302168,230.1130434316524,-111.39594197145063,111.84957375795078,-48.81909857154334,235.37083636268417,161.0693915952152
500,-3.783860032011883,-49.80458738431647,229.8237328958617,-108.65798543076198,112.63245756119163,-49.88007528152149,235.20386194013923,159.979831840719
501,-4.093059819375305,-50.34314418215503,229.55283006130057,-105.54872335850918,113.27075150724441,-50.753484636164465,235.0575206392726,158.70416926074003
502,-4.408595365599622,-50.88249884705551,229.30361062468506,-102.07566383858553,113.78432845304648,-51.43420741741629,234.93489247314662,157.2920588212822
503,-4.730849562510588,-51.42157673184733,229.07927262243194,-98.24292815296674,114.19194997603712,-51.918851783355905,234.8389048001272,155.78935908082056
504,-5.060399247832105,-51.95897660053895,228.8829004350004,-94.05127578571066,114.51050457994013,-52.20593393409273,234.77227434528217,154.2367783355838
505,-5.397924602275759,-52.492882597678246,228.71742035881806,-89.49848179958923,114.75433354885769,-52.29605251203256,234.73744330292138,152.6687815619669
506,-5.744100967646906,-53.02099249248933,228.58554763527434,-84.5800632516272,114.93467099261606,-52.19205373520597,234.73651060107719,151.1127927084528
507,-6.099477256773053,-53.5404668646819,228.4897260428677,-79.29033197324459,115.05922041216304,-51.89918445391733,234.77116049877415,149.58871514369832
508,-6.464346339622696,-54.04790321652736,228.43206252021636,-73.62373250459984,115.13188549907737,-51.42523048801345,234.84259189945197,148.10878138800132
509,-6.8386138334430555,-54.53933809552888,228.41426042947424,-67.5764070889101,115.15266741885735,-50.78063757804143,234.9514527097173,146.6777314470715
510,-7.221672614026567,-55.01027905633564,228.4375557451452,-61.14791518974049,115.1177341900067,-49.978611944946536,235.09778398242634,145.2933070306272
511,-7.612291027770432,-55.455766740328215,228.50266059444255,-54.343023834420876,115.01966001778446,-49.03519673602331,235.2809784008954,143.94703696155455
512,-8.00852301199729,-55.87046573794726,228.60971820771329,-47.17347804005316,114.84782408249373,-47.96931952733006,235.49975695370227,142.62527786569683
513,-8.407647930835378,-56.2487814052007,228.75827253450097,-39.65965819488579,114.58895015963284,-46.80280462974221,235.7521665221383,141.31046466323647
514,-8.80614685857639,-56.5849984588948,228.9472546567998,-31.832033591675657,114.22776154217064,-45.56034243919315,236.03559967299765,139.9825182584126
515,-9.199720367265146,-56.87343594939474,229.17498684409122,-23.732327968030646,113.74772096940274,-44.26940686332753,236.34683637171062,138.62035372643004
516,-9.583350735383513,-57.108612143321245,229.43920385446845,-15.414323475018879,113.13182331134571,-42.96011134802563,236.6821058228529,137.20343157044888
517,-9.95140904215292,-57.28541207892123,229.7370900758413,-6.944243799656264,112.36340978874166,-41.6649944771504,237.0371654214339,135.71329731004778
518,-10.297804991962971,-57.399250271971574,230.06533034413366,1.5993247650176121,111.42697605769456,-40.41872756530183,237.40739292989326,134.13506033585062
519,-10.616174691237983,-57.44622134150836,230.4201716703189,10.125993880394445,110.30895158263239,-39.257738951405294,237.78788740895666,132.45877063046936
520,-10.900099184240707,-57.423232094599264,230.79749265331589,18.534610631081527,108.99843333974023,-38.219752609958036,238.1735741033744,130.6806602573641
521,-11.143344552567804,-57.32810968530521,231.19287724033617,26.714741937082042,107.48786236958306,-37.34324214550908,238.5593085628269,128.8042241378332
522,-11.340112959694947,-57.159681762402975,231.60168989147581,34.54855208952477,105.7736366872122,-36.6668054011577,238.93997591709564,126.84112058392961
523,-11.485293277244086,-56.917826040290585,232.0191500453631,41.912999513397736,103.85665815998952,-36.22847004351501,239.3105823657017,124.81187575074644
524,-11.574699869219666,-56.60348843050004,232.44040483689136,48.68226444414601,101.7428135262583,-36.064946505682556,239.66633735705994,122.74637749290225
525,-11.605288640538756,-56.21867066350885,232.8606000766456,54.73031153086251,99.44339011481813,-36.210850929670265,240.00272639363183,120.68414355784964
526,-11.575340439470054,-55.766390083284605,233.27495036674424,59.93349076354222,96.97542486075058,-36.69792621694121,240.31557568059455,118.67434784825721
527,-11.484603251744062,-55.25061579462444,233.678809641604,64.17308619729988,94.36198139739889,-37.55429301427795,240.60111063196302,116.77558831878864
528,-11.334386326781937,-54.67618630810081,234.06774319328875,67.33773360191385,91.63234538229385,-38.8037639096667,240.85601030888452,115.05538242002774
529,-11.127601408282597,-54.048714126511065,234.4376014215131,69.32564357840089,88.82212402740295,-40.46525321950572,241.07745920759038,113.58938151536503
530,-10.868748509764083,-53.3744824841345,234.78459439629705,70.04658368310204,85.97323306922979,-42.55231171372298,241.26319671658808,112.46030402474719
531,-10.56384609398121,-52.66033893167979,235.10536514673214,69.42358965249603,83.13375363636128,-45.07281074747225,241.41156337941538,111.75659712266747
532,-10.220308002221397,-51.913589812782114,235.39705869074484,67.3943903533831,80.35764266008417,-48.028793827518925,241.52154215401134,111.57084731115135
533,-9.846771872053198,-51.141898951454586,235.65738346717703,63.912542633992075,77.70428339809705,-51.416505870609996,241.59279241608849,111.99796996565426
534,-9.452885888742887,-50.35319307406071,235.88466215209104,58.948280605551254,75.23786705240173,-55.226601621339654,241.62567462900734,113.13321637279003
535,-9.049062457423586,-49.555575624298164,236.07786968520907,52.48908955507885,73.02660212040276,-59.44452544540035,241.6212642476476,115.07004373278328
536,-8.646208775773571,-48.75724970310616,236.23665731314824,44.54001858521777,71.14175471457463,-64.05104574834164,241.58135416826167,117.89789921731938
537,-8.255445310453116,-47.96644992783772,236.3613622172338,35.12374891654752,69.65653015619074,-69.02291925076234,241.5084455464908,121.69997338767074
538,-7.8878237480452515,-47.19138217320978,236.4530027443395,24.280436710466994,68.64481299359306,-74.33365367297817,241.40572701698582,126.55098056704597
539,-7.554056001801108,-46.440169591268884,236.5132595253384,12.067349992720334,68.17978829526413,-79.95433227345522,241.27704241688036,132.5150233573775
540,-7.264265207099492,-45.72080313425194,236.54444291893316,-1.4416813904561867,68.3324707525911,-85.85446038785987,241.12684714035606,139.64359497037663
541,-7.027768244236392,-45.041095030257424,236.54944715224255,-16.156985660526907,69.17016946777208,-92.00279291542705,240.96015313545956,147.97376682853812
542,-6.852897216637079,-44.40863414576219,236.53169117922053,-31.97392439455946,70.75491586690801,-98.36810286271118,240.7824622131821,157.52660129338932
543,-6.74686471468157,-43.83074264617558,236.49504583935234,-48.7739122786453,73.14188133080998,-104.91985483196626,240.59968691872996,168.3058222267274
544,-6.7156749529204225,-43.3144335692476,236.44374669929877,-66.42557478850925,76.37781151142602,-111.62875396004229,240.41805798942974,180.29677118273625
545,-6.7640802709113395,-42.866368775147556,236.38229219143096,-84.78604230920033,80.49950716291191,-118.46715029065894,240.244017568628,193.46567552572048
546,-6.895580217014132,-42.49281639179863,236.3153272971188,-103.70238438566493,85.53238707905876,-125.40929040703958,240.08409786483762,207.7592567415889
547,-7.112458613412966,-42.19960658497399,236.2475139145898,-123.01319252950654,91.48917676276253,-132.4314212032674,239.94478574674693,223.10471150290354
548,-7.415852709102657,-41.992084407700595,236.18339009619203,-142.5503236215355,98.36877515148095,-139.51176324364576,239.83237477518443,239.4101024332526
549,-7.805847766964782,-41.8750586442114,236.12722152850375,-162.14081735724545,106.15535881868625,-146.63038146202467,239.75280738822764,256.56519713584436
550,-8.281590120468968,-41.852745923294634,236.08284993356253,-181.6089988359511,114.81778616155621,-153.768987608257,239.71151134111503,274.4427900702392
551,-8.841411771100182,-41.92870991020563,236.05354432311702,-200.77876975399033,124.3093612502122,-160.91071118552878,239.71323588789693,292.9005302073249
552,-9.482959907387993,-42.105796048530976,236.04186199902603,-219.47607788220571,134.56800733157752,-168.03987366180783,239.76189432965933,311.78325730045225
553,-10.203325260456614,-42.38606297220219,236.04952670436006,-237.53153501327708,145.5168836820335,-175.14179503712492,239.86042026230695,330.9258218844301
554,-10.99916391965891,-42.770712179752486,236.0773313312336,-254.78313038127914,157.06545772191697,-182.2026533633309,240.01064504383214,350.15633116141595
555,-11.866808071905451,-43.26001784910085,236.12507201862937,-271.0789632090344,169.11101867330552,-189.20940775850798,240.213203599064,369.2997285185504
556,-12.80236204120091,-43.8532589148683,236.19151924948642,-286.2798987759054,181.5405914023437,-196.14978510305124,240.46747463484124,388.181582977363
557,-13.80178087428088,-44.548655823923234,236.2744296800571,-300.26204088522843,194.23318142968301,-203.01232109627549,240.7715596577093,406.6319404485133
558,-14.86092938479004,-45.34331468364659,236.37060000033435,-312.9189118295718,207.06225669084836,-209.7864386278093,241.12230294305547,424.4890740502034
559,-15.975619900686107,-46.233181757220606,236.47596125460484,-324.16323899822606,219.89835113831964,-216.4625411609244,241.51535189792554,441.6029672941323
560,-17.14162694668225,-47.21301144794047,236.5857089099629,-333.9282639708602,232.61166249941837,-223.0320964250385,241.94525424902636,457.83837197068254
561,-18.35467693966817,-48.276351084173875,236.69446091151727,-342.1685135758161,245.07451383210213,-229.4876861803145,242.4055855458182,473.0773017863179
562,-19.610411109561415,-49.415545965036515,236.79643366371195,-348.86000088923566,257.16355735545073,-235.82300067076153,242.88909826773346,487.22085223087225
563,-20.904320791375206,-50.621768205435956,236.8856250869085,-353.9998547985787,268.7616192983571,-242.03276072541587,243.3878831391283,500.1902746029405
564,-22.2316563003841,-51.88507283112606,236.95599505432224,-357.60540614118946,279.759114381975,-248.1125553109294,243.8935345287161,511.9272740420545
565,-23.58731371278452,-53.19448416956897,237.00163635510228,-359.7127831728693,290.05499459498884,-254.05858696626476,244.39731475520364,522.393543469138
566,-24.965707480338235,-54.53811473690491,237.0169328815687,-360.3750870447141,299.5572347056201,-259.86732168820663,244.89031571090518,531.5695835237286
567,-26.360640138314828,-55.903317523589735,236.99670479879296,-359.66022890701026,308.18289197472814,-265.53504368364395,245.36361919138713,539.4528902999226
568,-27.7651826967637,-57.27687084694844,236.93634221444103,-357.64851602129374,315.8578062411124,-271.0573195676609,245.8084588175424,546.055617283836
569,-29.171580048278592,-58.645192736255794,236.83192910275457,-354.4300777707166,322.51602713473517,-276.42838184723024,246.21638617467883,551.4018365835238
570,-30.571194498772392,-59.994579251604414,236.68035807037955,-350.1022265114627,328.099067659441,-281.6404484851475,246.5794418819863,555.5245394625292
571,-31.954497329812494,-61.311458649819194,236.47943433075645,-344.7668542633318,332.5550889457332,-286.68300411331546,246.89032918510406,558.4625290794525
572,-33.31111362890262,-62.582651539225,236.22796464486777,-338.5279735708424,335.83812093730876,-291.5420786149299,247.14258417709976,560.2573693172412
573,-34.62992039876111,-63.79562661556917,235.92582485192565,-331.4895162922512,337.9074189524396,-296.19956931363316,247.33073394164583,560.9505606129604
574,-35.899193259912686,-64.93874236426268,235.57399863826396,-323.7535024306013,338.7270465729244,-300.6326623229122,247.4504325719693,560.5811128999906
575,-37.10679370582967,-66.00146699060753,235.17458065207632,-315.4186767185155,338.26576068529346,-304.8134146886525,247.4985654388478,559.1836726039389
576,-38.240387059577294,-66.97457136051224,234.7307388268736,-306.5796796966644,336.4972538847737,-308.70855974416213,247.4733140545361,556.7873316323406
577,-39.28768069872956,-67.85029243083028,234.24663332966483,-297.32677305741885,333.4007821817134,-312.2795921871438,247.37417679889592,553.4152008863803
578,-40.2366722957946,-68.62246704193959,233.7272922450848,-287.7460818746157,328.96217241524755,-315.4831765034415,247.20194385103778,549.0847721535428
579,-41.07589838600591,-69.28663758254378,233.1784465170255,-277.9202582956403,323.17516614010765,-318.2719033727178,246.95862733678965,543.809026634332
580,-41.794674280141834,-69.8401316523442,232.60632885530356,-267.9294218741023,316.043018913356,-320.59539539578617,246.64734991501615,537.5981838508766
581,-42.383317086968084,-70.28211752834764,232.0174436725809,-257.85219820306213,307.5802407392774,-322.4017382742063,246.27219717129248,530.461929416424
582,-42.833344399471116,-70.6136363414402,231.4183178976099,-247.76666383791706,297.8143396067033,-323.6391888801387,245.8380416015972,522.4119207977985
583,-43.13764205908508,-70.83761071263056,230.81524542557037,-237.75101260695638,286.78741890858623,-324.25808940788045,245.35034846824493,513.4643507897521
584,-43.29059539939924,-70.9588283167876,230.21404024484283,-227.88378493863755,274.55748234550197,-324.2128983851785,244.8149757140042,503.64234992302545
585,-43.288179606074216,-70.98389752859686,229.61981408788967,-218.2435449533789,261.1993158974327,-323.4642359070717,244.23798069188706,492.9780299545241
586,-43.12800641760314,-70.92117116072134,229.03679331609985,-208.90794594448423,246.80484331568283,-321.9808330769393,243.62544533982685,481.51400773087994
587,-42.80932630258086,-70.78063361340217,228.46818678391477,-199.9521886623751,231.48288618012924,-319.74127508209807,242.9833287962637,469.30429760135956
588,-42.332987351325436,-70.57374683272496,227.91611228199795,-191.4469424501163,215.35829830177425,-316.73543412080966,242.3173529957199,456.41451577673257
589,-41.70135430316815,-70.31325159847523,227.38158461338534,-183.45585959584022,198.5704835566924,-312.9655027385648,241.63292330393446,442.921395786388
590,-40.91819331743881,-70.01292291001012,226.86456392912157,-176.03286085919035,181.27134306230127,-308.4465594758797,240.93508324738588,428.91166503812684
591,-39.988530115637666,-69.68728135163678,226.3640588595489,-169.21939888299485,163.62272971375134,-303.20662540510494,240.22849994977136,414.48037422757744
592,-38.918490652125335,-69.35126577165082,225.87827539056204,-163.04191293508612,145.79351393546781,-297.2861996142419,239.51747492891187,399.72880167642546
593,-37.71513417293246,-69.01987583251416,225.40479963892338,-157.50967364610196,127.9563827805787,-290.7372912914179,238.80597345364166,384.7620731711975
594,-36.38628822400133,-68.70779557447261,224.94080107125762,-152.61318382748,110.28450392708663,-283.62199340839936,238.09766492860706,369.686645213358
595,-34.94039388931454,-68.42901091840223,224.4832426732128,-148.32325672726176,92.94818564635847,-276.0106662605295,237.39596710244706,354.6077968767445
596,-33.386367431513975,-68.19643503738348,224.02908624299036,-144.59084242335516,76.11165344691645,-267.9798171343492,236.70408846702304,339.6272640940183
597,-31.73348186115658,-68.02155578119017,223.57548394188012,-141.3476220291019,59.93004541704661,-259.60977463267983,236.02506571344324,324.84113189176213
598,-29.99126916568991,-67.91411876735323,223.11995051895275,-138.50734221604105,44.54670448033642,-250.9822625516103,235.3617956651921,310.3380767128093
599,-28.169441379792097,-67.88185826214925,222.66051316959303,-135.96782218113108,30.090821039123416,-242.17797870913301,234.71706273476087,296.19802430620126
600,-26.277826698115177,-67.9302856391458,222.19583717886738,-133.61353369214496,16.67545807801777,-233.27427907052856,234.09356312803416,282.4912606652624
601,-24.3263156320024,-68.06254231128723,221.72532547293088,-131.3186336018232,4.395975803979822,-224.34305758614278,233.4939259778775,269.2780063238418
602,-22.324811869692315,-68.27932096208833,221.2491896912775,-128.95031750959532,-6.6711349469430266,-215.44889830547604,232.9207301354213,256.6084399536836
603,-20.283182950628486,-68.57885599720507,220.7684902633745,-126.37236194383091,-16.46900383029219,-206.6475595114284,232.37651439117025,244.52313674381153
604,-18.21120689070318,-68.95698165697132,220.28514369044512,-123.44872821824966,-24.96071049158016,-197.98483065263943,231.8637789230282,233.0538704987244
605,-16.118512162944008,-69.40725427227738,219.80189669426574,-120.04711113162166,-32.12918798071623,-189.49578260247964,231.38497666039945,222.22471515969607
606,-14.014509671780042,-69.92113362355892,219.3222686953886,-116.04232729947523,-37.97669994109342,-181.20441143958894,230.94249456724293,212.05337103256838
607,-11.908316482495152,-70.48821712320928,218.8504658463185,-111.31944939429911,-42.52389826062657,-173.12365709263557,230.5386261711976,202.55263350205172
608,-9.808672127608657,-71.09651949631392,218.39127132868813,-105.7766035124226,-45.80847653252457,-165.2557624037867,230.1755377534048,193.73191824868553
609,-7.723849316607018,-71.7327897244485,217.9499176607452,-99.32735808291422,-47.88344493309725,-157.59292657655772,229.8552312958581,185.59875819639728
610,-5.661561755463491,-72.38285615287663,217.53194720220682,-91.90264557270484,-48.81506421278674,-150.1181999789896,229.5795073913478,178.160194620819
611,-3.628872475402901,-73.031989804237,217.14306686250922,-83.45217390688505,-48.680490374477316,-142.80656452776552,229.34993082101235,171.4239981654264
612,-1.6321065858798864,-73.66527518264108,216.78900247570698,-73.94530337142237,-47.56519630462127,-135.62614455286055,229.16780067689172,165.39967380082
613,0.323227250589285,-74.26797733242114,216.4753577530527,-63.37138603295687,-45.560250129439815,-128.53949614626487,229.03412613886553,160.0992246751924
614,2.2325020589654962,-74.82589374097576,216.20748220379014,-51.739586687955615,-42.75953987781027,-121.50492762981547,228.94960838813205,155.53767033816163
615,4.092019812512179,-75.32567994576662,215.99035168533825,-39.07822501398654,-39.25703797609923,-114.47780928122162,228.9146284652504,151.73333222612058
616,5.899036054651218,-75.75513853782307,215.82846421621406,-25.43369630449354,-35.14419612374444,-107.41183649372137,228.92924012104157,148.70791188084848
617,7.651757538983467,-76.10346271831226,215.72575258941472,-10.869042018739993,-30.507551521261483,-100.26021699141572,228.993166115979,146.48639465630762
618,9.349309352857272,-76.36142763764863,215.68551440984982,4.5377489268505355,-25.42661062912763,-92.9767594812039,229.10579624139706,145.09681394508002
619,10.991669432008091,-76.52152531283994,215.71035939693576,20.69562157408671,-19.9720584875531,-85.51684802342308,229.26618549069897,144.5699088123904
620,12.579570322062434,-76.5780417849699,215.80217289535693,37.50243057232022,-14.204321939024037,-77.83829323642303,229.47305100065398,144.9387020669641
621,14.114370178684084,-76.52707811730443,215.96209346882438,54.84692290051457,-8.172495411495703,-69.90205797808504,229.72476646651685,146.23801704670558
622,15.59789706118129,-76.3665196522178,216.19050150511904,72.61064485639498,-1.9136195648699759,-61.67286107293363,230.01935289730898,148.5039408069702
623,17.032272403965308,-76.09596051626801,216.48701531777974,90.66969838697486,4.547712726103149,-53.11966763634075,230.3544651146663,151.7732305581569
624,18.419720957634112,-75.71659259319148,216.85049146571308,108.8962843390231,11.199460829174301,-44.21607826383262,230.72737442103514,156.0826514156844
625,19.76237524479288,-75.23106991693537,217.27902683661475,127.15998839666688,18.04199682814463,-34.94063153729079,231.13494921359566,161.46822938472496
626,21.06208249405006,-74.64336038794396,217.76996122182211,145.32878947303232,25.087770255408277,-25.277034755014206,231.57363667697655,167.9644058629755
627,22.320221068854433,-73.95859658955332,218.31988041909707,163.2697987815674,32.36082241320303,-15.214336404025484,232.03944973962402,175.60308902582867
628,23.53753181974493,-73.18293620316794,218.92462112546187,180.84976794096366,39.89618705419743,-4.747050661315651,232.52796402203987,184.4126115604713
629,24.713968016248323,-72.32344032615998,219.57927981342283,197.93543257970788,47.739200533131275,6.1247606699639725,233.0343294494193,194.4166201788218
630,25.84856601011541,-71.3879752602707,220.2782283327266,214.3937803012578,55.94472717049884,17.39544944202789,233.5533006174003,205.63293651828963
631,26.939337757966133,-70.3851403588817,221.01513926555384,230.09234576741113,64.57628680495215,29.053792783036627,234.0792891163632,218.07243843305523
632,27.98318575876859,-69.32422147995548,221.7830242567382,244.8996397698439,73.70505442240314,41.083068083587186,234.60644006026314,231.7380138224603
633,28.975840668720352,-68.21516663233693,222.57428871638868,258.68581366977025,83.40868962315669,53.46120873492532,235.128734135109,246.62363642619118
634,29.911821554501085,-67.06857764753536,223.38080645290339,271.32364667579475,93.76994912167454,66.16106004332545,235.6401155937686,262.7136062531917
635,30.78441810655932,-65.89570921015843,224.19401786538523,282.6899227594407,104.87503943376761,79.15075404709036,236.1346456916742,279.98198875252655
636,31.58569305303637,-64.708464381558,225.0050550751499,292.66723828939564,116.81167845860845,92.39421848590607,236.6066798675713,298.3922781310121
637,32.30650178415834,-63.51937401216491,225.80489648128577,301.1462520587925,129.6668516436209,105.85182913318582,237.05106529642916,317.8973018421604
638,32.93652530190122,-62.341546413720415,226.58455147932148,308.02835703831573,143.52426845311615,119.48120640793447,237.46335321529924,338.43937458037254
639,33.46431241774592,-61.188573564465834,227.33527353849928,313.22871834282034,158.46154607165272,133.23814695864377,237.84001781349232,359.950700111443
640,33.877327842230876,-60.07438107715004,228.04879676364175,316.6795853769126,174.54716856739051,147.07766919925325,238.17867082832765,382.3540075507099
641,34.16200462467213,-59.01301127791827,228.71758782075935,318.33374955607144,191.83729072872688,160.9551393149759,238.47825870935483,405.56339591288497
642,34.303802440161135,-58.01833211942316,229.33510198179238,318.1679845572838,210.37247644423164,174.82743216019122,238.73922766180203,429.48534829545196
643,34.28727735637646,-57.10366933618886,229.8960292923761,316.18627605229125,230.1744817387785,188.6540710995163,238.963641296198,454.01986649909696
644,34.09617336441314,-56.281365216467485,230.39651481745832,312.42262477046506,251.24321183845774,202.3982835297591,239.1552361994695,479.0616696871151
645,33.713550117654066,-55.56227443817993,230.8343360693001,306.94319334986784,273.5539985012743,216.02790570530226,239.31940273825165,504.5013981276535
646,33.12196389089957,-54.95521518059404,231.20902161223492,299.84756698614837,297.0553560605408,229.51607250522557,239.46308201092978,530.2267663579236
647,32.30371898570961,-54.466401455134644,231.5218978072508,291.2689135430006,321.6673795474986,242.84163559649713,239.59457509736453,556.1236203602591
648,31.24120439469592,-54.09888936164388,231.77605561141448,281.372862696943,347.28094347363134,255.98926724480003,239.72326728113572,582.0768710438224
649,29.917325590280893,-53.85207489342202,231.97623566506724,270.35497595290997,373.75784351980843,268.94922620249486,239.85927700831294,607.9713004988008
650,28.316034168918193,-53.72128337315382,232.12863663821747,258.4367475412004,400.9319943910911,281.7167851778619,240.0130460657887,633.692265092126
651,26.42294932661446,-53.697490213098206,232.24065806050564,245.86015573739388,428.6117552541323,294.2913442712991,240.1948929867029,659.1263457709634
652,24.226055481711576,-53.767209204813625,232.32059397539763,232.88086954735078,456.5834004352548,306.6752792258346,240.41455546326426,684.1620157011677
653,21.71645058025941,-53.91257792107563,232.37729728618774,219.76030175549317,484.61568979567306,318.87259528929417,240.68074921590696,708.6904041648272
654,18.88911059455779,-54.11166033722912,232.4198361940948,206.75678169587687,512.4654243884447,330.88747501504173,241.0007700547802,732.6062307233299
655,15.743628554729492,-54.338975002565896,232.4571633170679,194.11619611764402,539.883804156387,342.72281983106154,241.38016258980386,755.8089644395596
656,12.284882418478803,-54.566243746192235,232.49781489549383,182.06251039316703,566.6233420992854,354.3788895843646,241.8224733675875,778.2042311531478
657,8.523586165860083,-54.76334186151166,232.54965253229753,170.78863011746242,592.4450400831196,365.8521409374784,242.32909891469254,799.705451095113
658,4.476682805730907,-54.89941694023609,232.61965430395503,160.44808876918074,617.1255008373107,377.13435424567894,242.89923147619956,820.2356449191062
659,0.16754575397295318,-54.94413099141499,232.71375695116257,151.14804491769698,640.4636427491878,388.2121196228838,243.5298983074746,839.7293056935771
660,-4.3740347578668075,-54.868970124559674,232.83674689085825,142.94403926269644,662.2867011459199,399.066727384989,244.21608486767866,858.1342057436241
661,-9.112091984272057,-54.648558731474644,232.9921951606527,135.8368974339903,682.4552418795859,409.674478084908,244.9509283502014,875.412997413606
662,-14.004949444062493,-54.2619113612986,233.18243004421493,129.77207132949295,700.8669771739405,420.0073959074534,245.72596561669633,891.5444789395316
663,-19.005902615407265,-53.693555669731005,233.40854093039886,124.64159416693579,717.4592534188918,430.0342995135976,246.53141873211484,906.5244285409731
664,-24.064094150307735,-52.93446404670525,233.6704077634291,120.28868858454541,732.2101666017159,439.72215940240545,247.35650188069968,920.3659546350606
665,-29.12555336640433,-51.982739638314165,233.96675187391847,116.51492109160804,745.138342874839,449.0376526252374,248.18973524750714,933.0993580427502
666,-34.134365078447985,-50.8440139592629,234.2952055130574,113.0896493271698,756.3014902819608,457.9488154066383,249.01925402150127,944.7715436649081
667,-39.0339292067249,-49.53152730679989,234.65239861391686,109.76137075457368,765.7938772475309,466.4266920906819,249.83310353292055,955.4450475427927
668,-43.768270867229845,-48.06587880283053,235.0340619788918,106.27046193488779,773.7429224440539,474.44688424707476,250.6195143408771,965.1967575914108
669,-48.28336063572666,-46.474449197267866,235.43514616205948,102.36270448007711,780.3050906795361,481.99091561789066,251.3671535742631,974.1164034600409
670,-52.528406229949205,-44.79051562938133,235.84995467371743,97.80293335566203,785.6612840829098,489.04734536761174,252.06535067570053,982.3048766384273
671,-56.45707967494867,-43.05209243713928,236.27228872252985,92.38811908610491,790.0119017276701,495.61258203340407,252.7042965794506,989.8724215554168
672,-60.02864749780368,-41.30054511123456,236.69559869919206,85.95920873325315,793.5717189772524,501.6913717291373,253.275215159131,996.9367181051591
673,-63.208974905559735,-39.579035221642265,237.11313542439564,78.41110000286166,796.5647152065992,507.2969546237836,253.77050472973278,1003.620861281199
674,-65.97137787815443,-37.930862360988364,237.5180924066051,69.70020513328615,799.2189592002226,512.4509017937132,254.18384599365461,1010.0512380917952
675,-68.29729993524094,-36.39777453293921,237.90372959428788,59.8491714969974,801.7616476906569,517.1826590080335,254.51027179409692,1016.355306825825
676,-70.17679365361029,-35.01832059420711,238.26346986880603,48.9484587110921,804.414384091373,521.5288342347537,254.7461941021052,1022.6592976534344
677,-71.60879136237683,-33.82631709462755,238.59096194874044,37.15462210718537,807.3887793137343,525.5322715649393,254.88938522337244,1029.0858730512366
678,-72.60115500422282,-32.84949713287516,238.8801070742276,24.68531393572439,810.8824514531373,529.2409561168432,254.93891312334463,1035.7518069817552
679,-73.17050173815524,-32.10840084613114,239.1250510204088,11.811180046722026,815.0754934327132,532.7067929502956,254.89503440956437,1042.7657583828811
680,-73.3418090853576,-31.615556261411133,239.3201468038948,-1.1550067629024572,820.1274664594167,535.9842992372226,254.75905210126854,1050.226223662634
681,-73.14781084515948,-31.374986007071666,239.45989633914357,-13.871483877543273,826.1749632780927,539.1292444902903,254.53314828189343,1058.2197525857425
682,-72.62820221536417,-31.38206046982016,239.53888114001433,-25.98228361337074,833.3297705683183,542.1972701018309,254.2202038391014,1066.8195018062625
683,-71.82867923721335,-31.623702069304827,239.55169304744362,-37.132944601193614,841.6776460475504,545.2425175334599,253.82361872959305,1076.0841811972575
684,-70.79984368517682,-32.07892915764507,239.49287596154306,-46.98637109434165,851.2777136523429,548.3162938726668,253.34714652677408,1086.057422272199
685,-69.59600957905933,-32.71971252939412,239.35688863328645,-55.23804917277373,862.1624694176196,551.4658032515088,252.7947562575049,1096.7675692428334
686,-68.27395106724747,-33.512103601791885,239.13809673991736,-61.629862869087965,874.3383805146223,554.7329720081748,252.1705325199504,1108.2278663855707
687,-66.89163290799429,-34.4175817698954,238.83079990435309,-65.96183141373211,887.7870489433669,558.1533938030782,251.4786215977742,1120.4369944113093
688,-65.50696383187312,-35.3945597465518,238.42929631119694,-68.10120606177968,902.4668981631152,561.7554176573217,250.72322702410577,1133.379895537113
689,-64.17660971936964,-36.399980188478494,237.92798442485105,-67.98851348491421,918.3153248835469,565.5593970583709,249.90865327082875,1147.0288220588102
690,-62.954898111493705,-37.39093484649521,237.32149837337573,-65.64030211223343,935.2512402187183,569.5771125033106,249.03939156603076,1161.3445450581016
691,-61.89283873654836,-38.32623895415643,236.60487120440558,-61.1485261354618,953.1779066849322,573.8113739007176,248.1202379706816,1176.2776660647264
692,-61.0372772406824,-39.1678983522068,235.77371863661236,-54.67667694131035,971.9859628755946,578.2558036115348,247.15643122747764,1191.7699821375475
693,-60.43019180662465,-39.882414385478384,234.82443498131283,-46.45293230589337,991.5565183046571,582.8947958238816,246.15379653242567,1207.7558612166638
694,-60.10813540223391,-40.441881177357224,233.75439235220884,-36.76073077434746,1011.7641979889336,587.7036436451549,245.11888105901846,1224.1635879815806
695,-60.101820533624995,-40.824840695022125,232.56213404191246,-25.927286042818682,1032.4800199747508,592.648821942368,244.05906764872665,1240.9166405622404
696,-60.43583892425262,-41.016872353677215,231.24755304263755,-14.310630250120866,1053.573998917237,597.6884116325357,242.98265447803368,1257.934856564741
697,-61.1285055732276,-41.01090532713045,229.81204703543045,-2.285814327932076,1074.9173847253976,602.7726498433321,241.8988905324703,1275.1354454653606
698,-62.1918150389511,-40.807253024933324,228.2586416021517,9.769101751499191,1096.3844669881262,607.8445902844328,240.81795911902267,1292.4338065227423
699,-63.631497362021996,-40.413380067648,226.592073927025,21.486663672149184,1117.8539029497947,612.8408595483428,239.7509043016773,1309.7441196309449
700,-65.44716161572524,-39.843422014746466,224.81883009711555,32.52269339414382,1139.209558160939,617.6924979827114,238.7094980945578,1326.9796923664526
701,-67.632516479261,-39.11748653225847,222.9471305625747,42.56754606800085,1160.340882694655,622.3258779120712,237.70604956842152,1344.0530693547942
702,-70.1756592322987,-38.26077127602491,220.98686045700273,51.355580229142596,1181.1428791581723,626.6636965846477,236.75316065667593,1360.8759374703811
703,-73.05942686064705,-37.30253832878183,218.9494441491187,58.672575428768525,1201.5157480430878,630.626045335583,235.8634371397862,1377.3588881303224
704,-76.26180518011014,-36.2749875175589,216.8476662633084,64.36094196574967,1221.364317535914,634.1315592441105,235.04916664439273,1393.4111211740224
705,-79.75639364300699,-35.21207146924742,214.69544403696625,68.32267383157914,1240.5973759637684,637.0986524269342,234.32197804708017,1408.9401892249477
706,-83.5129244386887,-34.1482941022755,212.50755791960904,70.52009169423383,1259.1270245331618,639.4468426784388,233.69249804986893,1423.851884388916
707,-87.49783438846978,-33.11753171351822,210.29934866891202,70.97450293359728,1276.8681567228632,641.0981652232739,233.17002079662757,1438.0503601952498
708,-91.67488685417895,-32.15191216871761,208.0863900625624,69.76296815607309,1293.7381507360044,641.978668907444,232.76220542783278,1451.4385623232506
709,-96.00583847980909,-31.280783212485986,205.88414701606627,67.01340835010755,1309.6568356393282,642.0199795875865,232.47481475529625,1463.9190147161598
710,-100.45114235125712,-30.52979598720829,203.7076294975349,62.8983155456715,1324.5467632616248,641.1609055129177,232.31150603213925,1475.3949766388057
711,-104.97067562303187,-29.92012498043596,201.57105306702667,57.62734494101521,1338.333789368181,639.3490491450243,232.27368224731512,1485.7719544934705
712,-109.52447646381337,-29.467841119750027,199.48751700370602,51.43907065951837,1350.947941181715,636.542380260475,232.36040964251697,1494.9595225506384
713,-114.0734728269872,-29.183450590412825,197.4687107296633,44.592183229097046,1362.3245252571853,632.7107173251127,232.56840438718424,1502.8733810221959
714,-118.58018428717892,-29.071607972161697,195.52465849848315,37.3563968415814,1372.4054106878366,627.8370586884067,232.89208860834268,1509.437559124443
715,-123.009377956628,-29.131008315483886,193.66351099985403,30.003320346343642,1381.1404081295975,621.9187025133122,233.32371322005838,1514.5866556203923
716,-127.32866014406365,-29.354458747418605,191.8913906398242,22.797529410785607,1388.4886559442132,614.9680948711909,233.85354223513423,1518.2680006142034
717,-131.5089868682577,-29.72912613223046,190.21229489843,15.98805987936542,1394.4199218631386,607.0133495856534,234.47009060967792,1520.4436211438438
718,-135.5250786522958,-30.23695324753614,188.6280595503823,9.80052527495702,1398.9157327217981,598.0983918190786,235.16040544754946,1521.0919002605026
719,-139.3557282280395,-30.855231850525428,187.1383809462698,4.4300449688486525,1401.9702560193273,588.2826904696797,235.91037886886,1520.2088349124742
720,-142.98399373236774,-31.557316830310274,185.74089423233983,0.03515304677847979,1403.5908742924837,577.6405619384118,236.70508016631027,1517.8088209826967
721,-146.3972744680225,-32.313461369117206,184.43130244634668,-3.2671603223942,1403.7984145298797,566.2600485637209,237.52909502109557,1513.9249219246897
722,-149.5872711055867,-33.09174885112393,183.20354990533588,-5.405145018562368,1402.6270174656217,554.241397032637,238.36686043900642,1508.6086074210984
723,-152.54983695042856,-33.85909351018395,182.05003219902574,-6.354621363140411,1400.1236529976456,541.6951830023096,239.20298548739254,1501.9289770942112
724,-155.2847311179255,-34.58227885316529,180.96183439594063,-6.139873757565029,1396.3473063733989,528.7401457431213,240.02254956596784,1493.971509047239
725,-157.79528788249888,-35.22900095303398,179.92898883215997,-4.833074034050902,1391.3678745535015,515.5008091163988,240.8113717183149,1484.836392730176
726,-160.08801913378895,-35.76888285996059,178.94074422936683,-2.5522429012708074,1385.264823528886,502.10497187396277,241.5562465191434,1474.6365202516802
727,-162.17216885177973,-36.174426727990436,177.98583885821932,0.5421972963429791,1378.1256655744116,488.68115155632734,242.24514438510315,1463.4952201388687
728,-164.0592396287164,-36.42187197740276,177.0527717975878,4.252179766976571,1370.0443201969697,475.35606355367037,242.8673764918058,1451.543822785259
729,-165.7625112169502,-36.4919310148942,176.1300678015007,8.347918106898847,1361.1194233025112,462.2522117977196,243.41372647249696,1438.9191472703708
730,-167.29656971983476,-36.370378596852305,175.2065326701796,12.57481730043838,1351.452645720853,449.48566111095386,243.87655244831757,1425.7609949541054
731,-168.6768635232386,-36.04847656034588,174.27149708134746,16.66115630756963,1341.1470755618084,437.1640535058762,244.24986355070584,1412.209727031385
732,-169.9192988002512,-35.523222026965065,173.31504736464916,20.326301689447547,1330.305710672375,425.384921136073,244.52937497435093,1398.4039925863622
733,-171.03988388918853,-34.79741393262906,172.32824168857846,23.28919359745318,1319.0300994344286,414.2343367416511,244.7125449498895,1384.478662220074
734,-172.05442836900244,-33.87953945109805,171.30330972748,25.276835787933894,1307.419161031205,403.7859284777987,244.79859606453164,1370.5630109643466
735,-172.97829934741108,-32.78348820668805,170.23383318571484,26.032520580947565,1295.5682097810673,394.1002705769653,244.7885221417332,1356.779182989584
736,-173.82623437267804,-31.528107851467595,169.11490355373482,25.323528146815086,1283.5682015182213,385.22464515116656,244.68508036582278,1343.2409593501657
737,-174.6122075745261,-30.136619450488876,167.94325219851797,22.94805736716466,1271.5052130858473,377.19315453207287,244.49276656386803,1330.0528389417673
738,-175.3493432719108,-28.63591511326279,166.71734666122325,18.741172831204075,1259.4601591592595,370.0271490805972,244.21776984179607,1317.3094327978165
739,-176.04986946034316,-27.055763426836496,165.43744635291367,12.579589000739157,1247.508744184811,363.7359237480737,243.86790155203707,1305.0951636143634
740,-176.72510234392323,-25.427950458509034,164.10561108340542,4.385157256861487,1235.7216408722643,358.31762900350844,243.45249314953523,1293.4842559173794
741,-177.38545241469726,-23.785385354252988,162.72565710093002,-5.8730274460223635,1224.1648793006434,353.7603385476109,242.98225794318543,1282.5409964219446
742,-178.04044254666627,-22.16119988324109,161.30305747367603,-18.177929025521795,1212.900421022454,350.04321711033657,242.46911306682438,1272.320237156033
743,-178.6987292132132,-20.58787077669707,159.8447866427096,-32.46525568984038,1201.9868800241877,347.1377355469722,241.92596021010965,1262.8681045172991
744,-179.36811924561553,-19.096392417270522,158.35911261592187,-48.62545038712242,1191.4803377523642,345.00888634728153,241.3664266618945,1254.2228655287786
745,-180.05557646637675,-17.71552520420048,156.8553438979066,-66.50686246165053,1181.4351847886921,343.6163598918289,240.80457156281977,1246.4158896993442
746,-180.76721493599723,-16.471141582560247,155.34354093453996,-85.91993906764512,1171.90491036982,342.9156500524207,240.254565243373,1239.4726339748165
747,-181.50827817817893,-15.385687364812425,153.83420307218265,-106.64224702641707,1162.9427562199503,342.8590668260615,239.73035162120422,1233.4135726479399
748,-182.28310617444214,-14.477770905626526,152.33794197788959,-128.4241182999853,1154.60215559643,343.3966432128874,239.24530470394933,1228.2549964057819
749,-183.09509376585385,-13.761887205517784,150.86515166784736,-150.99470494531874,1146.9368927048235,344.47693288235627,238.8118903967892,1224.0096158627332
750,-183.9466452699302,-13.248278271263757,149.42568419237026,-174.0682318168593,1140.0009402376131,346.0477035483393,238.4413442890572,1220.6869238437412
751,-184.8391308365932,-12.942925235648405,148.02853890732757,-197.35024689573262,1133.847960446634,348.05653753999934,238.14337525257142,1218.2932945109512
752,-185.77285065597226,-12.84766217674489,146.6815723206494,-220.54368935647582,1128.5304836784728,350.4513550038155,237.92590390738513,1216.8318224535046
753,-186.74701372198854,-12.960396654356776,145.39123488594578,-243.3546232969264,1124.0988036853892,353.1808759115331,237.79484449200655,1216.3019275174101
754,-187.7597382166874,-13.275417965240019,144.1623408846297,-265.49751865324987,1120.599648349311,356.195034397383,237.75393827690627,1216.6987687985022
755,-188.80808027520786,-13.783771265047386,142.99787762769338,-286.69999756869464,1118.0746962745645,359.44535332920816,237.8046460179052,1218.012522462001
756,-189.88809664886335,-14.473674381857679,141.89886041461162,-306.7070011050147,1116.5590140526147,362.88527950366404,237.94610575161428,1220.227582723889
757,-190.9949446745917,-15.330954638738024,140.86423967402436,-325.28436422924057,1116.0794871717583,366.47047190848593,238.17516036682332,1223.3217443116257
758,-192.1230202382335,-16.339485199235554,139.89086610168943,-342.22181354906866,1116.6533116199817,370.1590285849634,238.48645682193484,1227.2654196199815
759,-193.26613135774252,-17.48160384990179,138.97351819375382,-357.33542062428967,1118.2866054301155,373.91163301417384,238.87261568626903,1232.020936520489
760,-194.4177019138986,-18.738501165555714,138.10499440031435,-370.4695538122193,1120.9731914322863,377.69159960220725,239.32446610812258,1237.5419551437076
761,-195.57099729913352,-20.090569288677443,137.27626937810692,-381.4983748528047,1124.6935949530077,381.4648002194276,239.8313377519533,1243.7730349703554
762,-196.71936175139746,-21.51770693318142,136.47671072694993,-390.32692461134445,1129.4142925533902,385.1994597138331,240.38139816274688,1250.6493771119003
763,-197.85645622701463,-22.99958060667858,135.694349523417,-396.89183709949,1135.087238786899,388.86581731674295,240.9620218899576,1258.0967596874918
764,-198.9764859691236,-24.51584629117119,134.91619543959007,-401.16171306447984,1141.6496864021565,392.43566215641675,241.56017691603748,1266.031675769155
765,-200.0744082839851,-26.046339701446588,134.12858568622974,-403.137174726045,1149.0243018966703,395.8817636911214,242.16281456245954,1274.361673635621
766,-201.14611304166894,-27.571246448340084,133.31755654966426,-402.8506121891347,1157.1195648575465,399.1772303301117,242.75725077108712,1282.9858893926657
767,-202.1885705533979,-29.071265583406824,132.46922666884402,-400.3656201356442,1165.8304286279404,402.29484007905717,243.33152887660134,1291.7957540583375
768,-203.199943311189,-30.52778064367741,131.57018204078335,-395.7761110726662,1175.0392132794711,405.2063940778029,243.87475607586904,1300.6758520266785
769,-204.17965943774826,-31.923051054530468,130.60785368177508,-389.20507942332165,1184.6167000053408,407.88214627818473,244.37740738261942,1309.504905480481
770,-205.12844667480348,-33.24043343118926,129.5708796197884,-380.80298035051385,1194.4233979829655,410.2903598915114,244.83159183500993,1318.1568591912223
771,-206.04832649984996,-34.4646371763091,128.44944327288195,-370.7456801703738,1204.3109590455351,412.39703405609635,245.23127615947232,1326.502041496098
772,-206.94256863510483,-35.5820124235706,127.23558028483028,-359.2319334944104,1214.1237208618606,414.1658334904116,245.57246114341268,1334.4083797340527
773,-207.81560694369878,-36.580861702953236,125.92344580283667,-346.48034759382534,1223.7003648350328,415.55824106095764,245.85330595206167,1341.7426520759943
774,-208.67291864630977,-37.45176062617301,124.50953445641703,-332.72580808697927,1232.875679676663,416.5339395217496,246.07419598068935,1348.3717623430489
