time,ax,ay,az,gx,gy,gz,accmagnitude,gccmagnitude
0,7.139750974193245,1.0664382772377217,215.05602341485752,-70.14056086998316,24.264130008590183,-3.480565702687344,215.1767149353576,74.23284332901028
1,7.274434863419889,1.216910061571873,215.271984276777,-68.01739354852,23.03204565224292,-3.4994299848308565,215.3996999757632,71.84628072367184
2,7.406541085105812,1.363925799774125,215.47905349610792,-65.96417678200935,21.862513337281356,-3.5351148258318488,215.6137312565091,69.54628503496278
3,7.5348203018472075,1.5047487459994202,215.67419542017876,-64.00713948551545,20.772628808918526,-3.5892771550706675,215.81569688517754,67.36328769008472
4,7.6580235309342255,1.6367532413910464,215.8546574246706,-62.17023422528158,19.77787698012106,-3.6633666975218686,216.00276844716376,65.3251227880661
5,7.774926244133846,1.757487007916733,216.01805345037567,-60.47446887729712,18.891704169364964,-3.758568442592668,216.17248607789065,63.45625772682488
6,7.8843508932682935,1.8647296109582419,216.16243336056533,-58.93731310060012,18.125139495863596,-3.8757455626838073,216.32282924989855,61.777107413597165
7,7.985187331272845,1.9565458503134752,216.28633535046654,-57.572200468800155,17.48647868291974,-4.0153843031610865,216.45227047324022,60.30345580476433
8,8.07641099605257,2.031332809618024,216.38881973621613,-56.38814432236968,16.981042005925147,-4.177542513797842,216.55981021989956,59.04600545211688
9,8.157099153550803,2.087859239011868,216.46948352101373,-55.389481592543454,16.611016052601705,-4.361803593627857,216.6449924710058,58.01007152760225
10,8.22644579935061,2.1252959893660583,216.5284561085352,-54.575754167707004,16.37538637625199,-4.567237638957937,216.70790127158736,57.19543162520824
11,8.28377585528544,2.1432363863104635,216.56637738166256,-53.94173213562682,16.269965137301753,-4.79237152886135,216.7491395297531,56.59633683116848
12,8.328559100486382,2.141705717282305,216.584360090222,-53.47757782663672,16.28751455420472,-5.035169577881214,216.76979201841004,56.20168352024
13,8.360423977020705,2.1211594174643222,216.58393906444894,-53.16914441865454,16.417963485345858,-5.293026232611772,216.77137510290834,55.99533949722569
14,8.379171092485345,2.082470083420683,216.56701012129457,-52.99839832126408,16.64871083812471,-5.562772078048736,216.75577606079364,55.95661284323088
15,8.38478591155519,2.026904067721743,216.53576163235263,-52.94395086438273,16.96500595516239,-5.840694155669695,216.72518495405424,56.06084740428336
16,8.377449794632764,1.9560890194917653,216.49260164282387,-52.981682019350096,17.350392933201295,-6.1225712819823315,216.68202192696248,56.28012536261915
17,8.357548279856594,1.8719742032691722,216.4400832980369,-53.08543692233229,17.787203236117836,-6.403724670635485,216.62886266245997,56.58405475037062
18,8.3256754227053,1.7767856275284646,216.3808312567566,-53.22777481435967,18.257079141561373,-6.6790836797143065,216.56836464873805,56.94061810834364
19,8.282633157258477,1.6729779008566712,216.31747174384088,-53.38074962365843,18.741509622240773,-6.943265972744692,216.50319688254547,57.31705777699848
20,8.22942497960315,1.5631843770214149,216.2525687774735,-53.51670166602427,19.222360277894666,-7.190670909228849,216.43597552614784,57.68077346840233
21,8.16724367264354,1.4501667403772387,216.18856873831984,-53.60904058852707,19.682379896631105,-7.415584643707512,216.3692076797602,58.00020861362179
22,8.097453201442896,1.3367649524602478,216.1277547923252,-53.63300048539422,20.105668025061835,-7.612295181312634,216.30524479150318,58.24570326577879
23,8.021565272120233,1.225848470667814,216.07221184892882,-53.56634896534984,20.478090393540406,-7.775215453538224,216.24624641327196,58.39029291848914
24,7.941211348395419,1.1202696170126645,216.02380191975908,-53.390032929541874,20.78763198257487,-7.899012349823274,216.19415420708128,58.41043448576917
25,7.858111117284163,1.0228196567973367,215.98414909072773,-53.08874509435182,21.024680708330266,-7.978739609363704,216.1506754603,58.28664294932307
26,7.774038477283336,0.9361875629435307,215.9546328788268,-52.65139695049317,21.182237910555752,-8.009972528907014,216.1172749260853,58.004024786586136
27,7.69078616155998,0.8629208733024141,215.93638847073524,-52.07148585116865,21.256054836973135,-7.988942515175729,216.09517352879973,57.55269711734796
28,7.610130152442539,0.8053877850106547,215.93031216325798,-51.34734621634043,21.244696989151972,-7.912669560734332,216.08535229604908,56.92808443687927
29,7.533794998724552,0.7657397438841421,215.93707022183202,-50.48227747141431,21.149540434761384,-7.779090736530276,216.08855977266742,56.13108784418937
30,7.463420931862854,0.7458741076111867,215.9571093935743,-49.4845443946738,20.974705928669323,-7.587182767478929,216.10532118490323,55.16812488344354
31,7.400533417363657,0.7473967515933745,215.9906674794231,-48.36724901282933,20.726937867260936,-7.337076686642575,216.1359477821213,54.05104146756904
32,7.346515665357832,0.7715846485816893,216.03778261363178,-47.148076879477806,20.4154357428943,-7.030162458942801,216.1805450219516,52.79690069511985
33,7.302584647671641,0.8193485738532073,216.09830017519084,-45.848924224534954,20.05164597274734,-6.6691813378428275,216.23901853963994,51.42765649608662
34,7.269771151715539,0.8911962916948727,216.17187662157409,-44.49541581436589,19.64902186137209,-6.258303561620903,216.31107720491798,49.969722752457685
35,7.248904247273131,0.9871968790766812,216.25798002230425,-43.1163262437885,19.222759072117924,-5.8031888076341,216.3962330491529,48.45345070150238
36,7.240600319617144,1.1069471301166067,216.35588762755216,-41.7429197232002,18.78951335238681,-5.311026644848471,216.4937983940901,46.91252899788948
37,7.245256648272466,1.2495411661628077,216.4646813641066,-40.40822519223578,18.36710641658096,-4.790554129710831,216.60288106440893,45.38332177909995
38,7.263049426702777,1.41354452750441,216.58324258792203,-39.14626473131398,17.974224874653732,-4.2520477258398035,216.72237900210828,43.90416042135821
39,7.293936094772701,1.5969743277637796,216.7102475474944,-37.99125370842431,17.630115941174594,-3.7072868983395444,216.850975729508,42.51460437029816
40,7.337661836864423,1.7972875154074586,216.8441647622797,-36.976790900989705,17.35428244702718,-3.1694870315623724,216.98713786321707,41.254685529758255
41,7.393769996779766,2.011379633719797,216.98325514586395,-36.135056027308764,17.166178532807717,-2.653199737295221,217.12911550884874,40.16414930649703
42,7.461615925539783,2.2355964164372093,217.12557556604418,-35.49603080215048,17.084906474362807,-2.174179133942978,217.27494622355397,39.28170369309275
43,7.540383508081092,2.4657600851003396,217.26898673920053,-35.08675798167434,17.128914495111644,-1.749213255768206,217.42246342985223,38.64428595623727
44,7.629103468258593,2.697211550979806,217.41116670456984,-34.9306511641984,17.31569524888072,-1.3959203929717448,217.56931050606795,38.28635489586746
45,7.726672559227405,2.9248691099862523,217.54963133374287,-35.04686661174267,17.66148498104674,-1.1325108995489066,217.71296198602727,38.23921553026972
46,7.8318728361280705,3.1433037630021503,217.68176321971487,-35.44974715260831,18.18096417984934,-0.9775158617454635,217.85075318972696,38.5303825448796
47,7.94339034948656,3.346830982734336,217.80484983864187,-36.148347304424085,18.886961653618634,-0.9494849763623062,217.97991915770064,39.18298883535352
48,8.05983279746794,3.5296184854819272,217.91613119848427,-37.146048074873335,19.790165183414096,-1.0666569855111976,218.09764308722288,40.21524582374755
49,8.179745891529826,3.6858092006263536,218.01285642028384,-38.44026938380726,20.89884303594175,-1.3466069922277637,218.20111370407076,41.63996278355902
50,8.301628365809922,3.8096580229753063,218.0923479409631,-40.02228758048372,22.218581597666077,-1.8058759090510226,218.28759024749942,43.46413302687846
51,8.423945715478917,3.8956800801699334,218.15207137887617,-41.87716494536828,23.752045173611123,-2.4595881716054224,218.35447309786332,45.68859533348301
52,8.545142949169948,3.938807346889593,218.18970868119004,-43.98379725829827,25.49876459100735,-3.3210646990336317,218.3993776577724,48.30777934692158
53,8.663656898887863,3.9345497129618465,218.20323203986237,-46.31508447891367,27.454961708853105,-4.401438906645271,218.42020897577683,51.309543841821444
54,8.777928911450962,3.8791560551880386,218.19097613863516,-48.83822838425012,29.613417313660356,-5.709284356379091,218.41523469114324,54.6751168501015
55,8.886418982133975,3.76977033080276,218.15170637249747,-51.515159675702854,31.963390191043892,-7.2502633553834634,218.3831539686315,58.379146642393486
56,8.987622439944332,3.604577240550094,218.084680611264,-54.30309553119118,34.49059535565852,-9.026806470973746,218.32316002542726,62.38987239245187
57,9.080090017526429,3.382931764674277,217.98970191926153,-57.15522667480745,37.17724940004137,-11.037833467871465,218.2349936842872,66.66942279147972
58,9.162451598988849,3.1054668643163628,217.86715962100652,-60.021530598051825,40.00219055240789,-13.27852648721575,218.11898534663453,71.17424967842126
59,9.233443347159504,2.7741737631417873,217.71805640186676,-62.84970449947829,42.941080175836056,-15.740166261763013,217.97608305644377,75.85570171592782
60,9.291937386896482,2.3924495118618716,217.54401972943435,-65.58620782292336,45.96669101047341,-18.410041709039028,217.80786490228652,80.66074018837732
61,9.336972764907385,1.9651071463902625,217.34729659024552,-68.17740007645949,49.049285478549876,-21.271442306461513,217.6165346993237,85.5327951877188
62,9.367786055206265,1.4983447757567623,217.13073117196316,-70.5707550622226,52.157084951533605,-24.303741168082222,217.4049005238732,90.41275593077589
63,9.383839806276125,0.9996713482999287,216.89772558699218,-72.71612791214444,55.25682812211059,-27.482574625429134,217.1763361470381,95.24008386107568
64,9.384847044683834,0.4777884888689675,216.65218404477233,-74.56704663376405,58.314413549103044,-30.78012132773276,216.93472574292042,99.95403167635571
65,9.370790210850922,-0.057570563649706225,216.39844115688226,-76.08199554001772,61.29561801258779,-34.16548052551748,216.68439254352384,104.49494570113539
66,9.341933131710492,-0.5958424062746948,216.14117542366472,-77.22565428960743,64.16687850713757,-37.605145504257145,216.4300124917359,108.80562334026995
67,9.298824853648044,-1.125871394536764,215.88530943290314,-77.97005352769447,66.89612155783965,-41.06356429371666,216.17651443298996,112.83269191507435
68,9.242294347979321,-1.636178674530633,215.63589888410536,-78.29560644203151,69.45361919433162,-44.503775920881736,215.92896897031602,116.52797018688653
69,9.173435342370576,-2.115255501926293,215.39801319203735,-78.19197510566147,71.81284655149514,-47.888106725390315,215.69246874515846,119.84976955925985
70,9.093580902648773,-2.5518727178417144,215.17661099495993,-77.65873147619139,73.95131190356847,-51.178907828976726,215.4720034747939,122.76408864962863
71,9.00426781322138,-2.9353972415145204,214.97641427086404,-76.70577556221615,75.85132627382218,-54.33931203098403,215.27233344880875,125.24565302174544
72,8.907191109161127,-3.2561057804632,214.80178492436065,-75.35347770114373,77.50067703343159,-57.333986471384634,215.09786533214822,127.27875181141327
73,8.804149290219831,-3.5054856163317485,214.65660765670654,-73.63251824951142,78.89316868294011,-60.12985658366617,214.95253405156356,128.8578252540724
74,8.69698103618625,-3.6765122587083225,214.5441826729769,-71.58340635278502,80.0289948839824,-62.69677727270608,214.83969427048095,129.9877621869966
75,8.587494862496493,-3.763893985147452,214.4671313837777,-69.25566977153657,80.91490926146584,-65.00812885909325,214.76202456700796,130.68387469943133
76,8.477394037078929,-3.764273847229135,214.42731783831547,-66.7067197293055,81.56416883135165,-67.0413179647197,214.7214470341849,130.97152821312372
77,8.368199948116459,-3.6763806593245003,214.42578822026724,-64.00040801826897,81.99623315764777,-68.778167017592,214.7190646495355,130.88541913249378
78,8.261177719084333,-3.5011218291551622,214.46273030914534,-61.20530767331959,82.23621416723424,-70.20518034533056,214.755118365387,130.46850831055303
79,8.157268099649558,-3.2416126385900284,214.5374543255402,-58.39276277233394,82.31408524079336,-71.31367980135624,214.82896541727692,129.7706361038761
80,8.057029536760899,-2.9031386934140775,214.64839604564054,-55.634766473385575,82.26367275008478,-72.09980828847027,214.9390798426231,128.84686253234418
81,7.960593943470945,-2.4930506408398503,214.7931425379498,-53.00173820616102,82.12146743412961,-72.56440507534874,215.0830756956861,127.75559255519622
82,7.867639105138369,-2.0205927720321517,214.96848043495712,-50.560279952836204,81.9253056410121,-72.71276210106409,215.25775302656126,126.5565602563567
83,7.77737989851628,-1.496669632303625,215.1704663658275,-48.370996953478475,81.71298036068484,-72.55427521365363,215.45916641585654,125.30875558365629
84,7.688579571166619,-0.9335571401261645,215.39451895161585,-46.48646943520019,81.52084825302514,-72.10200818532293,215.68271562694306,124.06838239652053
85,7.599581350193221,-0.3445669277352883,215.63553137327466,-44.9494589161477,81.38250096652546,-71.37219013325875,215.9232575277517,122.8869365916033
86,7.508359740012012,0.25632538246981884,215.88800280342684,-43.79142543021722,81.32756671506586,-70.38366852894286,216.17523768684268,121.8094881277025
87,7.412590032342946,0.854875601862044,216.14618600489243,-43.031421071916284,81.38070148407837,-69.15734033801256,216.43283902159018,120.87324144090665
88,7.30973372854531,1.4369766165184303,216.40424735936375,-42.67541114775723,81.56081891697109,-67.71558311691928,216.69014378278243,120.10643589418969
89,7.197136784171306,1.9890602734205498,216.6564347114918,-42.71605761641438,81.88059473754454,-66.08170622315441,216.94130421627668,119.52763247542005
90,7.0721369203873765,2.4984817064695473,216.89724776633585,-43.13298117456646,82.34626650239298,-64.27943980761923,217.18071652910223,119.1454158017406
91,6.932175761488867,2.9538730730027543,217.12160525207813,-43.893499154649085,82.95773358923137,-62.332476138472664,217.40319220468157,118.95852235002774
92,6.774911243048734,3.3454549236739775,217.32500253443175,-44.95381723063988,83.7089466078104,-60.26407427173046,217.60412014288175,118.95638736108782
93,6.598325572889646,3.6652950176044286,217.503652958256,-46.26063462445436,84.58856075839603,-58.096735338232094,217.77961266115267,119.12008467017665
94,6.400824027572658,3.9075062611597238,217.6546062617522,-47.75310584537379,85.5808147802823,-55.851951947904716,217.9266284514706,119.4236164408127
95,6.181320068392905,4.068377559340195,217.7758382743252,-49.36508766971296,86.66658656255389,-53.550031592961105,218.0430664606725,119.83549412471353
96,5.939302697327869,4.1464336659894085,217.86630770038116,-51.027588639412535,87.82456861335912,-51.20999060053366,218.12782627854463,120.32053867544718
97,5.674882638873004,4.142422548146995,217.92597767691237,-52.6713302338237,89.03250168672548,-48.849512252040896,218.1808325461262,120.84181783963317
98,5.388814768208017,4.059231298687076,217.95580154416584,-54.2293243265491,90.26840317266594,-46.48496025010206,218.20302270377897,121.36263192155862
99,5.08249512059756,3.9017341902277503,217.95767372609893,-55.63937073795795,91.51172853273916,-44.13143687554848,218.1962989185258,121.8484573293269
100,4.757931772494204,3.676578980684515,217.93434784342585,-56.84638165324464,92.7444091222312,-41.802874050502055,218.163446319234,122.26875978388503
101,4.4176899529727365,3.3919199367656625,217.88932531320185,-57.8044462767552,93.95171790375251,-39.51214519185862,218.10802085861062,122.59859625214249
102,4.064812999036594,3.057108128380648,217.82671883017218,-58.4785590939971,95.12292524460963,-37.27118617539562,218.03421131499087,122.81993599801287
103,3.702722104068669,2.6823512989623763,217.75109624700488,-58.845948135116174,96.2517194415643,-35.09111480381987,217.94668110940975,122.92264587942064
104,3.335098971394246,2.2783569309695983,217.66731127912294,-58.8969551340451,97.33637997031632,-32.982339748264536,217.85039654178092,122.90510219671732
105,2.9657563022160653,1.8559728035281098,217.58032793054585,-58.63543673768735,98.37970477490931,-30.954651906875295,217.75044851387256,122.77440988312108
106,2.598501544297899,1.4258392075217945,217.4950454880853,-58.07867411308826,99.38870530102548,-29.017293351168878,217.65187472729713,122.54622842291612
107,2.2369996243675705,0.9980660632075875,217.4161304731883,-57.25679665807446,100.3740937666651,-27.179001292369076,217.55948884281904,122.24422155590311
108,1.8846405412508156,0.5819466627185593,217.34786126511506,-56.21174345588823,101.34959596272138,-25.448026585312043,217.47772236548582,121.89916385309412
109,1.544417650008447,0.1857177903006283,217.2939903055256,-54.995803161225346,102.33112949830006,-23.832128101657645,217.41048417664393,121.54775114752779
110,1.2188221131217314,-0.18362643419680902,217.25762780790913,-53.66978865502761,103.33589177160361,-22.33854586030498,217.3610416214512,121.2311731631167
111,0.9097582868326054,-0.5204625182136605,217.24114970718068,-52.30091644002774,104.38140400276397,-20.97395709485502,217.33192586679834,120.99351504059092
112,0.6184838076175825,-0.820606092251231,217.24613137535613,-50.96047169061894,105.48455734389717,-19.744420354793068,217.32486304882724,120.88005930401555
113,0.3455769441020829,-1.0813228079242196,217.2733076715019,-49.72134743851533,106.66070435757145,-18.655313144357763,217.3407317940003,120.93556071426812
114,0.09093243414302694,-1.3012862044421347,217.32255930250747,-48.655549949573356,107.92283417055472,-17.711268488800346,217.37954712499985,121.20256327660012
115,-0.14621443239850204,-1.480489176217307,217.39292511334455,-47.831761510429104,109.28086277833236,-16.916115308700522,217.4404704151061,121.71982175481703
116,-0.36723718179069276,-1.620117097436097,217.48263958457298,-47.31304655846628,110.74106195632213,-16.272826722851264,217.52184471643875,122.52088026482224
117,-0.5740439468348628,-1.7223914402462643,217.58919440193668,-47.15477776466491,112.3056417838414,-15.783479459958043,217.6212543713171,123.63284907201714
118,-0.7689836189613761,-1.7903928912898017,217.70942254649003,-47.402846089515485,113.972493589307,-15.449226472973395,217.73560739176966,125.07540879759327
119,-0.9547369352994773,-1.827872672557869,217.83960301888646,-48.09220396720455,115.73509268821172,-15.270283699880755,217.86123874753258,126.86005978875414
120,-1.1341974016211842,-1.8390601730911278,217.9755840379771,-49.24577472164662,117.58255395335064,-15.245930860631818,217.9940324210029,128.98962404591137
121,-1.3103470110097992,-1.8284741351977822,218.1129221913717,-50.873745179330676,119.49982827591302,-15.374525401043195,218.12955972056167,131.45799820730664
122,-1.486131508318448,-1.800743487005952,218.24703437369814,-52.97324323505837,121.46802453913035,-15.653528307836146,218.2632307007819,134.25014892595152
123,-1.6643394547389794,-1.7604425425019659,218.37335839982134,-55.52838870274806,123.46483995032935,-16.079540550384806,218.39045459011967,137.3423367190434
124,-1.8474886321972912,-1.7119438797948618,218.48751713953948,-58.51069479128624,125.46508142616618,-16.648349316825744,218.50680408612735,140.70255109795644
125,-2.0377225540516957,-1.6592909591672915,218.58548012818892,-61.879789386546186,127.4412619332536,-17.35498392854612,218.6081774850259,144.29113837887317
126,-2.2367191640803608,-1.6060915964155662,218.66371594485338,-65.58442014174052,129.36425773986863,-18.19378220776331,218.69095194719122,148.06160367973942
127,-2.4456133063338763,-1.5554327865191133,218.71932826350567,-69.56370508289655,131.20401475600423,-19.158468938603004,218.75212081036727,151.96156968355305
128,-2.664934308914951,-1.5098169927091687,218.75016852405528,-73.74859065597288,132.93029385856323,-20.242248665268228,218.78940790098608,155.93387615253027
129,-2.8945600632394406,-1.4711197737509076,218.75491874446666,-78.06348121719313,134.5134458296371,-21.437915203874567,218.8013523661865,159.91780529823328
130,-3.1336892010034436,-1.4405684651237707,218.73313902367846,-82.42800705744617,135.92520604873133,-22.737979776783202,218.78735857657657,163.85041844660444
131,-3.3808331908567943,-1.4187415526257587,218.6852756849821,-86.75890129810993,137.1394973720703,-24.134818556664065,218.7477070481561,167.66798862116352
132,-3.633830206520731,-1.4055883795438833,218.61262786637553,-90.97195858695852,138.1332268787408,-25.620838659466596,218.68352418480538,171.30751146315944
133,-3.889882330519002,-1.4004688761777238,218.5172727701238,-94.98404966693454,138.88705869453477,-27.18865940319836,218.59671104048775,174.70827319218176
134,-4.145617031829509,-1.4022130314730894,218.40195258167805,-98.71516484130653,139.38614137815463,-28.8313032359653,218.4898340851987,177.81344910054344
135,-4.397172968319859,-1.4091997700583414,218.26992887916637,-102.09045556095545,139.6207648799054,-30.542388448885152,218.3659837521852,180.57169954715374
136,-4.64030909037368,-1.419454647996256,218.12481280964698,-105.04223668944223,139.58691933628714,-32.316313880579635,218.22860897855557,182.93872295516624
137,-4.870534758235246,-1.4307652267917965,217.97038114469427,-107.5119029752146,139.28672636490077,-34.14842447831736,218.08133776602784,184.87871757470003
138,-5.083257164979861,-1.4408121178524795,217.81038932485734,-109.45170305327919,138.72871343916012,-36.035145962086155,217.92779476276837,186.36569666029155
139,-5.273940996266081,-1.4473125789606582,217.64839263525656,-110.82630458187342,137.92790363884944,-37.97407707480434,217.77142687682937,187.38459631546385
140,-5.438274245952794,-1.4481722407579731,217.487585836857,-111.61407686707169,136.9056967659943,-39.96402912063625,217.61534709216147,187.9321127622989
141,-5.572333551202552,-1.4416391371308062,217.33067017234504,-111.80801459410834,135.68952353227564,-42.005004811461816,217.46220523348592,188.01720743197575
142,-5.672742238933615,-1.4264529446842773,217.17975484936173,-111.41622977071428,134.31226216475557,-44.09811187769221,217.3140925947292,187.66122506662586
143,-5.736814458849795,-1.4019814870676703,217.03629795011813,-110.46194950480387,132.81141609452422,-46.24541124088478,217.1724851842076,186.89758240543543
144,-5.762679383956418,-1.368336308389231,216.90108933673451,-108.98297452224683,131.2280620379413,-48.44970431751547,217.03822796701797,185.7710026670131
145,-5.749380472171941,-1.3264595307542748,216.77427571493203,-107.0305763575516,129.6055893245354,-50.71426860565395,216.91156010493714,184.33629299412135
146,-5.696946026389017,-1.27817528563237,216.6554258258021,-104.66783849058703,127.98826322485189,-53.04255451690229,216.79217904639657,182.65668692672446
147,-5.606428565091148,-1.2262006578008946,216.54363195536655,-101.9674765901946,126.41965661699419,-55.43785909116275,216.67933959729646,180.80180008471987
148,-5.479911739775319,-1.1741130863897924,216.43764260373254,-99.00920337198055,124.94100487892321,-57.902993714619086,216.5719828194302,178.84527257758307
149,-5.320484738076154,-1.126273287036462,216.3360200308209,-95.876732111941,123.58954766264281,-60.439963415905915,216.46888854260632,176.86219410028767
150,-5.132185308470218,-1.0877048810994168,216.23731527618716,-92.65453730966449,122.39692741149953,-63.04967493568835,216.36884421960536,174.92642511062454
151,-4.919913632918775,-1.0639340565941948,216.14025217504215,-89.42450930356387,121.38771732833158,-65.73168961990932,216.27082183667653,173.10793798578433
152,-4.689320110538891,-1.0607947230958739,216.04391106515314,-86.26265026046906,120.57815032480785,-68.48403519925573,216.1741538151473,171.47030423428234
153,-4.446670701591888,-1.084206586716286,215.94790238065693,-83.2359611576275,119.97511492901526,-71.30308760435574,216.07869837750042,170.06844723965722
154,-4.19869399656948,-1.1399350854343369,215.85252014599644,-80.3996632727423,119.57547430093003,-74.18353022604714,215.98498468960622,168.94676532264643
155,-3.952414744973342,-1.2333430234115468,215.75886566853362,-77.79488404851652,119.36575097811156,-77.11839376872126,215.89432838307596,168.13770879579036
156,-3.714979110581544,-1.3691440941962063,215.66893274488444,-75.44691707059005,119.32220367885776,-80.09917542346271,215.80890907189354,167.6608693509246
157,-3.4934772261289195,-1.5511684550609146,215.58564746390098,-73.3641405007103,119.41130454823498,-83.11603177045433,215.73180322630782,167.52261281520805
158,-3.294768619869496,-1.7821502138548475,215.51285788855208,-71.53764892956261,119.59060682803097,-86.15803575658794,215.666967935746,167.7162589945567
159,-3.125315844987267,-2.063546167963807,215.4552711813876,-69.94162156988418,119.80997525548548,-89.21348440577687,215.6191733358241,168.22278654132515
160,-2.991031255581491,-2.3953944237141993,215.4183379946136,-68.53441629926022,120.01313568381879,-92.27024078064625,215.59388368689477,169.01201768898136
161,-2.897141363493837,-2.7762205935762077,215.40808623797696,-67.26034563816826,120.13948741842155,-95.31609137093928,215.5970893380329,170.0442180889745
162,-2.848072533329174,-3.2029979776787085,215.43090870995903,-66.05205883087048,120.12611218522376,-98.33909881248076,215.63509413816126,171.2720313306218
163,-2.8473608898650795,-3.671166247665157,215.4933114668043,-64.83342536543365,119.90990767811032,-101.3279298700074,215.71426520495538,172.642656190032
164,-2.897588261167065,-4.174710494743548,215.6016320279829,-63.5227908936289,119.42977104544707,-104.27214003987248,215.8407541515724,174.10016716335284
165,-3.0003448723144155,-4.706299207752838,215.76173832570802,-62.036457727807374,118.62875798204834,-107.16239884701078,216.02020064676407,175.58787522498983
166,-3.1562184546080516,-5.257476238946356,215.9787204947806,-60.29223013404989,117.45614579595288,-109.99064367835598,216.25743033207772,177.05062602769982
167,-3.364808525699613,-5.818898587722921,216.2565881024186,-58.21286096322835,115.86933359892056,-112.75015453178656,216.55615956888605,178.43693731354725
168,-3.624763873188971,-6.380609237904422,216.59798530998842,-55.72924195936529,113.83551942472194,-115.43554711857038,216.91871931063548,179.70088668515578
169,-3.9338407434886165,-6.93233247853731,217.00393587648082,-52.78319562513485,111.33310234890523,-118.04268706220036,217.3458097338804,180.80367529551015
170,-4.288978878030532,-7.463778149858428,217.4736289715575,-49.329750893148855,108.35276719109537,-120.56853307171178,217.83629624051022,181.71481189239938
171,-4.686392339517141,-7.964941090211769,218.00425550341933,-45.33881617915625,104.89821974118674,-123.01092138589314,218.38705611659006,182.41288367477298
172,-5.121672036422119,-8.426382717814313,218.59090308530648,-40.79619926812545,100.98655137053564,-125.368306985306,218.9928835157525,182.88590379674184
173,-5.5898969631819995,-8.839483097936933,219.22651593616374,-35.703961314476786,96.64822314890878,-127.63947879378182,219.64645860726435,183.13124819265394
174,-6.085751354941704,-9.196653869862722,219.9019240848289,-30.08012942730038,91.92667096090437,-129.8232663630103,220.33838483996885,183.15521487678745
175,-6.603645106789499,-9.491504880844946,220.6059443392099,-23.957826288252825,86.87754431776888,-131.91825456229375,221.0572964359084,182.97225535522816
176,-7.1378348345816915,-9.718960187235876,221.3255536367569,-17.383903572312388,81.56760227058129,-133.92252090679148,221.7900364817189,182.60393904013918
177,-7.682542830730242,-9.87532209780935,222.04613359686277,-10.417186589780275,76.07329975125674,-135.83340775353378,222.5219043090912,182.07771709694495
178,-8.232070962881604,-9.958284906745277,222.75178324119256,-3.126449249930289,70.47910654411201,-137.64733904522012,223.23696912196777,181.42555244075183
179,-8.780906369565841,-9.966902598850758,223.42569475056655,4.411759252346593,64.8756086535504,-139.35968882998543,223.91844483471064,180.6824788774787
180,-9.323815670030717,-9.901516827563224,224.0505846491553,12.115321244136947,59.357447757934075,-140.9647065860715,224.54911867948684,179.8851463405961
181,-9.855924393726186,-9.763652631390672,224.60916996026728,19.89869039084797,54.02115838910079,-142.45550258547922,225.1118233281641,179.07040249972079
182,-10.37277860829297,-9.555889596698794,225.0846758793634,27.67488415726028,48.96296417309608,-143.82409524630305,225.58993927841954,178.27395496101516
183,-10.870386417534133,-9.28171570861632,225.461358750992,35.357272206220316,44.276593763862365,-145.0615215704997,225.96791148687146,177.52915329577482
184,-11.345238079485526,-8.945370327689128,225.72502599471403,42.861128652777374,40.05117408862921,-146.1580110358205,226.23176208917204,176.8659258541694
185,-11.794304805772425,-8.551681856074614,225.8635332889436,50.10493903784244,36.369253602699345,-147.10322231235943,226.36957972269875,176.3099018703966
186,-12.215017693559052,-8.105904824896736,225.8672388689864,57.01147180070651,33.30500207491379,-147.8865406238158,226.37196553728924,175.8817438506794
187,-12.60522957928133,-7.613560406889665,225.72939535432664,63.508637351675205,30.922626733631574,-148.49743140310804,226.2324165654485,175.5967081684026
188,-12.963163759040444,-7.080283764735868,225.44646121905225,69.53016509909547,29.275038034877813,-148.92584318415592,225.94762884650268,175.4644432058209
189,-13.287354382875897,-6.5116811569548085,225.01831685881857,75.01613043795633,28.40279220791443,-149.16264954538505,225.51770555188077,175.4890246455577
190,-13.576583809570655,-5.913199340212371,224.44837409045454,79.9133607757044,28.33333198054475,-149.2001165280251,224.94625923864547,175.66921711297366
191,-13.82982222526515,-5.2900095970450085,223.7435727202591,84.17574345360104,29.08054098256995,-149.032378559999,224.24040213770158,175.9989408774615
192,-14.046174372938856,-4.646908686355823,222.9142632829352,87.76445048075091,30.644620614554697,-148.6559029148871,223.41062381019927,176.46791246803502
193,-14.224837436713642,-3.9882390356541473,221.97398067904825,90.6480871320582,33.01229007321639,-148.0699205514898,222.4705610773927,177.06241973269644
194,-14.365073149950838,-3.3178304448226403,220.93911855871383,92.80276547669554,36.157300383609304,-147.27680016550144,221.4366701851596,177.7661859929479
195,-14.4661961083915,-2.638965429745106,219.82851830747305,94.2121012583415,40.041241708313756,-146.28234265113667,220.3278151026537,178.56127527102413
196,-14.527579032944997,-1.954370083063075,218.662988972033,94.86713399541992,44.61461043157598,-145.0959750124966,219.1647882608435,179.42899148963082
197,-14.548674434820711,-1.2662318083829247,217.46477532995777,94.76617545360955,49.81808971835002,-143.73082615097047,217.9697808292258,180.3507289422864
198,-14.5290510885242,-0.5762442228118472,216.25699093469478,93.91459937408665,55.5839861172658,-142.20367189804332,216.76581920192297,181.30873848859312
199,-14.468443161601613,0.11432222009191147,215.0630320309454,92.32459316859168,61.83775716969326,-140.5347429235284,215.57618340836794,182.28678255520703
200,-14.366809726734223,0.8045275550051653,213.9059873221709,90.01489739523782,68.49956228639458,-138.74739614488044,214.42382226159202,183.2706605486474
201,-14.224402427335704,1.493653453981399,212.80805800894333,87.01055864405662,75.48577170586498,-136.86765725329533,213.33077951536092,184.24859337121626
202,-14.04183904724737,2.181085772974683,211.79000241632215,83.34271449083838,82.7103754416321,-134.92364832031922,212.31764521271532,185.2114606937858
203,-13.820180522517427,2.866196936796221,210.87061975878308,79.0484156608476,90.08624446935518,-132.94491971974801,211.403046631889,186.15288752253517
204,-13.561008501252152,3.548236496558714,210.06628774146503,74.17047274220387,97.5262086834462,-130.96170952969993,210.60319336172955,187.06917798004204
205,-13.26649999201536,4.226237036851356,209.39056826064126,68.75729666040263,104.94392934648491,-129.00415606457193,209.93149057165297,187.95909506359826
206,-12.939495095548528,4.898940465719919,208.8538941103205,62.862688387021,112.25455722894367,-127.10149029987731,209.39823315763212,188.8234867828456
207,-12.583553412142088,5.564746979969643,208.4633472467794,56.54552818122316,119.37518111982588,-125.28123491212841,209.0103910703765,189.66476314857064
208,-12.20299453206763,6.221686354384853,208.22253593411122,49.86932033805806,126.22508484896163,-123.5684357261713,208.77149288873724,190.48623638831728
209,-11.802918107776092,6.8674092921780305,208.13157426954197,42.901565371121826,132.72584431107293,-121.98494976398551,208.68161087056254,191.2913487264707
210,-11.38919941843588,7.499195634437228,208.18716350768526,35.71295432112485,138.80130867121332,-120.5488119593811,208.73744664346017,192.08282642894676
211,-10.96845708780628,8.113976100834591,208.38277058229033,28.37640421636391,144.37752076577388,-119.27370002987915,208.93251271240572,192.8618123783461
212,-10.547990692322902,8.70836460941711,208.7088955399082,20.965974378962866,149.38263911908751,-118.16851407793878,209.25740134001035,193.6270388344306
213,-10.135687342859807,9.278698821686318,209.15341646053525,13.555716569980678,153.74692653738234,-117.23708434761471,209.7001293006161,194.3741050879264
214,-9.739897829513522,9.821087160569762,209.70199791237252,6.218516497305022,157.40286703234943,-116.47801729182112,210.24654457394908,195.09492104655055
215,-9.369284418526659,10.3314609714188,210.3385470594501,-0.9750191624892457,160.2854637132086,-115.88468676260821,210.88077919720507,195.77736841434216
216,-9.032643726321089,10.805630660780404,211.04570029922198,-7.957584952917485,162.332755886552,-115.4453737233821,211.5857313089611,196.40521767953172
217,-8.738709211307983,11.2393446474319,211.80532295436007,-14.666074311093357,163.48657521483545,-115.14355435637104,212.3435590966481,196.9583232483387
218,-8.495938778111206,11.628349988146496,212.5990051801388,-21.04233092290628,163.6935401125985,-114.95833272020273,213.13617001659364,197.4131021025914
219,-8.31229386721964,11.968453739980115,213.40853870792697,-27.033742954718495,162.90626631786006,-114.8650101009148,213.94569013846754,197.74328436655526
220,-8.19501724314195,12.255584487538552,214.216360974786,-32.59367911287891,161.08475117890296,-114.83577883294458,214.75490042734978,197.92090798155408
221,-8.150417468112316,12.485853827485453,215.0059552720351,-37.68177425183825,158.19787069399595,-114.84052368129441,215.54762889064622,197.91751501000115
222,-8.183668666545811,12.655617733033353,215.76219761295462,-42.2640802647441,154.22491253692004,-114.84770903569003,216.30908959861674,197.70549450825868
223,-8.298634502120459,12.761537517479937,216.47164302119555,-46.3131050307336,149.15705593280106,-114.82532544923885,217.02616157518565,197.25950690656956
224,-8.497725126836086,12.800639646473352,217.1227459272459,-49.807767604069824,142.99870115786757,-114.74186479222544,217.687602499483,196.55791789384494
225,-8.781795061709273,12.770373010013254,217.7060114869617,-52.733300855471676,135.76854864494786,-114.56728984048017,218.28419421781518,195.58416653382358
226,-9.150088463323195,12.668661531417989,218.21407703486017,-55.08113290595556,127.50033130684639,-114.27396189007342,218.8088193765891,194.32799353398457
227,-9.600236083213009,12.493949326832912,218.64172546802618,-56.848775776465295,118.24311470324103,-113.83748947965654,219.2564709736952,192.7864620605487
228,-10.128305623279557,12.245235325277829,218.98583484652704,-58.03974381010374,108.06109844806976,-113.23746296084603,219.62419903126346,190.96471560619761
229,-10.728904382739117,11.922094571306936,219.24527068978733,-58.6635158303134,97.03287813232912,-112.45804368097544,219.91100073107754,188.8764345553163
230,-11.395330323169745,11.52468439711156,219.42072937887144,-58.7355440448685,85.2501581773213,-111.48838275702126,220.11766226307324,186.54397345068537
231,-12.119765128223548,11.053735057189295,219.51454282309214,-58.27730003817863,72.81593969849158,-110.32285237067246,220.24656238640074,183.99818189962068
232,-12.893500646931578,10.510525942421634,219.53045593606512,-57.31633485245463,59.842240625544484,-108.96108163232417,220.30144909392303,181.27793075734633
233,-13.707188435490044,9.896849860580797,219.4733890794452,-55.88631757046429,46.447435216489794,-107.40779873196338,220.28720138255247,178.42937933051988
234,-14.551101067424353,9.214968938070045,219.34919719846175,-54.027006666722166,32.75332449072325,-105.67249067924891,220.2095876893435,175.50502737332133
235,-15.415393478408404,8.467566412585198,219.16443600467673,-51.78410243153972,18.882066413557247,-103.76890085337267,220.0750311738858,172.56259735494066
236,-16.29035281965861,7.657698941550229,218.9261436226192,-49.2089285287847,4.953103959354379,-101.71439238652948,219.89039008521206,169.66378901309184
237,-17.166626158161304,6.788754045036851,218.64164393845977,-46.35789719274005,-8.919769936388056,-99.5292116835725,219.6627592942174,166.87294179373603
238,-18.035416971773365,5.864416949664607,218.31837564288938,-43.291725715941,-22.631079009063825,-97.23569059233702,219.39929689389794,164.25563388931457
239,-18.888643700880404,4.888650438016571,217.96374872837657,-40.07439065939457,-36.0859456948507,-94.85742725739297,219.10707765998114,161.8772411865748
240,-19.719056369658354,3.8656903274257797,217.58502809283516,-36.77182877425483,-49.201894538135065,-92.41848413769104,218.79297321726108,159.80147664885416
241,-20.520310088314986,2.800057833478736,217.18924210849067,-33.45041776459019,-61.91011039186448,-89.94263721484963,218.46355712792388,158.08893077834463
242,-21.286996743763265,1.6965883350661644,216.7831127511765,-30.175293444172265,-74.15611552515156,-87.45270376932247,218.12503198708694,156.79563630877834
243,-22.01463816035786,0.560474177568432,216.3730032766248,-27.008580193019412,-85.89986142951611,-84.96996824633528,217.783175081048,155.9716839637057
244,-22.6996454095801,-0.6026825473818939,215.9648794297726,-24.007626616967702,-97.11526149676568,-82.51371764313787,217.44329918440042,155.65991951524822
245,-23.33924986389329,-1.7868126246927616,215.56428056644583,-21.223346013155776,-107.7892178682572,-80.10089026809253,217.11022544033023,155.89475434471532
246,-23.931412136705784,-2.9853240402329755,215.1762975798496,-18.69876037270317,-117.92021816952445,-77.74583513022696,216.78826572240087,156.70112182049334
247,-24.474715221248072,-4.191054858796534,214.80555497770084,-16.46783686676098,-127.51659463792683,-75.4601739192958,216.48121223600705,158.09361041095337
248,-24.9682478886599,-5.396241628801848,214.45619486517847,-14.55468773351113,-136.59454891190228,-73.25275373984809,216.1923323926882,160.0758022834309
249,-25.411483814236405,-6.592509817310798,214.13186111633004,-12.973179768137589,-145.17605045456858,-71.12967654414562,215.9243673489346,162.6398437868281
250,-25.804161195776917,-7.770891616115578,213.83568277680186,-11.726970477280938,-153.28671549159404,-69.09439040890577,215.67953317885548,165.766271632877
251,-26.146167024768825,-8.92187470558017,213.57025664207038,-10.809957229314653,-160.95376695221833,-67.14782804433413,215.4595243775747,169.42411503980279
252,-26.43742975162162,-10.035483481536545,213.33762974848517,-10.20709657830801,-168.204164959645,-65.28857880845094,215.26552003029352,173.57128855374967
253,-26.67782376616215,-11.10139209562302,213.1392829737906,-9.895526360512969,-175.06298289735773,-63.51308175165293,215.09819329891752,178.15528203819343
254,-26.86708868201951,-12.109066607220566,212.97611699125395,-9.845905425252555,-181.55208708971782,-61.815828660881245,214.9577247772647,183.1141435355179
255,-27.00476566224446,-13.047931728252351,212.84844155316244,-10.023876215332033,-187.68915978770357,-60.18956756821293,214.8438198254338,188.37773829752425
256,-27.09015192114596,-13.90755614247976,212.75596873333416,-10.391554141907921,-193.487086427246,-58.62549869276736,214.75572945288437,193.86925468429357
257,-27.122273248819244,-14.67784926517512,212.69781057782473,-10.908954347490498,-198.95370982757703,-57.11345643743103,214.69227394845328,199.50691630038088
258,-27.099873167361665,-15.349261725715035,212.6724816499365,-11.535280014926505,-204.09193678516496,-55.64207313743964,214.6518683498596,205.20585079265888
259,-27.02141637280362,-15.912981957172075,212.67790704666373,-12.23001544333692,-208.9001670064544,-54.19892303041357,214.63254888762359,210.88005979481932
260,-26.885103693738817,-16.36112201363423,212.7114364574451,-12.953789949002136,-213.37300109421284,-52.77064851570935,214.63199961289973,216.44443169638237
261,-26.688896129815827,-16.686886868909394,212.769864778709,-13.669003331776224,-217.5021739260241,-51.34307506097033,214.6475785905401,221.81673901469242
262,-26.430546625107436,-16.884722766238,212.84945985219747,-14.34022811964839,-221.2776528431251,-49.90132563316256,214.6763434595656,226.9195648210454
263,-26.107639750874597,-16.950441592460574,212.94599818106093,-14.93442590073204,-224.688837266335,-48.42994944562744,214.71507689987465,231.6821076805655
264,-25.717640927589976,-16.881319671575525,213.05480999809976,-15.4210325347139,-227.72579823638634,-46.91308199048298,214.760313523221,236.04182181452884
265,-25.25795783399141,-16.676170660190255,213.17083563830417,-15.771977761064974,-230.38050302599783,-45.33465274998778,214.80837068685955,239.94585858169518
266,-24.726017048812047,-16.33539315788229,213.28869548760142,-15.961706990051665,-232.64798063204617,-43.67865331973915,214.85538635475086,243.35228654672258
267,-24.119358674433634,-15.860994066532427,213.40277562034407,-15.967266078635555,-234.52739696951767,-41.9294724587513,214.89736716506357,246.23107954083255
268,-23.435750704254197,-15.256588687142036,213.50733060097116,-15.768494134935994,-236.02302176191836,-40.07229682317179,214.93024931150808,248.56487392004712
269,-22.67332334780244,-14.527378213632574,213.59660391088045,-15.348346700549264,-237.14508033610514,-38.0935678921806,214.94997383911848,250.34950613263126
270,-21.830721698441742,-13.68010484478756,213.66496515609904,-14.693345015526448,-237.91049127597674,-35.98147775543039,214.95257661845352,251.59434827697774
271,-20.907273335912745,-12.722984287625753,213.7070616957839,-13.794120200691353,-238.34349453482946,-33.72647972192764,214.9342917107307,252.32246159235
272,-19.90316589219992,-11.66561503561584,213.717980700772,-12.645997997453991,-238.47617437818306,-31.32178464909954,214.8916651819901,252.57058559566352
273,-18.819628300833433,-10.5188635800541,213.6934160582276,-11.24955361693565,-238.34887833116008,-28.763810864556472,214.8216748226851,252.38897469172306
274,-17.65910834575119,-9.294724790762112,213.62983328210973,-9.611059665863978,-238.01052839321034,-26.05255497617357,214.72184997580388,251.8410862967034
275,-16.425438188678733,-8.006157147444846,213.5246250547658,-7.742754050922417,-237.51881541230253,-23.191853075465325,214.59038514858062,251.0031169610604
276,-15.123978825412859,-6.66689327045449,213.37625038439907,-5.662868727947741,-236.9402627665795,-20.18950664274667,214.42624144402743,249.96337747833206
277,-13.761734053056273,-5.2912272063111825,213.1843513807979,-3.39538226932699,-236.35014231319542,-17.057254010006513,214.2292308652533,248.8214955671299
278,-12.347424706653342,-3.893781050750259,212.94984289886446,-0.969486505512318,-235.83222459219803,-13.810575613650565,214.00007979564035,247.68743553052647
279,-10.891514702722299,-2.4892545596934768,212.67497150294176,1.58121357582139,-235.47834663860394,-10.468329087575036,213.74046916141353,246.6803275653138
280,-9.406181677776681,-1.092162276612556,212.36334134078962,4.219720435017322,-235.3877839843028,-7.052218531356401,213.4530498943241,245.927103804684
281,-7.905226545335333,0.28343657989062265,212.01990568560032,6.906816746035937,-235.66641777364143,-3.586111005294805,213.14143341360733,245.56094247743076
282,-6.403918038432318,1.62420958121692,211.6509241629663,9.602307216215824,-236.42569273584095,-0.09522215990665601,212.8101579895624,245.71952509103653
283,-4.91877029631584,2.9178174309524416,211.26388691239774,12.26624047374378,-237.78136669336783,3.3947985868053197,212.46463292710354,246.54311439699148
284,-3.4672538455655117,4.153168225698131,210.86740790149094,14.860025550364623,-239.8520571980544,6.858845359771333,212.1110632840454,248.17246372677616
285,-2.0674429137714845,5.320652360072597,210.47109012648565,17.347369794279857,-242.75759573653383,10.273351740136379,211.75635813028734,250.7465718653708
286,-0.7376048537239431,6.412350728051522,210.0853654504342,19.6949844737397,-246.61720473763896,13.617257782438562,211.40802511851015,254.40030245036402
287,0.5042595190309184,7.422209118332782,209.72131146630747,21.873028342042744,-251.54751741836532,16.87289988375199,211.0740534952725,259.26189301493065
288,1.6409128136506441,8.346172246014513,209.39044732464995,23.855285055422954,-257.660465455252,20.026777679376607,210.76278693089196,265.4503859337024
289,2.656400534691834,9.182271603430246,209.10451027644766,25.619094647152373,-265.0610646403257,23.070157758969376,210.48278702605307,273.07302114035036
290,3.5365763987038514,9.930662225844085,208.8752148519568,27.145079803003895,-273.8451339344153,25.999482488568304,210.2426881671526,282.2226378744435
291,4.269615660947606,10.59360461828569,208.71399694335247,28.416722693902692,-284.0969882198641,28.81656292327477,210.05104438727935,292.97513909791854
292,4.846498608770073,11.175389481720277,208.63174546462847,29.41985662857182,-295.8871488199876,31.528546724879163,209.91616895123684,305.38707671535724
293,5.261447347221769,11.68220447019535,208.63852490947116,30.14213859368485,-309.2701175339593,34.14766398974011,209.8459677275751,319.4934173924792
294,5.512300742321104,12.121944037847106,208.7432932590764,30.57256435509414,-324.2822586894417,36.690764808237184,209.8477683025052,335.30554682071653
295,5.600814733026872,12.503965524181798,208.95362124483287,30.701078267504116,-340.9398292141156,39.17867134438589,209.9281481843017,352.80956446574294
296,5.532878065782546,12.838796853196614,209.2754206039773,30.51831670520863,-359.23718938384695,41.635373738794,210.09276700175937,371.96491161766875
297,5.318636703460343,13.137803337570189,209.71269036253463,30.015508657457033,-379.1452178453624,44.087103030207444,210.34620898234547,392.70336406181315
298,4.972523494368898,13.412822881394403,210.2672911702153,29.184541085112397,-400.6099453806454,46.56131564501395,210.69184301417582,414.92840854917887
299,4.513192883675724,13.675780323230589,210.93875815279978,28.018181516307965,-423.55141451476936,49.08562312099421,211.13170809383325,438.5150113158209
300,3.9633632309052653,13.938292818753151,211.72416246219663,26.510437244593753,-447.86276807615013,51.686698119755285,211.6664317585265,463.30977885360386
301,3.349571478186196,14.211279031912659,212.61803058975786,24.657020294318798,-473.40957021826136,54.389184120135674,212.29518809197322,489.13150711017846
302,2.701846477986775,14.50458534133941,213.61232860513036,22.455880615772557,-500.02936848453294,57.21463223517604,213.0157001186625,515.7721157249965
303,2.053308302358046,14.826642096764528,214.69651592001222,19.907766929601994,-527.5315148398835,60.18048507394992,213.82428899345004,542.9979685424216
304,1.439701331739934,15.184162155437011,215.85767011185789,17.016774964725716,-555.6972762366099,63.29912495922398,214.7159695233911,570.5515896419151
305,0.8988688756110584,15.5818926256721,217.08068099303293,13.790845855081308,-584.2802797865311,66.57700219915203,215.68458846166055,598.1537941213036
306,0.4701766773297279,16.022429066175523,218.34850879691626,10.242182323347377,-613.0073521421393,70.01385824219987,216.722999027184,625.5062630676155
307,0.19389216862947586,16.506099359309303,219.64249843252293,6.3875561717585905,-641.5798251338306,73.60205811802068,217.82326259570777,652.2946004869824
308,0.11052593985293986,17.030922085783104,220.94273947895792,2.2484868512801666,-669.6753878398574,77.32604646441253,218.9768667257412,678.1919143071595
309,0.2601416345692734,17.592641526310413,222.22846002055303,-2.1487230470057215,-696.9505670095454,81.16194166170641,220.17494769445773,702.8629619758096
310,0.6816404177496852,18.18483854476809,223.47844155542748,-6.773104041567797,-723.0439115003289,85.07728304554388,221.40850551430802,725.9688921816505
311,1.412026403678021,18.79911375653859,224.67144209688294,-11.589291770408643,-747.5799411252602,89.03094657069215,222.6686000292647,747.1725969652693
312,2.485660064410703,19.425336699299763,225.78661534273454,-16.557955180360462,-770.1738957137068,92.97324429516614,223.94651825715425,766.1446627752528
313,3.933507781757761,20.051952316514214,226.80391543422522,-21.63637888194958,-790.4372866680939,96.84622230773202,225.23390566619292,782.5698754051028
314,5.782397474486916,20.666334122743052,227.70447914448565,-26.77919634369783,-807.9842120534288,100.58416989853359,226.52285732851584,796.1541935397083
315,8.054292638945002,21.255172151888345,228.47097988132592,-31.939270108753135,-822.4383493283854,104.11434953558525,227.80596843025853,806.6320609867574
316,10.765599945623833,21.804883233266978,229.0879501758168,-37.06871504352591,-833.4404901239686,107.35795232224788,229.0763469241887,813.7738815452318
317,13.926528256918276,22.302031115245498,229.54207104129424,-42.12006022290164,-840.6564326704156,110.23127704857087,230.32759381439928,817.3934365945804
318,17.54051901543585,22.733744240214975,229.82242763951592,-47.0475439676682,-843.7850037067702,112.64712295444068,231.55375850411025,817.3549880554841
319,21.603768932793425,23.088119504089203,229.9207311418357,-51.808534427850844,-842.5659471199357,114.51637741840476,232.74927781547754,813.5797825400373
320,26.104865519599606,23.35460116122597,229.83150665110028,-56.365064663261975,-836.7873947383614,115.74977074203939,233.90890778326477,806.0516598638943
321,31.024554224465863,23.524325107700335,229.55224668562633,-60.6854662986845,-826.2926282268808,116.25976189844093,235.02765721010925,794.8214731765622
322,36.33565298602566,23.590419875106747,229.08352906543746,-64.7460797537065,-810.9858512520299,115.9625123519994,236.10073123212425,780.0100500455837
323,42.00312606038151,23.548256602861077,228.42909704891613,-68.5330122379287,-790.8367181331218,114.77990038400354,237.12349168693115,761.8094638564218
324,47.98432417739599,23.395641022060772,227.59589831175424,-72.04390756985079,-765.8834079215627,112.64152602553622,238.09143892958133,740.4824414497948
325,54.22939255271225,23.132941218559413,226.59407812344458,-75.28968459794082,-736.2340888084912,109.48665670589808,239.00021718165317,716.3598031861557
326,60.681842417774845,22.763145779432886,225.43692119615204,-78.29619361495222,-702.0666832945109,105.26606587891196,239.84564289144743,689.8359114753147
327,67.27927607452301,22.291847892094303,224.14073632697725,-81.10573277055879,-663.6269151305536,99.94372077831301,240.62375316346885,661.362188132536
328,73.9542505375166,21.7271520525167,222.72467819500656,-83.77835941674626,-621.2246897001112,93.49828037229958,241.3308692464422,631.4388440925057
329,80.63526092098337,21.079501325646376,221.21050167011617,-86.39292506418728,-575.2289254301987,85.92436962848438,241.9636686315805,600.6050414380477
330,87.2478219947179,20.361424756044425,219.62224593112396,-89.0477577248356,-526.0610109208576,77.23360060219449,242.51925882603183,569.4277725053869
331,93.71562474319242,19.587206731635522,217.98584853958326,-91.86091233559462,-474.18710802932776,67.45531436325281,242.99524641566344,538.4897904776049
332,99.96174417120787,18.772482920459513,216.32869304850357,-94.96990915535794,-420.10955394799134,56.63702062108549,243.38979638453208,508.3769584413783
333,105.90987477319918,17.933770658347512,214.67909731357932,-98.53088207542811,-364.35763549350094,44.844514511141355,243.70167842191506,479.66539881086965
334,111.48557074223328,17.087945009147855,213.06575305967965,-102.71706440058983,-307.4780171975303,32.16165271072977,243.93029874745753,452.9088226278397
335,116.61746888889431,16.251674807079524,211.51713020625016,-107.7165496081806,-250.02510224566413,18.68977418297689,244.07571756502225,428.6263992464583
336,121.2384731673902,15.440835664247343,210.06086183956003,-113.72927957680834,-192.55159264233774,4.546754844634257,244.13865347112844,407.2914925246071
337,125.28688046588239,14.669919192752284,208.72312743283874,-120.96323343516195,-135.59949331125236,-10.134309140208265,244.1204768759182,389.32154231358237
338,128.70742779183635,13.95145951613563,207.52805283332938,-129.62981710813216,-79.69177600142996,-25.206787431992616,244.02319463438138,375.0693139938143
339,131.4522413131869,13.295499306496051,206.4971455398652,-139.93848716314187,-25.32488511859683,-40.51255946456841,243.84942762993322,364.81567957802486
340,133.48166827678034,12.709117808983187,205.6487828088138,-152.09068225678453,27.03776897010004,-55.884393178944,243.60238213744665,358.764036944005
341,134.76497396270744,12.196042490101341,204.99776812536902,-166.27317973822804,76.97122144817314,-71.14862214471674,243.28581459551916,357.0364231011013
342,135.28088766872523,11.756364069179094,204.55496867327972,-182.65104101394584,124.09319986179072,-86.12807046568224,242.90398811804144,359.6713351526788
343,135.01798417776274,11.386371708648433,204.3270429953457,-201.3603536353165,168.0671749816743,-100.64516088689673,242.46161793967184,366.6232393481652
344,133.97489013882094,11.07852095428318,204.31626459098968,-222.50101701240538,208.6042229032873,-114.52512907639881,241.9638023782865,377.7637239671688
345,132.16030830595759,10.821541649158751,204.52044414110185,-246.129848503835,245.46374411308815,-127.599257394674,241.41593610538942,392.8842348085159
346,129.5928567462231,10.600686709960433,204.9329504353172,-272.2543039743003,278.4531231135072,-139.70803558081008,240.8236035932736,411.7003212432987
347,126.30072494659416,10.39811576222946,205.5428277058513,-300.8271089696394,307.4264477394385,-150.70415438506555,240.19245231737287,433.8573140335718
348,122.32115397069006,10.193400745973744,206.3350047897656,-331.74208169693617,332.2824381955842,-160.4552417409721,239.52804726719086,458.9373509088897
349,117.6997530335569,9.96413435011854,207.2905894335743,-364.8313965570023,352.9617594803156,-168.84625976973308,238.8357103005288,486.4676594792578
350,112.48966968451674,9.686617075102735,208.3872393688446,-399.8644879419234,369.4439047383856,-175.78149441737588,238.12034976788797,515.9299966076223
351,106.75063488903533,9.336595240186943,209.59960069638538,-436.54873058332936,381.7438392570975,-181.18608687980117,237.38628755597367,546.7711262420718
352,100.54790746565622,8.89002050623628,210.8998035907679,-474.53195831923307,389.908584355747,-185.0070756584634,236.63709210405955,578.4141920242128
353,93.95114454177858,8.323801475301023,212.2580052232714,-513.4068020796379,394.0138978363229,-187.2139383396437,235.8754269159341,610.2708062923639
354,87.03322604843481,7.616519572069342,213.64296992422598,-552.7167451399285,394.1611751509295,-187.79864135520194,235.10292457129918,641.7536350105443
355,79.86906178514661,6.749084540690978,215.0226767826521,-591.9637146101221,390.4746565813695,-186.77522280722428,234.32009613673083,672.2892125688655
356,72.5344090888818,5.705309212836996,216.36494496048152,-630.6169582463922,383.09898480673417,-184.17894716907676,233.52628503838892,701.3306770526282
357,65.10472749487505,4.472388325007748,217.63806695327457,-668.1229002687867,372.1971184529501,-180.0650810615581,232.71967285663152,728.37008207123
358,57.654094044453174,3.0412716398193465,218.8114399333241,-703.9156332880043,357.9485740305509,-174.50734650063947,231.89734228013072,752.9499217559768
359,50.254199353939676,1.4069269910917133,219.85618517964554,-737.4276884183229,340.54794340965253,-167.59611238812516,231.05539977437124,774.6735056363019
360,42.97344056645216,-0.431506309225645,220.7457453361371,-768.1007328850571,320.20361778565035,-159.4363869667022,230.18915745441004,793.2138419595984
361,35.87612312057756,-2.4706692704139477,221.45644877705848,-795.3958724408338,297.1366419650012,-150.1456738362891,229.29337028634274,808.320731151436
362,29.02177901451653,-4.703032668913237,221.9680297893269,-818.8032812103737,271.57962375242937,-139.85175219632313,228.36252127657718,819.8258325857117
363,22.46460508153485,-7.117034257483068,222.26409282965392,-837.8509392878186,243.77563044061995,-128.69043839284151,227.3911440677287,827.6455428809282
364,16.253020988176207,-9.6972923655197,222.33250902262864,-852.1123229088015,213.9770156129747,-116.80338067382306,226.37416968978363,831.7816067982644
365,10.4293434580184,-12.424883961250885,222.16573348056158,-861.2129576452701,182.44413238057504,-104.33593237649646,225.30728234706547,832.3194665446264
366,5.029570699331251,-15.277675615809809,221.7610329825514,-864.8358066283101,149.44390197244803,-91.43514082869285,224.18726813905957,829.4244364330102
367,0.08326916067890162,-18.230696959932267,221.12061504453922,-862.7255189648916,115.2482183192686,-78.2478804925641,223.0123405307208,823.3358629478157
368,-4.386446452939531,-21.256547922696363,220.25165145159343,-854.6916050464297,80.13217987146768,-64.9191499104382,221.7824272104325,814.359491990714
369,-8.362849468041825,-24.3258329558344,219.1661919171377,-840.6106333375994,44.372149968442315,-51.59054346381639,220.49940468343124,802.8583132924267
370,-11.835463197749986,-27.407617168497357,217.88096666753987,-820.4275567641322,8.243657383294853,-38.39890137649313,219.16726948174997,789.2421856209094
371,-14.799857125926122,-30.46990048735249,216.41708034947203,-794.1562765508697,-27.98084031697847,-25.47513514475996,217.79223809632808,773.9565654707212
372,-17.2573847073525,-33.48010645785296,214.79960353667758,-761.8795390276248,-64.0342962734395,-12.943220805986336,216.3827714212418,757.4706672833717
373,-19.214868939723132,-36.405582100118274,213.05707197084521,-723.7482392001324,-99.657470602782,-0.9193490852647015,214.94952331303656,740.2653766311635
374,-20.68424087951273,-39.21410438755829,211.22090713290842,-679.9801770434899,-134.60132653374345,10.488780814298316,213.5052164190305,722.8212214848139
375,-21.682135710749602,-41.87438756966641,209.3247744496699,-630.8582819822727,-168.6293611669664,21.182538644680342,212.06445135829483,705.606683289142
376,-22.229450897166082,-44.356583936541725,207.4038971981369,-576.7282913206803,-201.51980129794094,31.072828059351288,210.64345746233124,689.0671018756962
377,-22.35087140669041,-46.63276894920031,205.4943449870612,-517.9958428256673,-233.06759559251287,40.08045684526525,209.2597946292324,673.6143990686107
378,-22.074367957093983,-48.67740011867589,203.6323156681696,-455.12292337733874,-263.0861406865846,48.13643186981157,207.93201651958012,659.6178177574348
379,-21.430675389035148,-50.46773784023211,201.85342873933317,-388.62360726357264,-291.4086899510279,55.1822000399319,206.67930540153597,647.3958481192805
380,-20.45275913228278,-51.9842159286411,200.19204687962895,-319.0590212318666,-317.8894087126549,61.16985856256629,205.52108857253504,637.2094914252839
381,-19.175277929283702,-53.2107501465819,198.680640421307,-247.03148969195567,-342.40405747341623,66.06235949123634,204.47664567524257,629.2569940146948
382,-17.634050491202128,-54.13497456572192,197.3492074956241,-173.17784211939886,-364.8503038797138,69.83373406559768,203.5647155534816,623.6701677686519
383,-15.86553284773469,-54.74839794333203,196.2247603384412,-98.16190403039087,-385.14768357078407,72.46936060542113,202.80311058897917,620.5123957881066
384,-13.906312169774287,-55.046475302739054,195.33088581976097,-22.666239732046435,-403.237248248959,73.96629487621979,202.2083457383103,619.7783991581053
385,-11.792622025020437,-55.028593506245315,194.68738575619096,52.61673511429142,-419.080955037234,74.33367369238493,201.79528882996095,621.3958086700843
386,-9.559883436197504,-54.69797359004963,194.3100001336819,126.9941056120821,-432.6608632153959,73.59319155845182,201.57683815530694,625.2285412313818
387,-7.242275807270406,-54.06149662210002,194.21021415976796,199.7820691377626,-443.97821189340203,71.77963742643911,201.56363300390967,631.0819241198744
388,-4.872341859004986,-53.129463484689005,194.39514815931005,270.31557322056267,-453.05245481135944,68.9414655586181,201.763802503734,638.7094447380597
389,-2.4806311048037983,-51.915301972098995,194.8675277223772,337.9577340403645,-459.920326581702,65.14136249207095,202.18275782151605,647.8209360751324
390,-0.09538674886984085,-50.435236662028665,195.62573012637503,402.1087932733707,-464.6350089080245,60.45676241131228,202.82303228233303,658.0919471687502
391,2.25771922817033,-48.707937972751054,196.6639017323657,462.2143902252318,-467.2654559658596,54.98025651514684,203.68417307054338,669.1740006971011
392,4.555798785427907,-46.754166555685806,197.97213966263863,517.7729590758589,-467.89592502771933,48.81983829869016,204.76268674423505,680.7054105130378
393,6.778905589536747,-44.596427679870885,199.53672965232994,568.3421043249585,-466.6257410716686,42.09892577037787,206.0520389262447,692.3223210780336
394,8.910136687340751,-42.25864767087681,201.3404307926325,613.5438570145781,-463.5693023090089,34.956103077011164,207.54270656396181,703.6696363663012
395,10.935678824936625,-39.76588107928183,203.3627972256026,653.0687654727373,-458.85630789051766,27.544527469781038,209.22227946191344,714.4115245055667
396,12.844802239619396,-37.144053424005214,205.58052680176831,686.6788228593883,-452.63216112430484,20.03095281378581,211.07560658156692,724.2412125537091
397,14.62980681607131,-34.419740346823396,207.96782716610332,714.2092761742708,-445.05847382076746,12.594327883999929,213.0849818396069,732.8898201973343
398,16.285927274353007,-31.61998001290179,210.49679052854373,735.569395101474,-436.3135726213261,5.423936573081429,215.23036369531013,740.1340192994381
399,17.811205327460005,-28.772111746014577,213.13776937662163,750.7423025576243,-426.5928887801148,-1.2829420591667506,217.48962260129713,745.8023461432084
400,19.206337341177658,-25.90363036095564,215.85974657291683,759.7839812119751,-416.10910054378974,-7.323863267828307,219.83881039438236,749.7800332064019
401,20.474505798610313,-23.042042755787424,218.63069475358478,762.8215711341559,-405.09189295350103,-12.494530601378177,222.25244606014425,752.0122657536119
402,21.62120178410335,-20.214711502302006,221.4179218418843,760.0510630794696,-393.7872039067158,-16.592573499288452,224.70381320187235,752.5058040191165
403,22.65404395034021,-17.44866980453188,224.18840180014843,751.734470371416,-382.4558375140006,-19.421750612311065,227.16526602340116,751.3289432644722
404,23.58259732827956,-14.770393428468209,226.90909227738925,738.1965315121627,-371.371345618129,-20.796522838502987,229.6085425412874,748.6098112578932
405,24.418193126503038,-12.205517984322418,229.54724329780743,719.8209583721599,-360.8171050158314,-20.546920682477683,232.00508580910105,744.5330264106996
406,25.173748498360776,-9.778494067468605,232.07070324512884,697.0462050938653,-351.0825506470132,-18.5236095682392,234.32637581330573,739.3347616345565
407,25.86358324926296,-7.512177921319341,234.4482297142706,670.360695647097,-342.4585631942193,-14.603034098195355,236.54427593615844,733.2962815949894
408,26.503228745401817,-5.427361138864245,236.6498129097941,640.297418628431,-335.2320526666191,-8.692498506457463,238.63139802768322,726.7360474979187
409,27.109223112537272,-3.5422492137412513,238.6470179020155,607.427781220972,-329.67982683269423,-0.7350170008543779,240.5614889123889,720.0005164267835
410,27.69888656065228,-1.8719052894652262,240.41334916696007,572.354613643636,-326.0618832287172,9.286253747385722,242.30983856044446,713.4538026767657
411,28.29007167215742,-0.4276819974678396,241.9246366034229,535.7042325513494,-324.61431321360766,21.344204597729032,243.8537063671655,707.466415758399
412,28.900885778208295,0.7833295791493202,243.15943703169228,498.11750668598387,-325.5420524893998,35.36480054639062,245.1727573816494,702.4033413808173
413,29.549385764011596,1.7587996562709602,244.09943976084872,460.2399192498412,-329.01175061813706,51.22515712028624,246.24949555290885,698.6117843651305
414,30.25324918633408,2.501570691714389,244.7298601710197,422.7106863829491,-335.1450587387795,68.75286556620577,247.06967701880973,696.4089421593357
415,31.029428852126873,3.0199410309269212,245.03980231286943,386.1510660884033,-344.01264736257156,87.72673663024665,247.62268400071386,696.0702202799088
416,31.893800607644557,3.3277846606084505,245.02257074402524,351.1520725767767,-355.6292634918261,107.87908813386629,247.9018394688526,697.8183324109158
417,32.860815871734026,3.4444755825676574,244.67591315040468,318.2618926814735,-369.9501181410823,128.89964302522677,247.90464445313472,701.8137439235201
418,33.94317135623635,3.394593794503308,244.00217835279076,287.9733790593147,-386.8688622019762,150.4410352860383,247.63292341039315,708.1469139917016
419,35.151508404707236,3.2074014440941485,243.008378524988,260.71206427653993,-406.21736165438216,172.1258455802534,247.09286792101562,716.832763595582
420,36.4941535197256,2.9160916122407103,241.70614918510663,236.82519469261482,-427.76742407224793,193.55501224509229,246.29497447461176,727.8077394970953
421,37.976910235023006,2.55682719952675,240.11160507442813,216.57231645474627,-451.2345591434383,214.31739163282745,245.25387741985935,740.9297535958432
422,39.602910945424554,2.1676022291386063,238.24509392103658,200.11795062801045,-476.28377834186074,234.00017973427666,243.98808267325478,755.9811525171724
423,41.37253592707215,1.7869712489993475,236.13085317250685,187.52686386088587,-502.53735456911545,252.19985805774115,242.51961123166996,772.6747207214665
424,43.283405520298,1.452703241047192,233.79657724388883,178.76237038938058,-529.5843733258598,268.5332931381131,240.87356394771192,790.662557031399
425,45.33044997784644,1.200423647612237,231.27290496098803,173.68798937371963,-556.991815479397,282.6486019258593,239.0776206267342,809.547508555167
426,47.50605942220019,1.0623113084827522,228.5928389430281,172.07263174964166,-584.3168221699678,294.23539500190424,237.16148758033714,828.8967136122881
427,49.800313463118556,1.0659160702731623,225.7911107714379,173.5993110212618,-611.1197107505618,303.0340258708423,235.1563085542478,848.256704384764
428,52.201286249394414,1.2331576508097373,222.90350785410752,177.87717505798307,-636.9772441393076,308.84350680787907,233.0940545204538,867.1694510621036
429,54.695418249474365,1.5795573626273547,219.9661796312906,184.4564560903321,-661.4956123249618,311.5277986753165,231.00690807040814,885.188689276852
430,57.267941306214546,2.113742020202756,217.01494172940662,192.84574974759877,-684.3225709391215,311.02024190329814,228.92665779767574,901.895859058644
431,59.90333909091527,2.8372443568356607,214.08459645914252,202.530876423785,-705.1582023232286,307.32596570908487,226.88411687839815,916.9149956209968
432,62.585821622467215,3.7446074168259718,211.208286624266,212.99446265412624,-723.7638200226681,300.52218912800487,224.90857806577372,929.9259505495967
433,65.29979059954378,4.823782953020702,208.41689732955223,223.73531632528523,-739.9686241856859,290.75640669619565,223.02731484557245,940.6753866817965
434,68.03027237964,6.056797368952387,205.7385179710598,234.28666295279376,-753.6738249726769,278.24252975386986,221.26513608850206,948.9850799768769
435,70.76329771528081,7.420644579723445,203.1979744853234,244.23236191986138,-764.8540736522926,263.25512757853056,219.64399973034045,954.7571739956085
436,73.48621155098306,8.888354306183794,200.81644062141544,253.22032825986264,-773.5561665744411,246.1219775886484,218.18269013685045,957.9761630117096
437,76.18790155388182,10.430177258107378,198.6111364135127,260.97254052824263,-779.8951077440852,227.21518804284395,216.8965637181468,958.7075235833686
438,78.85893964772833,12.01482549214608,196.59512161653765,267.29120894688907,-784.0477264112236,206.9411981417615,215.7973674248867,957.0930668088258
439,81.49163584944502,13.610706819081086,194.77719091364855,272.06089838113843,-786.2441448399559,185.72998816532547,214.89313427890824,953.3432391079494
440,84.08000775481071,15.187096257276163,193.16187573979258,275.24663399315216,-786.7574774462015,164.02384605568926,214.18815868541853,947.7267513485243
441,86.61967206749785,16.715194794364592,191.7495544723739,276.88824841440356,-785.8922146048037,142.2660373943999,213.6830519754228,940.5580553796829
442,89.10766688355193,18.16903546931689,190.53666864140456,277.09144219274503,-783.9717999483182,120.88971450331883,213.37487570723746,932.1833023672269
443,91.54221543241128,19.52620820217377,189.5160379639592,276.01620869022526,-781.3259448036046,100.30737932843846,213.25734707233835,922.9654967552565
444,93.92244398888242,20.76838711131752,188.67726181785042,273.8634068636645,-778.2782329415894,80.90118569764452,213.32110772083414,913.2695927060747
445,96.24806882455476,21.881656575902007,188.00718983040053,270.86034012083786,-775.1345493309398,63.0143309433469,213.55404488290054,903.4482604476083
446,98.51906914107016,22.85664422343688,187.49044025128333,267.2462112981295,-772.17281659022,46.943745844616714,213.94165212288814,893.8289792488947
447,100.73536448203326,23.688479374727255,187.10994230359023,263.2582733216687,-769.6344440271982,32.93424636072803,214.4674165265667,884.7030011704186
448,102.89651575297518,24.376603326243263,186.8474782092584,259.1193890110576,-767.7177917094536,21.174261769979186,215.11321961927243,876.316590808295
449,105.00146848494207,24.924462585432646,186.68420231603756,255.02756377276313,-766.5738339087017,11.793202759732743,215.85974090654008,868.8647974969568
450,107.04835534077685,25.33911764921882,186.6011186222762,251.14783722839547,-766.3040818952202,4.860481015160707,216.68685557142544,862.4878702788536
451,109.03437216655821,25.63079841336455,186.57950343838795,247.6067312187986,-766.960704666612,0.3861403877363268,217.57402118384212,857.2702888158332
452,110.9557382064732,25.812433414833553,186.60126604051558,244.48926849692882,-768.5486757290852,-1.6769895995742847,218.50065160436134,853.2422577034282
453,112.80774643438126,25.899174591391336,186.6492460510363,241.8384126789337,-771.0296807777074,-1.4297526599001278,219.4464788582249,850.3833993136759
454,114.58490438027194,25.907932845013157,186.70745121477069,239.6566461086164,-774.3274497895071,0.9780882935452089,220.3919050553637,848.6282852758643
455,116.28115971096449,25.85693305522952,186.76124275233866,237.9093049713912,-778.3341310657551,5.353611155035238,221.31834619913903,847.8733749944014
456,117.89019883995924,25.76529083315708,186.79747728730908,236.5292335582551,-782.9173059925887,11.46727071258467,222.20856804711732,847.9848873941754
457,119.4058017330797,25.652607792772653,186.80461441450814,235.4223020661091,-787.9272514011782,19.05996865632873,223.04701141995744,848.8071233032856
458,120.82223239683776,25.538578113617188,186.77279752098184,234.47335168601717,-793.2040884309787,27.85041407103487,223.82010105921228,850.1707804164577
459,122.134642527836,25.442597326294088,186.69391292690457,233.5521811706145,-798.5845074478987,37.54254004794691,224.5165289459607,851.9008562360191
460,123.33946538200792,25.383364915155006,186.56162936123684,232.51926261098018,-803.9078213522222,47.83276010361859,225.12750047701283,853.823809252452
461,124.43477777533218,25.378475370982493,186.37141688559515,231.2309614593325,-809.021168141452,58.41687332211947,225.64693048529276,855.7737360201447
462,125.42060989982642,25.443997169812747,186.12054225004624,229.54412719751232,-813.7837525141437,68.99645761555304,226.07157606573173,857.5974130289135
463,126.29918513481641,25.594044965614337,185.8080367031851,227.32000744433907,-818.070081668956,79.28462437183178,226.40109463174986,859.1581400341064
464,127.07507521855047,25.840356182510256,185.43463252890123,224.4275121943434,-821.7722096658151,89.0110433311627,226.63801845561696,860.3384003725492
465,127.7552599949592,26.191888425174888,185.0026657586803,220.74591058302798,-824.8010560640755,97.92618224843801,226.78764077503814,861.0414201729021
466,128.34908538890858,26.65445809853997,184.51594416674197,216.16707620268028,-827.0869065654143,105.80474022734768,226.85781289831976,861.1917599284843
467,128.8681181756531,27.230442805663625,183.97958138857229,210.59740671336186,-828.5792343043446,112.44828493510742,226.85865617267942,860.7351069377402
468,129.32590126922707,27.918569982568027,183.39979959537632,203.95953011776336,-829.2459981342566,117.68713058243189,226.8021968694862,859.6374543473243
469,129.73761827885681,28.71381158649747,182.78370467774047,196.193877565539,-829.0725768890698,121.38151419020107,226.70193583222127,857.8838513961949
470,130.11968056228912,29.607399746457812,182.1390395793372,187.26015776382405,-828.0604856261144,123.42214145492856,226.57236812697613,855.4768908363492
471,130.48925363795686,30.58697183607485,181.47392331325474,177.13871939373652,-826.225993040207,123.73018047239614,226.42847085058457,852.4350664217442
472,130.86374241613711,31.636846257475273,180.79658493607556,165.83174347624407,-823.59872287685,122.25678249221207,226.28517935080717,848.791091144329
473,131.260256171852,32.73842301183033,180.11510289060536,153.36417366180626,-820.2202823752912,118.98220512978055,226.15687300970941,844.5902225109754
474,131.69507452894405,33.87069645840689,179.43716045142537,139.78427264252113,-816.1429241101704,113.91460666884635,226.05689131922765,839.8886017966687
475,132.18313511174958,35.01086202521184,178.76982754647392,125.16368854610911,-811.4282196302279,107.08857181923057,225.99709939524539,834.7515857524163
476,132.73756215830565,36.13499433341681,178.1193780388368,109.59692559193095,-806.1457074550848,98.56342084384093,225.98751954752436,829.252035059325
477,133.36925344275036,37.21877130149289,177.49114967581207,93.20013652628032,-800.3714751748665,88.42134618283251,226.03604221604908,823.4685243481878
478,134.0865404136121,38.23821718355009,176.88945146817576,76.1091877739618,-794.1866441769371,76.76541396988574,226.14822567110846,817.4834517281422
479,134.89493350994704,39.17043694495276,176.31752048467737,58.47698887780197,-787.6757428467562,63.717462229323274,226.32718953882542,811.3810476262648
480,135.7969610621704,39.994314717903315,175.77752719995053,40.470122438166555,-780.9249761270438,49.415922997163364,226.5736026109656,805.2453086574246
481,136.79210596723087,40.69115032837319,175.2706258486852,22.264855999701243,-774.0204222582747,34.013592010280725,226.88576071179727,799.1579075879113
482,137.87683968517499,41.24521016155049,174.7970439233154,4.042659732016051,-767.046208129196,17.675366793339496,227.25974596846535,793.1961513040144
483,139.04474859461982,41.64417195629813,174.35620317832172,-14.014609849477472,-760.0827305306408,0.5759717504279206,227.68965513931093,787.4310722226727
484,140.28674400228402,41.879447335611815,173.9468633099175,-31.729672090245995,-753.20500014778,-17.10231289327636,228.16788207010111,781.925743179032
485,141.59134454000593,41.94637075389827,173.5672787590588,-48.93472493544205,-746.481187477961,-35.17190277451632,228.68543798311367,776.7339010448528
486,142.94501836165108,41.8442489003939,173.21535876284264,-65.47607672908264,-739.9714447758391,-53.44212704681999,229.2322930999025,771.8989507294183
487,144.33257221349388,41.576270352547844,172.88882092624718,-81.21830080341537,-733.7270659661023,-71.72139783535502,229.79772393866406,767.4534002012325
488,145.7375746470699,41.14928129257663,172.58532928681112,-96.04772243078023,-727.7900282258213,-89.81931748907365,230.37065227585634,763.4187508517178
489,147.1428009337675,40.57343911544346,172.3026090469554,-109.87507318396501,-722.1929362462312,-107.54870953577884,230.93996384692582,759.8058385225115
490,148.5306874104607,39.861761396744235,172.03853175502792,-122.63718166268087,-716.9593652092315,-124.72755897695676,231.49479708775726,756.6155917766289
491,149.88378312600653,39.02959256365942,171.7911667525845,-134.29761062177104,-712.1045737922813,-141.18084732142398,232.02479457349364,753.8401485178944
492,151.18518700896823,38.09401436192479,171.55879724857596,-144.84619741155782,-707.6365365822289,-156.74226787474092,232.5203124306604,751.4642525271651
493,152.41895947882426,37.07322854875715,171.33990229505568,-154.2975057299793,-703.5572282185254,-171.25580761794345,232.97258582776584,749.4668397700683
494,153.57049846059786,35.98594097624144,171.13310881926003,-162.68825008519912,-699.8640806783397,-184.5771837616476,233.37385137157256,747.8227211972969
495,154.62687110945666,34.85077527118028,170.9371202905197,-170.07380778653985,-696.5515306854227,-196.5751257581242,233.71742954669187,746.5042737295055
496,155.57709424564212,33.685741673459056,170.75063032180583,-176.52398404412307,-693.6125757214235,-207.13249690263925,233.9977721284155,745.4830626220656
497,156.41235852339602,32.50778238875816,170.5722304357677,-182.1182408804667,-691.0402633455717,-216.14725312379056,234.21048075884832,744.7313341023759
498,157.1261935155201,31.332409322666273,170.40032137842795,-186.94063688152818,-688.829047909686,-223.53323954119836,234.35230355430497,744.2233343721447
499,157.71457290504313,30.173443751739804,170.23303684806567,-191.0747491811726,-686.9759596638366,-229.22082733108667,234.4211166654201,743.9364272039314
500,158.1759606909039,29.04286089875189,170.06818747471132,-194.5988586086866,-685.4815423948348,-233.15739407241685,234.41589721347316,743.8519955448313
501,158.51130080600095,27.950735980373302,169.90323143127046,-197.58167141701355,-684.3505264285429,-235.3076500687044,234.33669313721697,743.9561219539938
502,158.72395393478783,26.905282422536654,169.73527616057262,-200.0788252733636,-683.5922139355272,-235.65381155344676,234.18459430009844,744.2400486227311
503,158.8195865912753,25.9129678791582,169.56111332077174,-202.13038351416103,-683.2205632483629,-234.19561984733613,233.9617077100525,744.7004211806062
504,158.8060185324154,24.97868976343798,169.3772862838021,-203.75946216028385,-683.2539686740612,-230.9502040964075,233.67113789165927,745.3393227028837
505,158.69303518280358,24.105989572102906,169.18018666550944,-204.97206289040193,-683.7147423415952,-225.95178460268576,233.31697146767212,746.1641062478344
506,158.49217184439584,23.29728464680119,168.96617379967435,-205.75810764247726,-684.6283151351947,-219.2512141134291,232.90426309963385,747.1870363624553
507,158.21647602183185,22.55409723197345,168.73170907940235,-206.09359314162094,-686.022184800951,-210.91535574771123,232.43901830547793,748.4247524708629
508,157.88025328130274,21.877263549570564,168.47349582179078,-205.94371287072266,-687.9246507085287,-201.02629838791879,231.9281674589665,749.8975698799279
509,157.49880099369136,21.26710972426789,168.18861481604188,-205.26673550863802,-690.3633858800384,-189.68041309196306,231.37952469112156,751.6286371302338
510,157.08813354886584,20.723586232654075,167.87464596375057,-204.01838687127955,-693.3639066774848,-176.98725704323226,230.80172567615614,753.6429713415788
511,156.66470240867005,20.246357557533017,167.5297673219571,-202.1564591778216,-696.9480077070733,-163.0683344754063,230.20413941005992,755.9663959095027
512,156.245114591596,19.83484841257835,167.152824354346,-199.64536744096506,-701.1322330300169,-148.05572678368557,229.59675090132282,758.6244075042567
513,155.8458536453891,19.488251833376104,166.7433642552898,-196.46038689819807,-705.9264541932595,-132.09060662681043,228.99001397969036,761.641002117485
514,155.4830076814847,19.20550727723878,166.30163269441502,-192.59133548882994,-711.332621107156,-115.32165309837193,228.39467593132585,765.0374932367722
515,155.17200937320345,18.985258534650608,165.8285329545004,-188.0455083150677,-717.3437441732601,-97.90338674390733,227.82157801609006,768.8313592428839
516,154.92739272408568,18.825801825831803,165.32554992467087,-182.84972288854362,-723.9431563520429,-79.99444410527087,227.28143777836323,773.0351615327335
517,154.7625709140745,18.725034035966775,164.79464358172658,-177.05139038332067,-731.1040929831904,-61.75581158861675,226.78462033075604,777.6555788526043
518,154.6896389177209,18.68040970385281,164.2381183347982,-170.7185847780209,-738.7896156505544,-43.349038043863466,226.3409065969349,782.6926056427254
519,154.7192041235869,18.68891330962562,163.65847584122176,-163.9391349323281,-746.9528943105181,-24.934444937358858,225.95926697951967,788.1389615132517
520,154.86024789300956,18.74705093682857,163.05825956354153,-156.81881147511953,-755.5378491262567,-6.669352807780541,225.64764906725145,793.9797542459569
521,155.12002073792846,18.850862849603725,162.4398994216113,-149.47871906371827,-764.4801398678446,11.293656947506118,225.412787733729,800.192429499309
522,155.50397341680278,18.995956210893926,161.80556448745827,-142.05203418314233,-773.7084765822335,28.80842503862243,225.26004528487985,806.7470270370833
523,156.0157256287339,19.177555343847477,161.15703093861904,-134.68024891084065,-783.1462112378977,45.736820961879786,225.193288242665,813.6067469636417
524,156.65707305207974,19.390565821610664,160.49557159186324,-127.50909211225472,-792.7131573605722,61.95025129724672,225.21480599048468,820.7288119055482
525,157.42803223696455,19.629648263934868,159.82187238472346,-120.68430182841912,-802.3275746034836,77.33104681224765,225.3252749346883,828.0655943554643
526,158.3269214899415,19.88929774805088,159.13598018823524,-114.34741700926679,-811.9082488404147,91.7737054057683,225.52377017593884,835.5659643515834
527,159.3504746423343,20.163924822993696,158.43728527330535,-108.63174441412635,-821.3765963131931,105.18596860283662,225.807825049013,843.1768026094495
528,160.49398360875756,20.447934075873174,157.72454046571283,-103.65863877119241,-830.6587224806287,117.48971110379607,226.1735372558437,850.8446186418377
529,161.75146483546632,20.73579623178135,156.99591730379865,-99.53421240335672,-839.6873717200666,128.62162597509834,226.61571850112745,858.5172119648224
530,163.11584395445556,21.02211023341535,156.249097236673,-96.34656556196518,-848.4037117730529,138.53369246598504,227.1280823872754,866.1453163282994
531,164.5791521919258,21.301652780679674,155.4813931906027,-94.16360168575645,-856.7589056706125,147.19341909435497,227.7034629346287,873.6841710526237
532,166.13272753582345,21.569414197531554,154.68989406208254,-93.03146392749618,-864.7154329926095,154.5838614277819,228.33405385369497,881.0949692231586
533,167.76741361762734,21.820620862206987,153.87162230537328,-92.97360212480416,-872.2481312294321,160.70342141373604,229.01165706925974,888.3461391399338
534,169.4737498318252,22.05074554831452,153.02369309197593,-93.99045474375826,-879.3449364363822,165.5654422111942,229.7279282664856,895.4144225575003
535,171.24214731112713,22.255507880581618,152.1434627259643,-96.05970988717242,-886.0073100670337,169.19761812336668,230.4746074622208,902.2857204070212
536,173.0630467756468,22.43086783680277,151.22865421580448,-99.13709444790555,-892.2503456985614,171.64124279976835,231.24372372786237,908.955683571061
537,174.92705574647533,22.573015891791034,150.27744918446894,-103.15763149848613,-898.1025553669892,172.95032046620076,232.02776507425008,915.4300329028631
538,176.8250639870899,22.678363953267464,149.28853764313746,-108.03730301618992,-903.6053405711847,173.19056498799313,232.81980702053835,921.7245992202262
539,178.74833722613468,22.743541584182942,148.26112044208486,-113.67505736624327,-908.8121577589051,172.4383103420343,233.61359635466414,927.8650804733841
540,180.68859022158296,22.765401972376864,147.19486316838447,-119.95510729680262,-913.7873922629265,170.77935361238,234.4035898483347,933.8865194929427
541,182.6380410813536,22.741041432452608,146.08980449109723,-126.74947280154264,-918.6049583085637,168.30774806126377,235.18495095134148,939.8325115229361
542,184.58944941673494,22.667834728729265,144.94622600516158,-133.92073215589676,-923.3466462151398,165.12455956386586,235.95351040999608,945.7541562344469
543,186.53614123765823,22.54348634993538,143.76449404152848,-141.3249517731635,-928.1002417768697,161.33659524439278,236.70569894949952,951.7087743578635
544,188.4720234492818,22.366095489017802,142.5448863691669,-148.81476940765035,-932.9574475216401,157.05510885290212,237.4384614227162,957.7584146937443
545,190.3915905165994,22.134230295348498,141.2874180861594,-156.24260417708933,-938.0116414277904,152.39448344208824,238.14916222809228,963.9681831630722
546,192.28992548146843,21.847005166630172,139.99168129080894,-163.46396013972398,-943.3555157850071,147.47088850247204,238.835491492417,970.4044317105095
547,194.1626970196321,21.504153529585025,138.65671242307835,-170.34077800506873,-949.0786469479112,142.4009063592394,239.49538055749116,977.132851105694
548,196.00615352952502,21.10608787875546,137.28089956857437,-176.74477329890948,-955.2650551523409,137.30012182705804,240.12693373327227,984.2165176357921
549,197.8171144205917,20.653939011643878,135.8619395316763,-182.56068113880764,-961.9908214994881,132.28167026328765,240.7283811950758,991.7139488365522
550,199.5929579994466,20.14956756318172,134.39685106557093,-187.68931047363907,-969.3218357326488,127.45474256891394,241.29805547009357,999.6772272670728
551,201.3316047528534,19.595543050258286,132.88204642766084,-192.05029718262247,-977.3117526689418,122.92305158214714,241.83439135700792,1008.1502535550092
552,203.03149441980426,18.995088363875258,131.31345887510204,-195.58443863706944,-986.00023629354,118.78327259996304,242.33594659788906,1017.1671902975877
553,204.6915550576945,18.35199054300065,129.68671945001904,-198.25549441022474,-995.4115676943718,115.12348063535289,242.80143848345176,1026.75115653151
554,206.31116241161172,17.670481414202328,127.9973728981842,-200.0513498576672,-1005.5536852661884,112.02161690421585,243.22979009394942,1036.9132277262986
555,207.89008834613338,16.955094125016174,126.241120058321,-200.9844608694285,-1016.4177122670753,109.54402529190428,243.62017920988245,1047.6517879084743
556,209.42843784834787,16.210503542083064,124.41407265891465,-201.09152736341764,-1027.9780079298419,107.74410516109828,243.97208306258963,1058.9522682890156
557,210.9265750252657,15.441359670977448,122.51300615504529,-200.43237726287958,-1040.192754966295,106.66112944829983,244.2853128881723,1070.7872910268457
558,212.38503947069088,14.652123532859775,120.53559690417111,-199.0880787299537,-1053.0050703679026,106.31927645589725,244.56003350913147,1083.117218572124
559,213.8044552663762,13.84691432368771,118.48063148748626,-197.15833351154396,-1066.3446003251242,106.72692017831574,244.79676474529987,1095.8910899645712
560,215.18543562499482,13.029375316424376,116.34817823525391,-194.75823607536515,-1080.1295364147122,107.87621780622825,244.9963632347429,1109.0479073929616
561,216.5284867564129,12.202564082948728,114.13971384216036,-192.01450997275535,-1094.268971258145,109.74302487433744,245.1599851298426,1122.518221146888
562,217.8339149956613,11.368870552018144,111.85820106679216,-189.06135325168208,-1108.6654993077902,112.28715900390921,245.28903202562287,1136.2259503070486
563,219.10174161061693,10.52996450972149,109.50811651589558,-186.03603796053275,-1123.217962916408,115.45302282860214,245.38508422593975,1150.0903708143887
564,220.3316299771361,9.686772564993213,107.0954300194917,-183.07441458565805,-1137.8242448784467,119.17058584073965,245.44982683801985,1164.028201642722
565,221.52282987321385,8.839483364867643,104.6275388188252,-180.30647095802502,-1152.384014790947,123.35671394416472,245.48497498632133,1177.9557226136067
566,222.6741433702341,7.987578907997562,102.1131606806626,-177.85208751187454,-1166.8013460796446,127.9168249533418,245.4922045239063,1191.7908625497316
567,223.78391608949414,7.129889138929354,99.56219030728634,-175.81711781986348,-1180.9871316607275,132.7468386832317,245.47309400089463,1205.4552026419628
568,224.85005649129295,6.264666626326692,96.9855232651909,-174.28990621166693,-1194.861237542907,137.73538209443592,245.42908248242708,1218.875846022564
569,225.87008460012743,5.389678096447864,94.39485129066337,-173.3383342515917,-1208.354344125573,142.76620346982514,245.3614463883061,1231.9871097735934
570,226.8412104304446,4.502309948959482,91.80243244671563,-173.00746627319924,-1221.4094337908123,147.7207448209806,245.27129720200608,1244.7319994464467
571,227.76044151564554,3.599685557356028,89.22083949777215,-173.31784238622893,-1233.9828904212632,152.4808184223617,245.159600925949,1257.0634285828767
572,228.6247182780691,2.678792966940853,86.66269031779032,-174.26444647420638,-1246.045182161504,156.93133113552776,245.02721957635222,1268.94514725351
573,229.43107527088026,1.7366223413802329,84.14036517388675,-175.8163574707221,-1257.5811040528959,160.96299852890698,244.87497459635944,1280.3523452688203
574,230.17682538069565,0.7703130038761172,81.66571706224822,-177.917075170288,-1268.5895632126117,164.4749893487662,244.70373153171644,1291.271898578223
575,230.85976290578563,-0.22268998509364776,79.2497826044044,-180.48549728046282,-1279.082896882659,167.37743962179815,244.5145045418713,1301.7022323606807
576,231.47838014838186,-1.2444702150534408,76.90250209852826,-183.41751235218757,-1289.0857235169372,169.5937749382083,244.30857835000455,1311.652782036647
577,232.03209085569742,-2.296466829490551,74.63245794000403,-186.5881633649382,-1298.6333394381668,171.06277985785349,244.08764407333842,1321.1430442677995
578,232.52145247504265,-3.379297109008647,72.4466406573696,-189.85432862247856,-1307.7696886197027,171.74035544140318,243.85394395840268,1330.2012241064288
579,232.94837768162114,-4.492579869517298,70.3502513381639,-193.05785963919388,-1316.544950695506,171.60091004235244,243.6104183470345,1338.8625016582548
580,233.3163240318263,-5.634766789156636,68.34654843666802,-196.02910927775443,-1325.0128118286843,170.6383350024281,243.36084632398007,1347.166961356572
581,233.63044918645656,-6.802990376572454,66.43674600424977,-198.59077715427205,-1333.22750345981,168.86652590786406,243.1099697762372,1355.1572480772857
582,233.8977184231353,-7.9929382531423645,64.61996925548942,-200.56199322531103,-1341.2407134057808,166.31942148401097,242.86358949595885,1362.8760350475613
583,234.12695148420258,-9.198763591941956,62.893271875766544,-201.76255478138071,-1349.0984898413794,163.05054572936893,242.628621789932,1370.3634063861393
584,234.32879726148843,-10.413040857055083,61.251717311503086,-202.01722717272975,-1356.8382686143677,159.13205404733458,242.4131048307812,1377.6542694164073
585,234.51562730453887,-11.626774482597124,59.688523422293876,-201.16001480000205,-1364.4861556694723,154.65330018450135,242.22614560334168,1384.77591611453
586,234.7013425282386,-12.82946603470291,58.19526669844762,-199.03830638825215,-1372.054587679853,149.71895668248197,242.07780074118426,1391.7458476491065
587,234.9010916558264,-14.009242902097009,56.7621393326952,-195.5167973853827,-1379.5404755509003,144.446736158242,241.9788878180905,1398.5699609750072
588,235.13090471327885,-15.153048701796664,55.3782501072701,-190.48109254236115,-1386.9239093150231,138.9647731523279,241.94072768033166,1405.2411737006119
589,235.40725010468952,-16.246892366759287,54.03195829272884,-183.84089354606712,-1394.1674724436352,133.40873608731707,241.97482298409156,1411.7385361797974
590,235.74652916001781,-17.27614947286962,52.71122844155106,-175.53268043127846,-1401.216182536635,127.9187460372416,242.0924829313877,1418.0268517139812
591,236.16452713868122,-18.2259061464967,51.40399305193528,-165.52180211004548,-1407.9980469607967,122.63618368286208,242.30440886335973,1424.056800173532
592,236.6758439859406,-19.08133328960458,50.09850955112756,-153.80390167317134,-1414.4251984097361,117.70046812315054,242.62025938021043,1429.7655394695696
593,237.2933311191364,-19.828077124576396,48.783697919975474,-140.40561714494126,-1420.3955573490923,113.2458910784217,243.048216487869,1435.0777440364418
594,238.02756165543593,-20.45265126557886,47.4494456284116,-125.38451877492135,-1425.7949556192339,109.39858729298615,243.59457545305884,1439.907029609329
595,238.88636052301433,-20.94281566057767,46.08686742155152,-108.82826959887089,-1430.4996472541961,106.27371649310194,244.263380352185,1444.1577081962967
596,239.8744179656344,-21.287928791559395,44.68850889596505,-90.853025742297,-1434.379127942431,103.9729241213297,245.0561248764909,1447.7268151353192
597,240.99300548531497,-21.479261362088696,43.248484823974366,-71.60112472361125,-1437.2991828340448,102.58213751004996,245.971534242144,1450.5063504928262
598,242.2398077958386,-21.510262115772647,41.76254598638101,-51.23814124254493,-1439.1250831380617,102.16974158600891,247.00543957855302,1452.3856789863771
599,243.60887843747648,-21.376769133920323,40.22807191071102,-29.949417897484388,-1439.724854721419,102.78516410958504,248.1507514475429,1453.2540353846416
600,245.09072083207886,-21.077162659308883,38.64399115882013,-7.936200483487961,-1438.9725461289265,104.45788543727471,249.39753457111593,1453.0030852451323
601,246.6724910650758,-20.61245791292745,37.0106352292173,14.588478056250432,-1436.751428302475,107.19687261683576,250.7331815926198,1451.5294932000395
602,248.33831375402193,-19.98633836532476,35.32953629174292,37.404015757712,-1432.9570629484888,110.99042326827417,252.14267982721591,1448.7374522512305
603,250.06969815016973,-19.205131498836362,33.60318250501972,60.2864171691509,-1427.5001803570224,115.80639228307086,253.60896155212703,1444.5411275039166
604,251.84603820402558,-18.27773027779423,31.834747254132036,83.01229537535754,-1420.3093103429242,121.5927648756847,255.11332549148509,1438.8669667701085
605,253.64517768171595,-17.215464283119026,30.02780995214965,105.36259068792282,-1411.3331122814225,128.27853357288566,256.635914711753,1431.6558293348023
606,255.44401950379196,-16.031924738454308,28.186085894797827,127.12592199522373,-1400.5423529127036,135.77483455487885,258.15623412725154,1422.8648841047864
607,257.2191573606429,-14.742747614788458,26.313181180274647,148.10151454666217,-1387.9314848510498,143.9763002958215,259.6536893582606,1412.469230570672
608,258.9475074653828,-13.365358966965974,24.412386232199047,168.10167514942478,-1373.5197853321783,152.762590330211,261.10812801467864,1400.4632011924793
609,260.6069190306241,-11.91868687434619,22.486518247309114,186.95381024731893,-1357.3520236269817,162.00006939106018,262.5003646715495,1386.8613117156606
610,262.17674352945073,-10.422844847561564,20.53781911470105,204.50200258841554,-1339.4986358879844,171.54361082420638,263.81267172928403,1371.6988354120979
611,263.63834485238874,-8.898792195199697,18.567911311624066,220.60817744176285,-1320.0553967572216,181.23851157669998,265.0292198639207,1355.0319868538777
612,264.9755350052008,-7.367977511130349,16.577810350775504,235.15289968588866,-1299.1425868994168,190.9225119240996,266.1364537978584,1336.9377094642455
613,266.17492288954077,-5.851972117796088,14.56798883234729,248.03584924122762,-1276.9036645409617,200.42791765484128,267.1233915602212,1317.5130685151482
614,267.2261668218685,-4.372100932115135,12.538484186472239,259.17602524597794,-1253.5034577263389,209.5838243297727,267.9818381186538,1296.874258127344
615,268.12212475800527,-2.9490786175065966,10.489039805555054,268.511730105251,-1229.1259033483266,218.21844247582203,268.70650723106706,1275.1552382625903
616,268.8588998604814,-1.6026588016953296,8.419267474941986,276.0003837609555,-1203.9713696749723,226.16151938152828,269.2950487403405,1252.5060263618313
617,269.43578318893964,-0.3513035139666021,6.328817945714006,281.61821631043756,-1178.2536106949376,233.24684788400157,269.7479824352785,1229.090677804352
618,269.85509976624024,0.7881209637135423,4.21754637897164,285.35988304104563,-1152.1964116827744,239.31484551135173,270.0685438939336,1205.0849982493758
619,270.12196869324544,1.8006166358963105,2.0856603594874845,287.2380395848966,-1126.0299940188627,244.21517886617286,270.2624520366352,1180.6740372030504
620,270.2439918942343,2.673290412635853,-0.06615985999211979,287.2829060786908,-1099.9872520095905,247.80939854429312,270.33761198041316,1156.049414366603
621,270.2308890856491,3.395551297566539,-2.2366765523433196,285.54183821008127,-1074.2998949395965,249.9735396951486,270.3037697986568,1131.4065282557444
622,270.0940984491286,3.959265415258604,-4.4240498067819924,282.0789105052648,-1049.1945648199096,250.60063330982965,270.17213770214005,1106.9416913862135
623,269.84636318400186,4.358866878999821,-6.625834543668227,276.9745041417597,-1024.8889960417498,249.60306444576295,269.955008878532,1082.8492300299806
624,269.501323627174,4.591423097600065,-8.839018040122106,270.3248791685023,-1001.5882792596441,246.91470689737028,269.66538075823127,1059.3185813530006
625,269.07313302461597,4.656653605656228,-11.060094265918208,262.2417005496007,-979.4812895638773,242.4927601988654,269.316603878445,1036.5314182677434
626,268.5761124470194,4.55690202892692,-13.285169369767464,252.85147997753623,-958.7373385705389,236.31921494851906,268.9220709310555,1014.6588331116443
627,268.0244569424074,4.29706148772108,-15.510091375432122,242.29489156090787,-939.5031106649133,228.40187666099598,268.49495719265025,993.8586147375933
628,267.43200099573767,3.884454581914487,-17.73059652190452,230.72591942910992,-921.8999439985231,218.77488682249313,268.0480195360454,974.2726585767795
629,266.8120469173697,3.3286700386326973,-19.942464475252635,218.31079877199377,-906.0215158054211,207.49869241947536,267.59345680620174,956.0245544542172
630,266.1772551878386,2.641359163664287,-22.141674583872046,205.22671839765636,-891.9319885450238,194.6594315278788,267.142829784909,939.2174014949386
631,265.53959139315265,1.8359964752914046,-24.32455533938033,191.66026201350007,-879.6646683174117,180.3677218567415,266.70703461596287,923.9319029088658
632,264.91032051599933,0.9276102887344155,-26.48791932484684,177.80557649356882,-869.2212204190413,164.75686039769383,266.2963197452299,910.2247956446429
633,264.3000363028913,-0.06750958177902838,-28.629176357331147,163.86226761589964,-860.5714793670787,147.98046431009882,265.920333458057,898.1276706974153
634,263.71871150415603,-1.1321186619177122,-30.74641842641009,150.03303621565848,-853.6538824220154,130.20960464175658,265.58818728115773,887.6462387631266
635,263.17575414897067,-2.2483301488665126,-32.83847144169296,136.5210794619964,-848.3765462269835,111.62950435789325,265.3085200300857,878.760092065819
636,262.6800555948495,-3.397923584897273,-34.90491059461681,123.52729231561482,-844.6189948813392,92.43588951341273,265.0895480424671,871.4230054635508
637,262.2400176965701,-4.562641226967292,-36.94603807976838,111.24731289343443,-842.2345337525427,72.83109648670312,264.93908894199257,865.5638074869192
638,261.8635489406012,-5.7244645394237965,-38.96282388195951,99.86846259000379,-841.0532461291066,53.02004836326717,264.8645489930519,861.0878344643951
639,261.55802262917337,-6.865864835189003,-40.95681233827875,89.56663761547883,-840.8855695466839,33.20621936001139,264.87286758436994,857.8789587517762
640,261.33019387887646,-7.970024075247464,-42.929999181332285,80.50321319061851,-841.5263860410495,13.587707370935647,264.97041632291297,855.8021564421402
641,261.1860759907316,-9.021023943490437,-44.88468548903288,72.82202492609647,-842.7595370077967,-5.646468801099962,265.1628542515982,854.7065525285213
642,261.13078043697067,-10.004003296152998,-46.82331607802395,66.64649383621891,-844.3626505040255,-24.319739188071775,265.45494455516786,854.4288545222405
643,261.16832818829937,-10.90528582600258,-48.748310286055414,62.076961970831775,-846.1121487057404,-42.270923832462486,265.8503416612942,854.7970614675397
644,261.3014432613222,-11.71248125211582,-50.66189297476755,59.188304729687836,-847.788287899428,-59.35666679963564,266.3513607883058,855.6343166185178
645,261.5313419912521,-12.414564492556194,-52.56593317314347,58.0278834291805,-849.180074696234,-75.4533048019533,266.9587445587819,856.7627609099587
646,261.85753335409225,-13.001937974593575,-54.461797144183976,58.613897618359104,-850.0899014614284,-90.45813500810645,267.67144301890073,858.0072422467007
647,262.27764646404756,-13.466482343380282,-56.35022175566521,60.93419127263781,-850.337751832658,-104.29007062241563,268.4864240544749,859.1987431151636
648,262.78730107786436,-13.80160027712455,-58.23121289667047,64.9455608104631,-849.7648433510312,-116.88969666762986,269.3985307015728,860.1774056059636
649,263.3800355446706,-14.00225696887441,-60.10397245296885,70.57360627339686,-848.2365975063193,-128.21876074114877,270.4004002392853,860.795057203779
650,264.047304216607,-14.065019283369098,-61.96685618380495,77.71316003458223,-845.6448561410215,-138.25915324945908,271.4824573265586,860.9171705575191
651,264.7785530800302,-13.988093889389038,-63.81736375688967,86.22931965097469,-841.9092951116404,-147.01144800791107,272.6329900117744,860.4242234912324
652,265.5613785215972,-13.771363006366165,-65.65216112390381,95.95910219746116,-836.9780192732799,-154.49308658420284,273.8383134332203,859.2124593129035
653,266.3817698659901,-13.416414879978667,-67.46713427369124,106.71372589475756,-830.8273551703685,-160.7362979124448,275.08302158167317,857.1940796250162
654,267.2244317749319,-12.926564750198681,-69.25747217237493,118.28151080814008,-823.460887267246,-165.78584820303863,276.35032277041205,854.2969300386872
655,268.0731781191469,-12.306861034161335,-71.01777549835299,130.4313741225104,-814.9078083412467,-169.69671502103432,277.6224498142783,850.4637614482804
656,268.91138493992634,-11.564070951301721,-72.74218679866394,142.91687749860887,-805.2206734880363,-172.53177396643966,278.8811318166683,845.6511644283116
657,269.7224868150083,-10.706639945916633,-74.4245370452523,155.4807647805845,-794.4726594438465,-174.3595772747412,280.1081111353003,839.8282812214989
658,270.4904983147452,-9.744619821442923,-76.05850317935156,167.8599083787447,-782.7544367189768,-175.25229154902175,281.2856864953584,832.9753988269506
659,271.2005402709762,-8.689561308503311,-77.63777096971712,179.79056275245017,-770.1707621075038,-175.28384744961298,282.3972612923516,825.08251873155
660,271.8393494264339,-7.554367927701984,-79.15619737912415,191.01380472928835,-756.8368947069146,-174.52833835092073,283.42787501975783,816.1479853402473
661,272.3957499132426,-6.353109691591253,-80.60796670376004,201.2810244109462,-742.8749310703935,-173.05868877133415,284.3646957113855,806.1772380272283
662,272.861066101379,-5.100797426117471,-81.98773501509393,210.35931862084743,-728.410145873155,-170.94559788298426,285.1974524683005,795.1817328918063
663,273.22945868603927,-3.813120970321598,-83.29075787283153,218.03663239548146,-713.567414604761,-168.25674950461314,285.9187895451239,783.178061503606
664,273.4981693093751,-2.5061568488073824,-84.51299695909334,224.1264936676629,-698.4677851088418,-165.05626824368966,286.5245269698091,770.1872765979651
665,273.6676632919073,-1.1960530082596066,-85.65120230946705,228.47219253578928,-683.225255829018,-161.40439221193046,287.0138170527992,756.234419993212
666,273.7416648473884,0.10130017868110032,-86.70296822034832,230.95026965592584,-667.9438107204029,-157.35732621744197,287.38919110070566,741.3482368499838
667,273.72708407902485,1.370602292619228,-87.66676261520414,231.47319825693424,-652.7147540568826,-152.96723569911896,287.656495795667,725.5610533114841
668,273.63383975256585,2.597467754279862,-88.54193145707592,229.99117037967426,-637.6143826634532,-148.2823409278965,287.82472364754983,708.9087915468937
669,273.47458605314756,3.768732554721294,-89.32868143481306,226.4929288520166,-622.7020281419287,-143.34707292913595,287.90574635472217,691.4310967378528
670,273.2643550454631,4.8727330714636725,-90.02804538908258,221.00562042894302,-608.0184972138463,-138.20225673954778,287.91396355564945,673.1715537721614
671,273.0201291631561,5.899548596495089,-90.64183564027579,213.59368038184974,-593.5849343136836,-132.8852934572268,287.8658820830214,654.1779764087604
672,272.7603595802782,6.84120076840369,-91.17259049203354,204.35679246949704,-579.4021269628585,-127.43031952033736,287.77964226794984,634.5027574132524
673,272.504446740625,7.691804624661999,-91.62351874424424,193.4269986607677,-565.4502709527607,-121.86832920534185,287.6745080692358,614.2032734399145
674,272.27219888197953,8.447667379773614,-91.99844616132029,180.96505858706166,-551.6892084751978,-116.22725389173047,287.570337082871,593.3423420724764
675,272.08328352349054,9.107332289503482,-92.30176667418235,167.15617848883448,-538.0591475624317,-110.5319986095735,287.48704528226057,571.9887295558932
676,271.9566859296351,9.67156610911555,-92.53839981559945,152.20524315536503,-524.4818650875402,-104.8044422553912,287.4440800289728,550.2177059026207
677,271.91018761016585,10.143289772081213,-92.71375456204387,136.33169245598722,-510.8623876449936,-99.0634123116983,287.45991358071245,528.1116390887308
678,271.9598768752469,10.527453142994304,-92.83369834762654,119.76418730192847,-497.0911343822991,-93.32464789789465,287.55156791893467,505.7606120089597
679,272.1197022283668,10.830856124310989,-92.90452856848358,102.7352091434131,-483.04649302750704,-87.600766723427,287.7341801345938,483.26303507269523
680,272.4010778985282,11.061919969339256,-92.93294264313694,85.47573320143613,-468.5977852938853,-81.90125228660479,288.02061587268355,460.7262146601112
681,272.81254914935664,11.230414244355163,-92.92600189574172,68.21010910341505,-453.6085616674228,-76.23247762048204,288.4211365783698,438.2668246173203
682,273.35952331499243,11.347146405373405,-92.89108421136564,51.15127364824758,-437.94015001106936,-70.59778102083914,288.94312466222743,416.0112164962885
683,274.0440709546593,11.423622400033555,-92.8358204201942,34.49640908312784,-421.45536925964814,-64.99760741217943,289.5908693025511,394.0954963206363
684,274.8648001391213,11.47168806518176,-92.76800966220782,18.423146550454888,-404.02231013961585,-59.4297262444913,290.36541446246184,372.6652928800926
685,275.81680563646546,11.503162265581954,-92.69550974348887,3.086398362003385,-385.5180800965171,-53.889533085303064,291.2644698284246,351.8751458905488
686,276.89169359607973,11.52947351312952,-92.62609991579401,-11.384115342621682,-365.8324095979745,-48.37043753872741,292.28238477789625,331.88745210239233
687,278.07768122459606,11.561312050020074,-92.56731559261797,-24.885599934054582,-344.8710213711565,-42.86433504603856,293.41018513654006,312.87092330706406
688,279.3597698912523,11.608309040104848,-92.52625703277475,-37.34315540748897,-322.5586722618399,-37.36215475155993,294.6356722989156,294.99853138798437
689,280.719989016475,11.678753659829763,-92.50937666923534,-48.70997941573264,-298.8417883784458,-31.854470173178747,295.9435840889192,278.44494088512147
690,282.1377069017158,11.779357576274503,-92.52225229854648,-58.96682508945674,-273.6906270393556,-26.332154187107395,297.3158163715207,263.38345751903205
691,283.5900033895119,11.915074574101368,-92.56935561328385,-68.12075690020998,-247.10091288603863,-20.78705524682674,298.7317038812079,249.98255016461835
692,285.0520980728163,12.088981022904164,-92.65382739274115,-76.20326905918951,-219.0949096800031,-15.21266830998138,300.1683581176238,238.40203230304607
693,286.49782684709953,12.302220616645318,-92.77727187413034,-83.26785011880567,-189.7219033481144,-9.60477210700732,301.60105955698407,228.7890154915916
694,287.90015890704404,12.554014499647224,-92.93958323231956,-89.38709356193313,-159.0580855748605,-3.962004476004557,303.00370078163303,221.27377037673384
695,289.23174569292837,12.841735553529414,-93.13881656747337,-94.64946623945744,-127.20584062566854,1.7136503659320883,304.34927627571153,215.96564875113398
696,290.4654926058042,13.16104327379542,-93.37111423506336,-99.15585374179338,-94.2924512411869,7.416484639832454,305.6104133768144,212.94923171969907
697,291.5751433725329,13.506073408285701,-93.63069573312593,-103.01600369012927,-60.46825259686134,13.136816165864213,306.75993706164263,212.28087292467683
698,292.53586569307095,13.86967448400012,-93.90991588534685,-106.34498442134584,-25.904276691224155,18.860873175233035,307.7714588877479,213.9858008020838
699,293.3248253520564,14.243681571605356,-94.1993921686342,-109.2597679026936,9.210556828223577,24.570816645081507,308.619977749665,218.05592886740746
700,293.9217345762051,14.619216146383202,-94.48819823960466,-111.87603259198715,44.6726336757104,30.244894946227245,309.2824775249054,224.44849714996846
701,294.3093593926754,14.986999754523165,-94.76411736687538,-114.3052653454878,80.26713883732351,35.857719659552515,309.73850459826036,233.08563105782366
702,294.4739704352688,15.337668497120228,-95.01394670535754,-116.65222263236424,115.7717568183136,41.380647169891965,309.9707070357402,243.8548580074726
703,294.4057223072666,15.66207524748432,-95.22384116925713,-119.01279160510619,150.9604752539159,46.78224826976298,309.9653170890703,256.61057160769457
704,294.0989482262365,15.951567136255308,-95.37968407440925,-121.47227223657404,185.60738558448938,52.02884737281366,309.7125597451515,271.1763845671473
705,293.55235896127647,16.198227183660595,-95.46747071987757,-124.10408371081063,219.4903776853141,57.085113716525086,309.20697192319597,287.3482711203539
706,292.76913772237117,16.395070933862016,-95.47369063229694,-126.96888216788031,252.394635360922,61.9146886629147,308.44761936648825,304.898371488724
707,291.7569255505146,16.536191419656546,-95.38569431348658,-130.11406311961116,284.1158554446135,66.48083535137923,307.4382011589506,323.5793153637911
708,290.5276949021299,16.616848631349654,-95.19203111368975,-133.5736105699583,314.4631327968546,70.74709899407505,306.1870351629488,343.12891684320755
709,289.0975125460154,16.633502750017183,-94.88274639551501,-137.36824623372166,343.2614741350131,74.67796758094421,304.70692157135556,363.2750967124886
710,287.486196529995,16.583793544920905,-94.44962839642092,-141.50582646354528,370.35392276217715,78.23952336386283,303.0148861017923,383.74089635682395
711,285.71687565326306,16.466471278754398,-93.88639793406652,-145.98193183335982,395.60329188028516,81.40007513847095,301.1318088881902,404.24945836235725
712,283.8154633864319,16.281286989203288,-93.18883710042024,-150.7805949484556,418.89351516075214,84.13076028462316,299.08194955591273,424.52886035525114
713,281.8100613327243,16.02885197247571,-92.35485612927134,-155.87511590886868,440.1306294613624,86.4061042911526,296.8923830475123,444.31670006868404
714,279.7303099668362,15.710477549624784,-91.38450042867863,-161.2289216851753,459.243406715669,88.20452468414985,294.5923642578738,463.3643410101388
715,277.60670637369407,15.328006618729496,-90.27990208114088,-166.79643500794586,476.18365139703724,89.50876634316562,292.212642208489,481.4407399124892
716,275.46990990702227,14.883648064944232,-89.04518178835878,-172.52392952511954,490.92617823394966,90.30625628588723,289.7847461724019,498.3357900967849
717,273.3500570196597,14.379823955954956,-87.68630833087501,-178.3503600516727,503.4684836332678,90.589368035562,287.340266806784,513.8631295424801
718,271.27610595567205,13.819037808481758,-86.21092330575829,-184.20816873690495,513.830124663573,90.35558841093105,284.91015500070483,527.8623789975679
719,269.27523053436386,13.203770269837435,-84.62813930949912,-190.02407889730338,522.0518218107629,89.60758268559732,282.52405984162004,540.2007933802438
720,267.3722799623303,12.536406465536043,-82.94831981726533,-195.71989712098897,528.1943056863419,88.35315723534998,280.20972490152695,550.7743279816873
721,265.58931867005305,11.819197130229147,-81.18284870202888,-201.2133501797045,532.3369326528871,86.60512176362568,277.99245910203854,559.5081382573288
722,263.9452568207618,11.054253565780037,-79.34389661346519,-206.41898566714474,534.5760990152886,84.38105583160458,275.8946949563516,566.3565470272471
723,262.45557854309004,10.243574554165507,-77.44419035754737,-211.24916382374866,535.023487225623,81.70298673121277,273.9356431791909,571.3025247371277
724,261.1321712008819,9.389101666784255,-75.4967901579456,-215.61516277084354,533.8041799289501,78.59698778889849,272.1310486568515,574.3567365011078
725,259.98325529244664,8.492798002446662,-73.5148784512442,-219.42841075219846,531.0546783390308,75.09270798893772,270.4930487937361,575.5562137522602
726,259.01341108442494,7.556744293925354,-71.51156276920369,-222.60184762099286,526.9208602995072,71.22284533473365,269.03013153678256,574.9627085772711
727,258.223694991765,6.583245576486183,-69.49969426995985,-225.05140460009818,521.5559106300868,67.02257762833558,267.7471870711,572.6607856675853
728,257.61183608040415,5.574941207179906,-67.4917026052586,-226.69757738846778,515.11825236988,62.52896535640593,266.6456443421206,568.7557010553005
729,257.17250096119403,4.534910936830984,-65.49944717599509,-227.46705423317175,507.7695027960049,57.7803420841648,265.7236812888346,563.3711093671046
730,256.89761385961384,3.4667699692576535,-63.53408453140141,-227.29434889662838,499.67247309695,52.81570807729102,264.9764960892722,556.6466332206751
731,256.77671782376365,2.374746530358873,-61.60595162622161,-226.12337967456037,490.98922579949993,47.67414270866463,264.39662584000143,548.7353206212726
732,256.7973628586635,1.2637364336188113,-59.72446467988999,-223.90893068219256,481.87919999130304,42.39425053831226,263.97429885580635,539.8010097982268
733,256.9455072620299,0.13933042560353046,-57.89803336897519,-220.61793109887745,472.49741153400436,37.0136547825955,263.6978071694199,530.0156167377338
734,257.20591957002307,-0.9921883763411348,-56.133990036804796,-216.23049211808288,462.99273420071154,31.56855018500523,263.5538868206232,519.5563593439248
735,257.5625701303425,-2.1238780069269856,-54.4385336012875,-210.74064977529707,453.50626818736606,26.093325020866597,263.5280950012575,508.60293396140565
736,257.99900310301064,-3.2482015613557533,-52.816687957560596,-204.15677408961912,444.1698047041101,20.62025909807102,263.605174791427,497.3346648052796
737,258.4986813940488,-4.357119370269138,-51.27227489911449,-196.5016202935357,435.1043990925986,15.179301219126557,263.76939983660145,485.9276542071308
738,259.04529860317734,-5.442205910622611,-49.80790185077298,-187.81201535518568,426.41906967687845,9.797925840602165,264.0048928131377,474.5519707029721
739,259.62305362034004,-6.494786721157714,-48.424964993933926,-178.1381912842176,418.20964464084733,4.5010649241892065,264.2959130127932,463.368921697705
740,260.2168851205732,-7.506089718970217,-47.12366869155934,-167.54279448057207,410.55778370025627,-0.6888924643753335,264.6271099362667,452.528466268134
741,260.81266484976203,-8.467404831927102,-45.90306242791415,-156.0996163512137,403.53020418272104,-5.752043190026702,264.98374138430387,442.1668300907839
742,261.39735017663463,-9.370245716154402,-44.76109656554751,-143.89210354299257,397.17814146368204,-10.670868401232374,265.3518560537167,432.4043872167392
743,261.9590978203886,-10.20650744394318,-43.69469789145384,-131.01171563269128,391.53707095681426,-15.430101357969672,265.71844196708986,423.34387159377565
744,262.48734183183774,-10.968614427485356,-42.699865185156064,-117.55620342314761,386.6267128798851,-20.01657932434991,266.07154308085995,415.06897452373096
745,262.97283968412546,-11.649653519853466,-41.77178410354304,-103.62788182212913,382.45133214579215,-24.419093471039925,266.40034704485186,407.6433729208183
746,263.4076907029513,-12.2434882063912,-40.904959698348485,-89.33196765726333,379.0003347113075,-28.62824920174337,266.69524734506587,401.11021816944185
747,263.78533116328606,-12.744851055277728,-40.093363850242405,-74.77504508502072,376.24914957880173,-32.63634716012337,266.9478830774314,395.49209789038076
748,264.1005103325313,-13.149413085152919,-39.330593842000916,-60.06371010719666,374.1603735279598,-36.43729256342312,267.151159503087,390.7914645722035
749,264.34925157639145,-13.453830247176839,-38.61003737004437,-45.30343181999441,372.68514460707064,-40.026537549156345,267.2992523627137,386.991507318296
750,264.52880232307916,-13.655768530712542,-37.92503863456546,-30.597652147777392,371.7647012377408,-43.40105803091088,267.38759863786885,384.05742712694246
751,264.6375761954944,-13.753910115867537,-37.269059766691306,-16.04712883130373,371.33207699670226,-46.55936330788592,267.4128760221713,381.93806304398146
752,264.6750900575198,-13.74794356764768,-36.635831800440045,-1.7495093228636363,371.313876994777,-49.501533546654336,267.372972899354,380.56780674469763
753,264.64189822189223,-13.63854145351878,-36.01948977361727,12.20089300351103,371.63208029582535,-52.22927740853342,267.2669502792932,379.8687367978101
754,264.53952566769783,-13.427329011385027,-35.41468732297782,25.713163233316475,372.2058138149299,-54.745999644569686,267.0949969480086,379.7529008953875
755,264.3704016723905,-13.116847459015226,-34.8166872020577,38.69974403972762,372.9530462942261,-57.056866534280765,266.85837887488645,380.12467434523836
756,264.1377946600314,-12.710515055988363,-34.22142546131476,51.07635078412794,373.79215595154375,-59.1688557598407,266.55938356045027,380.88312569578443
757,263.8457484246727,-12.212588102692958,-33.62554866841976,62.76190587575837,374.643331946732,-61.09077686606249,266.20125963073434,381.92432509864784
758,263.4990194298922,-11.628122856815201,-33.026425460037956,73.6785524401021,375.4297776701881,-62.833249004880905,265.7881518113313,383.14353756058114
759,263.1030146519742,-10.962938119530115,-32.42213554475384,83.75179912767334,376.0786927914484,-64.4086242632398,265.32503144156993,384.43725126570604
760,262.66372927214087,-10.223577237547989,-31.811440538789302,92.91083548992756,376.52202074784896,-65.83084746565211,264.8176227050608,385.7050003144256
761,262.1876833354591,-9.417267604317846,-31.19374147925312,101.08904185960378,376.6969586012422,-67.11524673323447,264.27232463399235,386.8509511508876
762,261.68185634658164,-8.55187538424887,-30.569027682286823,108.22470039120569,376.5462365980471,-68.27825300257443,263.6961287793769,387.78523224701814
763,261.15361875578526,-7.635853049002994,-29.93782115205391,114.26189621230388,376.01818490915696,-69.33705091806121,263.09653236373356,388.4249968713044
764,260.6106594086568,-6.678177380913839,-29.3011202519786,119.15158082662371,375.06661437348646,-70.30916780844458,262.4814467846592,388.6952185594236
765,260.06090825876976,-5.688275871251286,-28.66034584500036,122.85275516976921,373.6505460662833,-71.21201160247577,261.8591014915858,388.529227817203
766,259.5124539152168,-4.675939927701085,-28.017292503114493,125.33371801994258,371.7338307117777,-72.06237222910084,261.23794344485964,387.86900636375395
767,258.97345575349755,-3.6512239969810043,-27.374086614147934,126.57331750157827,369.28470307257396,-72.87590402223094,260.6265324175623,386.6652617779476
768,258.4520502393632,-2.624330552789395,-26.733152314281725,126.56213952603464,366.27531831659223,-73.66660875880122,260.03343220007065,384.87731075725065
769,257.9562510049269,-1.605481833220471,-26.097185296857496,125.30356718578122,362.6813169240483,-74.44634013231786,259.46709753259967,382.4728033666887
770,257.4938424553757,-0.6047802010545448,-25.469133801147905,122.81464909883191,358.4814619681768,-75.22435067401138,258.93575671292024,379.42732365367976
771,257.07226736065843,0.3679400034359125,-24.852185399795044,119.12672204958629,353.6573876405189,-76.00690139308915,258.44729038668197,375.7239037668007
772,256.69850974572415,1.3032653480213128,-24.24975747653598,114.28574342104449,348.1934907616169,-76.79695275083795,258.0091077623762,371.3524890813364
773,256.3789752078459,2.1923564988742843,-23.665488580907336,108.35230120783372,342.0769878487229,-77.59395303618001,257.62802218115206,366.30939059959917
774,256.11937151103103,3.027096996612591,-23.103227331516948,101.40128311889973,335.29814940147037,-78.39373681718357,257.3101285831902,360.59675793414254
775,255.92459292175784,3.800233064214747,-22.567015314422623,93.52120062713155,327.8507109002135,-79.18854203007092,257.06068594723774,354.22210149040905
776,255.79861219679833,4.5055003936300535,-22.061060497331262,84.81317795495936,319.7324471537233,-79.96714965077476,256.88400818116736,347.19788609578325
777,255.74438435719864,5.137734446051289,-21.58969804827651,75.38962907590185,310.9458836575632,-80.71514502154191,256.7833671532955,339.54121038249724
