time,ax,ay,az,gx,gy,gz,accmagnitude,gccmagnitude
0,-12.136310018798524,55.88112633160373,256.95916210616633,-4.338463131549921,68.09494498468128,-1.1112017482157657,263.2443586477796,68.22337803981262
1,-12.361064319905676,56.02398742140788,257.1828386865417,-2.937253149164202,67.35336394186339,-1.0980461125413907,263.50527708988903,67.637988314425
2,-12.57688131990593,56.167225222145476,257.40868007132946,-1.5457184409053575,66.61180370170685,-1.0797115338733483,263.7679562056635,67.04923918631921
3,-12.781296813071705,56.30942829930976,257.6346772474429,-0.18872787167863733,65.88164452231985,-1.0575579827150985,264.02999931420027,66.46546558102202
4,-12.972019530601287,56.449278645855024,257.8588300505566,1.1100528834866474,65.17387244602867,-1.032943150176804,264.28904780614914,65.89480316591035
5,-13.146986702845329,56.58558384279967,258.0791854435288,2.328801633365358,64.4987991066392,-1.0071826147926926,264.54282848079146,65.34499363289929
6,-13.304412537970896,56.71730280628139,258.29387161390514,3.448095214614881,63.86581756162157,-0.9815156011111876,264.78919499467287,64.8232141238224
7,-13.442827868148571,56.84356405672719,258.5011269519458,4.451359695364455,63.283202675075096,-0.9570776322396595,265.02616217641764,64.33593611469955
8,-13.561109901967601,56.96367605498041,258.69932346384746,5.325200943045367,62.75796134390593,-0.9348808955524587,265.25193261870714,63.888816722139914
9,-13.65850172804011,57.077129674582714,258.88698471820845,6.059608198198301,62.295734603313704,-0.915802606694035,265.4649156473019,63.48662326292598
10,-13.734621710638576,57.18359322493453,259.0627989075319,6.648030263427494,61.90075063264565,-0.9005810939094253,265.6637393455991,63.13319009107335
11,-13.789463175429912,57.282900657313625,259.225627930398,7.087330415418476,61.57582503320386,-0.8898187910697587,265.8472566913288,62.83140521634341
12,-13.82338494625972,57.375033756449966,259.3745135554483,7.377631816323584,61.32240258734401,-0.8839909125208045,266.0145470577763,62.58322297118044
13,-13.837093468848957,57.46009931321405,259.50868174296807,7.522069766285388,61.140633189533986,-0.8834583394039768,266.16491439487186,62.3896981180716
14,-13.831617450595768,57.53830253717428,259.6275460500593,7.526470388738089,61.029473869663576,-0.8884831371816962,266.29788332485583,62.251036351105164
15,-13.808276125568332,57.60991826716361,259.7307107021408,7.398977140974174,60.98680880005847,-0.8992450813468684,266.4131941257612,62.16665615991896
16,-13.768642377938342,57.675261751111236,259.81797347617703,7.1496468389152525,61.0095797932468,-0.9158576114992287,266.5107972011249,62.13525746192962
17,-13.71450199476663,57.73466080314001,259.8893281917272,6.790035683936861,61.09392090883351,-0.9383818538998564,266.59084730189517,62.154893208395045
18,-13.64781028616346,57.7884310324144,259.94496640182564,6.332793204986998,61.23529221410813,-0.9668377751720956,266.6536975386606,62.22304123107542
19,-13.570647253783712,57.836855651979754,259.98527773880676,5.791278411215061,61.428609289522775,-1.0012120498341357,266.6998930426088,62.336674778549295
20,-13.485172435519006,57.880171129522545,260.0108482725306,5.179208309652422,61.6683665491991,-1.0414626968685703,266.73016397951204,62.49233132720348
21,-13.39358049579843,57.91855955247835,260.0224562330729,4.5103448413434695,61.94875369096566,-1.087520892695421,266.74541752630836,62.68618017043391
22,-13.298058540879682,57.95214797870086,260.02106453677527,3.798222669000318,62.26376547283211,-1.1392905989671787,266.7467283685433,62.91408985520723
23,-13.200746022290717,57.98101432279754,260.00780964657974,3.05591737097284,62.60730547264753,-1.1966467572160635,266.73532720378324,63.17169668811116
24,-13.103698002330741,58.005198717321925,259.9839863310996,2.2958515808515836,62.973284532605376,-1.2594327845760622,266.71258663047496,63.45447529222944
25,-13.00885252205992,58.024718967263,259.95102790684206,1.5296354823061173,63.355714287438666,-1.3274579563412956,266.6800037475047,63.75781164362805
26,-12.918002765347534,58.03958868309957,259.91048165931574,0.767937729409964,63.748795670546265,-1.4004950137201309,266.63917888581267,64.07707830611426
27,-12.83277453084792,58.04983678375311,259.86397941354437,0.020383080997266087,64.14700179299341,-1.4782780470552845,266.5917901729651,64.4077109181361
28,-12.75460915418874,58.05552715035621,259.81320367847945,-0.7045264709031449,64.54515425416552,-1.5605004637556663,266.53956407444156,64.74528451279576
29,-12.684751548307709,58.056777248346634,259.7598503424527,-1.3994697357267258,64.93849179446549,-1.6468127484660149,266.48424257974773,65.08558798755105
30,-12.624242634776191,58.05377459875381,259.70558932871404,-2.0583456274945804,65.32273018567149,-1.7368197999242176,266.4275481192653,65.42469492871277
31,-12.57391529620551,58.046790137630566,259.65202474802766,-2.6762953235197986,65.69411234338776,-1.8300778488973883,266.37114745252376,65.75902900835806
32,-12.534393123653558,58.03618772176764,259.6006559932805,-3.249708392163244,66.04944784712048,-1.9260912434080666,266.31661573616356,66.08542231628985
33,-12.506091507205621,58.02242922361793,259.55284114557355,-3.7762135848677656,66.38614134645236,-2.0243096413245136,266.26540196286123,66.40116524557658
34,-12.489220804254638,58.00607475733239,259.50976409688917,-4.2546546453708345,66.70220963001958,-2.124126310157305,266.21879703148204,66.7040468300283
35,-12.483791363178689,57.987777639538784,259.4724068364236,-4.685051250772956,66.99628734941668,-2.224878286597739,266.17790576862063,66.99238464857534
36,-12.489620208583466,57.968273807031224,259.44152823042236,-5.068545079867603,67.2676215256498,-2.325849123843707,266.1436241364963,67.26504356929561
37,-12.506339311341353,57.94836564891335,259.4176502563241,-5.407330998959037,67.51605510024237,-2.426274872882168,266.1166225594838,67.52144278432579
38,-12.533405544534386,57.92890056683696,259.4010521030917,-5.7045734525390825,67.74199996502104,-2.525353790805812,266.09733585165554,67.76155082361302
39,-12.570112575488011,57.91074499415541,259.3917720350785,-5.964308332435829,67.94640005873927,-2.6222600254677535,266.0859598228498,67.98586847298569
40,-12.615604970408858,57.894754968692396,259.38961662564174,-6.191330863698908,68.1306851927268,-2.7161611868413713,266.08245443603056,68.19539969557204
41,-12.668894649405779,57.88174457181651,259.394176911135,-6.39107040061438,68.29671628334978,-2.8062392992343956,266.08655337390684,68.39161078667107
42,-12.728879605939023,57.872453628742655,259.40485103575384,-6.569453515140589,68.44672270662427,-2.891714194398412,266.09777989809066,68.5763781650019
43,-12.794364627843885,57.867516100746194,259.4208728412867,-6.7327574039325135,68.58323261518495,-2.9718680412387872,266.11546876903867,68.75192548514931
44,-12.864083673796042,57.867430648823415,259.44134548131336,-6.887456352448863,68.70899729358096,-3.0460694762113087,266.1387936360551,68.92075116029793
45,-12.936723559170892,57.872534878256864,259.4652785646829,-7.040064589747319,68.82691095332481,-3.1137957275105617,266.1667987525891,69.08554786862797
46,-13.010948686211092,57.88298471253553,259.49162677820755,-7.19697919736529,68.93992770187333,-3.1746512381286616,266.19843332153005,69.24911608280158
47,-13.085426649917828,57.89874016652409,259.5193276619787,-7.364326792517592,69.05097764260563,-3.2283815838766046,266.232586471157,69.4142739912471
48,-13.15885453643463,57.91955853653396,259.5473363551557,-7.547817581258691,69.16288412836357,-3.274881881122464,266.2681209470303,69.58376633007379
49,-13.229985562592718,57.944995764839746,259.57465564122145,-7.752610179534595,69.27828419048207,-3.314199283199881,266.30390403780376,69.7601747106091
50,-13.297655458201302,57.9744164721538,259.6003602984638,-7.983190420394835,69.39955424161582,-3.3465295193098554,266.3388348426148,69.94583215700446
51,-13.360807747442003,58.00701279779817,259.6236153825306,-8.243267253260251,69.52874333428417,-3.3722077467392575,266.3718675043722,70.14274479578799
52,-13.418516883951149,58.04183166395408,259.64368849924404,-8.535688779867495,69.6675164151832,-3.3916943043438184,266.4020303306997,70.35252383284572
53,-13.470008079365945,58.07780942843955,259.6599563691513,-8.862381390269684,69.81710997599663,-3.4055562854460866,266.4284408145442,70.57633093547712
54,-13.514672692994157,58.11381226160426,259.6719061500299,-9.224314761852881,69.97830220223864,-3.4144461455888693,266.45031659142455,70.81483983265714
55,-13.552078250461117,58.14868013348567,259.6791321766149,-9.621495062679907,70.15139922155812,-3.419078743524487,266.46698246948597,71.06821639871596
56,-13.58197251308076,58.18127209130869,259.68132898314485,-10.052987983933464,70.33623843826068,-3.420208234659067,266.477873840487,71.33611877045448
57,-13.60428148099838,58.21051049869281,259.6782815760958,-10.51697220224289,70.53220926505658,-3.418606110243391,266.4825368978759,71.61771821890447
58,-13.619101737267968,58.23542202590636,259.6698538879611,-11.010822598973329,70.73829085587967,-3.415041453329641,266.48062610225327,71.91174059256593
59,-13.626688075165063,58.255173403519024,259.6559763170574,-11.531221131705554,70.95310572280931,-3.4102642228893694,266.47189938300374,72.21652719784247
60,-13.62743778221016,58.269100264494725,259.6366333803809,-12.074291744740446,71.17498738287988,-3.404992125981788,266.45621177263246,72.53011299141671
61,-13.62187309450976,58.27672776214999,259.6118526871803,-12.63575420130914,71.40205941547768,-3.399901396974647,266.43350843251125,72.85031892638551
62,-13.610623072067579,58.27778206505625,259.58169647316134,-13.211090337315927,71.63232254533636,-3.3956215409173307,266.40381813841014,73.17485426046511
63,-13.594405611875413,58.27219234387028,259.5462567386865,-13.795715131413207,71.86374569969651,-3.392733796581393,266.36724818977547,73.50142372319954
64,-13.574009810711216,58.26008348136001,259.50565466697043,-14.38514432282403,72.09435655970984,-3.391772746866075,266.323981459306,73.82783381957043
65,-13.550278611750176,58.241760363651615,259.46004451657876,-14.97515021368819,72.32232702793324,-3.3932301810735996,266.2742759537275,74.15209234520533
66,-13.524091593948134,58.217685089924515,259.4096216223936,-15.561897816070395,72.54604926605516,-3.3975600432756896,266.21846681263486,74.4724954298397
67,-13.496347785082765,58.18844863938577,259.3546335747063,-16.142054609215695,72.76419847668183,-3.4051831567055793,266.15697016861174,74.78769708018675
68,-13.467948461621823,58.15473851226859,259.2953931704312,-16.7128687728951,72.97577938826002,-3.4164904657591224,266.0902878286087,75.09675723815079
69,-13.439780036584873,58.117303856550826,259.23229141023387,-17.272212735224755,73.1801544245021,-3.4318438030120335,266.0190114304563,75.39916576037692
70,-13.41269727378983,58.0769197622162,259.1658087113041,-17.818591033751332,73.37705268716812,-3.451573616072155,265.9438246706924,75.69484130893072
71,-13.387507134735621,58.03435261962358,259.096522701699,-18.351113602170308,73.56655997910325,-3.475973576768684,265.8655024416708,75.98410568693906
72,-13.36495354692915,57.99032844640646,259.0251114896432,-18.86943746636884,73.74909102173027,-3.505292438725833,265.78490623210695,76.26763548236532
73,-13.345703297305954,57.945505817566875,258.95235200383706,-19.373681375392646,73.92534576120087,-3.539723843973261,265.7029757684259,76.54639395389381
74,-13.3303331452848,57.90045462405533,258.8791135752387,-19.864319098313576,74.09625223488158,-3.5793949841404267,265.6207173399595,76.82154692514709
75,-13.319318207504066,57.85564146797457,258.8063471645619,-20.342057994783662,74.26289890069835,-3.6243550952242884,265.53918938506956,77.0943670639205
76,-13.313021758626178,57.81142206640971,258.7350705601095,-20.80771001017827,74.42645964805078,-3.674564722739614,265.45948574580535,77.36613134132833
77,-13.31168678028544,57.768040506037046,258.66634967673775,-21.262062432863374,74.58811495549568,-3.7298865844011906,265.3827167025954,77.6380167306483
78,-13.31542976736703,57.72563459813289,258.6012760055259,-21.70575554656912,74.74897281854197,-3.790078731390129,265.30998770086376,77.91099929174374
79,-13.324237374484579,57.68424610202491,258.5409404332712,-22.139173708159507,74.90999303334696,-3.85479056476258,265.2423757461178,78.18576158727105
80,-13.337966399578217,57.64383437759838,258.4864040691873,-22.56235543927863,75.07191809729025,-3.9235620516267606,265.18090380324446,78.46261281382627
81,-13.356347361521205,57.60429211010277,258.4386672408816,-22.974926946770253,75.23521342022771,-3.995826194152805,265.12651405403176,78.74142517290367
82,-13.378991615061954,57.565462019836374,258.3986382071203,-23.376062194439708,75.40001890325914,-4.070914519807895,265.08004128600805,79.02158905074633
83,-13.405401664926934,57.52715380132783,258.36710319382354,-23.764471327022054,75.56611340583713,-4.148065205402361,265.04218780125336,79.30198871445184
84,-13.43498417061473,57.48916084125518,258.3446991591878,-24.138417942832582,75.73289324711098,-4.226433442651221,265.01350109554085,79.58099953320956
85,-13.467065109411065,57.451276482361315,258.3318904711955,-24.49576443897172,75.89936562309813,-4.305103702049415,264.9943553863189,79.85650714733941
86,-13.500906654973756,57.41330968173972,258.32895055240465,-24.83404342839193,76.06415757149985,-4.383103574416889,264.98493796370377,80.12594844112026
87,-13.535725431003927,57.37509983233565,258.3359494331391,-25.15055208159016,76.22554080384484,-4.459418888295592,264.9852412142713,80.38637356394327
88,-13.57071181572614,57.33653033214799,258.3527479633209,-25.4424652210322,76.38147232060489,-4.533009873445552,264.9950609411163,80.63452757665411
89,-13.605049902227499,57.29754033326415,258.3789991778601,-25.706962160368317,76.52965022187566,-4.60282826148322,265.0140013175128,80.86694959105832
90,-13.637937658652532,57.25813411353333,258.41415703124665,-25.941361706567506,76.66758352197611,-4.667835306490676,265.0414865383627,81.08008653858161
91,-13.668606849636467,57.218387699230085,258.4574924027549,-26.14325947632578,76.79267411350446,-4.727020686474089,265.07677896865454,81.27041800118401
92,-13.696342327551585,57.17845259218469,258.5081159223269,-26.31066172628457,76.90230841017855,-4.779422116309287,265.11900329723176,81.43458796980146
93,-13.720500302841012,57.13855656955918,258.5650068194136,-26.44211023173721,76.9939557342085,-4.824145387865519,265.16717589027394,81.56953906434914
94,-13.740525170701916,57.099001518557245,258.6270466421792,-26.536793300888103,77.06527024369302,-4.860384586145118,265.22023818994893,81.67264467950288
95,-13.755964464875769,57.06015822439645,258.6930563074115,-26.594638696309698,77.11419308664757,-4.887442412220408,265.2770926160789,81.74183465448
96,-13.766481529385217,57.02245798173919,258.76183465200074,-26.616384994164054,77.13905145737425,-4.904750735719599,265.3366391364383,81.77571031619806
97,-13.771865502884337,56.98638085773543,258.83219665103053,-26.603628708281622,77.13865128052294,-4.9118915528665354,265.3978106559752,81.77364505725507
98,-13.77203819496421,56.9524404708442,258.9030097081204,-26.558845299437163,77.11236036886724,-4.908618393726842,265.45960561586185,81.73586697618703
99,-13.767057452479992,56.921165326670994,258.9732266898759,-26.48538295102606,77.06017911848234,-4.894877947506897,265.5211164909217,81.66352054435946
100,-13.757116697983689,56.89307703441296,259.0419145655261,-26.387428723802458,76.9827961256105,-4.870831311153204,265.5815531227523,81.55870478161737
101,-13.742540442634372,56.86866604092363,259.1082777245364,-26.2699474185392,76.8816265129033,-4.836873847312248,265.6402601056912,81.42448600950969
102,-13.723775724123971,56.848365832174515,259.1716753628673,-26.138594171960396,76.75883119694025,-4.79365221094259,265.69672782845146,81.26488386806483
103,-13.701379642249929,56.832526840923094,259.23163265859586,-25.999602460305976,76.61731576309461,-4.742076757282565,265.7505971716056,81.08482987716523
104,-13.676003453774781,56.82139149579895,259.28784565021,-25.85964974678087,76.46070800448726,-4.683327381352131,265.8016581083321,80.89009835809604
105,-13.64837393839063,56.81507189644184,259.3401797765527,-25.725703460110648,76.2933135287935,-4.618850934996865,265.84984252537345,80.68721000221038
106,-13.619272860402878,56.81353154881991,259.3886620593446,-25.604850367393187,76.12004916999389,-4.550348726530006,265.8952115975236,80.48330882318717
107,-13.589515326023548,56.816572519321355,259.4334670293855,-25.504112808202873,75.94635431567424,-4.479753159748129,265.9379381475169,80.28601373755697
108,-13.55992776774372,56.82382923448709,259.4748967717316,-25.430255793229755,75.7780807414351,-4.409193205700106,265.9782846574389,80.10324667570151
109,-13.531326292243916,56.83476987526227,259.5133558726882,-25.389589672639243,75.621362177417,-4.340949024053151,266.0165779350813,79.94303997883257
110,-13.504496232264941,56.848705894538774,259.5493224745232,-25.3877738889227,75.48246560224052,-4.277396608195651,266.0531817665727,79.81332684897997
111,-13.480173817988845,56.86480973473663,259.583316918883,-25.42962811073989,75.3676271123495,-4.220943827419817,266.08846906264904,79.72171969400956
112,-13.459030753084063,56.882140416185045,259.61586952344703,-25.518957615963128,75.28287611530345,-4.173959711478502,266.1227949757011,79.67528225954332
113,-13.441662110436896,56.89967626751459,259.6474889763279,-25.65840000467221,75.23385252339881,-4.138699257771,266.1564723035934,79.6803023973303
114,-13.428577511037224,56.91635360443233,259.6786327677783,-25.84930013834518,75.22562251500266,-4.117226394918816,266.1897503121614,79.74207311025275
115,-13.420195218708475,56.93110966325639,259.7096810435053,-26.091619656853656,75.26249917019534,-4.111337994109186,266.22279795138843,79.86469004088045
116,-13.41683866345765,56.94292768805707,259.7409152043991,-26.38388652031355,75.34787474579853,-4.122492010168511,266.25569228980896,80.05087371528279
117,-13.418734960454998,56.95088185962857,259.7725024102357,-26.723188701692557,75.48407142075116,-4.151742963837257,266.28841278664555,80.30182449588087
118,-13.426015136029045,56.95417975142603,259.80448684951386,-27.105214405349045,75.67221697450293,-4.199687987069381,266.32084173956497,80.61711729066064
119,-13.438715929778786,56.95220014534877,259.836788295055,-27.524339131776074,75.91215113175777,-4.266426475336436,266.35277095083956,80.99464171300897
120,-13.456783143396818,56.94452426778523,259.86920814154604,-27.973757799347812,76.2023673369999,-4.351535999473597,266.3839143921988,81.43059177161274
121,-13.480076505964888,56.93095876648974,259.90144274756585,-28.445658229325637,76.53999356371905,-4.454066513497756,266.4139263388685,81.9195074189381
122,-13.508375937996357,56.91154902860966,259.93310338061866,-28.931430766209097,76.92081440732768,-4.57255403542282,266.44242398639875,82.45436844489076
123,-13.541388986584563,56.886581747325074,259.9637414760666,-29.421907689991674,77.33933519582484,-4.705053917079166,266.4690130492725,83.02673932916234
124,-13.578759128557422,56.85657600765623,259.99287753601203,-29.907625317446985,77.78888730558484,-4.8491927070781715,266.49331453690905,83.62696187154349
125,-13.62007462356332,56.822262640574294,260.02003197413757,-30.379101145582784,78.2617724431387,-5.002236627432674,266.51499098311433,84.24439080848799
126,-13.664877654437484,56.78455224371535,260.04475641620775,-30.82711794939126,78.74944243323147,-5.16117392320409,266.5337707446797,84.86766624457077
127,-13.712673607438001,56.7444930549037,260.0666641185187,-31.24300640191502,79.24271001029241,-5.32280780813546,266.5494693083154,85.48501555470406
128,-13.762940466859783,56.70322064302522,260.08545816853905,-31.618917589282823,79.73198514218095,-5.483856379441863,266.56200671997965,86.0845763718396
129,-13.81513835501327,56.66190197743028,260.1009561003203,-31.948076787339115,80.20753045431793,-5.641055652581687,266.57142034942956,86.65473131739114
130,-13.868719207382814,56.62167677815057,260.1131096076752,-32.22501007903747,80.65972840495803,-5.79126172267205,266.57787232059115,87.18444430219205
131,-13.923136466693302,56.58359916802107,260.1220181510454,-32.445735847936525,81.07935208947676,-5.931548012861083,266.5816510653835,87.66358763115763
132,-13.977854582754487,56.548582585964496,260.12793537313377,-32.60791388728788,81.45783101447786,-6.059293695236943,266.5831665536167,88.08324887688308
133,-14.032358075471155,56.51735067824899,260.1312674149993,-32.71094580255918,81.78750293497349,-6.172259707884934,266.5829388682219,88.43600659366032
134,-14.0861599322323,56.490396499359086,260.13256259060444,-32.75602156219706,82.06184291321976,-6.26864932003251,266.5815800693127,88.71616444664737
135,-14.138809067616346,56.46795195205061,260.1324924776195,-32.74610853614242,82.27566112889977,-6.34715087089921,266.57976978640187,88.91993425101661
136,-14.18989642280744,56.44996906000542,260.131825187168,-32.6858812932282,82.42526162412835,-6.406961084378367,266.5782255852256,89.0455597869048
137,-14.239059139187017,56.436114297777586,260.1313921947196,-32.58159292293761,82.50855511970374,-6.4477882007960075,266.5776696746476,89.09337513807104
138,-14.285982292425384,56.42577662034404,260.132050534421,-32.440891626640195,82.52512038068066,-6.469835043876239,266.578793811696,89.06579374246985
139,-14.33039795432204,56.418088983955734,260.13464236260927,-32.27258940955764,82.476210438473,-6.473763050468155,266.5822243023087,88.96722727544525
140,-14.372081696823262,56.411962150249664,260.13995392597053,-32.08639230929755,82.36470227422748,-6.460639217331395,266.5884888382455,88.803936658314
141,-14.41084690193793,56.40612863164109,260.1486758963409,-31.892603178070374,82.19499113330714,-6.4318688084864135,266.59798666006924,88.58382050724943
142,-14.44653736848186,56.39919399919659,260.1613669350939,-31.701808325830857,81.97283317998028,-6.3891174324883275,266.61096331408726,88.3161488526297
143,-14.479018778870888,56.38969256604442,260.1784222909563,-31.524558421580902,81.7051424960319,-6.334226665731146,266.62749117308385,88.0112518134336
144,-14.508169679690907,56.376144641119126,260.20004919728285,-31.37105236447051,81.39975041318235,-6.269127729146668,266.64745689537955,87.68017419914942
145,-14.533872764609692,56.35711298124152,260.2262506787103,-31.250831021105384,81.06513688011181,-6.195757805149679,266.6705569416752,87.33430797780058
146,-14.55600737110739,56.3312565780187,260.25681897468485,-31.1724864447892,80.71014500368894,-6.115983374859441,266.6963019895984,86.98501541463732
147,-14.574444119022026,56.29738030208056,260.2913391517588,-31.143391897606996,80.34369094767452,-6.031534416992816,266.7240305470979,86.64325649768628
148,-14.589042497905231,56.254479084809795,260.3292027238837,-31.169458758073624,79.97448180653797,-5.943952443220007,266.7529313562622,86.319234867321
149,-14.599652022139788,56.201775337317216,260.3696303830947,-31.254927857449054,79.61075373280674,-5.854554249013777,266.78207347101903,86.02207659389455
150,-14.606117410289162,56.1387483700479,260.4117024090713,-31.4022042573134,79.26004144558704,-5.764412099948886,266.81044237357054,85.75955551961606
151,-14.608288077245398,56.06515476503949,260.45439503842044,-31.611745167377755,78.92898832968572,-5.674350013285755,266.8369802438412,85.53787724845846
152,-14.606031883654754,55.98103892565012,260.49662099075,-31.88200999392338,78.6232037415946,-5.584954934851994,266.8606284549302,85.36153110316708
153,-14.599252482965499,55.88673336410645,260.53727236915404,-32.20947918972439,78.34717104528895,-5.496600949547812,266.88037042830035,85.23321557846958
154,-14.58790892044407,55.78284873785091,260.57526416958603,-32.58874487641804,78.1042065794821,-5.409484104945962,266.89527305846616,85.1538383574819
155,-14.572035653385292,55.67025422998517,260.6095766215202,-33.01267169018876,77.89646654017312,-5.323664905256285,266.90452500159387,85.12258732789363
156,-14.551761007206917,55.55004949824228,260.63929464009806,-33.47262164863005,77.72499599511893,-5.239115129631964,266.90747030044827,85.13706478343038
157,-14.527322198033424,55.42352995036568,260.6636428570801,-33.95873268929247,77.58981223151483,-5.155765508933919,266.9036361154027,85.19347361355489
158,-14.499075334454368,55.292147412571474,260.6820149020215,-34.46023738499977,77.49001353044616,-5.073551024460246,266.89275360670337,85.28684208429115
159,-14.467499244869947,55.157468243558824,260.6939957082854,-34.96580649770462,77.42390422958417,-4.992451077605181,266.8747711327379,85.41127287677956
160,-14.433192619760659,55.02113060768973,260.69937569018725,-35.463901554879186,77.38912744222003,-4.9125223718138535,266.84985896506583,85.56020228874651
161,-14.396864770651012,54.88480213201471,260.6981558415942,-35.943121373790376,77.38279790320976,-4.833922957307325,266.81840486666346,85.72665675513912
162,-14.35932104800854,54.75013880097652,260.6905432331809,-36.392529151908136,77.40162897111904,-4.756926510007788,266.78100026317253,85.90349590120162
163,-14.321444335662173,54.61874584122559,260.6769370272931,-36.8019490682329,77.44204965793364,-4.6819265764144555,266.73841736366677,86.08363393511715
164,-14.284173969572983,54.492141454352,260.6579058588797,-37.162223989759994,77.50030946399491,-4.609431205085111,266.6915783165302,86.26023399557523
165,-14.248483113375372,54.37172438202248,260.63415799746804,-37.46542861370587,77.57257052173453,-4.540049039032584,266.6415180463728,86.42687277019118
166,-14.215355320036762,54.25874628379494,260.60650594027294,-37.705035044132984,77.65498788188435,-4.47446848897949,266.58934262841734,86.57767502935305
167,-14.185760797844956,54.154289742129166,260.5758271101985,-37.87603025695267,77.74377959608341,-4.413431994190163,266.5361850327297,86.70741950597754
168,-14.160632717664205,54.05925242127371,260.54302239103384,-37.97498697961864,77.83528857558701,-4.357707563322394,266.4831600573461,86.8116187256588
169,-14.140843739045424,53.97433751364325,260.5089743920619,-38.00009104844989,77.92603813191762,-4.308059729998297,266.43132033518395,86.88657596339718
170,-14.12718287679739,53.90005014895199,260.4745074778183,-37.95112923811155,78.01278274127039,-4.265221747771482,266.38161534263907,86.92942253695121
171,-14.120332927222883,53.83669907061507,260.440351595994,-37.82944192137247,78.09255502676868,-4.229870354323428,266.3348552645267,86.93813825873816
172,-14.12084889918602,53.78440276214432,260.40711171173035,-37.637844830647474,78.16270931878147,-4.202603886996448,266.2916813369125,86.91155720553014
173,-14.129138198952075,53.743099307630466,260.37524424269185,-37.38052382602285,78.22096150137136,-4.183924053995666,266.2525439200898,86.84936016999663
174,-14.14544363524074,53.71255938934008,260.34504145724213,-37.062906129936444,78.26542423987652,-4.174221314098222,266.21768917084614,86.75205437273856
175,-14.169830538079339,53.69240179159094,260.3166244772517,-36.69151115814109,78.29463620881857,-4.17376360147752,266.18715487340404,86.62094040942615
176,-14.20217929400411,53.68211063199041,260.28994523481305,-36.273783987410695,78.30758371759816,-4.182688049745238,266.1607756728913,86.45806614466045
177,-14.242184315945051,53.681053461677635,260.2647973119587,-35.81791468578388,78.30371320933604,-4.200995399677283,266.1381975142,86.26616739581436
178,-14.289359952023625,53.68849946590637,260.24083503791263,-35.33264712497813,78.28293343631888,-4.228546872300603,266.1189005391687,86.04859570047286
179,-14.343053295108037,53.70363720123656,260.2175996569041,-34.82708136378892,78.24560660813812,-4.26506341431577,266.10222915923475,85.80923409341983
180,-14.402463469778104,53.725591564691,260.1945509179833,-34.31047410580371,78.19252838340898,-4.310127356540811,266.0874276008665,85.55240250259148
181,-14.46666672487005,53.75343997501534,260.1711020996263,-33.79204201751774,78.12489715372242,-4.363186633791945,266.0736789344691,85.28275500287975
182,-14.534646380510406,53.78622793573043,260.1466562599094,-33.28077280189251,78.04427358034961,-4.423561741420189,266.0601454061951,85.00517166143062
183,-14.605326335197077,53.82298408509208,260.1206414459989,-32.78524881362229,77.95253174768959,-4.4904555344979125,266.0460078091367,84.72464801339005
184,-14.67760658495558,53.862734563924604,260.0925428032065,-32.313487647660914,77.85180357770177,-4.562965867573195,266.03050176706245,84.44618530300488
185,-14.750399132374707,53.90451632160387,260.0619300146589,-31.872803562122,77.74441831930673,-4.64010098925183,266.0129492385878,84.17468454005241
186,-14.822662708132206,53.94738905952059,260.0284791338519,-31.469692883016066,77.63283903048782,-4.720797548330156,265.9927841843573,83.91484722702816
187,-14.893434843348864,53.9904458345042,259.99198845028064,-31.109745736053508,77.51959805388944,-4.803941003459786,265.9695719746114,83.67108537134297
188,-14.961860017151045,54.03282265616422,259.9523884963122,-30.797585579195573,77.40723354209467,-4.888388138104269,265.9430226434695,83.44744310972132
189,-15.027212815810824,54.07370749771262,259.9097467021406,-30.536837080921952,77.29822905564127,-4.972991256300322,265.912998513627,83.24753188642102
190,-15.088915229367048,54.11234900503175,259.86426744922625,-30.33012191450424,77.19495807052127,-5.056623459364646,265.87951693510695,83.07448058572382
191,-15.146547413086001,54.14806497917814,259.81628818259105,-30.179081022632765,77.09963487389423,-5.138204195942506,265.8427487608162,82.93090130737197
192,-15.199851524511207,54.1802505028816,259.7662718698862,-30.084420883421565,77.01427285412011,-5.2167240945900515,265.8030127904064,82.81887065888111
193,-15.248728642719081,54.20838535890157,259.7147957651823,-30.045980372449883,76.94065071609539,-5.291267988227431,265.76076606798546,82.73992566133198
194,-15.293229269866794,54.2320401569874,259.6625363800515,-30.06281408150853,76.88028676735368,-5.3610350604395896,265.7165898471006,82.69507275388702
195,-15.333538428182745,54.250880431628616,259.6102507124961,-30.13328749520447,76.83442114804298,-5.425355198729713,265.67117118037356,82.68480798537144
196,-15.369956757007644,54.26466795642012,259.55875396708336,-30.255179261831035,76.80400569738858,-5.483700901127099,265.6252802894306,82.70914628460459
197,-15.40287916820727,54.273258651557235,259.5088941765748,-30.42578593495315,76.78970102977196,-5.53569438082206,265.57974407846064,82.7676576761356
198,-15.432772513767425,54.27659675361676,259.46152434050725,-30.642025018799902,76.79188030813162,-5.5811097960369445,265.53541640817105,82.85950843186193
199,-15.460153417058542,54.274705348129224,259.4174729236904,-30.900532892034946,76.81063914272272,-5.619870801143791,265.4931460397698,82.98350540319329
200,-15.48556702652843,54.26767378576825,259.3775138041879,-31.197755106226257,76.84581101542105,-5.652043884076075,265.4537434628667,83.13814213024132
201,-15.509567089430956,54.255642734632325,259.342337034245,-31.530027508151267,76.89698762040055,-5.677828194309994,265.4179481150361,83.3216457024239
202,-15.532697508949372,54.23878764688699,259.3125219542626,-31.893647469394434,76.96354348855066,-5.69754272307288,265.38639766473585,83.53202365700774
203,-15.55547547551434,54.21730137680289,259.2885140778779,-32.284935112467174,77.04466420897836,-5.711611757764263,265.3596008974621,83.76711038902589
204,-15.578376305886112,54.1913766956912,259.2706067955091,-32.70028475297907,77.13937746437873,-5.72054951005645,265.3379153873127,84.02461257942443
205,-15.601820177700205,54.16118949602755,259.25892862726755,-33.13620683226985,77.24658591373738,-5.724944712666944,265.32153083947924,84.30215298801212
206,-15.626160933522327,54.12688348302509,259.25343662444266,-33.58936042082364,77.36510065647646,-5.7254457941400645,265.3104588599966,84.59731158714615
207,-15.651677048641066,54.088557086431614,259.2539164018862,-34.056575991401424,77.49367367229496,-5.722747005670871,265.3045297756659,84.90766252585394
208,-15.678564771167794,54.046253256297234,259.25998904245233,-34.53486769489776,77.63102740300313,-5.717575626281468,265.3033968718809,85.23080499405853
209,-15.706933424926113,53.99995282823381,259.27112481018355,-35.02143396525176,77.7758796249665,-5.710680114206899,265.30654812289754,85.56438584968468
210,-15.73680294569798,53.94957223722938,259.28666331692347,-35.51364512594016,77.926961955008,-5.702818794311943,265.3133252292805,85.90611195668573
211,-15.768103827115844,53.894966372847996,259.3058394714353,-36.00901696151788,78.08303072468517,-5.694748424978282,265.32294947937584,86.2537506286553
212,-15.800679647952077,53.835937167274665,259.32781416648146,-36.50517001092673,78.24286954887377,-5.687211878601092,265.3345535462164,86.60511741380027
213,-15.83429219307753,53.77224807502352,259.3517082846883,-36.999775496272626,78.40528364873111,-5.680924260080111,265.34721786880226,86.95805159143993
214,-15.868628980214956,53.703644009952775,259.3766382944689,-37.49049008379386,78.56908672861421,-5.676557051353365,265.36000983335407,87.3103809548517
215,-15.903312895762625,53.62987567677257,259.40175148206623,-37.97488287110033,78.73308181703077,-5.674720238007798,265.37202361736547,87.65987851609337
216,-15.937913624958972,53.55072673849384,259.4262587783347,-38.450358958956116,78.89603791026227,-5.675942769581694,265.38241837246545,88.00421456914125
217,-15.97196055612777,53.46604202217676,259.44946331063665,-38.91408459887864,79.05666451177687,-5.680652052829066,265.39045254021556,88.34090804728001
218,-16.004956820414154,53.375754959723544,259.47078330850496,-39.36291914195782,79.21358624189743,-5.689153432089472,265.39551257805385,88.66728127766638
219,-16.036394116318743,53.27991255925833,259.4897687045521,-39.793358809317894,79.36531958710161,-5.701610772075225,265.39713508683883,88.98042204184095
220,-16.06576795073092,53.17869633867205,259.5061114479941,-40.201496675775836,79.5102535966581,-5.718029327680832,265.39502201731057,89.2771563306323
221,-16.09259288466549,53.07243788563932,259.5196499859088,-40.58300230276457,79.64663599349224,-5.738242039490671,265.3890491049008,89.55403444649352
222,-16.11641731616649,52.96162807964678,259.5303685676151,-40.93312333183544,79.77256580065034,-5.761900228190618,265.37926795063186,89.80733227231246
223,-16.136837269859292,52.846919427679246,259.5383921192324,-41.24671020735796,79.88599321121588,-5.78846942910598,265.36590233704305,90.03306867598663
224,-16.15350857257165,52.72912130746583,259.54397747100995,-41.51826411707731,79.98472708301769,-5.817230869982386,265.3493394673631,90.22703922410228
225,-16.16615671063503,52.609188191265794,259.5475016415317,-41.7420072248035,80.06645016886644,-5.84728885983961,265.330116790723,90.3848656821441
226,-16.17458369695171,52.48820124375892,259.54944768258395,-41.91197330322407,80.12874199941052,-5.877584109784491,265.308904946409,90.5020601764955
227,-16.178671495109903,52.367344083491474,259.5503883600132,-42.02211597349441,80.169109170792,-5.906912760287015,265.2864872288865,90.57410235115287
228,-16.17838188448462,52.24787384893112,259.55096775935425,-42.066430977546084,80.18502260864543,-5.933950666393035,265.2637358827522,90.5965273567635
229,-16.173752971922745,52.13108887254445,259.5518807655262,-42.03908831562082,80.17396116209962,-5.957282290768531,265.2415854507927,90.5650220728179
230,-16.164892815265276,52.01829427069743,259.5538503108329,-41.93456971775509,80.13346061158448,-5.975433371364239,265.22100335920743,90.4755265925574
231,-16.15197087472938,51.910766780141756,259.5576024153078,-41.74780678425416,80.06116685038312,-5.9869063986462905,265.2029580689302,90.32433769576373
232,-16.135208291419776,51.809720284973515,259.5638394259327,-41.4743152012985,79.9548916621226,-5.99021789150856,265.1883855343197,90.10821082340448
233,-16.114868241865096,51.716273553638246,259.5732124241771,-41.11032068908634,79.81266924997371,-5.983936487865065,265.1781552906316,89.8244570124048
234,-16.091247665785545,51.631421586296206,259.58629430230366,-40.652872759033045,79.6328115775947,-5.9667209262640055,265.1730379910786,89.47103142632443
235,-16.064671372975123,51.55601161989493,259.6035552894577,-40.099942941909895,79.41396073495855,-5.937357064685675,265.1736764034234,89.04661059278082
236,-16.035488952756623,51.49072432428178,259.6253426391767,-39.45050489750043,79.15513694950725,-5.894793154737163,265.180561674061,88.55065623153963
237,-16.00407425952949,51.43606017875207,259.65186578565726,-38.70459469888419,78.85578140702533,-5.838172668790127,265.19401612704337,87.98346450874452
238,-15.97082673188102,51.39233059887531,259.68318762973934,-37.8633505120559,78.51579353521129,-5.766864063880614,265.2141831189747,87.3462004696755
239,-15.936173459943053,51.35965322166247,259.71922191104346,-36.92903171587047,78.13556270498296,-5.680486916818413,265.24102372705755,86.64091809515459
240,-15.900570713268536,51.33795088029457,259.75973610122713,-35.90501808761198,77.71599440702163,-5.578933827435037,265.2743195470699,85.87056681343569
241,-15.864503615631985,51.32695406102123,259.8043590750956,-34.79578996049929,77.25853089670136,-5.462387388524469,265.31368075151994,85.03898538387419
242,-15.828482854548765,51.32620680374039,259.852592929506,-33.60689027813721,76.76516608154775,-5.33133146144056,265.35855871295075,84.15088388376567
243,-15.79303769537948,51.33507598883826,259.90382848300885,-32.344869317881994,76.23845406963842,-5.18655604143199,265.4082626751382,83.21181413556843
244,-15.758705056446434,51.35276387745223,259.9573639633646,-31.017212643181104,75.68151038133527,-5.029155136039432,265.46197994337126,82.22812842525353
245,-15.72601496336787,51.37832381160784,260.01242614451985,-29.632252672114387,75.0980044763617,-4.860517271686418,265.518798866078,81.20692593661823
246,-15.695473256834577,51.410679104385544,260.0681929149359,-28.19906416585768,74.49214206808023,-4.682308446218117,265.57773366485156,80.15598607398229
247,-15.667542817658262,51.448645173789544,260.12381614441153,-26.72734397233978,73.86863570954625,-4.496447520952225,265.637750086952,79.08368779393236
248,-15.642624729460755,51.49095482193008,260.1784438026885,-25.22727555493513,73.23266229382007,-4.305074187675644,265.69779091927575,77.99891418838766
249,-15.621040798775928,51.536286327719225,260.2312404783605,-23.709379256154644,72.5898063621012,-4.110509797821198,265.7568005485992,76.91094183393214
250,-15.603018736493626,51.58329378642319,260.28140565646794,-22.184349924624712,71.94598844807943,-3.9152115592901113,265.8137479059047,75.82931485247154
251,-15.588681044560118,51.63063892193768,260.32818928913167,-20.662884441832873,71.30737813255612,-3.7217209012088963,265.8676472497116,74.7637042311519
252,-15.578038302488602,51.67702352044417,260.37090433603663,-19.155502713029733,70.68029208022165,-3.532607139120549,265.91757634803963,73.72375372446083
253,-15.570987234886742,51.72122178023471,260.4089360965108,-17.672366655506508,70.07107812121765,-3.350407893817518,265.9626917712645,72.71891458812831
254,-15.56731369201071,51.762112116216926,260.4417483239487,-16.223102453278088,69.4859874225649,-3.1775679852605183,266.0022412067686,71.75827242107835
255,-15.566700416837453,51.79870803531948,260.46888629439695,-14.816631747156924,68.93103786512337,-3.016378698360917,266.0355728835705,70.85037039851913
256,-15.568739158802654,51.83018749623929,260.4899771854564,-13.46101745722125,68.4118727018302,-2.868919367288534,266.0621423175567,70.0030339810599
257,-15.572946358722147,51.85591979635369,260.50472831394393,-12.163329586242995,67.93361923332247,-2.7370031571339304,266.081516683939,69.2232026168483
258,-15.578781346802563,51.875488670927815,260.51292396968535,-10.929535637324426,67.50075252540407,-2.6221288004421637,266.09337722139503,68.51677396902078
259,-15.585665835584102,51.88871007164729,260.51442172779645,-9.764419217791525,67.11696915976181,-2.5254399391550577,266.0975201608749,67.8884658725017
260,-15.593003483554691,51.89564308550508,260.50914916476336,-8.671529047636527,66.78507574314533,-2.4476936188898026,266.09385671080753,67.34170066071447
261,-15.600198441931205,51.89659269710808,260.49710178950306,-7.653159079095912,66.50689646226506,-2.3892392999659005,266.0824125729036,66.8785157874975
262,-15.606672039323906,51.892103570645,260.47834271415684,-6.710358987936507,66.28320339811005,-2.3500094333091384,266.0633272893772,66.4995038654469
263,-15.611877078330371,51.88294464164473,260.45300420231433,-5.842973144447981,66.11367261404571,-2.329522216152383,266.03685348388774,66.2037843829748
264,-15.615309602599295,51.87008490362528,260.4212908752668,-5.049705430503026,65.99686818920796,-2.326896625073719,266.0033558498446,65.9890084399082
265,-15.61651837637543,51.85466117191076,260.3834840896722,-4.328206893069835,65.93025539931462,-2.3408792358553496,265.9633095798556,65.85139686112991
266,-15.615112548169204,51.83793873465024,260.33994679575045,-3.675183058166846,65.91024324722525,-2.3698817135631134,265.9172977693888,65.78581108201858
267,-15.610767931643258,51.821265815640466,260.29112809041766,-3.0865176296406305,65.93225562051195,-2.4120272705921666,265.8660072358853,65.78585533263285
268,-15.603232094012634,51.80602295298035,260.23756678825094,-2.557409207352683,65.9908295306004,-2.4652039283926834,265.8102223218627,65.84400789752615
269,-15.592328188847596,51.79356884729155,260.17989354701797,-2.0825175629940516,66.0797381300488,-2.5271221064287452,265.7508165332954,65.95177855277116
270,-15.577957346937023,51.785184781474356,260.1188311718144,-1.6561158685958455,66.19213546903862,-2.595373867588197,265.68874204996405,66.09988863332877
271,-15.560099438065526,51.78202011195351,260.0551926330639,-1.2722450338531044,66.32071922365118,-2.6674910546399198,265.6250171344565,66.27846954149989
272,-15.538812059870878,51.785041456407484,259.9898762279932,-0.9248659822998375,66.4579069229443,-2.740999606325599,265.560711388491,66.47727488602611
273,-15.514227670654764,51.794988077595086,259.9238573266834,-0.6080053879906534,66.596020561011,-2.81346761314888,265.49692879377926,66.68590088531509
274,-15.486548900664756,51.81233567981226,259.8581762854397,-0.3158902694613651,66.72747396018086,-2.882545166881864,265.4347885634663,66.89400923327113
275,-15.456042269896372,51.83727047719892,259.7939223373236,-0.04306704226971925,66.84495692432861,-2.9459947109748117,265.37540399307824,67.09154638112572
276,-15.423030740495097,51.86967497845925,259.7322135445872,0.21549876304622398,66.94161017199053,-3.0017113402402384,265.3198596991412,67.26895321457293
277,-15.387885620362756,51.90912642125038,259.67417320302053,0.46434490548008117,67.01118530554368,-3.0477332762339575,265.2691878375039,67.41735943631184
278,-15.351018259745103,51.954908158246276,259.62090338986735,0.7074583867100964,67.04818458683131,-3.0822435079218713,265.2243440610855,67.52875752688523
279,-15.312871817564432,52.00603358269017,259.5734565811492,0.948244746337058,67.04797595044225,-3.10356426839593,265.18618405714335,67.5961518436066
280,-15.273913239210495,52.06128144911543,259.53280639172476,1.189518787288196,67.0068794936327,-3.110146564515281,265.1554414781383,67.6136792177155
281,-15.234625522945104,52.119240745283136,259.49981853732845,1.433513395643413,66.92222273043873,-3.1005573880548103,265.13270798446456,67.57669840748476
282,-15.195500292412127,52.17836267703537,259.47522314662854,1.68190236780709,66.79236325180578,-3.073467533247748,265.11841602544365,67.48184702601854
283,-15.15703056779827,52.237016981014186,259.4595896226833,1.9358332965708318,66.61667906012262,-3.027643090220698,265.112824979474,67.32706606844607
284,-15.119703479473362,52.29354979731586,259.4533053674675,2.195967515269835,66.39552861323699,-2.961943614541376,265.1160113805537,67.11159379852259
285,-15.083992633929778,52.346340668538886,259.45655973600304,2.4625254959728102,66.13018432245266,-2.8753296856822037,265.1278640731294,66.83593232503395
286,-15.05035000343083,52.39385671661226,259.46933443364884,2.7353374297888213,65.82274472500063,-2.7668820873385767,265.14808509111435,66.50179151657274
287,-15.019197477937848,52.434702538727215,259.4914011638216,3.0138994752186647,65.47603170790927,-2.6358341522298274,265.17619676972004,66.11201587313465
288,-14.990918407676432,52.467664781416566,259.5223267528084,3.297435978296429,65.09347995351234,-2.481617898624648,265.21155512186317,65.67050055629419
289,-14.965849482322795,52.4917506457228,259.5614853582329,3.584966771662197,64.6790261262293,-2.30392352679861,265.2533689611169,65.18210291276611
290,-14.944273194876406,52.506219680698074,259.6080768577169,3.875376773205932,64.23700513239932,-2.102770783058367,265.3007237684186,64.65255543086353
291,-14.926411023999917,52.51060812344096,259.6611502404374,4.167483174088998,63.77206001554225,-1.8785897188883482,265.3526090074551,64.08838511309682
292,-14.912417391345627,52.50474489746081,259.71963079954253,4.4600942413770515,63.28907067791566,-1.6323074685752712,265.40794753981936,63.49684273646565
293,-14.902374448701362,52.48875841581933,259.7823500269682,4.752053680327035,62.7931046265972,-1.365436843177226,265.46562590294,62.88584344189283
294,-14.896287847406354,52.4630736121552,259.84807721917946,5.042265791432575,62.28939041093709,-1.0801618624301428,265.524524380894,62.26391769883368
295,-14.894083780631817,52.428399044950964,259.91555188386104,5.329699153633446,61.7833116274671,-0.7794148997370677,265.583545969339,61.64016924948824
296,-14.895607645666365,52.38570442135481,259.9835161048376,5.613369817038913,61.2804167194114,-0.46693991717547056,265.6416435023229,61.02423451811417
297,-14.900624574711008,52.33618943490114,260.0507460739504,5.892308370777241,60.786437650369955,-0.14733629260944128,265.6978443596019,60.42623643298571
298,-14.908821871567625,52.28124531004411,260.1160820493148,6.165518117173037,60.30730912536933,0.17392201266944604,265.7512723072136,59.8567247734321
299,-14.919813206394776,52.2224107854827,260.178456064866,6.431933428545929,59.84917949617963,0.49049670369343623,265.80116614311635,59.32659507665093
300,-14.933144404274957,52.16132444780694,260.2369167711537,6.6903879401838005,59.418404842389975,0.7952288406400584,265.8468949075387,58.84697883151267
301,-14.948300829119994,52.09967541429437,260.29065083221553,6.939601569286625,59.02151886905452,1.0802190616704337,265.8879694890903,58.429099091586224
302,-14.964716558189314,52.0391543563077,260.33900042262565,7.178193669340472,58.66517301316367,1.3369463598934073,265.924050586041,58.08408761351133
303,-14.981785598331141,51.98140670701875,260.3814766032919,7.404727235325001,58.356043262744365,1.5564262225205794,265.9549531874589,57.82276196106385
304,-14.998875291513576,51.92798962760046,260.41776858057534,7.617786266269032,58.10070242406482,1.7294076237288398,265.9806479009271,57.6553634798675
305,-15.015341861329127,51.88033397514766,260.447748925361,7.816085443761439,57.90545872741895,1.8466070141243078,266.0012594457422,57.591259439180256
306,-15.030547791438515,51.8397121818745,260.47147475467824,7.99860844203436,57.776163611679024,1.8989761136766796,266.01706247477586,57.63861481528882
307,-15.043880417321738,51.8072126985333,260.48918473408753,8.16476862979168,57.717993227989346,1.877998973314585,266.02847467614265,57.80404110273613
308,-15.05477086755756,51.78372154457091,260.50129155983115,8.314583768529234,57.73520968351102,1.7760124199625282,266.0360468728365,58.09223120923148
309,-15.06271247376834,51.769911523511425,260.5083693559596,8.448854634263721,57.83090934342267,1.5865427234034224,266.0404496195521,58.50559095119171
310,-15.067278003360595,51.76623969292407,260.511135309527,8.56933636872953,58.00676659148413,1.304650227617389,266.0424557038088,59.04387889007199
311,-15.068135390630161,51.77295357245984,260.51042503796236,8.678890868501046,58.262782228105834,0.9272727985470219,266.0429181225807,59.70386715321771
312,-15.065061873954882,51.79010619650508,260.50716171251815,8.781608643186246,58.5970461055764,0.4535581933901989,266.0427435654245,60.4790364123124
313,-15.057956548064453,51.81757945907808,260.5023197387788,8.882889228114902,59.00552370744144,-0.11482520387510993,266.0428620780422,61.35931837754667
314,-15.046851339958506,51.85511444823314,260.49688452825455,8.989470305428553,59.48187629208271,-0.7734103964608888,266.0441941580229,62.330899101043194
315,-15.031920310408966,51.90234688800288,260.4918102939351,9.109397082572928,60.01732404524522,-1.5146980483679569,266.0476168103332,63.376096150342626
316,-15.013486955376205,51.9588455072712,260.4879777976314,9.251925146527288,60.60056144395527,-2.3279786928099577,266.0539300145677,64.47332231399808
317,-14.99202888754712,52.02415106685279,260.48615372753795,9.427351913040155,61.21773366989858,-3.1992224443936563,266.06382477593473,65.5971478657661
318,-14.968179050019076,52.09781380051058,260.48695310142205,9.646773871624536,61.85248236095102,-4.1110473809001755,266.07785364406766,66.71847246279987
319,-14.942722582817696,52.17942712960071,260.4908058682846,9.921769049769951,62.486068233852976,-5.042777058607135,266.09640438204576,67.80481645455977
320,-14.916588648845233,52.26865568954478,260.4979286584601,10.264006492517675,63.09757715842719,-5.970596629391348,266.11967729324374,68.82073974740612
321,-14.890836802037978,52.365255928103565,260.50830232728293,10.684787106217136,63.66421510240711,-6.867815700103082,266.14766647224616,69.72839440992905
322,-14.86663766676866,52.46908778258122,260.52165561595734,11.19452291941196,64.16169591947815,-7.7052443287200365,266.18014498821316,70.48821484919284
323,-14.845247713461495,52.580116284725605,260.53745506566077,11.802164566003112,64.56472410945054,-8.451686329723595,266.21665389163843,71.05974652273329
324,-14.827977849513301,52.69840248275279,260.5549012689841,12.51458948701739,64.84757237988447,-9.07455139791394,266.2564949864937,71.4026107148168
325,-14.816155560127983,52.82408379649409,260.5729314664786,13.335965908478041,64.98475113134356,-9.540584550375357,266.2987273797113,71.47759895706227
326,-14.81108051238249,52.95734464150628,260.59022834131594,14.267110018686733,64.95176401204932,-9.81670811413404,266.3421678223418,71.24788636589766
327,-14.813973851649985,53.09837863137993,260.60523479296967,15.304855828982038,64.72594061614389,-9.870968014976496,266.3853948993676,70.6803486842779
328,-14.82592183111199,53.24734381365538,260.6161746265806,16.441458826549283,64.28733437095185,-9.673572521266083,266.4267573305198,69.74696330076085
329,-14.847814896903921,53.40431233160299,260.62107940308607,17.66405562628434,63.61967071970917,-9.198007939140048,266.46438696009255,68.42627005511608
330,-14.88028384207068,53.56921579952182,260.6178219432212,18.9542023714979,62.71132782788972,-8.422212110368124,266.4962172613777,66.70486325528839
331,-14.923635037449774,53.74178765830035,260.6041570184125,20.287514618733375,61.556329197992994,-7.329783021538587,266.52000823694794,64.57888207031834
332,-14.97778695814203,53.92150394819809,260.57776958616887,21.63343085396366,60.15532482764079,-5.911196511711758,266.53337847123044,62.05546245104622
333,-15.042210242309073,54.10752434128659,260.5363305906645,22.95512056764927,58.516535042801046,-4.1650040683767156,266.53384484896844,59.15411017004972
334,-15.115873443821759,54.29863579901095,260.47755990986394,24.20955588100397,56.65662907350635,-2.0989791070767616,266.51887013031285,55.90795169862331
335,-15.197196609119944,54.49320163732238,260.39929558690693,25.347763016040858,54.601508974663076,0.26882195662277,266.4859182257455,52.36481766288802
336,-15.284014851483395,54.68911892830965,260.2995681389591,26.3152664439832,52.38696874138568,2.909118971125056,266.4325167099153,48.5881127167847
337,-15.373554085435712,54.883787007132725,260.17667850288996,27.052734324196013,50.05919852346903,5.780623444328159,266.3563258509182,44.65742598807028
338,-15.462420891821383,55.07408945669755,260.0292780059836,27.49682878639348,47.67510480906457,8.829445701647826,266.25521317241044,40.66883792842661
339,-15.546608164946635,55.25639144566542,259.85644862072854,27.581258667086402,45.30241940203641,11.988728400662367,266.12733232069735,36.73488253208569
340,-15.621517932143439,55.42655380960215,259.65778163939865,27.238025625298302,43.01957298169439,15.178539021654567,265.9712047743159,32.98412853837735
341,-15.682002625137443,55.57996479689221,259.4334527157412,26.39884746057387,40.91531295503298,18.306050959527497,265.7858026463693,29.560349401507697
342,-15.722426022068895,55.71158989490589,259.1842909855371,24.996735305966382,39.08805006612447,21.266038788468393,265.57063049105983,26.62125941030715
343,-15.736744881041195,55.81603960071178,258.9118398089839,22.96769447690062,37.64492366091042,23.94170817993859,265.3258037356247,24.336802228035147
344,-15.71861184396353,55.88765447241387,258.61840659854175,20.252512399600747,36.700581498182785,26.20587487337723,265.05212114780824,22.886988164655367
345,-15.661499580950807,55.92060635583342,258.3070990947957,16.79859149188713,36.375676482565446,27.92250004521763,264.75112852568793,22.45928758974405
346,-15.558845560869024,55.909014313013834,257.981845293505,12.561780338498926,36.79508963435717,28.948581409873956,264.4251705328742,23.245599932118065
347,-15.404216362196493,55.84707340445549,257.64739417087213,7.508153119664058,38.08589597586603,29.13639049929218,264.0774274443139,25.438830542783137
348,-15.191489954147189,55.72919402462343,257.30929460014505,1.615685115441684,40.375097761375464,28.336036974118606,263.7119336894643,29.229121118033625
349,-14.915053683718483,55.55014898058794,256.9738504117946,-5.124228659959859,43.787157489449335,26.398330734298437,263.3335754853563,34.79979308446552
350,-14.570014775878171,55.30522507410544,256.64805023088377,-12.705463940322707,48.44137119247252,23.17790224658398,262.94806538304886,42.323076901748315
351,-14.152419181698116,54.990375728775895,256.33947133920793,-21.106116864685973,54.44913033413806,18.53653110902646,262.56189205857646,51.95571312789572
352,-13.659473783838076,54.602371149358376,256.0561573574382,-30.287759243277566,61.91112799178978,12.34662264701274,262.1822441640905,63.83452277970939
353,-13.089766314116794,54.13894244581194,255.80647018596176,-40.19504085731738,70.91457154931227,4.494762571991572,261.8169076410545,78.0720544438548
354,-12.443476798520392,53.598916046718145,255.59891751100244,-50.755673797856105,81.53046948321877,-5.114729142600889,261.4741366963726,94.75242312854584
355,-11.722573927186097,52.98233463563094,255.44195824176927,-61.880825867558144,93.8110635131715,-16.556331495709856,261.1624996370839,113.92746031604526
356,-10.930989496198427,52.29056079679461,255.34378934240505,-73.46594033016794,107.78747892436395,-29.880034759264035,260.89070180915326,135.61329542806104
357,-10.074763995108135,51.52635954331039,255.31211852156798,-85.39198771073218,123.46766487549614,-45.10832723299504,260.66738885398945,159.78748544755845
358,-9.162156486770208,50.69395598494962,255.35392812082426,-97.52714206522218,140.83469276758055,-62.233552815778836,260.500934371801,186.38680148807828
359,-8.203712092292879,49.79906467046283,255.47523636854424,-109.72885950053386,159.84547414662242,-81.2157340519461,260.39921694706845,215.30576860281187
360,-7.212280648529037,48.848887629398476,255.68086296086395,-121.84632124555556,180.42995003659252,-101.98095071729571,260.36939237399883,246.39603814324843
361,-6.202980561936199,47.85207878396696,255.97420658681995,-133.72318795458452,202.49079100855192,-124.42035625235178,260.4176677060546,279.4666507524302
362,-5.193102698056954,46.81867314361207,256.3570423741368,-145.20059712577097,225.9036319298938,-148.3899031053355,260.5490842847923,314.2852232262889
363,-4.2019503588172755,45.759980011042416,256.8293472452316,-156.12032272441127,250.51784789924537,-173.7108331734428,260.76731712735267,350.5800651550884
364,-3.250612924744455,44.688440319687,257.3891609174791,-166.3280065354009,276.15785951461936,-200.1709713321473,261.07449804174627,388.0432031182067
365,-2.361672521645734,43.61744919709392,258.0324898208848,-175.67636536596953,302.6249378593673,-227.5268392209838,261.4710696556791,426.33426310013743
366,-1.5588451490006945,42.56114589056846,258.7532604878531,-184.02827732792306,329.6994640967217,-255.50658381586518,261.95567713555124,465.08513736815837
367,-0.8665601020233787,41.534174212307306,259.5433279165773,-191.25965377538833,357.1435868181526,-283.8136915932694,262.525103647107,503.90534143551827
368,-0.3094841389504408,40.551417529031184,260.3925430645611,-197.26201042582503,384.70421313573314,-312.13143500668156,263.1742545832026,542.3879504373583
369,0.08800051241832647,39.62771298070536,261.28888210988043,-201.94466107825633,412.11626690679435,-340.1279743789809,263.8961943564062,580.1159922208345
370,0.30235279569259194,38.777550164621324,262.21863842309347,-205.23646965957022,439.1061486533863,-367.46201607790726,264.68223813230935,616.6691662990658
371,0.3114505852889951,38.0147601480424,263.16667615406794,-207.08711081521216,465.39533554471086,-393.7889078968662,265.52209912404265,651.630753067573
372,0.09517447202916507,37.35220148031647,264.11674182638325,-207.46780583237228,490.7040650558508,-418.76703576986114,266.40408986908767,684.5945759587855
373,-0.3640186444282686,36.801450807858664,265.0518274671325,-206.37151921953196,514.7550515236735,-442.06437305440295,267.31537337528954,715.1718802185849
374,-1.0805490793206436,36.37250660160535,265.95457590837026,-203.81262133144511,537.2771899007303,-463.36502513417173,268.24225745022386,742.9979953671505
375,-2.0652122189986843,36.07351522141205,266.8077162969353,-199.82604313496697,558.0092049151624,-482.37560823304955,269.1705232029892,767.7386536648944
376,-3.324737791236709,35.91052887652217,267.59451576663713,-194.46596927776702,576.703206226352,-498.8313020671643,270.08577682189235,789.0958435232767
377,-4.861426976668101,35.88730480988798,268.29923187119266,-187.8041335720905,593.1281109669808,-512.5014211374854,270.97381246432315,806.8130843726
378,-6.672882534520671,36.00515417832963,268.9075499145387,-179.92779543255887,607.0728944705015,-523.1943588488756,271.8209735979037,820.680017811923
379,-8.75184529711604,36.26284771486166,269.4069897053566,-170.93748569138137,618.3496283474229,-530.7617719732718,272.61450036718907,830.5362189619987
380,-11.086148062556155,36.65658345257321,269.78726726600394,-160.94461517087942,626.7962628673716,-535.1018900404936,273.34285129449006,836.274142173168
381,-13.65879501187764,37.18001960219841,270.0405984256575,-150.06903962104755,632.2791084960182,-536.1618548371948,273.99598863519026,837.8411272409033
382,-16.448171139534146,37.82437314847653,270.1619329323977,-138.4366705772178,634.694970386322,-533.939018993235,274.56561789881755,835.240406824796
383,-19.428381763974862,38.57858196344892,270.1491096972913,-126.17721376952636,633.9728907985309,-528.481159104339,275.0453733822909,828.531073571257
384,-22.569717126772954,39.429525396968465,270.00292604977903,-113.42210529785015,630.0754588787132,-519.8855873309063,275.4309430606157,817.8269870012633
385,-25.83923171090253,40.362295677648454,269.7271165038082,-100.30270137864777,622.9996555028836,-508.2971752863631,275.72012793223337,803.2946256432207
386,-29.201422628794028,41.36051042927408,269.32823949941354,-86.9487607665909,612.7772126794318,-493.90533463336635,275.91283296097106,785.1499186142083
387,-32.61898665953603,42.40665548066412,268.8154737529547,-73.48724074598134,599.4744809980131,-476.9400292778662,276.01098900718284,763.6541214151155
388,-36.053631576691295,43.48244692653385,268.2003291140973,-60.04140867082517,583.1918128255793,-457.66692315927,276.0184075280283,739.1088308186274
389,-39.46691458159622,44.56920184672736,267.4962802381454,-46.73025216704097,564.062481405769,-436.38179387085614,275.9405724284113,711.8502608709631
390,-42.82107922980888,45.64820797212886,266.71833501479506,-33.66815300907547,542.2511654781433,-413.4043641764684,275.7843763854888,682.2429241634254
391,-46.079862462363806,46.70108377240723,265.8825534480646,-20.964773072498293,517.9520352057235,-389.0717196173368,275.5578122304945,650.672878459182
392,-49.20924531061511,47.710121854771494,265.0055362077995,-8.725086505079526,491.3864783647603,-363.7314899289721,275.26963328186895,617.5407079750364
393,-52.17812431924437,48.65861006458313,264.10390486055695,2.950518570159315,462.8005062625432,-337.73497451652287,274.9289993994119,583.254410987935
394,-54.958885249228125,49.53112605735989,263.1937973079229,13.966151638926902,432.46187697089425,-311.4303879470427,274.545127401779,548.2223611318838
395,-57.527865636386394,50.31380220627127,262.2904018007944,24.230427627346746,400.6569695818209,-285.1563910730598,274.12696488072635,512.8464994079726
396,-59.86569781525042,50.99455849460195,261.4075509124859,33.65664707066859,367.68743806847897,-259.2360581546641,273.6829051433343,477.51589872364184
397,-61.95752869589783,51.56330155148358,260.55739320863665,42.163210449002435,333.86666815057725,-233.97141133887772,273.2205581146938,442.6008242188655
398,-63.793116706105664,52.01208823479321,259.75015538841177,49.67430740968004,299.516056800727,-209.63863197477144,272.7465878263605,408.44739230766044
399,-65.36680991376481,52.33525219686194,258.9940018039132,56.12089503433994,264.96113325231596,-186.48403431208675,272.26662201280476,375.37291079632706
400,-66.67741251628446,52.52949178306627,258.2949920320019,61.44194925559169,230.527543863982,-164.72086218739716,271.7852338848609,343.6619629508989
401,-67.72794957583596,52.59391743716876,257.65713121678306,65.5859422953578,196.53693150067897,-144.52694449416234,271.30599093279767,313.5632806492758
402,-68.5253419878764,52.53005647205424,257.08250279663775,68.51246929310035,163.3027526997456,-126.04322148428427,270.8315611239326,285.2874354505383
403,-69.08000526450654,52.341812686159194,256.57146934112336,70.19392223079456,131.12609127196663,-109.37313184885147,270.36386346318164,259.0053604102639
404,-69.40538702093477,52.03537817408632,256.12292468555484,70.61709202005412,100.29154285352679,-94.58283047614886,269.9042478143327,234.84769847003963
405,-69.51745921038875,51.61909516645845,255.73457934376935,69.784572765851,71.0632586045636,-81.70218907808444,269.4536882128562,212.9049545567537
406,-69.43418204972392,51.10326703068961,255.40326121451784,67.71584708609102,43.681245152487016,-70.7265165527249,269.0129745535321,193.2284086052688
407,-69.17495694590863,50.499919612545234,255.1252147270688,64.44794777480315,18.358020021441202,-61.6189226841466,268.58288927863737,175.83172731349
408,-68.76008536211789,49.822516659258454,254.89638352509985,60.035617447620005,-4.724283722220957,-54.31323716652141,268.16435815702397,160.6931960682324
409,-68.21024940291451,49.08563579506232,254.71266420390785,54.5509211963285,-25.41628264746795,-48.71738602865448,267.758567000594,147.75848130401073
410,-67.54602801370059,48.30461403519695,254.57012122879135,48.08230376141449,-43.60311552405298,-44.71711999707194,267.3670388941048,136.94382825870008
411,-66.7874602389656,47.49517380836054,254.46515589773352,40.73311800614432,-59.205582987072845,-42.17998503160152,266.99166911749154,128.13959863089448
412,-65.95366424759551,46.67304177871988,254.39462506691078,32.61968189489687,-72.18063750185154,-40.95942465246346,266.63471745217623,121.21405507659638
413,-65.06251810685903,45.853573424387704,254.35590826302683,23.868944593794364,-82.52122960973698,-40.898906534261705,266.29875998918743,116.0173030815572
414,-64.13040571450821,45.05139627377501,254.34692463599853,14.615858242040016,-90.25553687063565,-41.83597152698404,265.98660480593634,112.38530461247015
415,-63.17202889011696,44.28008375262699,254.36610386823756,5.000560995853066,-95.44561887794151,-43.60611125326362,265.7011778431269,110.14388198786644
416,-62.200284433213135,43.55186974305367,254.41231759977484,-4.834520044954489,-98.18555455604769,-46.046390663665434,265.445386956829,109.11263502269459
417,-61.226203149234735,42.87741150688785,254.48478002771355,-14.74753992189571,-98.59912637205102,-48.99874452180369,265.2219734145081,109.10870018855816
418,-60.258946558668946,42.265606004381276,254.58292784708166,-24.59998242263315,-96.83712011714712,-52.31289131059875,265.0333609086452,109.95028745096779
419,-59.305856122428764,41.72346216415538,254.70629036003538,-34.25919563464269,-93.07430903437036,-55.848823280285345,264.88151225256945,111.4599383403726
420,-58.372549009200306,41.256029538056424,254.85436028702773,-43.600644764882084,-87.5061884456424,-59.47884594851574,264.767803158355,113.46745746499784
421,-57.463053467174156,40.866382117995876,255.02647467624888,-52.50982699029973,-80.34552322667841,-63.089153616798576,264.69292094678264,115.81247923172455
422,-56.579975844396614,40.55565482067836,255.2217135771822,-60.883810102935826,-71.81876676903308,-66.58093939115955,264.6567939543185,118.34664224907118
423,-55.724690549533065,40.32312903905228,255.43882211127044,-68.63237372838631,-62.162406891480394,-69.87104904016617,264.6585550972506,120.93535561736331
424,-54.89754400001388,40.16636261682595,255.67615950638887,-75.67874866819561,-51.619291240931744,-72.89219792632977,264.69654082608247,123.45915351025565
425,-54.098063892748065,40.08135870333665,255.93167674445002,-81.95996616674373,-40.434981722372676,-75.59277909589024,264.7683247494561,125.81464637195569
426,-53.325165836900105,40.06276722321482,256.20292274594715,-87.42684412182318,-28.854184560838554,-77.93629813535823,264.8707835491876,127.91508798178421
427,-52.57735036607718,40.104112052121835,256.4870774307935,-92.0436507560806,-17.117300329058697,-79.90047642667247,265.00019135270423,129.69058703302582
428,-51.85288451183498,40.19803637189847,256.7810085262977,-95.78749734506826,-5.457137280417439,-81.47606898862658,265.15233742473424,131.0879993234442
429,-51.149963452656664,40.336558182846574,257.0813477250882,-98.64751956853239,5.904168304330019,-82.66544624690106,265.3226609784248,132.0705416262413
430,-50.46684922644275,40.51132772518594,257.38458089173525,-100.62391119214293,16.75798001781263,-83.48099084301901,265.5063962620576,132.61717011968267
431,-49.80198501386819,40.713878669097845,257.687146582359,-101.72687353098455,26.911692399389242,-83.94336113691155,265.6987209434797,132.72176458085787
432,-49.15408490140176,40.935865327114946,257.9855371465705,-101.97553946642397,36.190922012651285,-84.07967282086143,265.89490112251,132.39215504706263
433,-48.52220011832808,41.16927872632667,258.27639704381863,-101.39692228414262,44.4413206440586,-83.92164948495979,266.09042692111285,131.64902183015553
434,-47.90576338795892,41.40663509905747,258.5566136578399,-100.02492808366904,51.529981652580936,-83.50379203906309,266.2811334363353,130.52469408627275
435,-47.304613338366295,41.6411312724266,258.82339672473404,-97.89945665323964,57.34642230995338,-82.86161507923994,266.4633028184519,129.06186722208375
436,-46.719001140839886,41.86676267717582,259.0743433815712,-95.06560034528408,61.803138258506195,-82.02999507164292,266.63374431005775,127.31225525205741
437,-46.149581802326566,42.07840130726055,259.3074867681565,-91.57293518159864,64.83573933724948,-81.0416706410547,266.78985026004045,125.33519090609676
438,-45.597392681135325,42.27183291276505,259.52132708294346,-87.47488535138083,66.40268759414523,-79.9259298296985,266.9296273872894,123.19618436641105
439,-45.06382166714114,42.4437549121936,259.71484492170214,-82.82813335989853,66.48466749174729,-78.70751342966747,267.0517037895173,120.96545159218533
440,-44.55056717003876,42.591738786609035,259.8874975142397,-77.6920441019034,65.08362491593455,-77.40575738072506,267.15531326182503,118.71642533972754
441,-44.05959185057636,42.714162783882394,260.03919910911895,-72.12807164610528,62.22151580282323,-76.03399032855124,267.24025939251646,116.52426561226142
442,-43.59307204923333,42.81012231243696,260.17028726514354,-66.19912163776512,57.93880729052919,-74.59919440020649,267.30686263820166,114.46439056156728
443,-43.15334503082595,42.879326214067866,260.2814772150593,-59.9688492371424,52.292774457973636,-73.10192822032359,267.35589411910684,112.61105321467896
444,-42.74285627587511,42.92198709657153,260.3738068056326,-53.50088182448315,45.355634049478724,-71.53650177539414,267.38850020875833,111.03599339144344
445,-42.36410892809313,42.93871317964798,260.4485747820399,-46.85796643605273,37.21255340809882,-69.89138362410289,267.40612210183406,109.80719722587595
446,-42.01961703826402,42.930407874704485,260.5072752999977,-40.10105274226783,27.959568874267777,-68.14981265053112,267.4104143760611,108.98779799178186
447,-41.711863442987976,42.89818178497096,260.5515314456589,-33.28833192253731,17.701444249202307,-66.29057948452574,267.40316608441344,108.63515079580898
448,-41.44326214487925,42.84328011022626,260.58303020738816,-26.474258828101174,6.549497683231841,-64.28893739054891,267.3862271545325,108.80010993858906
449,-41.21612410853063,42.76702665073869,260.6034608331789,-19.70858844618034,-5.380574859952235,-62.11759937352494,267.3614419313228,109.52653153886239
450,-41.03262455138114,42.6707838224655,260.6144579523228,-13.035457397289228,-17.970849754740478,-59.74777773667213,267.330590732249,110.85101573730918
451,-40.89476910616746,42.55592649836095,260.61755038082435,-6.4925372499500815,-31.103266942265762,-57.150224310864004,267.2953394600876,112.8028929964115
452,-40.804355650133054,42.42382633901579,260.6141162291726,-0.11027995301711929,-44.661626899292095,-54.296233837074716,267.25719673459554,115.40444843693022
453,-40.76292816272478,42.275842813322306,260.60534476025737,6.088731613938975,-58.53345597704921,-51.158579197385855,267.217477679876,118.67136758627662
454,-40.771718818934374,42.11331739547016,260.592205360929,12.090321372540997,-72.61170197802731,-47.71235489065362,267.17727342743666,122.61337697046926
455,-40.83157483279854,41.937568244561476,260.5754239974682,17.88914372930964,-86.79622257493406,-43.935713700647476,267.1374255647252,127.23504403958856
456,-40.94286745101909,41.749883720478735,260.5554676373497,23.48899254291454,-100.9950315146289,-39.8104900849013,267.09850515819505,132.53669323708743
457,-41.10538196688635,41.55151423050889,260.5325372789012,28.902994190062028,-115.12527164747289,-35.322711419363934,267.0607965344981,138.51538892057303
458,-41.31818955787956,41.34366312933501,260.50657033842754,34.153681934738486,-129.11388993440633,-30.463003878417926,267.02428660045797,145.16593182382962
459,-41.57950388161245,41.12747857404611,260.47725316280923,39.272947098765975,-142.89799788642404,-25.22690281974971,266.98866102015245,152.48181446358123
460,-41.88652738801532,40.90404907739361,260.44404435844064,44.301861035448745,-156.42491121768347,-19.615078105649115,266.9533089417025,160.45608281143842
461,-42.235294003064105,40.67440577812557,260.4062093837342,49.29036041669747,-169.65187427769186,-13.633483314737347,266.9173380364768,169.0820566905851
462,-42.62051609079517,40.43953409421498,260.3628663390205,54.2967867741411,-182.54548732463172,-7.293434932861326,266.8796012534928,178.35386935157246
463,-43.03544437758318,40.20039653905734,260.3130421029205,59.38726997393123,-195.08086723497482,-0.6116240184261036,266.8387359155796,188.26679704727357
464,-43.47174993109158,39.95796735201147,260.25573707602166,64.6349450919117,-207.24058426851545,6.389940872167589,266.7932148186593,198.8173617072474
465,-43.91943747849187,39.713278603628275,260.1899960647364,70.11899374300619,-219.01342854507828,13.684064054373211,266.7414081806126,210.00320354705784
466,-44.36679932749158,39.467476727303435,260.11498246696726,75.9235047188342,-230.39306945838104,21.238573606225852,266.6816548352127,221.82273506569675
467,-44.80041874837313,39.22188780580003,260.030052914978,82.13615469134633,-241.3766787883833,29.016621850123492,266.61234093174056,234.27460258096315
468,-45.205230723647354,38.97808920268411,259.93482975118275,88.84671721077262,-251.96359307618008,36.97708545367559,266.5319843926409,247.3569951656629
469,-45.56464644980759,38.73798436432103,259.8292690197698,96.14541654107536,-262.1540921603279,45.07507520952519,266.4393233737454,261.06685240448195
470,-45.8607459264783,38.50387706796002,259.7137219692297,104.12115137754554,-271.948368089584,53.26256450475726,266.3334069272772,275.39903079059906
471,-46.07454036980875,38.27854116580541,259.58898831683337,112.85962176704534,-281.34575167979915,61.48914306691292,266.21368594217654,290.3454931858166
472,-46.186302999172234,38.065281927408996,259.4563596958015,122.44140036828303,-290.3442527180996,69.70289855974401,266.08010218812484,305.8945862003238
473,-46.17596311180089,37.86798535721776,259.31765180484706,132.93999615263078,-298.9404541773629,77.85142302207592,265.9331729444693,322.03046618110574
474,-46.02355463728432,37.69115231261017,259.17522381302655,144.41996399072204,-307.1297807921897,85.8829342075158,265.77406829798764,338.73272521832786
475,-45.70970692858873,37.539914753414465,259.03198353631785,156.93511645160984,-314.90713844674997,93.74749397889144,265.604677772839,355.9762540997786
476,-45.21616262979715,37.42003189126113,258.8913768694842,170.5268941503262,-322.2678944001183,101.3982976903931,265.42766259703865,373.73136041611457
477,-44.526305160609276,37.337864371408166,258.7573600959961,185.22294828342635,-329.2091416415689,108.79300072740573,265.24648979059145,391.96413904250335
478,-43.62567674768161,37.30032503247135,258.6343541967207,201.0359840063442,-335.73116620588934,115.89504163045146,265.0654445933757,410.6370713924441
479,-42.502467139778965,37.314805408709155,258.52718120992,217.96290634042563,-341.8390164205043,122.67491573208444,264.8896186530079,429.709811229184
480,-41.147953300776,37.38907807233856,258.44098386977436,235.98430143655227,-347.54405950237833,129.11134904372187,264.7248727145905,449.1400998198661
481,-39.556871525515184,37.531176179230506,258.3811307371916,255.06427519876272,-352.86540469707484,135.19231927134786,264.5777738839567,468.8847425584793
482,-37.72770546283906,37.749253130878195,258.353109459857,275.1506585221163,-357.8310737364603,140.9158693561885,264.45550847920373,488.9005731781082
483,-35.66287620783978,38.05142697155876,258.3624105816011,296.1755741775468,-362.4788087550557,146.29065906488898,264.3657718966501,509.1453304368433
484,-33.368823715332084,38.44561576312705,258.4144036534444,318.05634550981927,-366.85642429762896,151.33620250510208,264.31663689405974,529.5783755764088
485,-30.855972347061382,38.939371445069106,258.5142066013331,340.6967123464314,-371.02163241968213,156.08274482397104,264.31640150713787,550.1611863601721
486,-28.138577740555217,39.53972041114075,258.6665487463539,363.98830516824574,-375.04129658343635,160.57074033987527,264.3734178493811,570.8575741172189
487,-25.234457656460282,40.253019131522834,258.87562788840415,387.81231472640457,-378.9900996906832,164.84990703344715,264.4959036592775,591.6335829066568
488,-22.164615877479047,41.08483253488942,259.14496266898533,412.04128116424124,-382.94864319558013,168.97784817531368,264.6917398200506,612.4570439689265
489,-18.952774934817825,42.0398413697894,259.47724301984266,436.5409152265252,-387.00102709874596,173.01824991348033,264.96825904816546,633.2967738502641
490,-15.624839427180437,43.12178217716031,259.87418356319506,461.1718560894226,-391.23199373550153,177.03868270945455,265.33203304243875,654.121421136608
491,-12.208315983675627,44.33341979660721,260.3363867891019,485.79126816916624,-395.72374975718844,181.1080535268122,265.78866693814837,674.8979848335968
492,-8.731717894331261,45.676547923491285,260.8632241909249,510.25418545909423,-400.5526077651667,185.29377374873596,266.34261046060385,695.5900471289824
493,-5.223982010443852,47.15200897630345,261.45274409088466,534.4145282535426,-405.78560863057675,189.6587241673851,266.99699470330626,716.1557844332375
494,-1.7139230377863433,48.759721279044754,262.10161469139223,558.1257438202188,-411.4772952950877,194.25811242782694,267.7535022541372,736.5458428747106
495,1.7702536269012856,50.498699825151306,262.8051101201964,581.2410580456536,-417.66680797548435,199.1363295985851,268.6122768267399,756.7011870817623
496,5.201364177795701,52.36705686008613,263.5571460850509,603.6133659546285,-424.3754600256574,204.3239207328402,269.5718769414196,776.551052763162
497,8.553572558575059,54.361970227570175,264.3503702773614,625.0948310795453,-431.60493528737794,209.83478889924172,270.6292766869803,796.0111524385525
498,11.802624381559506,56.479610771477674,265.17631077309795,645.5363027539121,-439.3362240463663,215.66375259235636,271.7799151390928,814.9822975988517
499,14.925987655026876,58.71502482974413,266.02558328831003,664.7866928570292,-447.52938785164633,221.78457219300972,273.01779453163283,833.3496075308261
500,17.902904568691753,61.06197360394338,266.8881552586509,682.6924762777844,-456.124214912728,228.1485520542219,274.33562571975386,850.9824730852152
501,20.714363608707462,63.51273738043896,267.75366130640526,699.0974899131943,-465.0417983127455,234.6838109731623,275.7250176796961,867.7354310879009
502,23.34300571353693,66.05789856839127,268.6117606593381,713.8432014242416,-474.1870390750293,241.29529574882525,277.17670549128064,883.4500804754833
503,25.772981634001958,68.68612272527835,269.4525225641742,726.7695998165862,-483.45204503653275,247.86559102550504,278.68080831657943,897.9581335489822
504,27.989779828985807,71.38396069365513,270.26682111857065,737.7168246593968,-492.7203641532695,254.25655458385395,280.2271055676888,911.0856446319809
505,29.980044978599754,74.13569723333002,271.04671700214953,746.5276005407354,-501.87195698641136,260.3117813811572,281.8053163533619,922.6583948995255
506,31.73140662394543,76.92327170404761,271.78580119940176,753.0504815827917,-510.7887778650284,265.8598724993598,283.4053651553265,932.5083392258434
507,33.232335846464096,79.72629425301773,272.47947560682076,757.1438428781345,-519.3607987104599,270.7184572658169,285.0176160933309,940.4809436295772
508,34.472045600067865,82.52217671691585,273.1251475955367,758.6804879350802,-527.4922760797751,274.69888881166696,286.63305932660415,946.443166754603
509,35.44044758506686,85.28639137838928,273.7223200227213,757.5526800248226,-535.1080340716836,277.6115061589102,288.24343605983074,950.2917729299294
510,36.12817578399851,87.99286317944045,274.2725645380749,753.6773564029411,-542.1595172027918,279.2713309964918,289.84129306176845,951.9616146100126
511,36.52668435722602,90.6144923969103,274.77937380964175,747.001252224373,-548.6303614914167,279.50404630924487,291.41996316317375,951.4334940803714
512,36.628425537804866,93.12379568842555,275.24789678034205,737.5056484239101,-554.5412405664384,278.1520883111839,292.9734742677584,948.7412116349809
513,36.42711096173398,95.49364454402078,275.6845694547473,725.2104657810063,-559.9537665398896,275.0806733070934,294.4963952852588,943.9774305745894
514,35.918056792193106,97.69807229904232,276.0966612342753,710.1774547298089,-564.9732608194204,270.1835770840983,295.9836324318447,937.2980361873157
515,35.09860852187218,99.7131145810779,276.491762805363,692.5122743385707,-569.7502549572663,263.38848569845385,297.4301930128729,928.924731988122
516,33.96863534921728,101.5176436993712,276.87724551158857,672.3653099587565,-574.4806323649682,254.66174240224387,298.8309357230877,919.1456960088958
517,32.53107676545296,103.09415524907082,277.25972363027836,649.9311420330954,-579.4043744858755,244.01232553335993,300.18032647903243,908.3142061744056
518,30.79251599278902,104.42946538886295,277.6445498652544,625.4466427069841,-584.8029264120601,231.49490655063008,301.47221692095457,896.8452301325774
519,28.763747020447358,105.51528011038717,278.03537079165073,599.1877366990327,-590.9952443573039,217.21185637438418,302.69965934686127,885.2100554620063
520,26.460295291642115,106.34860329977795,278.43376334746233,571.4649139784885,-598.3326291720562,201.31409188038066,303.85476747975287,873.9291064840148
521,23.902847727124957,106.93195812962256,278.83896632649515,542.6176218380512,-607.1924851528983,184.00068240272893,304.9286276574841,863.5631512900211
522,21.11754661541543,107.27340579770018,279.2477128404437,513.0076929711263,-617.9711708366599,165.5171678730099,305.9112602950546,854.7031461411593
523,18.136104489328567,107.38635623996309,279.6541615771793,483.0119859416349,-631.0761272690775,146.152575522268,306.7916272719855,847.9589944375115
524,14.995703653383623,107.2891764478698,280.04991708955487,453.0144273542534,-646.9174785803509,126.23516101349723,307.55767761226224,843.9475149155447
525,11.738654410325012,107.0046125659791,280.4241229957408,423.3976530866451,-665.8992994386172,106.12694228780892,308.19642170957127,843.2799195971857
526,8.411799696411563,106.55905123333949,280.763607518807,394.53445028747507,-688.4107348570095,86.21713905028189,308.69402358181367,846.54909701897
527,5.065669723165928,105.98165308651126,281.05305882168864,366.77920290306434,-714.8171416018461,66.91467512551878,309.03590134508534,854.3169810927612
528,1.7534070079357893,105.30339661963248,281.2752085532819,340.45954140071615,-745.4513998175167,48.63994160761596,309.2068283768099,867.1022620111187
529,-1.4705014358145083,104.55607342261521,281.4110061390365,315.86839238627044,-780.6055223378037,31.81605282958175,309.1910314877148,885.3686660138927
530,-4.551633112628161,103.77127599291761,281.43977338870667,293.25661667202615,-820.5226722456384,16.85985255520575,308.97228753189273,909.5140005744342
531,-7.4371162221379326,102.97941696638541,281.33933796772607,272.8264160266952,-865.3896910337202,4.172943009005511,308.53402541716866,939.8601363712554
532,-10.07711956774784,102.20881423532224,281.08615352181346,254.72567987953283,-915.3302425651002,-5.866986884819346,307.85944513475533,976.6440814548837
533,-12.426266489380025,101.48487057173004,280.6554219634486,239.0434329426455,-970.3986907691041,-12.91426679530258,306.9316678589076,1020.0102969088617
534,-14.444890099186216,100.82936949049146,280.0212383061266,225.80653096223523,-1030.5748469473963,-16.662539827866105,305.73393050067403,1070.0044037977962
535,-16.10004840102691,100.25990174714148,279.1567799311954,214.97773185187646,-1095.7597388558725,-16.851040998734614,304.24983439679477,1126.5684325483667
536,-17.36622581705433,99.78943001170813,278.03456051253653,206.45524098004913,-1165.7725611608516,-13.269705279609228,302.4636523151211,1189.5377616161784
537,-18.225665000954244,99.4259939109155,276.626764722775,200.0737915920939,-1240.3489595968097,-5.763013001782455,300.36069274225645,1258.6398765595573
538,-18.668300713182912,99.17255423408189,274.9056742391512,195.60727573197065,-1319.1407764067726,5.767454779940151,297.9277173496303,1333.49504996548
539,-18.69130332269998,99.02697319577452,272.84418943220453,192.77289144641065,-1401.717344229405,21.361719233207328,295.1534070230329,1413.61899769807
540,-18.29827671572139,98.9821262087658,270.4164451758529,191.23672407092232,-1487.5683660208288,41.001286935295255,292.0288724335183,1498.4275133445487
541,-17.49818643143606,99.02613877697071,267.59851358115617,190.62063894580828,-1576.1083686558932,64.61010483670604,288.5482044664276,1587.243029283799
542,-16.304113395247693,99.1427396727924,264.36918073214815,190.5103344935917,-1666.6826743075037,92.05646322706421,284.7090563423136,1679.3030068325577
543,-14.731935215635827,99.31171886499111,260.7107784062663,190.46438973504215,-1758.5747980098888,123.15571964587402,280.5132431852712,1773.7700214222873
544,-12.799032213063173,99.50947616577064,256.6100456330101,190.02413706712133,-1851.0151484896382,157.6737219645715,275.9673377584205,1869.7433782594997
545,-10.523102179030538,99.70964461273992,252.05898960853125,188.72419477382712,-1943.1908775577201,195.3308195528704,271.0832349954208,1966.2720640139337
546,-7.921149776585229,99.88377143917003,247.05571174808404,186.10349842963242,-2034.2566886383283,235.80636462185484,265.87865409015615,2062.3688073892595
547,-5.008696715807783,100.00203919909376,241.60516305357655,181.71667069624272,-2123.34637874268,278.74361888789355,260.3775457698856,2157.0249864185535
548,-1.7992397023339024,100.03401001143307,235.719793827933,175.14556129996916,-2209.584854862124,323.75499149748526,254.6103740294554,2249.226086812059
549,1.6960341984629836,99.94937661758247,229.4200661945359,166.01077199032434,-2292.1003413559133,370.42754112876287,248.61424589528676,2337.9673893484
550,5.468280482108618,99.71870478748916,222.73480358580207,153.9829567191712,-2370.0364851946124,418.32867732598606,242.432869323617,2422.2695508807706
551,9.510797534499021,99.31415257711807,215.70135858250853,138.79365946410394,-2442.5640746040945,467.01199320032606,236.1163274009929,2501.1937469827103
552,13.818624879549969,98.71015315016739,208.36558811132227,120.24542671981388,-2508.892114011339,516.0231547541177,229.72066558868872,2573.8560653569793
553,18.387978649910135,97.88404941235764,200.7816319027923,98.22091387438978,-2568.2780406600423,564.9057640586309,223.3072967328573,2639.4408750981697
554,23.215569110727056,96.81667059255183,193.01149559072235,72.69069757080585,-2620.0369194923333,613.2071082068945,216.94223522709947,2697.2129423686742
555,28.297847040551968,95.49284308093225,185.1244440258455,43.71951016184741,-2663.5495059528516,660.4837066713803,210.6951770783825,2746.5281120010545
556,33.630224517122,93.90183012283332,177.1962139610413,11.470626042992143,-2698.2691159316396,706.306577582153,204.6384471863247,2786.842422185135
557,39.20631194748827,92.03769708791226,169.30805877411277,-23.791848695104434,-2723.7272853725326,750.2661571870796,198.84583922334892,2817.719563038312
558,45.01720804761017,89.89960067424968,161.54564134036085,-61.70300276457732,-2739.538238620066,791.9768235497669,193.39137693374462,2838.8366286922183
559,51.05087390678164,87.49200133686625,153.9977942716266,-101.79964444943555,-2745.4022150294645,831.0809925418284,188.34802806589187,2849.988146877509
560,57.291616894749886,84.82479842231473,146.75516931439563,-143.52545959940804,-2741.1077284011744,867.2527694733911,183.78640330414012,2851.0884003228566
561,63.71970513609662,81.913387120057,139.90879973759598,-186.2388793870264,-2726.5328532438757,900.2011522975633,179.7734725139814,2842.1720803721037
562,70.3111284411911,78.77863566599802,133.5486010394098,-229.2236641435465,-2701.645644478334,929.6727917124913,176.3713294412438,2823.3933338213387
563,77.03751676017956,75.44678049610566,127.76183623175469,-271.70212848910705,-2666.5038013230965,955.454319365708,173.63603377813064,2795.0232773975954
564,83.86622232333093,71.94923645759194,122.63157242376641,-312.85084366719053,-2621.25368089195,977.3742576629018,171.6165564140865,2757.446059579624
565,90.76056659333072,68.32231891406079,118.23515562747232,-351.8185595395493,-2566.12875327824,995.3045235597691,170.35384999857692,2711.1535472478795
566,97.68024786105869,64.60687473503285,114.64273070613889,-387.74599585245153,-2501.447569903267,1009.1615345640564,169.8800627570329,2656.7387071407475
567,104.581899634311,60.84781975721261,111.91583304055281,-419.78706506317405,-2427.611293541894,1018.9069187679332,170.21790873047814,2594.887742272534
568,111.41978395597573,57.09358129791444,110.10607767475412,-447.1310118997119,-2345.1008143406007,1024.5478233836197,171.38020223651952,2526.3710344270353
569,118.14659778009374,53.39544564012472,109.25397041308057,-469.024891922055,-2254.4734535226103,1026.1368096073745,173.3695585985069,2452.032938508584
570,124.71436504219795,49.8068120593477,109.38786361951121,-484.7957655903974,-2156.3592373748193,1023.7713170606562,176.17825746216099,2372.780475616305
571,131.07538263070282,46.38235681909244,110.52307735788374,-493.871957497662,-2051.4567105048163,1017.5926791706523,179.7882597623823,2289.5709814772845
572,137.18318557980356,43.17711241124843,112.66120404888032,-495.8027233631228,-1940.528250685933,1007.7846714274988,184.1713650265136,2203.3987866005577
573,142.9934957742615,40.24546907445485,115.78961208023158,-490.27568044601236,-1824.3948479068454,994.5715766208258,189.28949256678573,2115.2810336995
574,148.46511933212312,37.64010759647037,119.88116092564717,-477.13139024890154,-1703.9303155082364,978.2157538498112,195.09506853719733,2026.24277394526
575,153.56076038560116,35.410875089882765,124.89413744855106,-456.37453551232375,-1580.0549079067698,959.0147007702022,201.53150093265003,1937.3015224080614
576,158.2477229455508,33.60361901715592,130.77242025188391,-428.1812061852622,-1453.728323745984,937.2976017477889,208.5337262900454,1849.4514908854
577,162.4984780353953,32.25899902404968,137.4458762485931,-392.90190101457,-1325.9420735907877,913.4213598068849,216.02881514871228,1763.6477513876448
578,166.29108091168533,31.411300809595218,144.83099127671267,-351.0599623274707,-1197.7111884639417,887.7661187817979,223.93662867157596,1680.7906160634313
579,169.60943348661385,31.087281087536134,152.831734848945,-303.34529023441667,-1070.065242832897,860.7302939274707,232.1705266590739,1601.7105501125147
580,172.44339987865956,31.305077433092563,161.34065813604477,-250.60332530092938,-944.0386670918917,832.7251431508406,240.63813731484194,1527.153962745673
581,174.78879728760896,32.07322100260304,170.24022384007606,-193.8194391078756,-820.6603332672396,804.1689250335633,249.24221042995123,1457.770244309192
582,176.6472983529587,33.3897930786638,179.404366167277,-134.09902094494745,-700.9424149797486,775.4807017494091,257.88158624727237,1394.1004293748372
583,178.0262924314089,35.24176755009537,188.7002778355365,-72.64368636660262,-585.868548541952,747.0738531478955,266.45231970561576,1336.5678590719544
584,178.93875863096966,37.604580669232206,197.99041795847708,-10.72415137267406,-476.38135547627536,719.3493731378823,274.84900110151864,1285.4711864208352
585,179.4031993314207,40.44196695909488,207.1347287994861,50.349589251389766,-373.3694260654975,692.6890249009213,282.9663065031083,1240.980015442523
586,179.4436669193028,43.706096057430635,215.99304038288227,109.2600670462135,-277.6539073733643,667.448443006805,290.7007930758382,1203.1333922334154
587,179.0898895657385,47.338039352113306,224.4276303516234,164.71535546904695,-189.9748886323801,643.9502915491103,297.95292737736895,1171.8412800819551
588,178.3774693229829,51.26858708290781,232.3058935964026,215.48246684898152,-110.97783721824663,622.4776164803432,304.6293030755633,1146.8890566722446
589,177.34809567847125,55.41942575842192,239.5030633424663,260.420245073575,-41.20041664674319,603.2675623873005,310.64497409812947,1127.9449727092535
590,176.0496975311866,59.70467206630956,245.9049132326894,298.51081362739467,18.9398835075975,586.5056537704518,315.92580476204347,1114.5704078481474
591,174.5364503132372,64.03274314616357,251.41035873292498,328.88859399353294,69.15676672687884,572.3208650721216,320.41072267311426,1106.232648748425
592,172.86856238591557,68.30852476307352,255.93386654487625,350.86588620137366,109.30416295928286,560.781720238448,324.05375377221526,1102.3197938550693
593,171.1117827658097,72.43577959218037,259.4075742892637,363.95401253367487,139.38259264958617,551.8936688926703,326.82572130695746,1102.1572676939893
594,169.3365965177497,76.31971919196081,261.7830219586446,367.8790774778602,159.54220630815806,545.5979771961429,328.7155009462027,1105.0253257366612
595,167.61710079058196,79.86964772607527,263.03240378469366,362.59150297758896,170.0819663012292,541.7723399407407,329.7307420475448,1110.1768794042575
596,166.0295801266112,83.00157555237055,263.14926521831984,348.26866955981563,171.44464545820213,540.233360372833,329.89798940180555,1116.8549933919205
597,164.65082180936187,85.64069782050558,262.1485940495107,325.31023905328294,164.20758231481884,540.7409561783802,329.2621692910924,1124.3095087267995
598,163.5562291755327,87.72363688026542,260.0662853866408,294.3260510437442,149.06941336235664,543.0046435730284,327.8854366053943,1131.8124072518056
599,162.81780288673914,89.20035593448601,256.9579944827398,256.11685533729064,126.83325533567027,546.6915421247949,325.8454138959313,1138.6717230178908
600,162.50206797692667,90.03566314802181,252.89742564968958,211.6485344151201,98.38700111564779,551.4358452379998,323.2328859819392,1144.243983175054
601,162.66802898642487,90.21023953231689,247.97413563660766,162.02084277479872,64.68150256015822,556.8494229800484,320.14904215306336,1147.9452875646834
602,163.36523711849986,89.72114083784359,242.2909521476329,108.4320043462003,26.707442407645697,562.5331661783626,316.7023796636629,1149.2611852707241
603,164.6320521563763,88.58174438192518,235.96112039981784,52.14073341699306,-14.528337120408834,568.0886414867351,313.0053959261939,1147.7554690722525
604,166.49417762799226,86.82113648836382,229.10529262925522,-5.572640127812727,-58.02634976312868,573.1296053499605,309.1712027532777,1143.077899397205
605,168.96353985628178,84.4829638168078,221.84846903638618,-63.44425994594029,-102.81719593203658,577.2929219435686,305.31019499899594,1134.9707239732436
606,172.03756941166213,81.62379978783102,214.31698685009147,-120.26247491788244,-147.98292905540973,580.2484494798015,301.5268988676726,1123.2737242668952
607,175.69892676886658,78.3111025020217,206.6356403606357,-174.89984714987904,-192.6764983224666,581.7075035052023,297.9171127878486,1107.9274341612945
608,179.91569303335405,74.62086023988506,198.92500170794403,-226.34035042340113,-236.138710960534,581.4295746232818,294.565436889754,1088.9741587928133
609,184.6420226460887,70.63503293385615,191.29900135839225,-273.7010007747504,-277.71216580513493,579.2270666628327,291.54326659849386,1066.5564694162006
610,189.81923014543744,66.43890227158394,183.8628185348126,-316.24750509919096,-316.85165331972104,574.9679213620753,288.9073026975473,1040.9129492592078
611,195.3772602643214,62.118439927216144,176.7111243172023,-353.40384511605794,-353.13061754283797,568.5760979486512,286.69860587896704,1012.3711001531562
612,201.23647279323907,57.75779438360201,169.92671208096337,-384.75600847573827,-386.243440344814,560.0299731212282,284.94219996379667,981.3374782329976
613,207.3096628218888,53.43698381484531,163.57953961846158,-410.0503197894096,-416.003527488558,549.3588145022974,283.6472061817825,948.2852981734483
614,213.50423392929736,49.22986712135379,157.72619341634868,-429.1870040543623,-442.3374228219116,536.6375570489236,282.8074723074274,913.7399149999054
615,219.72444588711605,45.20244836583269,152.40976804885685,-442.20973330206806,-465.2754157989825,521.9801770230692,282.40264568521724,878.2627419566513
616,225.873667309133,41.4115520789049,147.66013391684135,-449.2919701787588,-484.93930323555657,505.53201145085956,282.39962807910996,842.4342731276583
617,231.85657441148194,37.90388879413559,143.49454723580303,-450.7209387825269,-501.5280930259415,487.4614103189055,282.7543420309128,806.8369364212901
618,237.58124695885863,34.71551259358222,139.9185403488291,-446.88003347382477,-515.3024845696831,467.95113000748404,283.41373230498965,772.0385009507089
619,242.96112021650168,31.871656387616145,136.92702077778642,-438.2304294116734,-526.5689322290516,447.1898756071373,284.3179221533412,738.57670679059
620,247.9167574041481,29.38691701893609,134.5055052809956,-425.29259067475454,-535.6640101444069,425.36437550386523,285.4024433257288,706.9456852268746
621,252.3774116790906,27.265751672688005,132.6314201583443,-408.62828702412827,-542.9396706190737,402.6523264796446,286.60046160828847,677.5846074182424
622,256.2823511172941,25.503239680820524,131.27540934963258,-388.823631621653,-548.7498452488079,379.2164864564567,287.84492618758117,650.8688521477765
623,259.58192523912203,24.086059475422186,130.4026051594206,-366.4735430058619,-553.4386950625004,355.20011989812264,289.07058063666443,627.1038310564966
624,262.2383574755875,22.9936288778947,129.97383042468246,-342.1679207249815,-557.3306845171888,330.72392188695954,290.2157846380792,606.521463182037
625,264.2262542156331,22.199357746781562,129.94671375469133,-316.4797122346603,-560.7225403484398,305.88446483649045,291.22410732668476,589.2791592638395
626,265.532827235589,21.67196469099172,130.27670994384323,-289.9549466256316,-563.8770626373991,280.75413103089784,292.0456642655226,575.4610679556475
627,266.15783211778523,21.376813369407774,130.91802533336124,-263.1047251109034,-567.0186833222544,255.38241949972834,292.6381800162957,565.081256701398
628,266.1132306669832,21.277228276354467,131.8244527728235,-236.39909286152792,-570.3306178583085,229.7984517653461,292.96776691802177,558.0884531911264
629,265.42259052064617,21.335754557615214,132.95012311437873,-210.26267175904414,-573.9534290124354,204.01445179297022,293.0094182539769,554.3719595277723
630,264.12024054338485,21.51533107008394,134.25018022477408,-185.07190538838637,-577.9848155291161,178.0299442172258,292.7472209406661,553.7683669891749
631,262.25020648477835,21.780350360221295,135.6813848622396,-161.15375070888757,-582.4804471036241,151.83640301609398,292.1742996204695,556.0687370662871
632,259.864957482737,22.097583508648906,137.2026501772891,-138.78564025186708,-587.4556834135711,125.422088748105,291.29251057295534,561.0259645490441
633,257.02399956489575,22.436952134568227,138.77550895589704,-118.1965311578391,-592.8880325083165,98.77683200109121,290.11190984240096,568.3620917482323
634,253.79235665691277,22.772134487142,140.3645108588929,-99.56885150172099,-598.7202193972078,71.89654862413401,288.6500251202449,577.7753936284294
635,250.23898244900224,23.080997525297867,141.93754727005546,-83.04114994387623,-604.863749164258,44.787304541582316,286.9309651287376,588.9470995579464
636,246.43514770208708,23.34585225241754,143.46610189471525,-68.71125234993823,-611.2028616313515,17.468782197979948,284.9844034319909,601.5476585970398
637,242.45284699282004,23.553535355126385,144.92542656656295,-56.63973005969351,-617.5987870372693,-10.022964175570355,282.8444754367459,615.2424918704842
638,238.36326629192666,23.695326214879678,146.29464335772573,-46.8534911863206,-623.8942234928959,-37.633542072992185,280.54862744241194,629.697206818976
639,234.23534829707813,23.766714263437205,147.55677565327792,-39.349321215966256,-629.9179653435916,-65.28908609759466,278.13645487462077,644.5822726439611
640,230.13448667225936,23.76703706053467,148.69871209219494,-34.09722425706231,-635.489615464753,-92.8959651310378,275.64856361865856,659.5771730625669
641,226.12137398080569,23.699013968310705,149.71110809186592,-31.043452194028127,-640.4243135683582,-120.3413098690592,273.1254841663112,674.3740617048697
642,222.25102183223592,23.568203436061662,150.58823009219955,-30.113154166009483,-644.5374081289388,-147.4943106812163,270.60666366540084,688.6809485787015
643,218.5719662306027,23.382413371344974,151.32774781119357,-31.212628938833966,-647.6489943110092,-174.208211296989,268.1295565082533,702.2244453841806
644,215.1256666031915,23.15109378034601,151.9304798773535,-34.231211368443354,-649.5882374270387,-200.3229051993526,265.7288301799326,714.7520955449826
645,211.9461032115464,22.88473896892197,152.40009833131066,-39.042864283595364,-650.1974030376906,-225.66802966994183,263.4356995991607,726.034313275107
646,209.05957395597244,22.594323434804828,152.74279774706784,-45.5075734506174,-649.3355209746414,-250.0664465897015,261.27739970469196,735.8659551868203
647,206.48468742763296,22.290791533262855,152.9669351925956,-53.472653625553455,-646.8816199623784,-273.3379977625577,259.2768022284819,744.0675473222898
648,204.23254422616594,21.984616385996098,153.08264799815052,-62.7740689847917,-642.7374804813592,-295.303424082468,257.452178375101,750.4861894369528
649,202.30709319060244,21.685438593823868,153.1014573396273,-73.23785451212127,-636.8298650267194,-315.78834130492544,255.8171046577696,754.99615674636
650,200.7056437390549,21.40179043480627,153.0358669233601,-84.68170013815713,-629.11219676167,-334.62717014626566,254.38050478704866,757.4992175485391
651,199.4195106112468,21.14090680542247,152.89896736006293,-96.91673050093887,-619.5656700736954,-351.666924834423,253.14681666367264,757.9246837769603
652,198.43476357006645,20.90862053019256,152.70405763772624,-109.74948365739772,-608.1997901493731,-366.7707718524973,252.11627038691256,756.2292111346528
653,197.73305244879205,20.709336862187335,152.46429488335303,-122.98406501017195,-595.0523533822546,-379.821278949376,251.28526073658537,752.396366027442
654,197.29247741126215,20.546079819142147,152.19238211395054,-136.4244307793407,-580.1888953866318,-390.7232830307289,250.64679574936656,746.4359774847152
655,197.08847521200553,20.420601228837576,151.9003011245485,-149.87674063354464,-563.70164706857,-399.40631411888666,250.19100175143595,738.3832927852292
656,197.09469428423492,20.333541870920065,151.59909453957303,-163.15171279424072,-545.7080498992206,-405.8265213781625,249.90566457697057,728.2979549285072
657,197.28383434751436,20.28463286052037,151.2986979930364,-176.0669170009956,-526.3488879710047,-409.9680566552086,249.776786828106,716.262818227116
658,197.62842960302015,20.27292444852455,151.00782089197375,-188.44894979966108,-505.78609611274914,-411.84388165418983,249.7891419518882,702.3826155125553
659,198.10155814424783,20.29702881956177,150.7338723379126,-200.13545031010895,-484.200300607698,-411.4959773534042,249.92680741320555,686.7824874513415
660,198.67746366986566,20.355363449509344,150.4829273645345,-210.97693025629525,-461.7881427355571,-408.99494877831836,250.1736610212915,669.6063818327088
661,199.33207875362916,20.446382322688983,150.25972765207572,-220.83840719343218,-438.7594266476832,-404.43903421359414,250.5138263609251,651.0153285757741
662,200.04344183928532,20.568783738100397,150.06771042242428,-229.6008425236078,-415.33412376179695,-397.9525441619847,250.93205537894062,631.1855945966948
663,200.79200312887104,20.721685207943242,149.90905939162118,-237.16239424156686,-391.7392584237159,-389.6837705324794,251.4140387729994,610.3067218184983
664,201.56081802443956,20.904757751256547,149.78477241507142,-243.43949691971198,-368.2056966296845,-379.80241975294865,251.94663818978702,588.5794520372815
665,202.3356308504001,21.118313658612138,149.69474160095984,-248.3677776072385,-344.96486263706925,-368.49663446149833,252.51803830637104,566.2135444889
666,203.10485590379005,21.36334368711803,149.63784285552703,-251.9028067420392,-322.2454168715383,-355.96967737444123,253.1178211981275,543.4254956288082
667,203.85946695810043,21.641501784316375,149.61203276378873,-254.02066968775156,-300.26994048611886,-342.4363582705581,253.7369694294731,520.4361750321699
668,204.59280977964784,21.95503789688942,149.61445123242862,-254.71832962740334,-279.25168433795415,-328.11929088321455,254.3678076201908,497.46839527373976
669,205.30035475781753,22.306682136581028,149.64152832564474,-254.01373900313476,-259.391450365069,-313.24507040766184,255.00389457393362,474.74443609586467
670,205.97940823809162,22.699486371504396,149.68909324317787,-251.94564719588564,-240.87467934280406,-298.0404635004712,255.6398792717413,452.4835436071844
671,206.6288014767988,23.136631946667645,149.75248273205492,-248.5730492073406,-223.86881939851486,-282.72870033653163,256.27133420076495,430.89942401798027
672,207.24857530442105,23.621214483236233,149.8266458297721,-243.97422574976252,-208.5210438559439,-267.5259521455132,256.89457883497255,410.19774975439236
673,207.8396767065479,24.15601834858446,149.90624197583998,-238.2453403694976,-194.95637536249208,-252.63806779864888,257.5065048420246,390.57369549445065
674,208.40368087592245,24.743294211365082,149.98573023155245,-231.49858355283195,-183.276257153498,-238.25763004461012,258.104412974011,372.2095243204485
675,208.94254916498463,25.384552904346183,150.05944853952806,-223.85988509411672,-173.55759348406772,-224.56137691901267,258.68586980322476,355.2722503654552
676,209.45842967189444,26.080387578679677,150.12168351477843,-215.46625086079467,-165.85226126257825,-211.70801823985443,259.2485903597229,339.9114133186394
677,209.95350230481134,26.830334100149887,150.16673299152538,-206.4628138379586,-160.18707507321506,-199.8364632997321,259.7903497855699,326.257010325148
678,210.42986426853642,27.63277713867107,150.18896518692134,-196.99971626116601,-156.56417043397943,-189.06446644212846,260.3089234011896,314.4176404340523
679,210.88944723643016,28.484906449240533,150.18287950078673,-187.2289536811584,-154.961759864688,-179.48769275867915,260.8020516096238,304.47892433506183
680,211.33395662562515,29.382724293370504,150.1431740547313,-177.30130892405634,-155.3352175580695,-171.17920355150326,261.2674254827956,296.50226598736975
681,211.76482637221312,30.321101079131378,150.06482354348134,-167.36348498073693,-157.61845999041523,-164.1893557123406,261.70269030700797,290.5240203848765
682,212.1831868204307,31.29387283371939,149.94316799045885,-157.55551691886592,-161.72560323403843,-158.54609887983858,262.1054658837474,286.5551206889773
683,212.58984637222088,32.29397174430507,149.7740096478331,-148.00851193666313,-167.55288326516666,-154.25564166887222,262.47338273318474,284.5811981879846
684,212.98528863719582,33.31358004139431,149.55371283971368,-138.84273952287185,-174.9808195190715,-151.3034475529725,262.8041327160538,284.56320333570307
685,213.36968636591655,34.344297945031094,149.2793005837277,-130.16607246367218,-183.87658803416565,-149.65551461192356,263.09553165184496,286.4385105609343
686,213.74293215433914,35.377317915868844,148.94854203619803,-122.07276371906619,-194.09655554655785,-149.25989144442124,263.3455906687122,290.12246783594793
687,214.1046844514389,36.40359946344174,148.56002558459025,-114.64253298642296,-205.48891529601582,-150.04838290103214,263.55259242204954,295.5103363545009
688,214.4544262931376,37.41404067140747,148.1132133426447,-107.9399295174215,-217.89636144527768,-151.93840257962262,263.7151680668043,302.479556639194
689,214.79153368556803,38.39964406007132,147.60847369387272,-102.01393426852846,-231.1587415159442,-154.83493327792274,263.8323710194512,310.89227436285813
690,215.1153506236599,39.351675353125025,147.04708933108682,-96.89776453002418,-245.11563305705468,-158.63256123095667,263.90374402796505,320.5980606466174
691,215.42526804643526,40.261814236173414,146.43123907047132,-92.60884732949415,-259.6087992423342,-163.21755461194758,263.9293767117482,331.43676557347874
692,215.7208042245476,41.12229642473452,145.76395276632513,-89.14893346217409,-274.48448587055265,-168.46996113958463,263.90995136358833,343.2414481094229
693,216.00168388979853,41.9260464245239,145.04903998119815,-86.50433121221863,-289.59552784447914,-174.265703335403,263.84677526852687,355.8413290456689
694,216.2679127555123,42.666800391329225,144.29099456865114,-84.64624696979828,-304.80323629882133,-180.47865252447065,263.7417979717969,369.06471525959006
695,216.51984306516133,43.33921861644701,143.49487887236998,-83.53122831421392,-319.97903887457704,-186.98266356577938,263.5976118686028,382.7418436836445
696,216.7582248516784,43.938987390526094,142.66619276222158,-83.1017130130918,-335.0058467601427,-193.65355122837536,263.41743448461983,396.70759282834723
697,216.98423724589048,44.46291012520106,141.81073404139602,-83.2866941126779,-349.779125015938,-200.37098623433195,263.20507119194434,410.80401011701576
698,217.19949482019405,44.908987405385936,140.9344574906135,-84.00251636884366,-364.20764904966086,-207.02028494606157,262.9648579315466,424.88260634900513
699,217.40602558200365,45.276485085269606,140.04333959550564,-85.1538224900799,-378.2139405012306,-213.4940625223248,262.7015845848119,438.8063753290952
700,217.6062194908766,45.565988759368615,139.14325473936478,-86.63466905153857,-391.7343893689075,-219.6937162398901,262.4204006479456,452.4515069211455
701,217.80274879703708,45.779442067611285,138.23986655747265,-88.32983142230286,-404.71908397030325,-225.53070462948125,262.126705576069,465.7087742786323
702,217.99846370262122,45.92016544016066,137.33853570234345,-90.11631416300763,-417.1313838418298,-230.9275899261327,261.8260265215404,478.48458897702426
703,218.19626860535516,45.99285115918475,136.44424306907663,-91.86507730023787,-428.9472806746542,-235.81881648527053,261.52388633706073,490.70172936446676
704,218.39898543360678,46.00353015768041,135.5615261040566,-93.44297902458318,-440.1545973070226,-240.15120612636386,261.22566489140473,502.2997562043187
705,218.60921137318257,45.959506059281445,134.69442535821787,-94.71492181755436,-450.75207421471833,-243.88416217648566,260.93645714435115,513.2351349541693
706,218.8291786878698,45.86925291047301,133.84643878841817,-95.5461729871075,-460.7483876351504,-246.98958621864716,260.6609320843535,523.4810860344332
707,219.0606243762283,45.74227499301664,133.02048212788415,-95.80481405854755,-470.16113498582746,-249.45152379766253,260.40319742798704,533.0271839254874
708,219.30467709358365,45.588929802334775,132.2188545847296,-95.364258479233,-479.0158133507337,-251.26556597146362,260.16667569375693,541.8787236792748
709,219.56176809051348,45.42021827597977,131.44320992882461,-94.10576528294703,-487.344807029683,-252.43804106874128,259.95399766133215,550.0558700855778
710,219.8315718753311,45.24754919968302,130.69453362006715,-91.92086901106681,-495.186391592689,-252.9850343583381,259.76691918089335,557.5926009792113
711,220.1129809647134,45.08248705975374,129.97312705440652,-88.71364453651938,-502.5837553137775,-252.93127256490877,259.6062668144592,564.5354529859567
712,220.40411754958572,44.93649415920752,129.27860026653227,-84.40273057067223,-509.58403477855353,-252.30890628448375,259.47191691198515,570.9420766239489
713,220.70238322249776,44.820678332257145,128.60987446449656,-78.92304795132148,-516.2373600380464,-251.1562179799593,259.3628114186685,576.8796091610812
714,221.00454606730727,44.74555698345401,127.96519549082754,-72.22716747721095,-522.5959055359673,-249.51627799944907,259.277011903636,582.4228781980129
715,221.30686238469897,44.72084652195252,127.34215868070758,-64.28630492359098,-528.7129451735794,-247.4355671269279,259.21179098996157,587.6524556842422
716,221.605228193985,44.75528373795695,126.73774470486336,-55.0909449245027,-534.6419120166585,-244.96258217022418,259.1637576988206,592.6525893323015
717,221.89535364286795,44.85648254296296,126.14836501746181,-44.65111734627299,-540.435464303853,-242.14644126865497,259.129010528449,597.5090446173292
718,222.1729519199543,45.03082617678972,125.56991473364818,-32.99636649687428,-546.144559351372,-239.03550788177714,259.1033098601509,602.3068949267683
719,222.43393348098652,45.28339198974853,124.99783041649196,-20.17546255167154,-551.8175362817316,-235.67605621944503,259.0822599759314,607.1283000571676
720,222.6745963808788,45.61790371765208,124.42715049646468,-6.255904691521718,-557.4992084255482,-232.11100505130162,259.06149073904356,612.05031492966
721,222.89180404231902,46.036705122538706,123.85257677554455,8.676742907434779,-563.2299680166177,-228.37875001777536,259.0368296624667,617.1427721698959
722,223.08314274833472,46.54074910632904,123.26853641815987,24.519655850533,-569.0449101802218,-224.51212565362755,259.0044564528131,622.4662848588891
723,223.24705255048787,47.12959772580262,122.66924474850019,41.15368672022367,-574.9729900322307,-220.53752678519675,258.9610340427736,628.070419323981
724,223.3829271083765,47.80143044980543,122.04876993273508,58.44444423633234,-581.0362348330444,-216.47421475719673,258.903812443438,633.9920914055796
725,223.49117996645916,48.55305998357132,121.40110115777216,76.24353865476141,-587.2490409004307,-212.33382749374172,258.83070411643547,640.2542417636228
726,223.57327655761927,49.379956718905085,120.72022209212356,94.39002711014028,-593.6175907362561,-208.1201045196063,258.74033154387536,646.8648451163106
727,223.63173249876485,50.276284168220336,120.00019110256316,112.71209578848301,-600.1394283788367,-203.82882988970078,258.6320489093003,653.816304006418
728,223.6700794295696,51.23494845654746,119.23522891497363,131.0290129491117,-606.8032298080925,-199.44798862134408,258.5059402016823,661.085269595146
729,223.6927999352082,52.24766502551083,118.41981329181964,149.15337884744918,-613.5888003619997,-194.95812650723303,258.3627958407871,668.6329204389307
730,223.70523331353596,53.30504523091402,117.54877910002669,166.89368661746758,-620.4673230179128,-190.332899512971,258.2040695075163,676.4057158187655
731,223.71345426558239,54.396704619823396,116.617421194312,184.0571930278725,-627.4018706605613,-185.53979733726285,258.03181656839746,684.3366236010388
732,223.72412692731655,55.51139347216329,115.62159708276226,200.45308048458116,-634.3481828239112,-180.54102576717295,257.84861537082213,692.3468044570626
733,223.7443369258856,56.63714884986004,114.55782632485321,215.8958724957449,-641.2556938016129,-175.29453358088864,257.65747267815703,700.3477153642255
734,223.7814044209522,57.76146612959862,113.42338377239628,230.20904487109803,-648.0687856953897,-169.75517121975213,257.46171460367117,708.2435767447893
735,223.8426815519963,58.87148696584482,112.21638390575755,243.22875510314572,-654.7282282953267,-163.87596950205645,257.2648646784079,715.93413066546
736,223.93533843095963,59.95419988204185,110.93585367694209,254.80759377184418,-661.1727589110633,-157.60952654984885,257.0705112408218,723.3176035143117
737,224.0661427470924,60.99664920554264,109.58179159378484,264.81824581892,-667.3407501817385,-150.9094893053884,256.88216718681383,730.2937765534547
738,224.24123907496713,61.986147845087956,108.15521130804458,273.1569378762987,-673.1719125750844,-143.73211224840892,256.70312619106073,736.7670623842845
739,224.465934960254,62.9104894286055,106.65816859329816,279.7465423729826,-678.6089801341933,-136.03787016995818,256.5363206297887,742.6494848670168
740,224.7445016715782,63.75815545011227,105.0937711507075,284.5392113620457,-683.59933199933,-127.79309436185956,256.38418738820286,747.8634641967545
741,225.07999808494736,64.5185131780746,103.46617103770163,287.51842332289584,-688.0965072596802,-118.97159282750242,256.2485483800707,752.3443171007144
742,225.47412647581055,65.18200015582646,101.78053964149763,288.70034364134267,-692.0615759966995,-109.55620579578365,256.13051289948925,756.042393629145
743,225.9271288511038,65.74029134168825,100.0430250614683,288.1344220676828,-695.4643344600123,-99.54023893209566,256.0304087671597,758.9247856701328
744,226.43773148214132,66.18644546507116,98.2606915731329,285.903176105107,-698.284296770871,-88.92870973822211,255.94774836203274,760.9765570318957
745,227.00314326749725,66.51502802551343,96.44144051452385,282.1211364873193,-700.5114591258688,-77.7393397750557,255.88123384317248,762.2014599813054
746,227.61911079038063,66.72220933628387,94.59391143285232,276.93295845937314,-702.1468154354023,-66.00322828469803,255.82880338892514,762.6221182805195
747,228.28003020474418,66.8058368282102,92.72736176327896,270.5107286234177,-703.2026067113015,-53.7651515858691,255.78771774829545,762.2796719638843
748,228.97911389869387,66.76548129923634,90.85152305643506,263.0505191891596,-703.7022916077073,-41.08344529078734,255.7546843556717,761.2328939906882
749,229.7086079134757,66.60245692631453,88.9764323382671,254.768258232614,-703.6802327175052,-28.029440849085535,255.72601461482128,759.5568028425804
750,230.4600533999949,66.31981479674388,87.11223887959471,245.8949975086748,-703.1811014628609,-14.686444234822364,255.69780804192587,757.3408076524663
751,231.2245814452219,65.92230964582602,85.26898929795784,236.67167248204046,-702.2590119742382,-1.1482647124771577,255.6661542906422,754.6864338142135
752,231.99322629798033,65.41633949105524,83.45639682395924,227.3434665872698,-700.976400466185,12.48267353414894,255.6273412309874,751.7046882683884
753,232.7572394964139,64.80985786811833,81.68360280047101,218.15391443942292,-699.4026724204597,26.09757736230603,255.57805575503994,748.5131360147908
754,233.50838831771475,64.11225832448672,79.95893937935895,209.3389036402682,-697.6126474291776,39.58380583525072,255.51556507721884,745.2327730828138
755,234.23922598368748,63.33423082124248,78.2897019923093,201.1207559760821,-695.6848412434757,52.82757007821932,255.43786972948638,741.9847941780332
756,234.943326117335,62.48759001172136,76.6819391921448,193.70258058447365,-693.6996336356481,65.71671037649487,255.3438236920344,738.8873613506229
757,235.61547802772228,61.58507619993488,75.14026665262263,187.26309130854696,-691.7373749157464,78.14345056512381,255.23322061653886,736.0524792504335
758,236.2518417038033,60.64013105600679,73.66771181950898,181.95206829643155,-689.8764813417267,90.00703497981182,255.10684726113777,733.5830719319821
759,236.85006225524992,59.66665160376135,72.26559574875611,177.88662216395147,-688.1915620619785,101.21616111384701,254.96650625127978,731.5703388692435
760,237.40934365836083,58.678727316488455,70.93345856112718,175.1483904032567,-686.7516117071702,111.69113153980159,254.8150105459107,730.0914489633992
761,237.93048156718808,57.690366219667695,69.66903418983482,173.78176255118973,-685.6182969338926,121.36566135349216,254.6561518261363,729.2076151968884
762,238.4158548619166,56.71521669338632,68.46827845396652,173.79319482141938,-684.844363768517,130.18829170972475,254.49464458125658,728.9625812315658
763,238.86937560241148,55.76629218976733,67.32545205783845,175.15163796279052,-684.4721950664897,138.12337515667105,254.33604705369504,729.3815444055114
764,239.29639715025792,54.855706307971566,66.23325724164056,177.79006523642,-684.5325518472825,145.15161381946248,254.1866595304915,730.4705354009703
765,239.7035804298683,53.994425630986925,65.18302390557986,181.60805163094304,-685.0435361446752,151.2701466233245,254.0533998654655,732.2162708597584
766,240.09871872542536,53.19204746535893,64.1649384604687,186.4753217241135,-686.0098141941114,156.49219633653274,253.943655788508,734.5864893283106
767,240.49052223924673,52.45660907030002,63.16830668516634,192.23615285088314,-687.4221362422401,160.84630076950876,253.86511373396417,737.5307720886434
768,240.8883649193018,51.79443398594388,62.18184063733411,198.71449325498315,-689.2571831342246,164.37516434819713,253.82556465539508,740.9818387354213
769,241.30199761627125,51.21001965970772,61.19395916499651,205.71963242560903,-691.4777609083677,167.13417601913326,253.83268841186097,744.8572935906252
770,241.7412332400705,50.70596890776796,60.19309165227069,213.0522435975866,-694.03335380579,169.18964707066834,253.89381960505503,749.0617842987836
771,242.21561122815064,50.28296607884437,59.16797510265674,220.51060716184784,-696.8610340261696,170.6168283296836,254.0156991874344,753.4895192199893
772,242.7340503931559,49.939797247749794,58.107935404830556,227.89681908491866,-699.8867135634374,171.49777048365706,254.20421781810725,758.0270762283952
773,243.30450101786528,49.673412405915776,57.00314463506531,235.0227905691307,-703.0267098081952,171.91909371965417,254.4641587537775,762.556422686469
774,243.9336086407136,49.479026504398796,55.844847537892946,241.71585380324612,-706.1895828280906,171.96973305379979,254.79894977918488,766.9580552132583
775,244.626403046154,49.35025544876391,54.6255518571659,247.8238031715692,-709.2781892433118,171.73872349266475,255.21043504513798,771.114159212396
776,245.38602641258552,49.27928283161588,53.339178886351895,253.21922105930628,-712.1918865818328,171.31308472440165,255.69867856364104,774.9116830325266
777,246.21351433534494,49.25705329647738,51.98117233160503,257.80296161918056,-714.8288140874564,170.77585879608708,256.26181142831695,778.2452210493161
778,247.10764243530429,49.27348877364988,50.548565144590235,261.50669343438585,-717.0881719646188,170.20434664917698,256.8959344051528,781.0196043181021
779,248.064849330643,49.31772416966434,49.04000528742845,264.29443162108294,-718.8724212171334,169.66858078784767,257.5950861484586,783.1521065229896
780,249.07924375558324,49.378359284926866,47.455742531892156,266.163020472471,-720.0893303249194,169.23006184216476,258.3512847981306,784.5741860846716
781,250.14269951289506,49.44372375237396,45.79757952650995,267.1415586760728,-720.6538025302243,168.94077637423152,259.15464709395195,785.2327017952896
782,251.2450370316539,49.50215158671588,44.068791549895664,267.2897902421221,-720.4894280781889,168.84250225894326,259.993584678539,785.090558797662
783,252.37428533261243,49.54226136789331,42.2740204901774,266.69551532272243,-719.5297193365179,168.96639711562796,260.8550726367614,784.1267640658905
