time,ax,ay,az,gx,gy,gz,accmagnitude,gccmagnitude
0,-9.096312301052532,-251.86676249284216,-14.158062153797799,-5.825249891435771,45.76225836620572,-2.9370494561546083,252.42987199851626,46.47473973418677
1,-9.058318168450805,-252.24647621471397,-14.33801202697071,-4.824090877253768,46.156152252492454,-3.047761341540493,252.8194996403937,46.92658766921127
2,-9.013658455504348,-252.6248900798836,-14.507530119223746,-3.8744382027647153,46.54981485320003,-3.1543554995202463,253.20692401297129,47.372909146956516
3,-8.963051136396587,-252.99737675717674,-14.666209670360677,-2.9802802020942414,46.94232290751006,-3.2555000870441955,253.58752138285806,47.81251359753165
4,-8.907282752567564,-253.3595540944111,-14.813764466212886,-2.1452820446997447,47.33296471087352,-3.3500692678948094,253.95692286733905,48.2444680882609
5,-8.847192726108954,-253.70739345025657,-14.950030618505052,-1.372800064141035,47.72125010819958,-3.4371856883526313,254.31112221607717,48.668107938557824
6,-8.78365869120191,-254.03731377579564,-15.07496423269702,-0.6658759559132532,48.10691622308902,-3.5162526672084846,254.64656914362507,49.08304302757712
7,-8.717583277761268,-254.34625806783276,-15.188635044346924,-0.027207301087375145,48.4899282825215,-3.586974632449675,254.96024485800865,49.4891591210997
8,-8.649882500081928,-254.6317497058739,-15.291216719132104,0.5409072231241345,48.87047480270921,-3.6493651100740454,255.24971734737244,49.88661344237894
9,-8.581475479377962,-254.89192725394068,-15.38297489388661,1.0366470372039998,49.2489565843562,-3.7037422918737555,255.51317506312486,50.27582392003191
10,-8.513274847935394,-255.12555734570907,-15.464254140050306,1.4587693004787774,49.625969285383945,-3.750712810951438,255.74943866787217,50.657451905240094
11,-8.446177064428745,-255.33202616239805,-15.53546485803643,1.8067218631940103,50.00227965150195,-3.7911447965300815,255.95795139349212,51.032378468303754
12,-8.381052038940526,-255.5113108410518,-15.597070743365505,2.080759578890664,50.37879575239631,-3.8261315766239328,256.1387493672402,51.40167458151303
13,-8.318731759261397,-255.66393302575,-15.6495770718831,2.2820521032928363,50.75653182539597,-3.8569476204416375,256.292414124083,51.76656560407143
14,-8.259997875461432,-255.7908976276131,-15.69351978603289,2.4127707237358518,51.136568575632175,-3.8849985441700463,256.4200103669385,52.12839057050541
15,-8.205568379700749,-255.89362048929806,-15.729455246959008,2.4761427453716682,51.52001000006571,-3.9117672596645274,256.52301266137505,52.488556916658204
16,-8.156083610590015,-255.9738489321126,-15.757950447262505,2.476464407912668,51.907937992202164,-3.938758556883192,256.60322502881735,52.84849153049643
17,-8.112091871011835,-256.0335791264325,-15.779573412852868,2.4190668432571147,52.3013661561381,-3.9674445055767107,256.66269736040806,53.20958941227822
18,-8.07403506804589,-256.07497394601523,-15.794883562823593,2.3102336753927823,52.70119438393959,-3.999213040795368,256.70364229971835,53.57316168354403
19,-8.042234991349085,-256.1002845060555,-15.804422009945444,2.1570729251201555,53.10816577645932,-4.035321996000628,256.7283558033304,53.94038504005558
20,-8.016881044525965,-256.111778006271,-15.808702062151642,1.9673493833195304,53.52282743201805,-4.076860662482125,256.7391440363934,54.31225491405064
21,-7.998020302600618,-256.11167386163794,-15.808200401825399,1.7492861669763498,53.94549660857542,-4.1247206572811415,256.7382586410535,54.68954465971358
22,-7.985550678118677,-256.1020894379948,-15.803349547739208,1.511345545247698,54.3762338808297,-4.179577469851037,256.7278417599364,55.07277311058757
23,-7.979217846749909,-256.08499606043506,-15.794532208053779,1.2619992716686674,54.81482509967682,-4.241883521310923,256.7098815473725,55.462182865941266
24,-7.978616474387432,-256.06218540068943,-15.782077981475853,1.0094977660339717,55.260774010223706,-4.311872882376345,256.6861783282477,55.857731493933116
25,-7.983196160988706,-256.0352459079128,-15.766262669707674,0.7616459488270597,55.71330710329457,-4.389576976655891,256.6583211062384,56.259097338430095
26,-7.992272337043415,-256.00554860111265,-15.747310360351571,0.5255917928292546,56.1713916111082,-4.4748497425195985,256.62767376353946,56.6657007469747
27,-8.005042145237502,-255.97424130996342,-15.725398343077593,0.30763207246958724,56.633766590111776,-4.567399973332701,256.5953700490627,57.076740383918384
28,-8.02060512669608,-255.9422504024116,-15.700664649053659,0.11303858223756186,57.098985904406035,-4.66682803068419,256.56231637961724,57.49124300181259
29,-8.037988263543653,-255.9102891459614,-15.67321758362762,-0.05409261384889213,57.565470808972144,-4.772663904964421,256.52920155272056,57.908123800548324
30,-8.056174577801947,-255.87887195552452,-15.643146291739242,-0.1909665208956641,58.03156893706964,-4.884403676518032,256.49651254410793,58.32625351749743
31,-8.074134105429607,-255.8483337436112,-15.610531308733167,-0.2961865112492345,58.49561597813097,-5.00154176470357,256.46455550766575,58.74452782361295
32,-8.0908557717909,-255.81885340729687,-15.575454176306229,-0.36982049249306465,58.95599622111946,-5.123596909526898,256.43348091110704,59.16193448025651
33,-8.10537860810346,-255.79048025802703,-15.538005462857944,-0.41343245062418427,59.41119836990325,-5.250130567467827,256.40331152353224,59.57761397211639
34,-8.116820906900864,-255.76316203370357,-15.498290846919907,-0.4300757884531232,59.85986355300239,-5.380757230624401,256.3739718267995,59.9909099094143
35,-8.1244062211888,-255.73677311567022,-15.456435214263413,-0.4242453401451605,60.300823212576766,-5.515146972148254,256.34531743063945,60.401406348173495
36,-8.127485372932783,-255.71114174409985,-15.412584918414813,-0.40178607597814264,60.73312550037574,-5.653021158575405,256.3171632592271,60.80895024423897
37,-8.125553709817716,-255.68607533934716,-15.366908460061198,-0.36975826429785,61.156049826012925,-5.794142674297405,256.28930959580646,61.21365842663842
38,-8.118262794861492,-255.66138339361112,-15.31959589820827,-0.3362609985420658,61.56911016970182,-5.938302164674162,256.26156542740625,61.61590961337596
39,-8.105425799263621,-255.636897680139,-15.270857362856994,-0.31021818962411374,61.97204855637184,-6.0853017604666055,256.23376882070863,62.0163229492879
40,-8.087016336386283,-255.6124896328889,-15.220921102026427,-0.3011330087024318,62.364820595439525,-6.2349375549117765,256.2058041891876,62.4157252054914
41,-8.063161231629175,-255.58808468372573,-15.170031514331566,-0.31881806597629714,62.74757519591784,-6.386981820572757,256.1776162787941,62.815109106015875
42,-8.034128379609356,-255.5636732641982,-15.118447542591856,-0.3731092542923069,63.120630486886,-6.541165626438282,256.1492206423825,63.215585259401315
43,-8.000311129168814,-255.53931821563705,-15.066441659650964,-0.4735713191299806,63.48444764178588,-6.697162216204213,256.1207104129415,63.61832992106809
44,-7.962210638358042,-255.51515845905135,-15.014299535826584,-0.6292030767864505,63.83960381510053,-6.85457132798568,256.0922592845168,64.02453040775333
45,-7.920417525477434,-255.49140887409715,-14.962320363556628,-0.8481499627184348,64.18676492174129,-7.012904633339674,256.06412069575515,64.43532960640123
46,-7.875593907460067,-255.4683564654456,-14.910817705571187,-1.1374313133995115,64.52665868106989,-7.171572619200972,256.03662332589573,64.85177081901863
47,-7.8284565106519945,-255.44635311106396,-14.860120626980024,-1.5026894843803849,64.86004826092078,-7.329873427934104,256.01016321173137,65.2747441995683
48,-7.779761063057632,-255.42580541654775,-14.810574802923028,-1.9479676126029035,65.18770694545202,-7.486984316424632,255.98519300726002,65.70493620847301
49,-7.730287829965023,-255.40716231299794,-14.762543283896825,-2.475522542529168,65.51039443323339,-7.641956471113763,255.96220901136812,66.14278374768712
50,-7.68082804364517,-255.3909009929988,-14.71640662092207,-3.0856790566673995,65.82883555131352,-7.793713933812223,255.9417365435621,66.58843484521616
51,-7.632171054816171,-255.3775116267015,-14.672562032864239,-3.776730921106331,66.14370221118459,-7.941057332589381,255.92431409524715,67.04171779069709
52,-7.5850921624692775,-255.36748108880795,-14.63142121447577,-4.544893287349963,66.45559921063679,-8.08267293083256,255.9104764704447,67.50212035074766
53,-7.540341149367696,-255.36127573024643,-14.593406307634483,-5.384309745522594,66.76505402101452,-8.217147218337546,255.90073692867253,67.96878012887929
54,-7.498631561573712,-255.35932319770708,-14.55894357740489,-6.287115945677742,67.07251017795627,-8.342986954706785,255.89556831070212,68.44048646842704
55,-7.460630772954179,-255.3619935772381,-14.528454477514538,-7.243560310976166,67.37832350214995,-8.458644320056045,255.8953834055119,68.9156937201349
56,-7.426950860342019,-255.3695806649634,-14.502344048234717,-8.242181002737246,67.68276015438047,-8.562546650920824,255.90051535414847,69.39254524906885
57,-7.398140250119127,-255.38228470732497,-14.480986935810915,-9.270036929354815,67.98599541679239,-8.653130106233727,255.9111994406672,69.86890717447555
58,-7.3746760534274785,-255.4001982223668,-14.464711690404348,-10.312989114667557,68.28811206854347,-8.728876481374154,255.92755790827078,70.3424104926455
59,-7.356957101383943,-255.4232963311823,-14.453784300649582,-11.356027020732288,68.5890973469429,-8.78835226111429,255.94958927741055,70.81049997923785
60,-7.345297891056932,-255.4514324356075,-14.44839210719463,-12.38363237937694,68.88883782300859,-8.830248889529235,255.97716306819456,71.27048817145494
61,-7.33992377912523,-255.48433935968708,-14.448629323801624,-13.380170812982204,69.18711206332725,-8.853423140133458,256.0100201214164,71.71961279023562
62,-7.3409677095364225,-255.5216355443795,-14.454485402935001,-14.330299291949206,69.4835815852814,-8.856936379074611,256.04777818387817,72.15509609024173
63,-7.34846860851867,-255.56283564410379,-14.465837353861264,-15.219375670043581,69.77778118603479,-8.840091422467681,256.0899421701977,72.57420471875211
64,-7.362371443419812,-255.60736482548856,-14.482446791259624,-16.03385553309137,70.06911011548799,-8.80246561569635,256.13591844116104,72.97430868197925
65,-7.382528845212052,-255.6545761112125,-14.503962041539186,-16.761661628133048,70.35682569231315,-8.743938744159584,256.1850324517381,73.35293796840628
66,-7.4087041048160795,-255.70377016256245,-14.529925242914013,-17.39251222928783,70.64004079702788,-8.664714458255526,256.23654914694464,73.70783529056939
67,-7.440575277099087,-255.75421683997794,-14.559784106537196,-17.918196768603455,70.91772626782144,-8.565334087074483,256.28969541201764,74.03700333952392
68,-7.477740083187014,-255.80517767748367,-14.59290774878032,-18.332789635004648,71.18871871741003,-8.446682022732153,256.3436836658269,74.33874499721827
69,-7.519721255426293,-255.85592818013112,-14.628605689549897,-18.63279590820351,71.4517338355906,-8.309982229392626,256.3977354425828,74.61169518366151
70,-7.565971905923554,-255.9057787895642,-14.666148850051467,-18.817225648741097,71.7053848985926,-8.15678579011156,256.4511037268848,74.85484338081284
71,-7.615880542077312,-255.95409352294678,-14.704791312563236,-18.887595989915603,71.94820592635598,-7.988949699264935,256.50309296345694,75.06754624912467
72,-7.668775652002882,-256.0003055553191,-14.74379171599696,-18.847862577758992,72.17867867384524,-7.8086073353495165,256.5530759422813,75.24953006342184
73,-7.723930263858139,-256.04392921725577,-14.782433366507792,-18.704283898671743,72.39526246700342,-7.618131232688771,256.6005069897161,75.40088299745176
74,-7.780567224820211,-256.084567999667,-14.820042407624573,-18.46522379139478,72.59642588393952,-7.420088939232431,256.6449310460459,75.5220376829975
75,-7.8378659154005215,-256.1219183243241,-14.85600370564497,-18.140899027779238,72.7806794400561,-7.2171929242750545,256.6859883979327,75.61374498131737
76,-7.8949708369232425,-256.1557691250835,-14.889774358728447,-17.74308028238664,72.946608682825,-7.012245700937108,256.72341512877915,75.67704046110886
77,-7.951002276402284,-256.1859976137619,-14.920894792514675,-17.28475602373831,73.0929073723867,-6.808081557397054,256.7570396748175,75.71320559645783
78,-8.005069148561066,-256.2125618506903,-14.948997274809859,-16.77976970427824,73.2184107047441,-6.607506528853339,256.78677610897006,75.72372612759408
79,-8.056283984563379,-256.2354908336992,-14.973811533835542,-16.24244098912079,73.32212880783604,-6.413238449613983,256.81261485454087,75.71025031807976
80,-8.103779782628344,-256.2548727781379,-14.99516710107776,-15.687181691795894,73.40328093753787,-6.227849050803709,256.83461147707595,75.67454993495613
81,-8.146728163471867,-256.27084217562515,-15.012991992435971,-15.128116765809265,73.46133081759557,-6.053710056256525,256.8528741078096,75.6184866160706
82,-8.18435811224338,-256.28356618170966,-15.027307400083075,-14.578720313214395,73.49602331381197,-5.8929450435244854,256.8675500117015,75.54398582509246
83,-8.215974517298767,-256.29323089824715,-15.038218286140534,-14.051476192460713,73.50742207538504,-5.747388514527867,256.8788118379014,75.45301981999495
84,-8.240975665504338,-256.3000281142744,-15.04590016098806,-13.557572425266201,73.49594698537707,-5.618553250656108,256.8868441082937,75.34760005044349
85,-8.258868851988487,-256.3041430007077,-15.050582774366706,-13.106638132469477,73.46240941132298,-5.507606667774636,256.89183045540256,75.22977831545904
86,-8.269283379029197,-256.3057431617444,-15.052531822579118,-12.70653102422653,73.40804254776278,-5.415356512062591,256.8939420517325,75.10165504012333
87,-8.271980463677544,-256.3049694129745,-15.052029998872113,-12.363182387253122,73.33452376556166,-5.342245792245418,256.8933276582787,74.96539231539313
88,-8.266859912424223,-256.3019287134399,-15.049358702332293,-12.080504994936252,73.24398590002075,-5.288356325838542,256.89010578569525,74.8232289585517
89,-8.253963787172658,-256.2966898007259,-15.044781450901207,-11.860367423065629,73.13901478056864,-5.253419753471536,256.88435957860753,74.67749477176639
90,-8.233477539984055,-256.2892822214487,-15.038529658747478,-11.702635866234216,73.02263092507555,-5.236834448227104,256.87613516178124,74.53062131968537
91,-8.205729090175083,-256.2796995164858,-15.030791167756165,-11.605281676383443,72.89825409703671,-5.237686522464104,256.8654442368798,74.38514683523016
92,-8.171186072516864,-256.2679071411317,-15.021701882941661,-11.564549537017834,72.76965030728557,-5.254773188112574,256.8522715278851,74.24371326361484
93,-8.130451195197486,-256.2538551654848,-15.01134093219475,-11.575177681988816,72.64086181524691,-5.286627070049456,256.83658713273854,74.10905396768284
94,-8.08425551090819,-256.23749500629805,-14.999729671454697,-11.63065828520397,72.51612170949412,-5.331540646100988,256.8183630368433,73.98397122733411
95,-8.033449456017294,-256.21879864518144,-14.986834416994128,-11.723523589039287,72.39975564104687,-5.38759066578745,256.79759222983046,73.87130332175695
96,-7.978991600739768,-256.19777824049896,-14.972572190061225,-11.845641935712761,72.29607413653551,-5.4526630240347504,256.77430829525366,73.77388162357519
97,-7.921935007568779,-256.17450388222215,-14.956818412380652,-11.98850785316684,72.20925952903409,-5.524479012500637,256.7486031686786,73.69447871571472
98,-7.863410925381046,-256.1491174800918,-14.93941561671732,-12.143511721811798,72.14325184864715,-5.600624095320722,256.72064100417253,73.63574905067469
99,-7.804609442658064,-256.12184131941336,-14.920182691112947,-12.302177086486747,72.1016380111495,-5.67858035237452,256.6906666550341,73.60016411111312
100,-7.746756857259593,-256.0929805193373,-14.898924636703134,-12.456357016541293,72.0875483852662,-5.755763479131958,256.65900800377824,73.58994440590358
101,-7.691089885734774,-256.0629193406607,-14.875443041981736,-12.598384674396126,72.10356439106386,-5.829564713500765,256.6260721103346,73.60699095254684
102,-7.638827264996652,-256.0321119102949,-14.849547410114411,-12.721177081738828,72.15164024781667,-5.897397340024951,256.59233577427403,73.65281913517869
103,-7.5911396211986215,-256.00106841409576,-14.821067232971789,-12.818294628205317,72.23304134353484,-5.956746646814204,256.5583315840714,73.72849789667447
104,-7.549118672397173,-255.97033814166116,-14.78986442654824,-12.883961795308055,72.34830087841698,-6.005221548808105,256.52463084418906,73.83459698238148
105,-7.513746998223147,-255.94049092283265,-14.755845491480068,-12.913056563769139,72.4971954032075,-6.040605668773142,256.4918249134401,73.97114430785638
106,-7.485869805980697,-255.9120984718499,-14.718972553626266,-12.901076858325164,72.67873867196978,-6.060905528228855,256.4605064549009,74.13759449804978
107,-7.466170261285743,-255.88571697795513,-14.679272327075289,-12.84409214636985,72.89119196848067,-6.064393598880091,256.43125191652166,74.3328083736135
108,-7.4551499171146265,-255.86187197121822,-14.636842144252343,-12.738687124891861,73.13208789132692,-6.049644215342379,256.4046062567811,74.55504183547232
109,-7.4531155669765665,-255.84104606089048,-14.59185259112996,-12.581902734141016,73.39826365613389,-6.015560693545399,256.3810705167388,74.80194145530619
110,-7.4601735381528105,-255.82366964755707,-14.54454684877548,-12.371178165657298,73.68589947644875,-5.961392432938555,256.3610923700081,75.0705433906096
111,-7.476232032434807,-255.81011426675022,-14.495237279321072,-12.104296684881461,73.99055767847159,-5.886741325443889,256.34505935477017,75.35727225372335
112,-7.501011552469963,-255.80068793112343,-14.444299889550182,-11.779338215163998,74.30721891983411,-5.791557436147948,256.33329419274577,75.65793734219017
113,-7.534062734565777,-255.7956317173209,-14.392167125830667,-11.394642531971382,74.63031305661468,-5.676124583254708,256.3260514498244,75.96772498659905
114,-7.574790202165986,-255.79511685275486,-14.339319245268978,-10.948788086715043,74.95374355265312,-5.541037013106531,256.3235147715545,76.2811873194047
115,-7.622480584487848,-255.7992416598892,-14.286274452956343,-10.44059232175521,75.27090560193653,-5.387168740260301,256.3257940142269,76.5922291630272
116,-7.676332729469159,-255.8080279097853,-14.233578122585097,-9.869139348080097,75.57469922954833,-5.215637273496438,256.33292179119366,76.89409579901798
117,-7.735488277538711,-255.82141646660796,-14.181791633763092,-9.233839764442171,75.85753956484602,-5.027763436741185,256.3448492989873,77.1793651153124
118,-7.799060957129602,-255.83926258943538,-14.131481495035324,-8.534525211051436,76.11136729815506,-4.8250289177554135,256.36144178271616,77.43994812926213
119,-7.866163152835217,-255.8613317731826,-14.083209323922743,-7.771577178179607,76.32766307132351,-4.609033100003192,256.38247451259576,77.6671022362823
120,-7.935928574563323,-255.88729733569758,-14.037522906408693,-6.946085910033888,76.49747019611686,-4.381450653580263,256.4076304557945,77.85146176061721
121,-8.007530266087281,-255.91674097955632,-13.994948116862073,-6.060031262038505,76.61143057712304,-4.143991226678485,256.43650083684366,77.9830904372125
122,-8.080193629329834,-255.94915733494125,-13.955981181801464,-5.1164734388276125,76.65983892652297,-3.898362329107487,256.46858955463,78.05156022262533
123,-8.153204488928093,-255.98396310952114,-13.921080740051774,-4.119738103998353,76.63272014915933,-3.6462361447450973,256.50332205207184,78.04606017471166
124,-8.225912483516474,-256.02051093838406,-13.890659311691941,-3.075577956745987,76.51993402122716,-3.3892206666587668,256.5400587180458,77.95553795718034
125,-8.297730296532118,-256.05810734494725,-13.865074010996016,-1.9912920922180817,76.31130996310026,-3.128835353222736,256.57811223835597,77.76887486009373
126,-8.368129401806986,-256.09603350756396,-13.844616600906855,-0.8757857321589998,75.99681291616126,-2.8664914854347763,256.61676761685015,77.47509326954145
127,-8.436633041676393,-256.1335670079508,-13.829503306071553,0.260443672315281,75.56673923453494,-2.603477462780181,256.65530308950855,77.06359349821327
128,-8.502807145602661,-256.17000263229306,-13.819865119040312,1.405402687609157,75.01193926303402,-2.3409492841641835,256.69301006687476,76.52441497616499
129,-8.56624999319003,-256.20467060945873,-13.815739542112611,2.5457826630782106,74.32406107271532,-2.0799264023405977,256.7292105676416,75.84851509424729
130,-8.626581652490128,-256.2369511704737,-13.81706473000838,3.6672201321371047,73.49580787129912,-1.8212930863381989,256.76327111333075,75.02805753864168
131,-8.683434415570098,-256.26628477718117,-13.8236768134592,4.7546252709071535,72.52120009815462,-1.5658054034226316,256.7946125130844,74.05670077951397
132,-8.736445441508739,-256.29217778444274,-13.835310816892992,5.792561282100979,71.39583230085562,-1.3141038516851808,256.82271536335935,72.92987652081203
133,-8.785252556220222,-256.31420375094297,-13.851605116482379,6.765653748181529,70.11711466341904,-1.0667314240403745,256.8471215040418,71.64504748969851
134,-8.82949367349785,-256.3320010847929,-13.87210894545173,7.65900724767107,68.68448956324,-0.824156466333012,256.86743210397134,70.20193412378451
135,-8.868809680571328,-256.34526809532844,-13.896292157486934,8.458606936894876,67.09961474655805,-0.5867992450881874,256.88330339761234,68.6027006606812
136,-8.90285005382488,-256.353756730307,-13.923556353080826,9.151685190751103,65.3665064678486,-0.355060815870463,256.8944412771831,66.85209284945637
137,-8.931280132002408,-256.3572663095607,-13.953246545650373,9.727037355936591,63.491637942069985,-0.12935262233153258,256.9005959683469,64.95752177827544
138,-8.953788969677099,-256.3556385031106,-13.9846627662286,10.175275599652936,61.4839903758546,0.0898747871268902,256.901557966061,62.929090789850946
139,-8.970096951244901,-256.34875468374685,-14.017071340778932,10.489015039506134,59.35505539982401,0.30210549201941983,256.89715631642844,60.77956474302945
140,-8.979962661132166,-256.33653653784626,-14.049715958271552,10.662991150621837,57.118788740137774,0.5067358036527344,256.8872601164964,58.524282633715266
141,-8.983188707710385,-256.3189503734709,-14.081828970784303,10.694111374789454,54.7915153705225,0.7030569321526909,256.87178368435184,56.18101560002417
142,-8.979626291748657,-256.29601498678005,-14.112643495937064,10.5814466844629,52.391786254901135,0.8902436492266469,256.8506952845505,53.76977261234876
143,-8.969178404876839,-256.26781237387235,-14.141406761810584,10.326170624214072,49.94018638502676,1.067349634348094,256.8240287165486,51.31255594699196
144,-8.951801687518786,-256.23450007210795,-14.167394809816175,9.931454253967155,47.459093509423305,1.2333099630461513,256.7918965583542,48.83306827178258
145,-8.927507122997213,-256.1963234921062,-14.18992828591293,9.40232563605584,44.972387098192634,1.3869509742688646,256.75450341901984,46.356373230793594
146,-8.896359819538288,-256.15362634927686,-14.208388726292158,8.745502151165349,42.50510795932302,1.5270075457968606,256.71215728596394,43.908512091648106
147,-8.85847810343629,-256.1068573872575,-14.222234578070761,7.969203090748151,40.08307064235137,1.6521476059516358,256.66527712601726,41.516080454719905
148,-8.814032105579791,-256.05657202455023,-14.231016254448134,7.082948813357483,37.732433253888765,1.761003477925646,256.6143953391797,39.205771159659655
149,-8.763242118193768,-256.0034281280491,-14.234389776081938,6.097351474087062,35.47923227833817,1.8522093563658422,256.56015425338336,37.00389209770348
150,-8.706377203613071,-255.94817560832328,-14.2321288298383,5.02390110082533,33.34889306759583,1.9244438683425813,256.5032963624978,34.9358702862812
151,-8.643754619188627,-255.89163996945695,-14.224135182627881,3.8747496752391735,31.365729481399363,1.976476329680964,256.4446484570177,33.02575593613522
152,-8.57574043288924,-255.83470044851305,-14.210447273575356,2.662494933091119,29.552448426114402,2.0072150290000965,256.3851002868771,31.29574204226076
153,-8.502751365865143,-255.77826387962133,-14.191246612637094,1.3999649236429021,27.929676504231352,2.015755674105927,256.3255788736583,29.765716015307053
154,-8.425257629822003,-255.72323572912538,-14.16686147694014,0.10000410475215099,26.515526441891762,2.0014280154259696,256.26701988354756,28.452859851420385
155,-8.343786391014202,-255.6704898421921,-14.13776729318011,-1.2247379462341466,25.325220249493807,1.9638386324067296,256.21033755433746,27.37131419207502
156,-8.258925387984197,-255.62083847688797,-14.104582928862264,-2.56201316414869,24.370784129076746,1.9029079450576534,256.156394690503,26.531919318613284
157,-8.171326073335946,-255.57500428475024,-14.06806193170577,-3.900173398999623,23.66082705987339,1.8188996626547835,256.1059743062392,25.9420427350537
158,-8.081705488138873,-255.53359594144112,-14.029077786668385,-5.228355267838561,23.200411013487933,1.7124410590666277,256.05975453671783,25.60549871199958
159,-7.990846028769412,-255.49708898766818,-13.988602702740803,-6.536644702672622,22.991016225129023,1.5845326970164098,256.01828831877674,25.522560346578278
160,-7.899592404957402,-255.46581307125754,-13.947680205669446,-7.816213876128769,23.03060027679621,1.4365466029412886,255.9819890229925,25.69005987037798
161,-7.80884537872478,-255.43994626710597,-13.907392560773294,-9.05942380185429,23.313745327206316,1.2702124505887198,255.9511227592817,26.101568720515903
162,-7.719552165917654,-255.4195165897128,-13.86882453564012,-10.259887663373107,23.831883996012653,1.0875919636383289,255.92580755463305,26.747645751094886
163,-7.632693537226618,-255.4044102616552,-13.833025280412224,-11.412492465377946,24.57359142177761,0.8910423812322227,255.9060190704267,27.616140062081275
164,-7.54926772560805,-255.39438580296277,-13.800970305359913,-12.5133793983654,25.52492899979421,0.6831703570974376,255.89160204101412,28.69253412837371
165,-7.47027141563835,-255.38909261187754,-13.773525671252601,-13.55988585771803,26.669824339997344,0.46677800731576263,255.8822862324907,29.960312998744342
166,-7.396678415869022,-255.3880924679398,-13.751416447512321,-14.550454035960518,27.990472086831378,0.24480294413684345,255.87770548706487,31.401346138318885
167,-7.329416959894558,-255.3908823385625,-13.735201170494022,-15.484512294118723,29.467741309613867,0.020254088739908537,255.8774183611744,32.99626987912206
168,-7.26934679417258,-255.3969170172014,-13.725253529064416,-16.362336141291863,31.08157695620089,-0.2038550350000651,255.88092899100482,34.724860246809264
169,-7.2172372418862345,-255.405630418989,-13.72175195509055,-17.18489573823468,32.811385056835825,-0.42457387972462934,255.88770708725704,36.56638794811104
170,-7.173747295012312,-255.416454711013,-13.72467727267419,-17.953696602991993,34.63639368538784,-0.63908170138815,255.89720627895952,38.49994936344214
171,-7.139408517164054,-255.4288367813323,-13.733818042163515,-18.670619849696966,36.53598391413107,-0.8447520292792013,255.90888031622165,40.504769370022196
172,-7.114611193914369,-255.44225183593463,-13.748782710547342,-19.337767918283976,38.48998702565287,-1.0392132244643992,255.92219688772065,42.56047364399069
173,-7.099593830527851,-255.45621413747065,-13.769017214140215,-19.957321255948674,40.4789460586916,-1.2204036526296942,255.93664899746423,44.64732969712991
174,-7.0944358912483105,-255.47028501586192,-13.793826382011813,-20.531410640087575,42.48434134690156,-1.3866200806514362,255.9517639383873,46.746457212548556
175,-7.099053678532398,-255.48407828521763,-13.82239745279923,-21.062008766888844,44.488780970637954,-1.5365579453571172,255.96710990172355,48.840009153974535
176,-7.1131993951162755,-255.49726315533815,-13.853824280972338,-21.550843520918257,46.476157878657006,-1.6693421080880733,255.98230023270878,50.911325589306806
177,-7.136463551018247,-255.50956468954462,-13.887131311964868,-21.999334176165995,48.43177582972891,-1.7845466429890833,255.9969953371325,52.94506223969552
178,-7.168280870717644,-255.52076188217055,-13.921296977890574,-22.40855073562544,50.342446327903104,-1.882202261632484,256.01090229532883,54.927295540842934
179,-7.207939757455854,-255.53068356332608,-13.955276586142428,-22.77919565363778,52.19655847951572,-1.962790323933418,256.0237723934085,56.8456055644964
180,-7.25459528579688,-255.53920256362886,-13.988024882009716,-23.111606252571022,53.98412325712424,-2.0272230433992227,256.035397008621,58.68913753922909
181,-7.30728566545668,-255.54622873472223,-14.01851825696489,-23.405775289148043,55.69679307831283,-2.076810290463932,256.0456024357942,60.44864199272366
182,-7.364952069256758,-255.55170139491884,-14.045776208061238,-23.661386494772106,57.32785700922304,-2.1132141269537335,256.05424419390624,62.11649286060579
183,-7.426461525222332,-255.55558162285706,-14.068881347380966,-23.87786167773525,58.87221146928332,-2.1383927679061103,256.0612011832932,63.6866824997962
184,-7.49063223326436,-255.55784471658535,-14.086997134831673,-24.054416253746112,60.32630624749518,-2.1545360640759528,256.06636994187215,65.15479264231975
185,-7.556260350530101,-255.5584730892181,-14.09938256952824,-24.190120916099982,61.688066062119326,-2.1639948791252834,256.0696591971013,66.51794106419902
186,-7.6221472020669605,-255.55744976805227,-14.105403283028226,-24.283968501707783,62.95678876124517,-2.169206947251074,256.07098481621756,67.77470506160803
187,-7.687126035567285,-255.5547524714894,-14.104538765640012,-24.334946701043187,64.13302236958248,-2.1726219351699467,256.07026508686744,68.92502443844987
188,-7.7500876435897235,-255.5503480991763,-14.096385757559991,-24.342118698883112,65.21842428479698,-2.1766284458340093,256.06741614488914,69.97008822745128
189,-7.810004205395707,-255.54418754651306,-14.080658122400344,-24.30471472327185,66.21560683567742,-2.1834855453845514,256.0623474584931,70.91221048018745
190,-7.865950560647917,-255.5362010589485,-14.057183788210262,-24.222237543829134,67.12797408211564,-2.195261062423953,256.054957592581,71.75470103793076
191,-7.917122035378535,-255.5262947233204,-14.025899570843771,-24.09458405745153,67.95955520657081,-2.2137784298380656,256.0451308682934,72.50173725587219
192,-7.962848078620092,-255.51434894013155,-13.986844840616678,-23.922183241650014,68.7148401448796,-2.2405732772475107,256.0327357916865,73.15824225543528
193,-8.00260130757237,-255.5002196973336,-13.940154974537917,-23.70614812771062,69.39862313880074,-2.2768604269602353,256.01762611206175,73.72977441046908
194,-8.03600193381153,-255.4837432118889,-13.886055274921324,-23.448436374959904,70.0158594980345,-2.3235114978366562,255.99964511449016,74.22243137728806
195,-8.062817825056166,-255.4647442003963,-13.824855580886773,-23.152010914644094,70.57153993931952,-2.381043046507951,255.97863343083293,74.6427700757325
196,-8.082960630725154,-255.44304783383618,-13.756945378762946,-22.820989408962962,71.07058546645952,-2.449615053245317,255.95444042949026,74.99774177797269
197,-8.096478509834196,-255.41849528805085,-13.682789069051568,-22.460769386493702,71.51776402564771,-2.52903947662326,255.9269390944609,75.29463915006728
198,-8.103546088761327,-255.39096254371168,-13.60292121684977,-22.078115289690757,71.91762835224688,-2.618798432485956,255.89604405634333,75.54105009213708
199,-8.104452378875086,-255.36038161074308,-13.517941959325764,-21.6811945927523,72.27447278138243,-2.718071274039281,255.86173197947775,75.7448119131499
200,-8.099587524504324,-255.32676278006326,-13.428513101237108,-21.279552680034328,72.59230554394158,-2.8257695557380624,255.82406296044792,75.91395901953896
201,-8.089429376753017,-255.29021611489773,-13.3353556541812,-20.884020117855545,72.8748323521607,-2.940578663387267,255.78320121982554,76.05665797661388
202,-8.07453084459495,-255.25097033752814,-13.239249492775587,-20.5065508693951,73.12544696730752,-3.061004801880603,255.73943331079192,76.18112542136478
203,-8.05550866813291,-255.20938747121104,-13.141035285129986,-20.159995268340886,73.34722494056626,-3.185425983484495,255.6931822415636,76.29552661325229
204,-8.033033809767122,-255.16597193418912,-13.041618016365986,-19.8578164606084,73.54291773742132,-3.3121455930459334,255.64501619445295,76.40785503765015
205,-8.007823270901918,-255.12137320718443,-12.94197063338916,-19.613762862093022,73.714945801494,-3.439447003156177,255.59565090030063,76.52579600790051
206,-7.980632881253112,-255.07638168933798,-12.843135992174451,-19.441511462353464,73.86539051987413,-3.5656475774295466,255.5459451960342,76.65657926931232
207,-7.9522504424807785,-255.0319178857487,-12.746225496650244,-19.35429731141403,73.9959862454207,-3.6891502704491215,255.4968898257236,76.806826932428
208,-7.923488572900115,-254.98901556991103,-12.652413335483228,-19.364543361916517,74.10811431322796,-3.8084909798529747,255.44959006832877,76.98240356131626
209,-7.895176771498936,-254.94879989554968,-12.562925731809171,-19.483502422812723,74.20280129391716,-3.9223798837135075,255.40524313420528,77.18827500176891
210,-7.86815255104777,-254.9124614489819,-12.479025031107504,-19.72092002271815,74.28072361539749,-4.029735203709844,255.36511131644457,77.42838177757774
211,-7.843251781991473,-254.88122697617757,-12.401988842714184,-20.084724336754494,74.34222027524599,-4.129708149026227,255.33049165163374,77.70553189314863
212,-7.821298458682923,-254.85632721123744,-12.333084831495992,-20.580747732230012,74.38731478567149,-4.221698211572178,255.30268255534128,78.02131693270312
213,-7.803093957490488,-254.83896206243517,-12.273542046846556,-21.212484303155527,74.41574686366026,-4.305358481383619,255.2829477333802,78.37605465791596
214,-7.789405675579166,-254.83026341947976,-12.224519862524245,-21.980888917976976,74.4270137892207,-4.380591163653169,255.2724776759892,78.76876097095341
215,-7.780954872010971,-254.83125599988944,-12.187075795159393,-22.884225337113556,74.42042083156313,-4.447533933376059,255.27234919735218,79.1971540440085
216,-7.778403585490498,-254.84281692298595,-12.162133768551694,-23.917973140912945,74.39513965605842,-4.506538151224182,255.28348376236528,79.65769337975628
217,-7.782340577052895,-254.86563506948522,-12.150454694512952,-25.074804740679994,74.35027313023835,-4.558140311570968,255.30660572184053,80.14565627575323
218,-7.793266290997337,-254.900171739452,-12.152611296311468,-26.34464393179935,74.28492444852948,-4.603028378649999,255.3422020307223,80.65525342849512
219,-7.811576920940044,-254.94662461963426,-12.1689687842072,-27.714815839971784,74.19826805261505,-4.642004810259227,255.39048550690396,81.17978418820977
220,-7.837547900530561,-255.0048975030128,-12.199672452557227,-29.17029460519393,74.08961948999347,-4.675948005435861,255.4513640998376,81.71183032032827
221,-7.871317497428543,-255.07457840125548,-12.244642752755393,-30.694050026206693,73.95850115101588,-4.705773648800841,255.52441882015353,82.2434851536058
222,-7.912871599859679,-255.1549285252283,-12.303578049372351,-32.26748822876458,73.80470081070371,-4.732397041774866,255.6088928084706,82.76661287679077
223,-7.962031121083117,-255.24488409601244,-12.375965038857062,-33.87097490852637,73.62832016931398,-4.756697139852914,255.70369350655864,83.27313070427108
224,-8.018443490679156,-255.34307221713894,-12.461096435202801,-35.484423485188515,73.429811162281,-4.779482761977205,255.80740915263132,83.75530482321925
225,-8.081579315882143,-255.44784118684015,-12.558094777522479,-37.08792516847072,73.20999859968128,-4.801461307264632,255.91833994333223,84.20604952042132
226,-8.1507346564657,-255.55730468403166,-12.665940323781395,-38.662393972596824,72.97008855309937,-4.823210227662341,256.03454322577716,84.61921771956594
227,-8.225038806026859,-255.66939826414094,-12.783500520263104,-40.190197495524274,72.71166273758881,-4.845151420741095,256.15389106853314,84.98987047534136
228,-8.30346715984951,-255.78194567141912,-12.909558718761936,-41.655744006075246,72.43665988617892,-4.867528687218024,256.274137639838,85.31451294839997
229,-8.384858592905362,-255.892731765174,-13.042840405724906,-43.04599806269581,72.14734570953256,-4.890388525706328,256.3929931353087,85.59128512700926
230,-8.467936702531956,-255.99957843885633,-13.182035893522617,-44.35090034528502,71.84627338714726,-4.913564798045403,256.5082006054177,85.82009705263528
231,-8.551334289972885,-256.10041975126427,-13.325819085277947,-45.56367231234792,71.53623664250635,-4.936668089333064,256.61761190176406,86.00270048934385
232,-8.633620511728397,-256.19337254693136,-13.472862535964829,-46.680992315904234,71.22021740432444,-4.9590808058115785,256.719259047616,86.14269177834129
233,-8.71333012879889,-256.2767991142643,-13.621849510145609,-47.703036465031104,70.90132993720133,-4.979959133242212,256.81141763036294,86.24544387838499
234,-8.788994174651402,-256.34935891516915,-13.77148395635647,-48.633384314923354,70.58276315813207,-4.998242863843216,256.89265930203686,86.317969021547
235,-8.859171208406707,-256.4100471032853,-13.92049927216103,-49.47879584456259,70.26772264814265,-5.012673760466757,256.9618911445459,86.36871667879862
236,-8.92247826742381,-256.4582184044432,-14.067666590306587,-50.248871705251865,69.95937367454876,-5.021822595176873,257.0183804978925,86.40731436534324
237,-8.977620778322011,-256.49359591160237,-14.211803234931113,-50.95561305725225,69.66078643067534,-5.0241243779816065,257.0617648232131,86.44426107016812
238,-9.023420909820132,-256.51626533499655,-14.351781959464107,-51.612900379641275,69.37488469533152,-5.017920706329053,257.092047160559,86.49058472932384
239,-9.058843940266414,-256.5266560757006,-14.486541499591024,-52.235912608606114,69.10439915519348,-5.0015077172304485,257.10957856148053,86.55747623711522
240,-9.083022111061707,-256.5255110117885,-14.615098869334583,-52.840509141781894,68.8518266448989,-4.973187865079795,257.11502938242296,86.65591313402012
241,-9.095275271013257,-256.5138470876916,-14.736563725033728,-53.442597904028624,68.61939653553107,-4.931323673182153,257.10935150990133,86.79628647399959
242,-9.095127526348788,-256.49290880465236,-14.850154919282062,-54.05751288023519,68.40904549055132,-4.874391640893204,257.0937335772886,86.98804453035966
243,-9.08231915644971,-256.4641166661648,-14.955218941549209,-54.699424150289346,68.22240181223243,-4.801034533395295,257.0695511645562,87.23936685793065
244,-9.056813243438835,-256.429012589813,-15.051249376033809,-55.380802262543014,68.06078053953746,-4.710110306628711,257.03831390456133,87.55688156925251
245,-9.01879676956156,-256.38920424218446,-15.137906064912418,-56.111956551496576,67.92519023144214,-4.600735985281797,257.0016113521385,87.94543730323969
246,-8.968676277580668,-256.3463101943859,-15.215032521682916,-56.90066368269125,67.81635192260667,-4.472324981510423,256.9610594187035,88.40793918631314
247,-8.907068456044561,-256.30190776300793,-15.282670247867983,-57.75189837023394,67.73473005341941,-4.324616609068018,256.91824915876185,88.94525513280664
248,-8.834786171190364,-256.25748535336464,-15.341068848119013,-58.667673072583916,67.68057427535373,-4.157696856485352,256.87469966646466,89.55619523017636
249,-8.752820589802011,-256.21440093808235,-15.39069113625316,-59.646987925989606,67.65397001598993,-3.9720097832825623,256.831816678729,90.2375629957596
250,-8.662320166782008,-256.1738479431155,-15.432212682866789,-60.685886781552185,67.65489473437253,-3.7683591637070983,256.7908581409422,90.98427342519136
251,-8.564567341118945,-256.1368293874955,-15.466515374363578,-61.7776105434917,67.68327608040995,-3.5479002229528582,256.75290757558827,91.78952944531987
252,-8.460953715870902,-256.1041407356548,-15.494674558994701,-62.91283547233597,67.73904778452078,-3.3121215307145704,256.7188557050753,92.64504596365292
253,-8.352954336540177,-256.07636152594455,-15.517939410022796,-64.0799818830016,67.82219906625878,-3.062817377058163,256.68939038324424,93.54130931076702
254,-8.242101563422311,-256.05385535413853,-15.53770638661103,-65.2655776847173,67.93281365285151,-2.8020512581644774,256.66499441747453,94.46785948909935
255,-8.129959020211167,-256.03677726508647,-15.555486125095355,-66.45466128629413,68.0710950947951,-2.532111427189212,256.6459503661647,95.4135831385754
256,-8.018096114555254,-256.02508719958865,-15.572864606399591,-67.63120924294283,68.23737586162059,-2.2554597989130043,256.63235102357726,96.36700626806729
257,-7.908063566459519,-256.018567995086,-15.591459818169241,-68.77857531159795,68.43210860391086,-1.974675790984155,256.624114177865,97.31657729554404
258,-7.801370258778172,-256.01684655627605,-15.612875272749982,-69.87992899356863,68.65583895690673,-1.6923968862143866,256.62100035182743,98.25093256093608
259,-7.699461624928452,-256.01941706231287,-15.638651809689097,-70.91868297667912,68.9091603761695,-1.4112578026639484,256.62263248897085,99.1591381180798
260,-7.603699738768228,-256.0256653087322,-15.670219348465224,-71.87890009438487,69.19265275119403,-1.1338301783504026,256.62851679324837,100.03090325587456
261,-7.515345209300449,-256.03489345155305,-15.708850685278662,-72.74567152538319,69.50680786307532,-0.8625645947926783,256.6380641251074,100.85676281409324
262,-7.435540858688154,-256.04634456171874,-15.755619813365104,-73.5054589812285,69.85194596888873,-0.5997365449694331,256.6506115166789,101.62822684258462
263,-7.365297015425868,-256.0592265247629,-15.811367339079599,-74.14639458151235,70.22812871027796,-0.34739762271626295,256.6654434964821,102.33789737662175
264,-7.305478177339276,-256.072734912833,-15.876675265195487,-74.65853305786769,70.63507403071362,-0.10733286348502474,256.6818129861418,102.97955302793397
265,-7.256790856334659,-256.08607448637935,-15.95185278653758,-75.0340519691738,71.07207882761404,0.11897509406869128,256.69896152661244,103.54820279413964
266,-7.219772620039505,-256.09847895598557,-16.03693395897845,-75.26739684649097,71.53795469900184,0.33037446099060597,256.7161385236086,104.04011106957167
267,-7.194782654321355,-256.10922860196104,-16.131687293097716,-75.35536965709493,72.03098142280079,0.526064752243123,256.73261912859107,104.45279636589422
268,-7.181994475298812,-256.1176653484612,-16.235636534979133,-75.29716064929518,72.5488817938857,0.7056085053625906,256.7477203309507,104.78500673879343
269,-7.181391578850779,-256.12320492304946,-16.34809117659837,-75.09432538898561,73.08882017848553,0.8689334432716354,256.7608148311161,105.03667529752836
270,-7.192766782772867,-256.1253458330081,-16.468184661411982,-74.75071042903538,73.64742564478688,1.016324323383716,256.77134232695977,105.20885930822006
271,-7.215725881361031,-256.12367512023445,-16.59491784886687,-74.27233237028928,74.22083887677148,1.1484039807030224,256.77881804479733,105.30366619661818
272,-7.249696097242958,-256.11787122248614,-16.727205085943,-73.66721594979427,74.80478046645582,1.2661035178410769,256.782838690747,105.32416924028848
273,-7.293939671791602,-256.1077046519013,-16.863920261728172,-72.94519718586938,75.39463682487678,1.370622125632126,256.78308637491324,105.27431502847575
274,-7.347572668607782,-256.0930374149641,-17.00394052048288,-72.1176975700795,75.98555900649491,1.4633775357070726,256.7793312829859,105.15882400498032
275,-7.409588580266752,-256.0738220412533,-17.146185778600763,-71.1974749466821,76.57256926450525,1.5459485665908896,256.77143382907906,104.9830847349617
276,-7.478885709540703,-256.0501008276915,-17.28965268056785,-70.19835621962815,77.15067011846152,1.6200116314680433,256.75934677807703,104.75304205444239
277,-7.554296797870012,-256.02200555259947,-17.4334420735124,-69.1349565413368,77.71495104342627,1.687273430656025,256.743117488647,104.47507903982397
278,-7.6346192147226635,-255.9897575140069,-17.576779488258364,-68.0223893202791,78.26068851644023,1.7494023299735448,256.72289004960135,104.15589283782452
279,-7.71864422502442,-255.9536673569841,-17.719028490499323,-66.87597135138871,78.78343603289747,1.807961099007105,256.6989067212312,103.80236486924147
280,-7.805184288761156,-255.91413390937478,-17.859697097993813,-65.71092766714833,79.27910173123921,1.8643437436589627,256.67150787991096,103.42142671747476
281,-7.893097832345444,-255.87164122973974,-17.998437721886255,-64.54210125182418,79.7440122662797,1.9197191178778656,256.6411296776408,103.01992395639216
282,-7.981311278096858,-255.8267532252758,-18.135041214792636,-63.38367333232747,80.17496238707056,1.9749838214983921,256.608298798824,102.60448099461674
283,-8.068838224718652,-255.78010539578747,-18.269425566075814,-62.24890026173592,80.56925024090373,2.030726546312214,256.5736238952628,102.18137047819542
284,-8.154795613535759,-255.73239341982858,-18.401619708783073,-61.14987286142696,80.92469879799631,2.087205509993643,256.5377834356569,101.75639083137499
285,-8.23841665974238,-255.68435841315429,-18.53174299682331,-60.097303530884695,81.23966409192822,2.1443399619393557,256.50150982785834,101.33475525381985
286,-8.319060344024855,-255.6367688085439,-18.659981200902923,-59.10034570983469,81.51303127344083,2.201716030208289,256.46556981427807,100.92099514315835
287,-8.396217296381224,-255.5903989790923,-18.78656015960895,-58.16644969488113,81.74419975510449,2.2586064825145367,256.430741336464,100.51888064571875
288,-8.469511911257127,-255.54600496932056,-18.91171831874426,-57.301258602177334,81.93305892099124,2.3140033774355624,256.3977873148328,100.13136094701129
289,-8.538700541529423,-255.50429804094898,-19.035679311584893,-56.508548432536124,82.07995597741144,2.366662137514444,256.36742712822905,99.76052699047965
290,-8.603665717779961,-255.46591721217382,-19.158625617140363,-55.79021646082629,82.1856575640753,2.4151552558177345,256.3403070481536,99.40759942505011
291,-8.664406554998346,-255.4314024717254,-19.28067426138383,-55.146322097876315,82.25130675280055,2.4579335607901847,256.3169713898471,99.07294449343503
292,-8.721025742652259,-255.40117066770947,-19.401855473299584,-54.57518357166973,82.27837702826915,2.493392661530672,256.2978364657302,98.7561200652125
293,-8.773713677682467,-255.37549607426266,-19.522095138611217,-54.07353207745632,82.26862477474612,2.519941936875081,256.2831694284687,98.45595301319761
294,-8.822730399380417,-255.3544973634385,-19.641201802252436,-53.636722545402435,82.22404169360624,2.536073323030017,256.27307380928806,98.17064769995247
295,-8.868386032145759,-255.3381322526884,-19.758858844618942,-53.25899714389639,82.14680843008338,2.5404272378707597,256.26748309006695,97.89792361950069
296,-8.911020453038319,-255.3262005318467,-19.874622277625324,-52.9337943897921,82.0392504464736,2.531853221353371,256.26616306695587,97.63517834864274
297,-8.95098295824276,-255.31835556371348,-19.987924391174445,-52.6540935012087,81.90379680977298,2.5094632270207438,256.26872313905784,97.37966998558936
298,-8.988612833912969,-255.31412376957908,-20.09808329112072,-52.41278054777969,81.74294208482583,2.472675924603672,256.27463606394,97.12871127464551
299,-9.024221812614606,-255.312931091925,-20.20431824061949,-52.20302019684229,81.55921101209474,2.4212507901653506,256.28326519690506,96.87986577530194
300,-9.058079319257036,-255.31413494884944,-20.30577059420234,-52.018614680542214,81.35512517828876,2.355311096346824,256.2938977433133,96.63113492582292
301,-9.090401267851227,-255.317059726097,-20.401529918018678,-51.85433033079031,81.13317050116902,2.2753551687741234,256.3057820670641,96.38112387875678
302,-9.121343032715652,-255.3210334593044,-20.490664605467067,-51.70617196746827,80.8957640961922,2.1822554920959734,256.3181666803064,96.12917377569073
303,-9.150996967904083,-255.32542322112727,-20.57225597792915,-51.57158686985147,80.64521908390338,2.0772454623080097,256.33033836832107,95.87544895446118
304,-9.179394379879415,-255.32966696067828,-20.645434583872927,-51.449583185973694,80.38370626300184,1.9618937904274516,256.34165709661403,95.62096967457266
305,-9.206511284742225,-255.33330003955524,-20.709417238711215,-51.34075241242837,80.11321235097137,1.83806677135316,256.35158580750783,95.36758434554667
306,-9.232276851932854,-255.33597523817795,-20.763543287919074,-51.24719174075234,79.83549558197949,1.707878895742392,256.3597137200769,95.11787972935126
307,-9.256583326923279,-255.33747543994596,-20.807308568036547,-51.17232909522351,79.55204067142407,1.5736326887459287,256.3657721744642,94.875032711485
308,-9.279296418831205,-255.33771860365727,-20.84039550796504,-51.12066084818946,79.26401631501365,1.4377492495228394,256.36964246695686,94.64261238901605
309,-9.300265463413345,-255.33675513640478,-20.862697740692706,-51.097418680820766,78.97223928501475,1.3026916882468054,256.3713556266522,94.42434573941628
310,-9.31933296467174,-255.33475837716185,-20.874337595830635,-51.108187111379394,78.67714959638415,1.1708843841473071,256.37108468925817,94.22386337788701
311,-9.33634334457091,-255.3320094266051,-20.875675126005753,-51.15849625529129,78.37880096658084,1.044631560051392,256.3691305787315,94.04444340924769
312,-9.351150931933946,-255.32887784403465,-20.86730798779901,-51.253415081635055,78.07686986763919,0.9260389613967673,256.3659030582468,93.88877096479558
313,-9.363627397650285,-255.32579975734015,-20.850062341094716,-51.39716880475663,77.77068503545857,0.8169424066248401,256.3618983192945,93.75872888252962
314,-9.373668928368074,-255.32325479284782,-20.824975557411552,-51.592800508702496,77.45927762408374,0.718846681265873,256.357674698299,93.6552316286661
315,-9.38120335498074,-255.32174302301834,-20.793271743106985,-51.841892406982936,77.1414505280174,0.6328777176193677,256.3538278174423,93.57811060500543
316,-9.386197194196043,-255.32176287060472,-20.756331027742032,-52.14435721192608,76.81586393172807,0.5597502358687603,256.3509661717185,93.52605506860496
317,-9.388662195759697,-255.32379055824396,-20.715653502208273,-52.49830572107672,76.48113298282261,0.499752039373516,256.3496878142506,93.49660948224148
318,-9.388660684666634,-255.3282612567523,-20.67281879349336,-52.89999337619957,76.13593265827467,0.45274506608415127,256.35055835252757,93.48622546986714
319,-9.38630889063418,-255.33555169864817,-20.62944259156142,-53.34384628813893,75.77910442324556,0.4181822805670517,256.3540901041936,93.49036473333427
320,-9.381777561285444,-255.3459638764125,-20.587131907951107,-53.82256579753741,75.40975919589,0.3951386954018303,256.3607221547416,93.5036481973285
321,-9.375289360272486,-255.35970961498475,-20.54744119356091,-54.32730954248923,75.02737141928421,0.3823542849232538,256.3708012635663,93.52004601686599
322,-9.367112800463259,-255.3768962160716,-20.51183142675034,-54.847945585267226,74.6318596261749,0.3782862819043969,256.3845639786119,93.53310250534565
323,-9.357552765020678,-255.39751388157163,-20.4816338775216,-55.37337387649313,74.223649656045,0.38116830807870505,256.4021208059259,93.53618915439216
324,-9.346938014743664,-255.42142610853665,-20.458019660425315,-55.89190599524749,73.80371757653813,0.38907395461038574,256.42344372858656,93.5227775568113
325,-9.335606395545016,-255.44836458521667,-20.441975646920103,-56.39168988259797,73.37361035525343,0.39998271991888146,256.4483586725246,93.48672229598321
326,-9.323888668022533,-255.47793018639675,-20.434286934941944,-56.86116171252438,72.93544339715925,0.41184648955827297,256.476544560587,93.4225419768612
327,-9.312091982250612,-255.50960137834207,-20.435525843875684,-57.2895028673055,72.49187511923346,0.42265486964616666,256.50754029102603,93.32568485918893
328,-9.300484097999226,-255.54275068036674,-20.446047238017357,-57.66707701188291,72.04605967564676,0.4304976391650372,256.54076030111474,93.19276437763783
329,-9.289279559780063,-255.5766688800281,-20.46598985317299,-57.98582120110207,71.60157973921913,0.43362249719868573,256.5755184201129,93.02174961969965
330,-9.27862910104208,-255.61059566439133,-20.495283247401048,-58.239566290140516,71.16236191291078,0.43048632065404796,256.6110586812357,92.81209698158939
331,-9.26861342976254,-255.64375445281917,-20.533660029507484,-58.424265828833406,70.73257791563232,0.41979838579313616,256.64659088712114,92.56481197627038
332,-9.259242204699826,-255.67538867783338,-20.580673026879975,-58.538118913064814,70.31653516771985,0.4005543836730828,256.6813281766805,92.28243449929775
333,-9.250458541762884,-255.70479665516513,-20.63571686044766,-58.58158055154439,69.9185607747273,0.3720604696166605,256.7145237066542,91.96894640831847
334,-9.242148875551534,-255.73136252983198,-20.6980529660865,-58.55726204522857,69.54288311279083,0.3339469690856774,256.7455038566932,91.62960635541123
335,-9.234157475772003,-255.7545814688918,-20.76683667080456,-58.469732539130945,69.1935151789917,0.28617172101617777,256.7736959993369,91.2707225592535
336,-9.226304446477391,-255.77407805112318,-20.841144808851514,-58.32524019216931,68.87414357039644,0.22901339556840722,256.79864963027404,90.89937880471045
337,-9.218405716338657,-255.78961744899516,-20.920002616649104,-58.1313764493641,68.58802647144078,0.16305547529508402,256.82005030806147,90.52313185302029
338,-9.210293413242926,-255.80110941573471,-21.002409060003025,-57.89670918854217,68.3379034645887,0.08916191247555762,256.83772629762024,90.14969940059306
339,-9.201835069534072,-255.80860532104546,-21.087360091890094,-57.63040998853623,68.12591938576712,0.008445724277905946,256.85164807007146,89.78665680253492
340,-9.192950235320264,-255.81228863480615,-21.17386956211187,-57.341897807803555,67.95356382458266,-0.07776808512620612,256.8619209876232,89.44115829806871
341,-9.183623227610529,-255.81245945513524,-21.26098763930361,-57.04051669615917,67.82162723098254,-0.16798388009076423,256.86877171357986,89.11969495322448
342,-9.173910939168518,-255.8095139597005,-21.34781666426559,-56.735259665595976,67.73017399655225,-0.2605796917587091,256.8725291796189,88.82789757307063
343,-9.163944955423672,-255.80391995936074,-21.433524356871217,-56.4345453285293,67.67853242484148,-0.3538531959345421,256.87360125313455,88.57038898451596
344,-9.153927726322848,-255.79618994951116,-21.517354368468457,-56.14604896451354,67.66530126903443,-0.4460681811518266,256.8724484870707,88.35068675213768
345,-9.144123149488685,-255.7868531690188,-21.59863440315197,-55.876585659230514,67.68837251140958,-0.5355004093586379,256.86955649059536,88.171154784588
346,-9.134842481156737,-255.77642824940082,-21.676782431898783,-55.63204026241531,67.7449702208724,-0.6204818719106859,256.8654085770288,88.03300048454216
347,-9.126426825535903,-255.7653980953947,-21.751311675886114,-55.417337156474524,67.83170552580142,-0.6994425181619147,256.86046042838996,87.93631301480296
348,-9.11922748935014,-255.75418860360753,-21.821834916383917,-55.23644201923467,67.94464783137161,-0.7709485641359541,256.85511847265883,87.88013767236015
349,-9.113585344027127,-255.74315256518594,-21.888068371486163,-55.09238753804005,68.07941226075869,-0.8337364814641242,256.84972337799695,87.86258096139811
350,-9.109810217684817,-255.73255958681207,-21.949835042384205,-54.98731504220725,68.23126283101624,-0.8867417486493886,256.8445395255529,87.88094046574652
351,-9.108161305690857,-255.7225922786865,-22.00706721651932,-54.92252411003347,68.39523009787793,-0.9291214714945571,256.83975071967586,87.93185295521971
352,-9.108829538646761,-255.71334852084865,-22.059807757103965,-54.89852240397255,68.566241012597,-0.9602701117816977,256.83546195209004,88.01145341203411
353,-9.111922714840116,-255.7048493581437,-22.108209861176263,-54.91506837977587,68.73925766434519,-0.979827826825402,256.8317067759652,88.11553699437948
354,-9.117454038401663,-255.69705183174545,-22.15253508461997,-54.97120018659081,68.90942058184997,-0.9876812797360898,256.8284596072495,88.23971553223312
355,-9.125334540621056,-255.68986571784436,-22.193149580256197,-55.06524514575094,69.07219148787314,-0.983957171745335,256.8256519396569,88.37956016868843
356,-9.13536967277914,-255.683172757297,-22.23051858900387,-55.19480581751727,69.22348997404005,-0.9690091293314712,256.82319107361803,88.53072242002294
357,-9.147260128848437,-255.67684664414372,-22.265199155415985,-55.3567209312546,69.35981857891045,-0.9433989132033878,256.82097962856716,88.68902735826869
358,-9.160606727300918,-255.67077190607642,-22.297830819428427,-55.54700232578251,69.47837122029458,-0.9078731636176719,256.81893394421195,88.85053480438091
359,-9.174919018431847,-255.66485992367112,-22.329123826232024,-55.760752335237264,69.57712076796491,-0.8633370318591447,256.81699956308506,89.0115671708685
360,-9.189627208365692,-255.65906068405312,-22.35984438391417,-55.992069458666066,69.65488258434868,-0.8108260766306843,256.815162327988,89.1687055907168
361,-9.204096954020834,-255.65336936166065,-22.39079680264677,-56.233953302147455,69.71135195640083,-0.7514777570172131,256.813454147977,89.31875886178939
362,-9.217646520968236,-255.6478273651895,-22.42280292189608,-56.478222291873806,69.74711440680278,-0.6865037651970985,256.81195308237585,89.45871220996543
363,-9.229565702103574,-255.64251800313946,-22.456679788335688,-56.71545915479596,69.76362885370948,-0.6171643184617946,256.810777955231,89.58566465939285
364,-9.239135829584368,-255.6375573475949,-22.493216770603407,-56.934999371610395,69.76318442535073,-0.5447453434282128,256.81007816024464,89.69676468504996
365,-9.24565024926529,-255.63308121542826,-22.533153156752828,-57.12497660966217,69.74883239241623,-0.47053922636108814,256.8100196443408,89.78915372946557
366,-9.248434785387541,-255.6292294467757,-22.577157003957687,-57.27243658151646,69.72429516037948,-0.3958295155782894,256.8107682969403,89.85992613897356
367,-9.24686794528432,-255.62612882611057,-22.62580582223519,-57.36352699587372,69.69385457415885,-0.32187969078181494,256.81247212575016,89.90611222474793
368,-9.240400807505857,-255.62387605991955,-22.679569648745538,-57.38376651672458,69.66222195107125,-0.24992585658287197,256.8152436719374,89.92468864756951
369,-9.228576619286105,-255.6225221996279,-22.738797125863275,-57.31839028011946,69.63439236084884,-0.18117294323755992,256.8191441007783,89.91261743427684
370,-9.21105002846055,-255.6220597611364,-22.80370521103649,-57.152763977388204,69.61548583347128,-0.11679369363011004,256.82417026553696,89.86691199606076
371,-9.187605568862802,-255.62241357081191,-22.874373080944824,-56.872853263587515,69.61057845029495,-0.05792940069133639,256.8302458041354,89.78472582472236
372,-9.158174591113967,-255.62343612206072,-22.950740662417786,-56.465730701335886,69.62452662792701,-0.005691091855512644,256.83721705385443,89.66345728490558
373,-9.122849424378682,-255.62490793137354,-23.03261204952099,-55.9200989060465,69.66178829774998,0.03884027309819917,256.8448542417299,89.50086223598753
374,-9.081893291889596,-255.62654296258225,-23.119663914305256,-55.226806205090845,69.72624511507655,0.07461595574862974,256.8528579644806,89.29516522182665
375,-9.035744500819755,-255.62799867953075,-23.211458896126768,-54.37933005919495,69.82103029099963,0.10062506417440957,256.86087045507367,89.04515972662567
376,-8.985013787693454,-255.6288898624162,-23.307463706012577,-53.374203775537474,69.9483670553798,0.115904425636884,256.86849070585885,88.7502885074433
377,-8.930474387859125,-255.62880514199767,-23.40707121350992,-52.21136369789376,70.10942299446005,0.1195531094817864,256.8752923294591,88.41069620883032
378,-8.873045167854974,-255.62732527601062,-23.509625290613666,-50.89439705020684,70.30418542182369,0.11075164143394806,256.8808431004133,88.02724822268958
379,-8.813767721767467,-255.62404237519854,-23.61444693684596,-49.43067478117156,70.53136250070608,0.08878561042607813,256.88472530468135,87.60151194940752
380,-8.753778572301739,-255.61857942951968,-23.72086020863708,-47.83135884458306,70.78831415080201,0.05307301481757533,256.886556174684,87.1356991421322
381,-8.694277615114368,-255.61060952244682,-23.828216552750032,-46.111279019872605,71.07101600803995,0.003194279157698994,256.8860077290079,86.63257075463021
382,-8.63649386248138,-255.59987407839208,-23.93591623468202,-44.28868026955649,71.3740589565459,-0.0610765895164578,256.8828252955474,86.09530847326475
383,-8.581649537740244,-255.58619943205935,-24.0434257491655,-42.38484740468012,71.690686037393,-0.1397416566753939,256.8768439551969,85.52735966796622
384,-8.530923710161685,-255.56951097803062,-24.15029045345799,-40.423619201361106,72.01286785391302,-0.23255175851251988,256.86800214662014,84.93226465147237
385,-8.485416843636392,-255.54984414179216,-24.256142079007546,-38.43080886198832,72.33141691884282,-0.33898456384667564,256.85635169799923,84.31347674582948
386,-8.446117690420177,-255.52735140777807,-24.360701108911893,-36.43355167201179,72.63614068337733,-0.45823019904836754,256.84206357856243,83.67418660977185
387,-8.413873833202317,-255.50230469401833,-24.46377421618335,-34.45960371912205,72.91603219761336,-0.5891863094972022,256.82542873220194,83.01716249251395
388,-8.38936695173581,-255.47509251451757,-24.565247113522336,-32.536617489672714,73.15949641682693,-0.7304639350635102,256.80685351335103,82.34461748692524
389,-8.373093652055314,-255.44621159120257,-24.665073344504467,-30.691420953182597,73.35460905642393,-0.8804049794753325,256.7868494726502,81.65811345988554
390,-8.365352472587544,-255.41625281077734,-24.763259753670894,-28.94932634253651,73.48940364665692,-1.0371114318890071,256.76601748248936,80.9585092401385
391,-8.36623749612721,-255.38588166608932,-24.859849560936993,-27.333493208680057,73.5521811383112,-1.1984859080966943,256.74502644504605,80.24595801723696
392,-8.37563884686281,-255.35581365542626,-24.95490408747879,-25.864367506793283,73.5318351470263,-1.3622825368661606,256.7245871617997,79.51995593853445
393,-8.393250165183296,-255.3267856004113,-25.04848422022914,-24.55921461578383,73.41818473704559,-1.5261667030788162,256.7054224231565,78.779440762702
394,-8.418582872280606,-255.29952441210781,-25.140632650618222,-23.431759588756673,73.20230555612828,-1.6877816328668855,256.6882349256592,78.02293630981296
395,-8.450986679015829,-255.27471531203204,-25.231357733719836,-22.491942903241867,72.87684918521948,-1.8448192636735965,256.6736750662017,77.24873550859309
396,-8.489675407518684,-255.25297174975378,-25.320619420859757,-21.745794812303682,72.4363398358544,-1.9950923567853263,256.6623108438883,76.45511223811081
397,-8.533756839805992,-255.23480917029593,-25.408317156421475,-21.195426316291165,71.87743713817117,-2.1366044947215244,256.6546019450852,75.64055005767105
398,-8.582265073742544,-255.2206243749208,-25.494279142931457,-20.839129961650503,71.19915389941339,-2.2676145500663893,256.6508796248596,74.80397451848658
399,-8.634193816548093,-255.21068159907776,-25.57825230366504,-20.671579323596998,70.40301855291801,-2.386692451418553,256.65133337420207,73.94497524358002
400,-8.688529128876516,-255.20510575471044,-25.659892718478314,-20.68411243116511,69.49317358422867,-2.4927635953522347,256.6560047390508,73.06400440629072
401,-8.744280222614899,-255.203882639267,-25.738757023792868,-20.865081918382185,68.47640336506072,-2.5851400108438587,256.6647880919259,72.16253954753981
402,-8.80050697893729,-255.20686533154924,-25.81429587846574,-21.200253643487663,67.3620873456155,-2.663537269444233,256.67743764096673,71.24320071595135
403,-8.856342993018147,-255.2137855396667,-25.885850913104786,-21.67323599833638,66.1620772650125,-2.728076991553078,256.6935795429089,70.30981454822991
404,-8.911013257033822,-255.22426844026762,-25.95265663159398,-22.265923971442774,64.89049975357231,-2.779275494352134,256.7127277740531,69.3674209372499
405,-8.963846017476447,-255.23784957580486,-26.013848625762797,-22.958944872197993,63.563488287924194,-2.818019644679086,256.7343024415696,68.42222115766789
406,-9.014278761057078,-255.2539925797775,-26.06847923683153,-23.7320959599907,62.19885094007223,-2.8455313873125165,256.75764940947164,67.48146959875322
407,-9.061858632406574,-255.2721068242466,-26.11554136518932,-24.564767448518793,60.815682857334714,-2.863322757659706,256.78206040521695,66.55331449718024
408,-9.106237922726097,-255.29156452519445,-26.15400037581718,-25.436346884742093,59.43393494916193,-2.873143441977,256.8067931506945,65.64659607947095
409,-9.14716565249349,-255.3117173115036,-26.182833013612864,-26.326602279661607,58.07395264460842,-2.8769230916649615,256.831091444101,64.77061296867461
410,-9.184476615847979,-255.33191258784893,-26.201071214630847,-27.216041399530766,56.75600044728123,-2.876710627632372,256.85420535715025,63.93486916651258
411,-9.218079370516506,-255.35151010127584,-26.20784803046063,-28.086243472770736,55.49978891800334,-2.8746126912601047,256.87541173340514,63.14881404116318
412,-9.247944485933388,-255.36989897578815,-26.20244272552645,-28.920157725717438,54.32402031412025,-2.8727332115819992,256.8940350105551,62.421586389369125
413,-9.274094072603805,-255.38651516309218,-26.184322357160227,-29.70236131973345,53.24596734865036,-2.873115792660539,256.9094680921774,61.76177102625993
414,-9.296593394563134,-255.40085884283786,-26.15317763909301,-30.41926815755111,52.28109673848518,-2.877690336712305,256.9211926256118,61.17717315898338
415,-9.315545188868164,-255.4125108955129,-26.108951486434794,-31.059280290262492,51.442746011850936,-2.8882250242336878,256.92879769096936,60.674612962420866
416,-9.331087031207499,-255.42114724549447,-26.051859182466615,-31.61287561913046,50.741859101784456,-2.906284444165214,256.9319956291041,60.259741128690806
417,-9.343391652163803,-255.42654968722874,-25.982399459530804,-32.07262911114464,50.18678403757682,-2.9331943145060095,256.93063357318346,59.93687608723331
418,-9.352669633208363,-255.42861188413514,-25.901355971923405,-32.43316924996217,49.783134706546775,-2.9700129141042284,256.92469932440224,59.7088648895358
419,-9.359173540726472,-255.42733969370875,-25.809788812927,-32.691076094649695,49.53371796777278,-3.0175090868723795,256.9143206745878,59.57697173404753
420,-9.36320237984445,-255.42284573767904,-25.7090160384878,-32.844731288209516,49.43852685336996,-3.0761464747183376,256.89975806130724,59.54079984996262
421,-9.365105274648817,-255.41533889947175,-25.600585642001082,-32.8941330199476,49.494799650432164,-3.1460735244930147,256.8813912475907,59.598253144040534
422,-9.365283445388679,-255.40510994655423,-25.48623895884819,-32.840690001391046,49.6971430013376,-3.2271188863373608,256.8597012891664,59.74554321434819
423,-9.364189760317409,-255.3925146863375,-25.36786687530707,-32.68700800857266,50.037714828874364,-3.318792119155652,256.8352493072687,59.97724511620779
424,-9.36232531727916,-255.3779560047178,-25.247460395194743,-32.43668076738299,50.50646023620931,-3.420290065874759,256.8086535466717,60.28640209538022
425,-9.360232655817454,-255.36186590284808,-25.12705718493922,-32.09409432889952,51.091391075403706,-3.530509681797593,256.7805659739425,60.664676055891654
426,-9.358485360736388,-255.3446884017681,-25.00868584368867,-31.66425104562341,51.77889815071366,-3.648068317443025,256.75164944019605,61.102537494009745
427,-9.357674028466555,-255.32686401086235,-24.89430988401495,-31.15261621686417,52.55408438664428,-3.7713323835272967,256.72255628738685,61.589486526478126
428,-9.358388835912322,-255.3088162951413,-24.785773627563987,-30.56498768342648,53.401107832023506,-3.89845496984028,256.6939091454783,62.11429568302759
429,-9.361199263040639,-255.29094087269476,-24.684752196395795,-29.907386230807415,54.303524905751566,-4.027422410340737,256.6662844729441,62.665265218915174
430,-9.366631833965199,-255.27359697926798,-24.592707391833912,-29.185962691996515,55.24462645096949,-4.156109068007082,256.64019917392113,63.23048254789467
431,-9.37514700775944,-255.2571015947028,-24.510850588203567,-28.406916305035704,56.207761498534104,-4.282338876401464,256.6161004313579,63.79807867368298
432,-9.387116535277121,-255.24172596982353,-24.440113082850075,-27.576418411353522,57.17664568095357,-4.403951538365586,256.5943586829212,64.35647589980195
433,-9.402802659884067,-255.22769416918948,-24.381123913199232,-26.700536132907178,58.13565259558633,-4.518870798100433,256.5752634066149,64.89462236024805
434,-9.422340436033233,-255.21518304311584,-24.334195127608563,-25.7851522471853,59.07008691001744,-4.625171896235156,256.55902117647565,65.40220990003175
435,-9.445724196884887,-255.20432300394742,-24.299314797617825,-24.835879954847314,59.9664377438845,-4.721145254045162,256.54575543009156,65.86987259248745
436,-9.4727989224554,-255.19519915345435,-24.276148412979826,-23.857974314061643,60.81261017290587,-4.805353667431817,256.53550758291425,66.28936384573917
437,-9.503257025616232,-255.1878525971878,-24.264049430931344,-22.856245335791566,61.5981319140689,-4.876680773104069,256.52823941363386,66.65371066995506
438,-9.536640880316407,-255.18228200903093,-24.262079511824766,-21.834980517182093,62.31433157191449,-4.934369144887559,256.52383683974597,66.95734414785245
439,-9.57235121322928,-255.1784455478219,-24.269038388029934,-20.797886384996566,62.95448437293027,-4.978046971797231,256.5221151776057,67.19620535685813
440,-9.609661244687553,-255.17626311397012,-24.283502563092377,-19.748059083969416,63.5139212125125,-5.00774280688321,256.5228257885599,67.36782596794697
441,-9.647736203409309,-255.17561879630586,-24.303871325500364,-18.687993132164696,63.99009720315701,-5.0238883365949505,256.52566379860616,67.47138267597956
442,-9.685657549610708,-255.17636326651945,-24.328417950056878,-17.619635359688854,64.38261676005352,-5.027309506557019,256.53027641732274,67.50772467363052
443,-9.722450951256087,-255.17831583129822,-24.355343456794884,-16.544488028359694,64.69321349827548,-5.019206676947796,256.53627127570564,67.47937363876251
444,-9.757116848804625,-255.1812658794766,-24.38283004704226,-15.463761529958312,64.92568472229651,-5.001124786012997,256.5432241982349,67.390496170547
445,-9.78866234847022,-255.1849736111898,-24.40909155576857,-14.378573250042814,65.08578194406108,-4.974914755038053,256.5506859924585,67.2468492520204
446,-9.816133143921371,-255.18917017968425,-24.432418967789413,-13.290185500384387,65.18106053175048,-4.94268753726091,256.55818815123484,67.05570005298108
447,-9.838644133372531,-255.1935576076686,-24.451219978409082,-12.20027210847652,65.22069314032146,-4.906762274449601,256.56524768461935,66.8257221197322
448,-9.855407398979077,-255.197808979041,-24.464052392005836,-11.11120048455274,65.21525293841798,-4.869609992146037,256.57137151705945,66.56687067802727
449,-9.86575629219042,-255.2015694694206,-24.469651655466482,-10.026313928656775,65.17647377883824,-4.833794207089126,256.5760609993664,66.2902403800366
450,-9.86916454435608,-255.20445884150362,-24.46695303156765,-8.950197729003307,65.11699525714647,-4.801909832994645,256.5788171722893,66.00790927717902
451,-9.86525961296933,-255.20607612912625,-24.455108921814897,-7.888912309111233,65.05010089434839,-4.776521887404283,256.57914752488205,65.73277294600084
452,-9.853829878177383,-255.20600728026375,-24.43350169669866,-6.850177316077048,64.98945732827475,-4.760105651027533,256.5765750353386,65.47837240266702
453,-9.834825750356686,-255.20383636820608,-24.401752117368282,-5.8434920832370105,64.94886141371568,-4.754990006868388,256.5706501104885,65.25871871719356
454,-9.808355115095083,-255.19916056064127,-24.359723142439826,-4.880180291973633,64.94200065933455,-4.76330563941185,256.56096560727957,65.08811621446938
455,-9.774673770659579,-255.1916084765872,-24.30751875169988,-3.9733497947339864,64.9822306448228,-4.786939595940856,256.54717455481074,64.98098497522454
456,-9.734171669553803,-255.18086101621844,-24.245477459087066,-3.1377622748522884,65.08237111530495,-4.827497394920839,256.5290096632505,64.95168213164435
457,-9.687355935000248,-255.1666733106866,-24.174160415121296,-2.3896114882196704,65.25452050489096,-4.886273434108073,256.5063032993467,65.01432029093763
458,-9.634831765799328,-255.14889616783114,-24.094334369119682,-1.7462130503442794,65.50988689539027,-4.964229982536465,256.4790063810703,65.18258045756299
459,-9.577282383373962,-255.12749532603266,-24.006950216014246,-1.2256129543642214,65.85863207572984,-5.061984605214436,256.4472046273123,65.46951623166842
460,-9.51544903889318,-255.10256695882785,-23.913118277243527,-0.8461261051264062,66.30972460601353,-5.179805469789372,256.41113076490075,65.88734598786317
461,-9.450111800298407,-255.07434813672396,-23.814081704482447,-0.6258199480364037,66.87079769837275,-5.317613603567995,256.37117156961955,66.44723025368873
462,-9.382071514894378,-255.04322131443615,-23.71118937697363,-0.5819614911398843,67.54800829443194,-5.47499084417485,256.32786896325945,67.15903258536241
463,-9.312133162579435,-255.00971240522125,-23.60586947608613,-0.7304483446805694,68.34589487628452,-5.651192031412236,256.2819148539152,68.03106381079876
464,-9.241090838251731,-254.97448263625995,-23.49960469783154,-1.0852455456182415,69.26723318710764,-5.845159955335046,256.23414001480535,69.0698114905527
465,-9.169714735078774,-254.93831501150444,-23.393909822052272,-1.6578497414070095,70.31289097674868,-6.05554167669081,256.1854979084758,70.27965869151218
466,-9.09874058226714,-254.90209661984696,-23.29031201927604,-2.456800800070992,71.48168487610991,-6.280705025179013,256.13704474483507,71.66259846613413
467,-9.028861925291988,-254.86679807642372,-23.190333845169107,-3.487258261908902,72.77024433228073,-6.51875434117575,256.08991706914884,73.21795259575748
468,-8.960725445745052,-254.83345109897508,-23.095478489763945,-4.750656556413632,74.1728891229965,-6.767544861370013,256.04530784861856,74.94210509687423
469,-8.894929290486425,-254.80312478667577,-23.007216649377316,-6.244449031008099,75.68152829750517,-7.024695553558839,256.00444156534337,76.82826263716753
470,-8.832024175850757,-254.7769008344717,-22.92697435639321,-7.961947108667892,77.28558937156446,-7.287600669292406,255.96854847777422,78.86625520881849
471,-8.772516841563954,-254.7558478064456,-22.85612110792284,-9.89225771960826,78.97198705004169,-7.553440798913585,255.93883809466894,81.04239092845874
472,-8.716875213336289,-254.74099461802462,-22.795957600314942,-12.020319657735401,80.72514050013704,-7.81919474104436,255.9164719182861,83.33937850179512
473,-8.665534399307173,-254.73330338766294,-22.747702366340995,-14.3270375469428,82.52704723025522,-8.081653921333492,255.90253551319557,85.73632968496348
474,-8.618902485281378,-254.73364181980008,-22.7124767639218,-16.789510417999278,84.35742003263019,-8.337441284626049,255.89800996595383,88.20885208234947
475,-8.577365157354274,-254.74275542208298,-22.69128813633,-19.381350312063176,86.19389129490463,-8.583036501346662,255.90374297850875,90.72923992043015
476,-8.541288538752733,-254.76124020202303,-22.68501145128428,-22.073084779063734,88.01228628658205,-8.81480901559182,255.9204202373404,93.26676705394905
477,-8.511020147911005,-254.78951688159282,-22.694370138866052,-24.832635624238545,89.78696382784945,-9.029059967606315,255.94853814858337,95.78808245761897
478,-8.486888317915092,-254.82780791253302,-22.719917027796388,-27.62586476666231,91.49121924093646,-9.222073377507863,255.98837930447957,98.25770403665702
479,-8.469200602609632,-254.87611861410548,-22.762016201935534,-30.417176622399797,93.09774096951395,-9.390176210696396,256.03999208574135,100.63860207375515
480,-8.458241640120796,-254.9342236382105,-22.82082641584011,-33.17016508127288,94.5791090402039,-9.529806095955042,256.10317567133956,102.89285936098591
481,-8.454270745270376,-255.00165972884506,-22.896286621541357,-35.84829199869684,95.90832089621661,-9.637584594413317,256.17747147697105,104.98239134331894
482,-8.457519232573473,-255.07772542868554,-22.988104207991704,-38.4155832164,97.05932825247291,-9.710393130844764,256.2621617260732,106.86970665238829
483,-8.468187192096694,-255.16148809448484,-23.095746626258823,-40.83732742967834,98.00756760446588,-9.745448150327464,256.35627556364335,108.51868635156835
484,-8.486439288708338,-255.2517983761327,-23.218437111268106,-43.080762639721755,98.73046687535134,-9.740371877100854,256.45860291462174,109.89535904665009
485,-8.512399296349013,-255.34731213670267,-23.35515528211316,-45.11573435417526,99.20791135980272,-9.69325525071262,256.5677161233929,110.96864867112036
486,-8.546143480744382,-255.44651954228422,-23.504643529561644,-46.91530909074565,99.4226535457844,-9.602710129363215,256.6819991909287,111.71107215329927
487,-8.587693319615711,-255.5477806735999,-23.665420125376958,-48.456326222094745,99.36065347592589,-9.467908600123868,256.79968407000945,112.09936527593939
488,-8.637008150272171,-255.64936650982273,-23.83579971358741,-49.71987105657981,99.01133897217132,-9.288608154419709,256.91889296219114,112.11501688434265
489,-8.693978194401906,-255.74950360683198,-24.013921269553695,-50.691652610590594,98.367778254199,-9.0651624771445,257.03768497989205,111.74469428553819
490,-8.758418205574216,-255.8464204391499,-24.19778293700425,-51.36227105378781,97.42676118141057,-8.79851850883919,257.1541051171717,110.98054627406728
491,-8.83006181064906,-255.93839335668082,-24.385282535327683,-51.727362434050384,96.18878937076448,-8.490201143264267,257.2662333906897,109.82037464567718
492,-8.908556497028494,-256.0237903798686,-24.574261999631954,-51.7876120333152,94.6579794772597,-8.142287383926172,257.37223222885405,108.26767008678299
493,-8.993459174777795,-256.1011114336121,-24.762553627467984,-51.548632472263826,92.84188759569679,-7.757372038227469,257.4703905239399,106.33151362314607
494,-9.084232341273509,-256.16902396701437,-24.94802590814915,-51.02070825581761,90.7512657088113,-7.338527107678788,257.55916310039794,104.02635001152174
495,-9.180241059666297,-256.2263932054851,-25.12862698876904,-50.21841451462256,88.3997631149743,-6.889256930455427,257.637204682353,101.3716442109287
496,-9.280751168183475,-256.27230655689954,-25.302424358191413,-49.160123833289255,85.80358668899953,-6.4134508087689275,257.7033977729886,98.39143605574981
497,-9.384929323019653,-256.3060919385927,-25.46763986531663,-47.86742073483823,82.98113368311274,-5.915334274716695,257.75687415729897,95.11381119450732
498,-9.49184561607651,-256.3273299633094,-25.622679577301952,-46.364448028076914,79.95260973630872,-5.399419372721581,257.7970299485026,91.57030806681306
499,-9.600479549606522,-256.33585999133584,-25.766158193595807,-44.6772123484315,76.73964311929974,-4.870453552323414,257.82353418486844,87.7952811447703
500,-9.709730011749826,-256.3317800742483,-25.89691777839134,-42.83287760452052,73.36490433327947,-4.3333661893437325,257.8363309984326,83.82524003488368
501,-9.818429535997323,-256.31544087580846,-26.014040544474327,-40.85907464474607,69.85173829737452,-3.793211505003233,257.83563541910826,79.6981825885899
502,-9.92536261636273,-256.28743378716666,-26.11685547815508,-38.78325330446301,66.22381469532299,-3.2551067542378016,257.8219229940618,75.45293813923598
503,-10.029287349791215,-256.2485736069411,-26.204938842392565,-36.632099172992085,62.50480071544986,-2.724164993420134,257.79591355884105,71.12853457036438
504,-10.128959317390214,-256.1998762629803,-26.27810896886577,-34.4310321944768,58.71805948923705,-2.205422441897914,257.75854962360694,66.76360036007485
505,-10.223156417270834,-256.14253206912105,-26.336416058908764,-32.203798065976486,54.886377044138186,-1.703761260431832,257.71096987520707,62.39581028216659
506,-10.3107032865419,-256.07787496635495,-26.38012780865265,-29.972156944767814,51.03172043476063,-1.223829306833333,257.6544782576974,58.061381212901736
507,-10.390494008269137,-256.0073482123411,-26.40971162710475,-27.755667902542793,47.17502966526207,-0.7699589847459442,257.59050910740183,53.79462249804581
508,-10.461512030862044,-255.93246716576115,-26.42581426533352,-25.571562497299215,43.33604579761746,-0.3460876283625782,257.52058901882884,49.62754354837319
509,-10.522846571135405,-255.85478014226527,-26.429239914247955,-23.434697238154023,39.53317707383519,0.04431803653606285,257.44629648990866,45.58951977897583
510,-10.573705084974765,-255.77582867724857,-26.420928064383705,-21.35757279819641,35.78340394042643,0.3983308927498267,257.3692207921065,41.70701679338756
511,-10.613421619545221,-255.6971088018626,-26.401932398367467,-19.350407480904444,32.102222713577,0.7136235979800934,257.29092178891807,38.00337197959813
512,-10.641461085180918,-255.62003502551957,-26.373401636752476,-17.421253254907423,28.503626560570726,0.988517803458662,257.2128924858861,34.498632507616925
513,-10.657419783621489,-255.54590854962188,-26.336562704649616,-15.576144018122404,25.00012176953588,1.222020465460516,257.1365258829659,31.20944899843154
514,-10.661022891302585,-255.47589084180865,-26.292706003666538,-13.819266994207982,21.602777023526723,1.413845428453196,257.0630872612462,28.14902457886267
515,-10.652119905415997,-255.4109832071194,-26.243172082851206,-12.15314885682612,18.321303437388902,1.5644186375999918,256.99369250669747,25.32711925560386
516,-10.6306791544585,-255.35201252667068,-26.18933869990851,-10.578848229926628,15.164163127434717,1.6748656230964838,256.9292925811902,22.75010919301679
517,-10.596782277537962,-255.29962296089153,-26.132607248697674,-9.096145912121136,12.138703687902696,1.7469803341501526,256.87066386790485,20.421099408045798
518,-10.55061917630647,-255.2542731669118,-26.07438779177436,-7.703724057191208,9.251314912184718,1.7831750105805089,256.8184038807687,18.340086753659154
519,-10.492483524280566,-255.21623845206454,-26.016082263273184,-6.399326193953074,6.507602491014603,1.7864115626426733,256.7729317149358,16.504168335095706
520,-10.422768624998547,-255.1856172136625,-25.95906551968738,-5.1798917945300005,3.9125715981447318,1.7601158466432094,256.7344925424544,14.907789306741073
521,-10.34196326968494,-255.1623409526696,-25.90466377396908,-4.041662147418266,1.4708116891446954,1.708077214370545,256.7031653764636,13.543023711812255
522,-10.250647187831511,-255.1461871327736,-25.85412984825823,-2.9802582016275454,-0.8133271325751725,1.6343367077362234,256.6788733025239,12.399882572079381
523,-10.14948565154509,-255.13679423549485,-25.80861494189219,-1.9907351578045027,-2.93557595347641,1.5430681652284695,256.66139548298906,11.466644325551046
524,-10.039222826307716,-255.13367848798376,-25.76913723221326,-1.0676220871238316,-4.8916160790139855,1.4384571543733278,256.6503804308246,10.730203277074022
525,-9.920673637626415,-255.13625180290686,-25.736548384337368,-0.20495703670772972,-6.676982696172209,1.324582906798826,256.64536019451674,10.176431445382022
526,-9.794714222353273,-255.1438404563644,-25.711499790924158,0.6036714594031045,-8.287008624726564,1.2053082854503505,256.6457651678168,9.790548041489942
527,-9.662271308779193,-255.15570406125622,-25.69441099363876,1.365066771638987,-9.716811521079162,1.0841823460359168,256.65093934189764,9.557489356618122
528,-9.52431099482424,-255.1710545529621,-25.68544303731244,2.0863433402048144,-10.961325876821949,0.9643593529082131,256.66015600930075,9.462270795937396
529,-9.381827386582113,-255.18907512475263,-25.684479248074524,2.774818843605929,-12.01537918715711,0.8485371857176754,256.6726341221963,9.49033251357994
530,-9.235831534762058,-255.20893920207888,-25.69111516994894,3.437879137407587,-12.873809666487913,0.7389169250325645,256.68755558498754,9.627860419750885
531,-9.087341106377739,-255.2298295320094,-25.704658527732587,4.082818928337635,-13.531620820409275,0.6371841086277159,256.70408366658006,9.862074860876742
532,-8.937371152395626,-255.2509572690997,-25.72413944297494,4.716663704452855,-13.984166079502065,0.544510874237886,256.72138245964345,10.181479739130836
533,-8.786926101191613,-255.27158065950337,-25.748330691044377,5.345980264518298,-14.227354679625643,0.4615771245569859,256.73863698361174,10.576065194079124
534,-8.636992844589106,-255.29102269735515,-25.77577734324763,5.976684320990619,-14.25786828019243,0.3886080390614477,256.75507324590694,11.03745742231623
535,-8.48853469349702,-255.30868699660326,-25.804834620031055,6.6138541598009075,-14.073376776291063,0.32542468998503354,256.7699773891218,11.559010105627568
536,-8.342486096674884,-255.32407108596277,-25.83371228590976,7.2615592470443495,-13.672741623013529,0.27150418293991535,256.7827129698718,12.135833502570572
537,-8.199748193393653,-255.33677643735578,-25.860523589441758,7.922711998788426,-13.056195763296916,0.22604566956152497,256.79273548919537,12.764759529725978
538,-8.061185396687694,-255.3465147853987,-25.88333672948996,8.598949807768427,-12.225490757670352,0.1880387739081311,256.79960354099643,13.444243918461568
539,-7.927623267657541,-255.35311059068184,-25.90022711017005,9.290553077302924,-11.184003724031642,0.15633137520841273,256.80298626802625,14.174209519079755
540,-7.799847916966764,-255.35649973466678,-25.909328992926397,9.996403618476903,-9.936799016598995,0.1296942140539158,256.8026670822013,14.955837787226166
541,-7.678606988339414,-255.356724654035,-25.908885330404935,10.713986346352288,-8.490642074329005,0.10688035615895676,256.7985437372831,15.791318206282584
542,-7.564611936004328,-255.35392612539016,-25.897294639468125,11.439435722699109,-6.853965440579107,0.0866780780664312,256.7906248418354,16.68356766816039
543,-7.458540915114486,-255.34833187503287,-25.873153939265016,12.167626837114353,-5.036789454160953,0.06795617586055118,256.77902286934153,17.635933441499105
544,-7.361041320934654,-255.3402422275816,-25.835297009354125,12.892309450908375,-3.050602343234543,0.04970101413187329,256.76394377496587,18.651894091373595
545,-7.272730955812442,-255.33001315505874,-25.782827308481487,13.606281812579144,-0.9082062035864173,0.03104481342630903,256.745673480736,19.734772423249403
546,-7.194196999346781,-255.318037285444,-25.715144805541932,14.301599618476414,1.3764635717215221,0.01128472948808722,256.7245616818547,20.887473166505796
547,-7.125992336062991,-255.30472361141705,-25.6319658579114,14.969814110272624,3.78853751210811,-0.010107727589286714,256.7010036047455,22.112255805913666
548,-7.0686292103041755,-255.2904767834347,-25.533335201505786,15.602231926680282,6.312422400128488,-0.03348733266718236,256.6754204935297,23.410549990953456
549,-7.022570477843902,-255.27567698751176,-25.419629104352715,16.19018798540449,8.93201603582271,-0.05904599835470425,256.64823972484476,24.7828176934575
550,-6.988218852728559,-255.26066149774894,-25.29154892365551,16.725321512582802,11.630920882186018,-0.08683349218564969,256.6198755654369,26.22846315057217
551,-6.965904597865482,-255.24570902490282,-25.150104831997755,17.199844578781416,14.392652216047507,-0.11678696245230134,256.59071167701757,27.745788930065956
552,-6.955872236725667,-255.23102793340115,-24.99659018821787,17.606792312483044,17.20083746184496,-0.1487674720237869,256.56108650391144,29.331994324242192
553,-6.958267128810086,-255.2167492718713,-24.832547617567673,17.94024444003966,20.039404177816586,-0.18260111734774123,256.53128262144156,30.983210734223224
554,-6.973123036989479,-255.20292534038006,-24.659728248101512,18.195509032669055,22.89275464306644,-0.21812188920431672,256.50152094806396,32.69456777886842
555,-7.000351951114628,-255.18953417321512,-24.480045860279127,18.369261382633546,25.745925236173676,-0.2552132103912095,256.47196041369205,34.46028362241567
556,-7.0397373515260755,-255.17648985351653,-24.295528012251886,18.459633679272304,28.58472895757352,-0.29384504201008643,256.4427032409912,36.27377344804514
557,-7.090931842200132,-255.16365804383796,-24.108266393320825,18.466254299769638,31.395879642325323,-0.33410361166333064,256.41380547535874,38.12777091517579
558,-7.153459735499369,-255.15087559559163,-23.920368566585537,18.390238637683606,34.16709664895608,-0.3762112462926114,256.3852918601813,40.014458505073485
559,-7.2267247816395725,-255.13797268731352,-23.73391283251366,18.23413601319896,36.88718906416605,-0.4205344978053665,256.3571736899559,41.92560356850327
560,-7.310022811812561,-255.12479571025654,-23.550907313790233,18.00183894240481,39.546118725608444,-0.46757964504976085,256.32946797120394,43.852697425697734
561,-7.402558610316561,-255.11122908168576,-23.373253775186406,17.698461639976642,42.13504165458303,-0.5179756182841875,256.30221611436247,45.78709496756045
562,-7.503465908579958,-255.09721430520247,-23.202716306587817,17.33019410340396,44.64632785874942,-0.5724453197346839,256.27550046868856,47.72015199129069
563,-7.6118290913432824,-255.08276491056014,-23.040894782788985,16.904136774907155,47.07355999988222,-0.6317671243034442,256.24945729335866,49.6433572455777
564,-7.726705087919994,-255.067976335442,-22.889202885033235,16.428119097213745,49.41151217823625,-0.6967289736227641,256.2242851683444,51.54845613089632
565,-7.847144012428771,-255.05303020706563,-22.74885043342425,15.910503835033023,51.656111005294115,-0.7680779098976734,256.2002482388899,53.427563335961494
566,-7.972207379189331,-255.03819273790683,-22.62082986454424,15.359978329322896,53.80438207123107,-0.846468181836345,256.1776739554605,55.27326239751816
567,-8.100983059044736,-255.02380713513142,-22.505906801885818,14.785334233072271,55.85438570812212,-0.9324112401710077,256.1569451734672,57.07869119601418
568,-8.232596469923527,-255.01028018771868,-22.404614661526463,14.195238836074829,57.80514647603497,-1.0262309829731293,256.13848674743235,58.837613635940265
569,-8.366217789250259,-254.99806361090296,-22.31725310176732,13.598003572660092,59.65658092808365,-1.1280273866268253,256.1227471628313,60.54447897727037
570,-8.501065254235954,-254.98763123550935,-22.24389000437622,13.001358170678312,61.409427848643936,-1.2376510686713105,256.1101762505133,62.19447117587463
571,-8.636404849252074,-254.97945358115743,-22.184366683936698,12.412241461029396,63.06518433261311,-1.3546904136649218,256.10120048498277,63.78355093000108
572,-8.771546807452342,-254.97397159227017,-22.13830613495518,11.836621459459279,64.62604991703722,-1.4784718500507696,256.0961976207136,65.30849285005084
573,-8.905839405219314,-254.9715712658378,-22.105124259173614,11.279357399811593,66.09487963713426,-1.6080729464396972,256.09547238612697,66.76691932491026
574,-9.038660630451389,-254.97256058871864,-22.08404415689765,10.74411463139468,67.47514549219002,-1.7423473499934121,256.09923466539647,68.15733141851767
575,-9.169408514900711,-254.97714975123878,-22.07411373891331,10.233339765192769,68.77090452706314,-1.879960195857575,256.1075811774396,69.47913577224874
576,-9.297491119033,-254.98543518124654,-22.074227064689207,9.748298614452052,69.98677071241976,-2.0194323517185953,256.12048126548774,70.73266529345428
577,-9.422317211574407,-254.9973876843436,-22.083149821402646,9.289174024736418,71.12788713465002,-2.159191615981488,256.1377671582144,71.91919054331922
578,-9.54328861913516,-255.01284492025235,-22.09954913849522,8.855215412370804,72.19989470901359,-2.2976287203574213,256.1591289864346,73.04091823593991
579,-9.65979512903274,-255.03150853788094,-22.122027490115414,8.44492744512826,73.20889368998293,-2.4331557230979057,256.18411488892895,74.10097311076174
580,-9.771212707266947,-255.05294643118762,-22.149159889900467,8.056282341842332,74.16139464644492,-2.564264186230192,256.2121366267495,75.10335964800842
581,-9.876905560857214,-255.0766006423896,-22.179533080351895,7.686939033599956,75.06425627284689,-2.6895804721317975,256.24248113637765,76.05290069730292
582,-9.976232204401915,-255.1018013108672,-22.211785058391598,7.334452954714967,75.92460837280775,-2.8079155838964187,256.27432827905557,76.9551510974368
583,-10.068555261512877,-255.12778671320984,-22.24464310289605,6.996462332924678,76.74975948646782,-2.9183071891775056,256.306774661146,77.81628572282052
584,-10.153254332950382,-255.15372897457053,-22.27695848616827,6.670840196285983,77.5470898167821,-3.0200518086925543,256.3388629235451,78.642962973101
585,-10.229740930846805,-255.17876461201342,-22.307736224326998,6.355805488242921,78.32393123656378,-3.1127256351634944,256.36961548215373,79.44216636852016
586,-10.297474242722915,-255.20202875076566,-22.336158524235366,6.049991187251635,79.08743716824522,-3.1961930551528175,256.3980713989544,80.22102847364114
587,-10.355976427768402,-255.2226915912586,-22.361601020997995,5.752471630702141,79.84444600289996,-3.270602611693778,256.4233248357028,80.98664271788593
588,-10.404846340475698,-255.23999545591752,-22.383641429161198,5.462754862994609,80.60134243334983,-3.33637080525401,256.44456334723907,81.74586969454367
589,-10.443771002710124,-255.2532904983905,-22.402060733846316,5.1807484262538415,81.3639215479457,-3.3941547288509972,256.46110408647854,82.50514509249754
590,-10.472534632790579,-255.26206695322813,-22.41683739642177,4.906708420812695,82.13726068221779,-3.4448150277903093,256.47242583847736,83.27029647624275
591,-10.491025361507385,-255.26598175374667,-22.428135171900255,4.641181844124989,82.92560378112225,-3.4893710644212814,256.47819477295167,84.04637565367106
592,-10.499239822254285,-255.26487755124438,-22.436285071508987,4.384951238742875,83.73226235441862,-3.5289504728574164,256.4782820035205,84.83751238384234
593,-10.497285705286629,-255.25879260485638,-22.441761939099308,4.138988723362632,84.55953609382283,-3.5647354886448523,256.4727714646487,85.6467938073384
594,-10.485382328806413,-255.24796056938038,-22.445156286929723,3.9044238134209626,85.40865508444826,-3.597908492350456,256.46195718773487,86.47617248098615
595,-10.46385941781058,-255.23279982832577,-22.447142519412864,3.682526338614853,86.27974456491282,-3.629599119185007,256.44632972791084,87.32640456196481
596,-10.433154475614062,-255.2138927162978,-22.44844520474341,3.4747024924408856,87.17181257430912,-3.6608351139190294,256.42655224871953,88.19701872142983
597,-10.393809155377733,-255.19195575632062,-22.449805259554598,3.282498895322623,88.08276059796553,-3.6924988985469565,256.4034275751355,89.08631579890842
598,-10.346464830250255,-255.1678028451983,-22.45194767683195,3.107606911176394,89.00941734728,-3.7252915718849136,256.37785830377857,89.99139889171028
599,-10.291857273115966,-255.14230403733592,-22.455551977954457,2.951857806780301,89.94759588120816,-3.7597057393475555,256.350802723348,90.90823331885022
600,-10.230810157228364,-255.11634305287427,-22.46122616965321,2.817199137930105,90.8921742391384,-3.7960081439118434,256.3232297279604,91.8317355871178
601,-10.16422703782187,-255.09077671903702,-22.469484672657142,2.705644264223159,91.83719951333458,-3.8342325488931777,256.29607595755436,92.75589008682034
602,-10.093081573640264,-255.0663991832429,-22.480730364884117,2.619190114115874,92.77601478681588,-3.874182762271572,256.27020800427215,93.67389175109156
603,-10.01840598712732,-255.04391300308302,-22.495240578618194,2.5597028743148775,93.70140755279668,-3.9154451522042897,256.2463917745256,94.57831227894808
604,-9.941278074539904,-255.0239083102901,-22.51315678995922,2.5287764922725695,94.60577709486267,-3.9574095599593515,256.2252701945493,95.46128666028967
605,-9.862807305562578,-255.00685034424666,-22.53447793467824,2.527573904008583,95.48131689452269,-3.9992972545318684,256.20734957467954,96.31471558940245
606,-9.78412055946589,-254.99307487567594,-22.559057635082773,2.5566648464943706,96.32020658555214,-4.040194525945997,256.19299420581126,97.13047795206428
607,-9.706347847489946,-254.98279045996256,-22.586605890908576,2.6158762325337364,97.11480650537139,-4.079090632706024,256.18242819663203,97.90064610045809
608,-9.630608119994736,-254.97608609325468,-22.616695847269284,2.7041708954524726,97.85784676521426,-4.11491901452581,256.1757431880724,98.61769540535619
609,-9.557995090855474,-254.97294267584806,-22.64877609277985,2.819567998784422,98.54260225178776,-4.146600866102757,256.1729103894691,99.2746989724726
610,-9.489562948337618,-254.97324670779693,-22.68218860557819,2.9591139446664028,99.16304530184011,-4.173090265182093,256.1737953658659,99.86549871921069
611,-9.426311804990618,-254.97680486910235,-22.716192079615887,3.118906962595554,99.71396902413399,-4.1934200150977,256.17817419492303,100.38484529585989
612,-9.369172760835719,-254.983358536032,-22.749990040696936,3.2941726666172464,100.19107626163459,-4.206747186290421,256.1857499802562,100.82850142150731
613,-9.318992569059704,-254.9925977149912,-22.782762810817328,3.4793826631077764,100.59103171612269,-4.212397024543744,256.1961691098236,101.19330574594657
614,-9.276518122086737,-255.0041741844925,-22.81370184096364,3.6684045179484275,100.91147742297875,-4.20990349222634,256.20903691942624,101.477196946002
615,-9.242381257482705,-255.01771379205053,-22.84204434334847,3.854669523583609,101.15101417634354,-4.199044363322805,256.22393253977384,101.67920006952725
616,-9.217084621179234,-255.0328279361013,-22.867105893925675,4.031344905459863,101.30915337082759,-4.179868641456715,256.24042277905954,101.79937894133732
617,-9.20098944086515,-255.04912435032838,-22.88830890870039,4.191499224416243,101.3862449019166,-4.152714162379199,256.25807500818553,101.83875967858974
618,-9.194306019840097,-255.0662173952511,-22.905205432156787,4.328253335677524,101.38338725041916,-4.118213571185999,256.2764691497637,101.79923106169223
619,-9.197087574255496,-255.083738081158,-22.917493274103,4.434913668488019,101.3023258028543,-4.077287416697125,256.2952089363695,101.68342777211578
620,-9.209227751248251,-255.1013439262033,-22.925025097902157,4.505088898919383,101.14534508365854,-4.031123851630805,256.313932521575,101.49460249794124
621,-9.230461849241948,-255.11872847120665,-22.927810589523627,4.53279437208127,100.915160153437,-3.981145296730415,256.33232227885037,101.23649277354954
622,-9.260371486227307,-255.13562989579907,-22.926012334981497,4.512550194048564,100.6148120798553,-3.9289633209610786,256.3501132799703,100.91318823141323
623,-9.298392263372232,-255.15183788550178,-22.919936469881996,4.439478522244194,100.2475720683684,-3.8763238237625823,256.3670996809859,100.52900367779912
624,-9.343823841969154,-255.1671978803497,-22.91001940971398,4.309403521675733,99.81685840798595,-3.82504532066692,256.3831382416746,100.08836297364492
625,-9.39584181610014,-255.18161211492378,-22.896811910111747,4.118954400005243,99.32616967290761,-3.7769536610793017,256.39814847557494,99.59569797343177
626,-9.453510906587155,-255.19503723123253,-22.88096140461811,3.8656686878169655,98.77903649592831,-3.733816760620382,256.41210927560354,99.055365625066
627,-9.515799328150043,-255.20747849366424,-22.863193250238588,3.5480901780401557,98.1789927176883,-3.6972828587643987,256.42505209101216,98.47158478045975
628,-9.581594511846218,-255.2189807845293,-22.844291378414248,3.1658541562718066,97.52956503676963,-3.6688254209548568,256.4370508822855,97.84839253603121
629,-9.649720480007224,-255.2296168129885,-22.825078871244333,2.719751999635345,96.83427874744899,-3.6496971329695076,256.44820934239397,97.18961834513539
630,-9.71895702476814,-255.2394733827596,-22.806398953292142,2.2117679308810088,96.09667599959832,-3.640894569058027,256.4586462768472,96.49887298978945
631,-9.788060572025035,-255.2486369071246,-22.78909670872087,1.6450825147385653,95.3203423702745,-3.6431341990537875,256.4684803500234,95.77954889929113
632,-9.855786379390771,-255.25717939826583,-22.774001615577628,1.0240400589997163,94.50893741903884,-3.6568395774922013,256.4778154138523,95.03482826759483
633,-9.920911577463793,-255.26514592307345,-22.761910873711997,0.3540800464006765,93.6662252453122,-3.6821389058136575,256.48672738363376,94.26769585556329
634,-9.982258497462114,-255.2725442244758,-22.753573489878544,-0.35836431857625534,92.79610172129321,-3.7188717041117987,256.4952533280388,93.48095407656396
635,-10.03871769678686,-255.27933702705366,-22.749675051823242,-1.1059947547014508,91.90261583634464,-3.7666030925780323,256.50338325389026,92.6772387244757
636,-10.089270047833281,-255.28543752408203,-22.750822956965038,-1.88079605859997,90.9899833242733,-3.8246441708835848,256.5110550250825,91.8590343676643
637,-10.133007158528136,-255.29070862008282,-22.757531609586035,-2.674194931112871,90.06259144620611,-3.8920771654763087,256.51815290395723,91.02868900176277
638,-10.169149311801451,-255.29496652561986,-22.770207026785283,-3.4772204761373877,89.12499451439596,-3.967784316766676,256.52451021919427,90.18842809856348
639,-10.197060201853756,-255.29798908569197,-22.78913062874654,-4.280658292538001,88.18190045735446,-4.050479787467416,256.5299164916176,89.34036873492248
640,-10.216258061356864,-255.29952868458153,-22.81444260614286,-5.075192045851835,87.23814934096474,-4.138744080159472,256.5341288912902,88.48653496616785
641,-10.22642314888095,-255.29932881176376,-22.846125785253808,-5.851529204509692,86.29868510990937,-4.231060520638008,256.53688721398044,87.62887587682752
642,-10.227401781898617,-255.29714266522438,-22.883991173721057,-6.600510845384976,85.36852176870276,-4.3258533319040255,256.53793089447606,86.76928765199814
643,-10.2192071268685,-255.29275181541902,-22.92766648226424,-7.313208530955253,84.45270478239597,-4.42152672307996,256.5370162326375,85.90964051666421
644,-10.202016937198087,-255.2859831102549,-22.97658897050209,-7.981013676304434,83.55626777188614,-4.516504243035669,256.53393216585204,85.05181055498149
645,-10.17616846428547,-255.27672257974456,-23.03000387204016,-8.595726134153777,82.68418378122735,-4.609267426575552,256.5285134874414,84.19771538119711
646,-10.142150808225772,-255.26492582828755,-23.08696933934077,-9.149648772514272,81.84130969223202,-4.698392576101759,256.5206511073778,83.34935157699135
647,-10.100594935278169,-255.25062495546058,-23.146368387002795,-9.63569374547866,81.03232197771514,-4.782584426381381,256.51029945649736,82.50883098924477
648,-10.052261482456837,-255.23393221166614,-23.20692782762512,-10.047504296333944,80.26164212805385,-4.860705394906858,256.49748124955363,81.6784126423289
649,-9.998026409230476,-255.21504046811307,-23.267243750546857,-10.37959364192215,79.53335083843952,-4.93179908493513,256.48228965094245,80.86052727241737
650,-9.938864635100153,-255.19422048024077,-23.325812736278277,-10.627500067396229,78.85109131292458,-4.995106756067419,256.46488775576057,80.05779227392084
651,-9.875831969578188,-255.17181502591092,-23.381067802564544,-10.787955055818394,78.21796362062545,-5.050075752761005,256.4455053886351,79.27301598587086
652,-9.81004572664023,-255.14823020232413,-23.431418045787872,-10.859059276978856,77.6364137073954,-5.096359444070522,256.42443342500985,78.50919154371759
653,-9.7426643285264,-255.1239243502466,-23.475290937055078,-10.84045967939373,77.10812221872044,-5.133808974798184,256.4020160193043,77.76948179145766
654,-9.674866064874294,-255.0993952826669,-23.511176134352837,-10.733519839682668,76.63389950625835,-5.162457860299322,256.37864131634177,77.0571977830497
655,-9.607827160637878,-255.07516678542413,-23.537669561320907,-10.5414752069091,76.21359383522928,-5.182500989106194,256.354731499079,76.3757739853298
656,-9.54269942699194,-255.0517756447095,-23.55351655648927,-10.269565001456263,75.84601972968902,-5.194269829466577,256.3307333195026,75.7287432982552
657,-9.480587868015524,-255.0297605569173,-23.55765312991279,-9.925133242284675,75.52891261345907,-5.198205594655103,256.307110383248,75.11971446994052
658,-9.422528570381656,-255.00965405476873,-23.549244632798,-9.51769248741419,75.25891460925668,-5.194831932926697,256.2843382592404,74.55235357399286
659,-9.369467048602635,-254.9919780633836,-23.527721340099223,-9.058945089171011,75.03159479090102,-5.1847284789380295,256.2629029781719,74.03037014051851
660,-9.322237105491812,-254.97724306911766,-23.49281050681406,-8.562757809819136,74.84150555940177,-5.168506346272388,256.2433028559096,73.5575074581865
661,-9.281540346897323,-254.96595037897066,-23.444564318036054,-8.045086373377156,74.68227526331522,-5.146786327376607,256.22605306522723,73.13753559507914
662,-9.24792679380115,-254.958596699485,-23.383382858037006,-7.523846989234947,74.54673574408892,-5.1201802137354075,256.2116921165846,72.77424486481843
663,-9.22177743660706,-254.95568022623127,-23.310030981231556,-7.018732223623818,74.42708215575168,-5.0892753006769755,256.2007893644209,72.47143681429715
664,-9.203289889730152,-254.95770744666922,-23.22564791079854,-6.5509689765743655,74.31506120688297,-5.054621808956433,256.19395267321624,72.23290937142768
665,-9.192468400462413,-254.96519979545454,-23.131748459129206,-6.143016877192888,74.2021829679902,-5.016722622141271,256.19183532290845,72.06243263991995
666,-9.189119294816523,-254.97869918124562,-23.030214905475678,-5.818206229367941,74.07995065296969,-4.976024425809096,256.1951411193405,71.96371203688842
667,-9.192852551944577,-254.9987713247004,-22.923278871471215,-5.600315780028862,73.94010233254205,-4.9329091168908485,256.20462660947146,71.94033604827155
668,-9.203089740993653,-255.02600587447418,-22.813493089556605,-5.51309212101639,73.77485829552236,-4.887684293872982,256.2210993619994,71.99570675094303
669,-9.219078193404457,-255.06101242900692,-22.703693672022975,-5.579714608126615,73.57716761866823,-4.840571748141743,256.24541148600406,72.13295230204974
670,-9.2399110802309,-255.1044118638452,-22.596954132502574,-5.822212429147182,73.34094733216142,-4.7916931354561525,256.2784478810974,72.35482172633789
671,-9.264552960999223,-255.15682264313614,-22.49653278315857,-6.260843942426238,73.06130733193145,-4.741052406481594,256.3211090182143,72.66356349228964
672,-9.291870258101977,-255.2188419799051,-22.405815167219554,-6.913452563191252,72.7347539366449,-4.688515096724102,256.37428823261865,73.06079056573526
673,-9.320665923333914,-255.2910218234059,-22.32825299376636,-7.794818022568835,72.35936483262903,-4.633785165366353,256.4388435985939,73.54733589268602
674,-9.34971733741509,-255.3738398092744,-22.267300814346775,-8.9160262671866,71.93492820695798,-4.5763806565361795,256.51556458302497,74.1231035605033
675,-9.377816295822068,-255.46766561348008,-22.2263515579401,-10.28388497305564,71.46303917532552,-4.515609955199992,256.60513396124406,74.78692209107203
676,-9.403809785448479,-255.5727236285259,-22.20867203158429,-11.900414027390362,70.94714713714451,-4.450550729742006,256.70808594866344,75.53640726915874
677,-9.426640078286672,-255.68905343640006,-22.21733951711798,-13.762440984855926,70.39254841357666,-4.38003369517369,256.8247620539071,76.36784251479995
678,-9.445382476552046,-255.81646999066027,-22.25518055248542,-15.86133027396391,69.80631950686768,-4.302633035555736,256.95526658999285,77.27608512196169
679,-9.459278990402492,-255.9545255972731,-22.324712865527538,-18.182871897497066,69.19718770668662,-4.216664732702413,257.09942395153325,78.25450686726266
680,-9.467766427258555,-256.1024757625178,-22.428091345549593,-20.707350784705454,68.57533769920265,-4.120193306528092,257.2567397524036,79.29497769271377
681,-9.470497771803396,-256.259250905303,-22.56705901732297,-23.409812116575242,67.95215533749214,-4.011046756322172,257.42636787576896,80.38790140901989
682,-9.467356223235148,-256.42343582274907,-22.742904224444167,-26.26053116307382,67.33991269521955,-3.8868389251859097,257.60708542453904,81.52231251396785
683,-9.458461728507526,-256.5932585552351,-22.956425528131614,-29.22568873640167,66.75140173521373,-3.7449981378392643,257.7972773665461,82.68604302953912
684,-9.444170201637998,-256.76658989902364,-23.20790602527572,-32.26824553505655,66.1995271435252,-3.5828007699189928,257.9949323061407,83.86596747327566
685,-9.425065798781615,-256.94095433881705,-23.497098743103546,-35.349000603088406,65.69687190043962,-3.3974083407214,258.1976503449496,85.0483324807361
686,-9.401946686191216,-257.11355270629514,-23.82322446199285,-38.427810913335875,65.25525178708118,-3.185906716188322,258.40266350651603,86.21917500167267
687,-9.375804770556767,-257.2812965016253,-24.184982853573803,-41.464940688720944,64.88527702107255,-2.945346028809404,258.6068687916085,87.36482919734587
688,-9.34779985607097,-257.44085362729834,-24.58057725483603,-44.4225005470577,64.5959402853573,-2.672779984034043,258.80687369202815,88.47251695479657
689,-9.319228628088704,-257.588705265386,-25.00775269736745,-47.2659281314131,64.39425028637099,-2.3653033757898476,258.99905390505063,89.53101019508476
690,-9.291488789446761,-257.72121362813385,-25.46384597655889,-49.96545406054499,64.2849284962515,-2.0200868984176914,259.17962290809913,90.53134503873375
691,-9.26603867883372,-257.8347001279662,-25.945845668404917,-52.49749049734988,64.27018390911114,-1.6344086987953055,259.34471278527485,91.46755891431623
692,-9.244352836158054,-257.9255330392549,-26.450459189532616,-54.845875211126355,64.34957660434291,-1.2056825402950067,259.49046514870514,92.33741272754625
693,-9.22787428610087,-257.9902230136116,-26.974183372962045,-57.00290265705064,64.51997585352348,-0.7314829596890448,259.6131302352065,93.14305245328437
694,-9.21796480970056,-258.02552401451993,-27.51337480197381,-58.9700764208204,64.77561274372904,-0.20956838128038,259.709171456822,93.89155947640741
695,-9.21585509338144,-258.02853649986093,-28.064316555253647,-60.75852549657935,65.10822138634467,0.36209629757342837,259.7753720124684,94.59533834556713
696,-9.222597194027893,-257.99680910793035,-28.62327917162283,-62.38904107220646,65.50725754711368,0.9853158101353529,259.80893973984166,95.27229573492613
697,-9.239022017749596,-257.9284347816645,-29.186575312744655,-63.891710816780154,65.9601797700166,1.6616375283096905,259.80760625654506,95.94577594690749
698,-9.265704357233469,-257.8221372962447,-29.750609282453343,-65.30515297036132,66.45277627475132,2.392320053703492,259.7697166430481,96.6442355491052
699,-9.302937518149212,-257.6773446535335,-30.31192375427981,-66.67538036713084,66.96952118206448,3.1782968521848067,259.69430651826485,97.40066060569174
700,-9.350718875587702,-257.4942467990502,-30.86724643896894,-68.05435135581195,67.49394572819412,4.0201353170200305,259.58116434967206,98.25175127810428
701,-9.408747033587787,-257.2738364006164,-31.413538838024586,-69.49828652392836,68.00901360356761,4.917992498975639,259.43087801606003,99.2369169311377
702,-9.476430726965287,-257.0179326234364,-31.948047827383242,-71.06584382740093,68.49749374576128,5.871569365032315,259.24486564831346,100.39713757259618
703,-9.552909217223368,-256.7291886110706,-32.46835917955356,-72.81624818363899,68.94232804961426,6.880065812525999,259.0253913458888,101.77375313191624
704,-9.63708360700681,-256.41108362012557,-32.9724509525052,-74.80746468200759,69.32699472050061,7.94213883266023,258.77556646042274,103.40724091197126
705,-9.72765810886003,-256.06790055616875,-33.45874418951504,-77.09448907065429,69.63586974459801,9.055866246444635,258.4993368680523,105.3360347598377
706,-9.823189826871612,-255.70468917373682,-33.92614834311709,-79.72780833012852,69.85458885838722,10.218718375577156,258.20145614025535,107.59542872790043
707,-9.922145124808473,-255.327214528845,-34.374099010293435,-82.75206186827528,69.97041048481505,11.427539924009862,257.88744384018486,110.21659489281899
708,-10.022960244102787,-254.94188953662203,-34.80258590981976,-86.20491384590808,69.97257663811108,12.678544283599676,257.56352744939477,113.2257313020676
709,-10.124103554601007,-254.555689969589,-35.21216950713571,-90.11613202169907,69.85266426900108,13.967322406863085,257.2365659461109,116.6433436343042
710,-10.224136706751253,-254.17605022796195,-35.60398514962004,-94.50685953399355,69.60491466393015,15.288868168041652,256.9139530854217,120.48365489225283
711,-10.321771978120253,-253.81073878620052,-35.97973393157996,-99.38906310895422,69.22652428973434,16.637621587337676,256.6034990258329,124.75413246584188
712,-10.41592321756529,-253.46771317830164,-36.34165983402456,-104.76514321862003,68.71787785969005,18.007530358062226,256.31328992428786,129.4551214349065
713,-10.505748000128946,-253.15495547946733,-36.69251307902019,-110.62769712810092,68.08270405857455,19.39212888893154,256.0515262515871,134.57957637451977
714,-10.59067892691228,-252.88029034604693,-37.03550012921193,-116.95943283961435,67.32813652256529,20.784632756606314,255.82634174002186,140.11288996059903
715,-10.67044239201586,-252.65118877183144,-37.37422134401561,-123.73323904276494,66.46466713702209,22.178045324908993,255.64560604564699,146.03282392451996
716,-10.745063613474874,-252.47456177784278,-37.712597959452374,-130.9124220099091,65.50598497406726,23.56527261795106,255.51671535954193,152.30955501822956
717,-10.814857363548633,-252.35654919714196,-38.054790713133684,-138.45112402886411,64.46870143953541,24.939242511752052,255.44637625102754,158.90585443226988
718,-10.880404555065889,-252.30230946689267,-38.40511295543979,-146.29493893244168,63.371969442839465,26.29302489313815,255.44038886902717,165.7774225612726
719,-10.942515425829871,-252.3158168078799,-38.76794133854436,-154.38173845384011,62.23701065017729,27.61995044883784,255.5034361480019,172.87340146476723
720,-11.00218045677757,-252.39967225646694,-39.147627065405466,-162.64271877750758,61.08656937861598,28.913726993891853,255.63888574766963,180.13708462806295
721,-11.060510563563376,-252.554934702686,-39.548410222920275,-171.00367025702195,59.944314161403746,30.16855350650815,255.84861109966758,187.50683795418465
722,-11.118668702470432,-252.78097749115884,-39.97433908772275,-179.38646533356476,58.834208770548315,31.37923304447465,256.13283728215583,194.91723789065924
723,-11.17779576209367,-253.07537539572368,-40.42919572952279,-187.71075066474847,57.77987421511303,32.54128622123116,256.4900166643314,202.30042294634114
724,-11.238934222744085,-253.43382599643604,-40.91642886424137,-195.89581987871205,56.803962603296,33.65106672099679,256.9167384743927,209.58764436258215
725,-11.302953345999033,-253.8501087442929,-41.43909459450011,-203.86263383454317,55.927563092623664,34.70587933895011,257.40767569103554,216.71099112390957
726,-11.370479576432375,-254.31608425389194,-41.99980520872522,-211.5359464595063,55.16965946854404,35.704099324022884,257.9555718662087,223.60525450719786
727,-11.44183553580158,-254.821735489186,-42.600685607941344,-218.84648669240127,54.54665802391976,36.645289646621116,258.5512695380376,230.20988852407493
728,-11.51699062217274,-255.3552514879487,-43.24333642501405,-225.73314111917784,54.072003091512,37.53031059589582,259.183780816431,236.47101525309037
729,-11.595525819599423,-255.9031532620784,-43.92880264189957,-232.14507766370053,53.75589550391771,38.36141426642916,259.84039969720357,242.34341834092015
730,-11.676614828256612,-256.4504606484867,-44.65754646309019,-238.0437482427597,53.60512622380736,39.14231546127229,260.506854809487,247.79246399144722
731,-11.75902304641422,-256.9808981503498,-45.429423355908,-243.4047077378027,53.62303341968656,39.8782306325483,261.167500607014,252.79588677546332
732,-11.841125334847291,-257.4771370850967,-46.24366058749356,-248.21918820586728,53.80958656754699,40.57587774209498,261.8055443772517,257.34537788021896
733,-11.920942892177727,-257.92107053576814,-47.09883827600775,-252.4953711849329,54.161596035874716,41.243432126832836,262.4033057593047,261.44791623506666
734,-11.99619892420124,-258.2941166781888,-47.992873819436184,-256.25930738832517,54.673041354254494,41.890436277998695,262.9425047043345,265.1267884298912
735,-12.064392067267516,-258.57754517726636,-48.92301137681279,-259.55544198132753,55.335506215148364,42.52766460768352,263.40457309192277,268.422251417715
736,-12.122885744631569,-258.7528207529889,-49.885818609803664,-262.44671462956643,56.138703422790485,43.166947517417384,263.77098472402565,271.3918022787578
737,-12.169010822844404,-258.80195785532385,-50.87719301595714,-265.01421590428566,57.071068697948306,43.82096208445535,264.0235982723717,274.1100311001993
738,-12.200178091559073,-258.70788056182977,-51.89238003427416,-267.3563945404017,58.12039870185714,44.50299904003646,264.14500788537464,276.6680453884249
739,-12.213996264404392,-258.45478204403065,-52.92600492773057,-269.5878226318262,59.27450612160152,45.22671701549024,264.11889634068643,279.17246653567594
740,-12.208390579946125,-258.0284779787497,-53.97212030163626,-271.8375375233208,60.52186351186324,46.0058950179814,263.9303856212965,281.7440101634481
741,-12.181716883851054,-257.4167480115981,-55.024270830290625,-274.2469896754909,61.852208201528335,46.854192801873815,263.566379476386,284.51567251877236
742,-12.1328663002829,-256.60965887986833,-56.07557618283127,-276.96763519034937,63.25708316458886,47.78492651372741,263.01589193897746,287.6305546632194
743,-12.06135602909511,-255.59986224531164,-57.118832255739534,-280.1582201226701,64.73029313470687,48.810864094887364,262.2703550687484,291.2393651305876
744,-11.967402235166889,-254.38285989864107,-58.14662969293557,-283.98181110554157,66.268260772651,49.94404181822839,261.32389859169524,295.49764990014364
745,-11.851971454128496,-252.95722898888388,-59.15148739832312,-288.602632765539,67.87027350760341,51.19560044524498,260.1735938451898,300.5628053927307
746,-11.716807599185595,-251.3248004216499,-60.12599749120637,-294.18277622330794,69.5386170095615,52.57563728002358,258.8196546668524,306.5909349894894
747,-11.564432586877164,-249.49078450677277,-61.0629770916295,-300.8788441121407,71.27859568365577,54.09306922508964,257.26558857315064,313.73361171830453
748,-11.398119663432523,-247.46383905453743,-61.95562151658095,-308.83859596451737,73.0984440208857,55.755501901613826,255.5182925094467,322.1346092193475
749,-11.221839497895296,-245.25607607726403,-62.79765294838048,-318.19765421439376,75.00913522578732,57.56910078864231,253.58808828139166,331.926660565933
750,-11.040179910110343,-242.8830038787556,-63.58345851192258,-329.0763267229983,77.02409548663259,59.53846181465391,251.48869335672111,343.2283012005131
751,-10.858240747836287,-240.36340175188374,-64.30821215693828,-341.5765980292209,79.1588337638707,61.66648056449215,249.23712324990575,356.1408494456892
752,-10.681506000653696,-237.71912510985518,-64.96797593403637,-355.77933938344825,81.43049819022252,63.95422103251593,246.8535225634737,370.74557664906183
753,-10.515695821995562,-234.97483994448058,-65.55977809037064,-371.7417873015541,83.85737118226776,66.40078656990832,244.36092323224412,387.1011192663366
754,-10.366601795548211,-232.1576870769858,-66.08166748639786,-389.4953415729159,86.45831623915275,69.00319725299084,241.7849305417248,405.241186797833
755,-10.239909559330117,-229.29687862836252,-66.53274564802489,-409.0437357696901,89.25219025799962,71.75627912647053,239.1533398286686,425.1726218829569
756,-10.141013723142766,-226.42323138568784,-66.91317901586201,-430.36163557051214,92.25723606548584,74.65257136468274,236.49568923848383,446.8738712556936
757,-10.074830741775134,-223.56864415457983,-67.22419456632961,-453.39372169725107,95.49047058621464,77.68225718004675,233.84275636528082,470.2939277153629
758,-10.045615951592037,-220.7655285674823,-67.46806199131508,-478.0543138579396,98.96708427800434,80.83312335244719,231.2260088480992,495.35180263941146
759,-10.05679138513151,-218.0462049828797,-67.64806510733015,-504.2275886148871,102.69986674079013,84.09055179897037,228.6770208885523,521.9365846814601
760,-10.110791342758729,-215.44227692644088,-67.76846422296259,-531.7684364954395,106.69867145544913,87.43754500352097,226.2268690911164,549.9081321409002
761,-10.208933038161083,-212.9839988560563,-67.83444993009758,-560.5039911653718,110.96992944337545,90.85478578576931,223.90552190596858,579.0984333954377
762,-10.35131982003923,-210.69965282555003,-67.85208736170911,-590.2358457643936,115.51621767551306,94.32073116422532,221.74123726451208,609.31365159116
763,-10.536784295141771,-208.61494997033122,-67.82824870978303,-620.7429488410957,120.33588406936875,97.81174013169111,219.75998291847606,640.3368469478827
764,-10.762877951347933,-206.75247272894785,-67.77053115242413,-651.7851457893834,125.42272780061535,101.30223592115712,217.98489373123795,671.9313437617753
765,-11.025912496385631,-205.13117325500605,-67.68715752713086,-683.1073032326653,130.76573219533995,104.76490446458862,216.43577970840528,703.8446814545824
766,-11.321056055591693,-203.7659423789547,-67.58685800628565,-714.4439260894355,136.34884809498183,108.17093179011665,215.12869769735397,735.813062406732
767,-11.642484643692374,-202.66726171890855,-67.47873246979425,-745.5241529256805,142.15082831646276,111.49028366613055,214.07559835238882,767.5661864950639
768,-11.983586048222413,-201.8409493304078,-67.3720950393985,-776.0769970001888,148.14511826727707,114.69203063870742,213.28405830755995,798.8323453796538
769,-12.337209684408586,-201.28800689362635,-67.27630403250751,-805.8366894982714,154.2998131285494,117.74472065768474,212.7571056780129,829.3436398028833
770,-12.695952540310875,-201.00457392128112,-67.20058199572482,-834.5479780361071,160.5776972003525,120.61679984187606,212.49314494382642,858.8411804940248
771,-13.052468495489459,-200.98199169881627,-67.15383127904076,-861.9712368036555,166.93638488002796,123.2770797800412,212.4859847685603,887.080136768742
772,-13.39978630798181,-201.20697659690896,-67.14445094427535,-887.8872532720837,173.3285844270485,125.69524725908877,212.7249693794727,913.8345050701104
