time,ax,ay,az,gx,gy,gz,accmagnitude,gccmagnitude
0,17.047609553845184,-251.95167660585147,-21.238786374618847,-46.6515726756552,6.749667763423025,3.5786256365883284,253.41844238480982,47.84449200753976
1,17.102145142923433,-251.99110927302576,-21.03662380215312,-44.661196918627176,7.706563208681973,3.390909670943763,253.447425938817,46.26954638619105
2,17.14982105806436,-252.03180551620613,-20.82169691043133,-42.77704068799167,8.661237157784363,3.1845331662443863,253.47614027145363,44.7717601356922
3,17.18974304758692,-252.07320529797883,-20.598027912151604,-41.0178956028148,9.608291723558503,2.9582109888724,253.50427155619312,43.36712321283207
4,17.221167421445287,-252.11478063796076,-20.36962463372528,-39.40110279455589,10.542706629489066,2.71077884115538,253.53154797243366,42.07081538772925
5,17.243528220492554,-252.1560526206362,-20.14038353319687,-37.942196996804334,11.459932704629113,2.4412418800420754,253.55775101104106,40.89693668030304
6,17.256459205709024,-252.1966058368891,-19.91400210424418,-36.6545543181384,12.355973345102134,2.148821106243609,253.58272458687142,39.85823646371289
7,17.25980934078573,-252.23609948077788,-19.693903090006174,-35.54905093837367,13.227452120798185,1.8329957447270298,253.60638128113837,38.96584647440333
8,17.253650658824704,-252.2742743977074,-19.48317214834164,-34.633742002765935,14.071665234884327,1.4935400386233424,253.62870506522205,38.22902465152988
9,17.238277833781495,-252.31095558066121,-19.28450980699751,-33.91357197164501,14.88661803480116,1.1305530786051203,253.6497500247013,37.654918354024254
10,17.214199300938503,-252.3460498995492,-19.100197789792755,-33.39012923737682,15.67104517096449,0.7444805574730022,253.66963486693558,37.24835672744157
11,17.182120251858993,-252.37953914882297,-18.932079170844467,-33.06145852860207,16.424414293303183,0.33612772940282537,253.68853327830072,37.011682455155395
12,17.14291822874624,-252.41146878429515,-18.78155140505961,-32.92194422300755,17.1469134260942,-0.0933366997655815,253.70666047571723,36.94463264330361
13,17.097612421716356,-252.4419330480236,-18.64957110874747,-32.96227622845747,17.839422460009736,-0.5423857076939913,253.72425663386028,37.04427726558567
14,17.04732815105671,-252.47105757431711,-18.536669410110886,-33.169507800024476,18.50346960667003,-1.0091480578222922,253.74156828198815,37.30502170943375
15,16.993258277340516,-252.49898088965864,-18.442976553853097,-33.52721165516384,19.14117416612559,-1.491431570462322,253.75882908995098,37.71867767249572
16,16.936623316070566,-252.52583624588993,-18.368254153021375,-34.015736936051624,19.755177490522442,-1.9867560310102537,253.77624147128012,38.27460388398284
17,16.87863192648864,-252.55173492015572,-18.31193321459768,-34.6125649114586,20.348564485456315,-2.4923961721471493,253.79396010264773,38.959914789451204
18,16.820443368900953,-252.57675169372786,-18.27315607083728,-35.29275613302676,20.92477826400561,-3.0054347425714214,253.8120780386462,39.75975160407296
19,16.76313349599704,-252.6009129061674,-18.25082065123054,-36.02947671787617,21.48753056531921,-3.5228249872587267,253.83061580999362,40.65760642983718
20,16.707665723793454,-252.6241872658478,-18.243625928907733,-36.79458724560941,22.04071024925039,-4.041461102939855,253.84951370056908,41.63568698182102
21,16.654868126287038,-252.64647938000434,-18.250117695702155,-37.559274987731705,22.58829167976309,-4.5582545246070865,253.86862718298286,42.67530738406793
22,16.605417350085446,-252.66762579316793,-18.26873400684245,-38.294709105240834,23.134244307462545,-5.07021328876449,253.88772529951746,43.75728983260767
23,16.559829545106226,-252.68739334403642,-18.297849617005465,-38.9726990333747,23.682444424003194,-5.574521200793729,253.90649175921578,44.86236277434926
24,16.518458046984303,-252.70547991498884,-18.335818420569225,-39.566338234076426,24.236589896293083,-6.068613117041037,253.92452873041603,45.97154338510127
25,16.481497198745554,-252.72151804850873,-18.38101240974914,-40.05061833342728,24.80011855715642,-6.550242420126464,253.94136364593498,47.06649504353344
26,16.448991509489854,-252.73508226605117,-18.43185528384584,-40.40300173331949,25.376130720219095,-7.017536852758726,253.95645965628626,48.12985357198265
27,16.420849313413463,-252.74570106540082,-18.486848868565165,-40.603943457226826,25.967316043622766,-7.469039373582333,253.9692305049676,49.14551870211177
28,16.39686011922994,-252.7528743516772,-18.544590987407297,-40.63735478529943,26.575884818605914,-7.903731588468884,253.97906041787877,50.098909156396005
29,16.376714773238874,-252.75609646092718,-18.603784199871427,-40.49100194422354,27.203503779616234,-8.321038462807259,253.98532906032852,50.97718074702904
30,16.360027344326845,-252.7548841177252,-18.66323569165446,-40.15683280711682,27.851236707584498,-8.720814239819177,253.9874408542145,51.76940699504328
31,16.34635742459766,-252.74880786011326,-18.721849471394567,-39.631223501784625,28.51949038201784,-9.103310576451404,253.9848571955896,52.46672112618467
32,16.335231538485562,-252.73752483712084,-18.77861281479493,-38.91513542510237,29.207966796348337,-9.469128731258504,253.9771295463328,53.062417179179
33,16.32616261767471,-252.72081051697248,-18.8325794715212,-38.01417192337808,29.91562294516781,-9.819158171900416,253.96393106792044,53.55200672696418
34,16.318666896650214,-252.6985867690051,-18.882852426123772,-36.938523401672406,30.64063986127156,-10.154504241973994,253.94508443674317,53.933226775524716
35,16.312277977703477,-252.67094398194357,-18.92856898756522,-35.70279040916274,31.380402864367028,-10.476407563392403,253.92058370362238,54.20599415856779
36,16.306558165485004,-252.63815530298032,-18.968890694012842,-34.32567670953142,32.131495134796666,-10.786157695867223,253.89060848186622,54.37230249168436
37,16.30110746277497,-252.60068168096606,-19.00299996878046,-32.829548723723335,32.8897066965285,-11.085003333720536,253.85552932262885,54.43605968431015
38,16.2955707871354,-252.55916711166356,-19.030104693735396,-31.23986408849037,33.65006063505534,-11.374061131681986,253.81590380140815,54.402867191002485
39,16.289643937024614,-252.51442419325556,-19.049450943123308,-29.584480181166914,34.406857867738225,-11.654225239778599,253.77246347620252,54.27974643807089
40,16.283078605528186,-252.46741069319395,-19.060343113336188,-27.892862696889306,35.15374107407603,-11.926079876979724,253.72609237962652,54.07482269611747
41,16.27568644538656,-252.41919829294994,-19.062169730400186,-26.195223724700508,35.88377762028503,-12.189817791017918,253.67779808236344,53.79698131879382
42,16.267342014475933,-252.37093506825516,-19.054432515274787,-24.521626988357692,36.58956067018074,-12.445168128205662,253.62867669140437,53.45551484101736
43,16.257984413249414,-252.3238035934167,-19.036775961027878,-22.901103657381714,37.26332730261142,-12.691337876870122,253.57987344905627,53.059781128283
44,16.247617420843607,-252.27897680798299,-19.00901469782647,-21.36082423423866,37.89709233794277,-12.926971451391335,253.53254084643427,52.61889216767452
45,16.236307825666785,-252.23757393813702,-18.97115617413909,-19.925369771513054,38.482796528986476,-13.150132989133473,253.4877963287844,52.14145034295389
46,16.224181513541154,-252.2006188016243,-18.92341653960738,-18.616139005382895,39.01246755435351,-13.358315419520562,253.44668172371192,51.63534482593321
47,16.211416925350484,-252.16900270951191,-18.86622800826354,-17.450917589942875,39.478391744171276,-13.548479273504512,253.41012644081115,51.10761595407251
48,16.19823579618124,-252.14345388474987,-18.800236463926332,-16.443622833763087,39.87329377284417,-13.717122569270762,253.37891625552277,50.56439087873438
49,16.18489147315073,-252.12451484511345,-18.726288758292007,-15.60422391817222,40.190520908446125,-13.860381078020866,253.35366909862387,50.01088965317456
50,16.171655373714383,-252.11252860094697,-18.645410033900124,-14.938825243511321,40.42422797130962,-13.974156065741262,253.33481876479868,49.451497197023265
51,16.158802262494874,-252.10763388993087,-18.55877226591212,-14.449890660778072,40.56955886096158,-14.054264503742566,253.32260690291193,48.88989304059192
52,16.146595079564825,-252.10976906556425,-18.467655799740555,-14.136579704681758,40.62282013705731,-14.096605037693212,253.3170830951377,48.32922742036834
53,16.1352700643597,-252.11868367519764,-18.373405858549635,-13.995163790064499,40.58164152400002,-14.097331910229183,253.31811226725577,47.77232945338854
54,16.125022854574663,-252.13395623415553,-18.277385915517716,-14.019490417249923,40.44511741692879,-14.053028579215404,253.32538813227407,47.221931198884185
55,16.115996148413117,-252.15501632372084,-18.18092970814134,-14.201466141829783,40.213922762662136,-13.960872864626518,253.33845097418182,46.680890770517074
56,16.108269495371957,-252.18116904534557,-18.085293683753825,-14.531533601128498,39.890396378020256,-13.818785992605195,253.35670797886556,46.15239840379293
57,16.101851822108515,-252.21162011514846,-17.991611762375747,-14.99912339883431,39.47858505696351,-13.625558840717003,253.3794545751913,45.64015135614216
58,16.09667731124953,-252.24550039532642,-17.900854313477087,-15.593067302483075,38.98424275576007,-13.380949974263343,253.40589575687855,45.14848635110038
59,16.09260517001796,-252.28188924494677,-17.813793068788875,-16.301964318284796,38.41478064923232,-13.085751582078721,253.43516691748607,44.68246152336473
60,16.089423656220678,-252.3198365664457,-17.73097336754523,-17.1144953346183,37.77916579916287,-12.741821014862158,253.46635418513665,44.24788312284841
61,16.08685846363421,-252.35838372876665,-17.652694748461958,-18.01968496472343,37.08776848451837,-12.35207718327112,253.4985145006192,43.85127541298673
62,16.084585175796565,-252.3965836180055,-17.579000548706404,-19.00711093936797,36.35216084413684,-11.920462535065752,253.53069570154128,43.499795181692484
63,16.08224503956199,-252.43351993460575,-17.50967684719173,-20.067062053980674,35.58487221524709,-11.45187267356894,253.56195669337967,43.201094986548576
64,16.07946297706323,-252.46832564709078,-17.44426074177127,-21.190645630462132,34.799109110350265,-10.952056868583119,253.5913875372612,42.96314152970124
65,16.075866680679404,-252.50020035091282,-17.38205760513622,-22.369845243171476,34.00844981172245,-10.427493709571467,253.61812909801446,42.793997282918454
66,16.071105749479706,-252.52842619385342,-17.322166728249,-23.59752964483214,33.22652484906492,-9.88524693210655,253.64139180314925,42.70157470485136
67,16.064869943449228,-252.55238196546867,-17.263514653498426,-24.867414860565138,32.46669512769143,-9.332806978827506,253.6604730026999,42.693373341284186
68,16.056905638962284,-252.57155485659666,-17.20489545482109,-26.173983486066234,31.741739287236832,-8.777924095405481,253.67477232866958,42.77621103665358
69,16.047029521680567,-252.58554926817604,-17.145017169954805,-27.51236813707265,31.063561099055086,-8.228438714987233,253.68380432196335,42.95596147848408
70,16.03513864161534,-252.59409195413846,-17.082553428407884,-28.87820919000809,30.442926423179138,-7.692114629894091,253.68720749696476,43.237311122738866
71,16.021216303677544,-252.5970328608581,-17.016198939777126,-30.267499702419556,29.88923752903159,-7.176480062863781,253.68474909009254,43.62354882153217
72,16.005333762937543,-252.59434137005607,-16.944726947543973,-31.676432078686368,29.410350582679992,-6.688681212115432,253.6763250783605,44.116400852930425
73,15.987648105160249,-252.5860981797032,-16.867046214085516,-33.10126124926475,29.012439976747714,-6.235352073505929,253.66195557202096,44.715922337615964
74,15.968396919139266,-252.5724835598692,-16.78225480068731,-34.53819769098776,28.69991104135876,-5.822503319437505,253.64177618153857,45.420453172228115
75,15.947890467533343,-252.55376306575673,-16.689687952194422,-35.983340600766695,28.475360608511235,-5.455431853956138,253.61602631303774,46.226642741620815
76,15.92650209836381,-252.53027199660636,-16.588957764969447,-37.43265725004749,28.339583026196834,-5.138651575660142,253.5850355787033,47.12954311764262
77,15.904657600409037,-252.50239998678143,-16.479982883256454,-38.882009464945995,28.29161770862401,-4.875845035847513,253.5492096406312,48.122765674883425
78,15.882824070915891,-252.4705770634494,-16.36300708092176,-40.327222847493935,28.32883332785253,-4.669835096163263,253.50901678640454,49.19869152987212
79,15.861498648506904,-252.43526229399367,-16.238606151481754,-41.76418934491311,28.447043347010947,-4.522575243459943,253.46497634721433,50.34872232606253
80,15.8411972138361,-252.39693584214888,-16.10768304346628,-43.1889896190543,28.64064766407423,-4.4351567806252055,253.41764978345572,51.563554920293846
81,15.822442940355751,-252.35609488299286,-15.971451659679172,-44.59801881600896,28.90279548502811,-4.40783067104664,253.36763491170595,52.83346169048093
82,15.80575445666341,-252.31325335213288,-15.831410177449785,-45.98809814709764,29.22556499007861,-4.440041466379112,253.31556329323476,54.14855769473159
83,15.791633401317986,-252.26894496180327,-15.689305103984784,-47.35655543493299,29.600155785435884,-4.53047058976163,253.26210028575215,55.49903699518768
84,15.78055129563756,-252.2237284794812,-15.547087502837595,-48.70126053158257,30.017090506397086,-4.677086333903838,253.20794684555125,56.875363232385574
85,15.77293584681403,-252.1781940679109,-15.406862879411605,-50.02060605030073,30.466422244265882,-4.877198287342648,253.1538419838027,58.26840384881921
86,15.769156910065076,-252.13296947980297,-15.270836146689442,-51.31342963169221,30.937944697867717,-5.127514484319578,253.10056477587116,59.66950276522933
87,15.76951235409884,-252.08872494224764,-15.141253044620923,-52.57888024974581,31.42140206311463,-5.424200265336057,253.0489348601059,61.07049213781672
88,15.774214086379022,-252.04617560827649,-15.020339456407683,-53.816237016835494,31.906695617194252,-5.762938493417647,252.99981040840373,62.463649284964255
89,15.78337460529463,-252.00608058738717,-14.910240226482976,-55.024693781163535,32.38408372422597,-6.138991288686569,252.95408270027582,63.84160924839291
90,15.796994655413277,-251.9692378710916,-14.812959286660034,-56.203125968423606,32.84437168427641,-6.547263768439127,252.91266675890805,65.19724629130648
91,15.814952815016053,-251.93647489028277,-14.730303137763011,-57.34985738823555,33.279087624808284,-6.982370420753898,252.87648795519917,66.52353883242547
92,15.836998078656277,-251.9086348541488,-14.663829926927237,-58.46244424234888,33.68064062017979,-7.438704742849681,252.84646492195787,67.81343207216797
93,15.862746618658853,-251.8865593406544,-14.614806276439975,-59.53749176033903,34.04245744998493,-7.9105126594246995,252.8234894424541,69.05971127984901
94,15.891683834221377,-251.87106783061458,-14.584173543341615,-60.57051630564303,34.35909480635156,-8.391969966930644,252.80840416786688,70.25489681877858
95,15.92317251614664,-251.86293504665477,-14.57252450153119,-61.555862917645776,34.62632426067426,-8.877263589172728,252.80197913136433,71.39116984753852
96,15.95646750011965,-251.86286710983143,-14.580090810543819,-62.48668536817605,34.84118789316392,-9.360675794858418,252.80488811404103,72.46033548227511
97,15.990736572571796,-251.87147765674305,-14.606741174372543,-63.354993052863456,35.00202319889778,-9.836669805666835,252.81768598353514,73.45382817266326
98,16.025086707404057,-251.88926514110463,-14.651989788477069,-64.15176649037068,35.10845669447061,-10.299974553210287,252.8407881469067,74.36276220424409
99,16.05859412193081,-251.91659252025747,-14.715014523798464,-64.86714086629318,35.16136649265207,-10.745665885334297,252.87445319007233,75.17802857403919
100,16.090336300254645,-251.95367034294637,-14.794684257807484,-65.49065478962605,35.16281491958274,-11.16924140083193,252.91876956754672,75.89043785495662
101,16.1194240930623,-252.000543958208,-14.889594647726762,-66.01155899301733,35.11595298099286,-11.56668633013409,252.973646900164,76.49090685828135
102,16.14503225421967,-252.05708531340628,-14.99811124744075,-66.41917692181552,35.02489914748756,-11.93452838980274,253.03881218078462,76.97068476688293
103,16.166427244734805,-252.12298969592598,-15.11841822892798,-66.70330598582841,34.89459559240873,-12.269880175573782,253.1138110691372,77.32161193220008
104,16.18299165650985,-252.1977777397269,-15.248570366581061,-66.85464482654403,34.73064577909339,-12.570468289120946,253.1980144225702,77.53640184918588
105,16.19424499291988,-252.2808029729246,-15.386545651049598,-66.86522858930711,34.539138200366764,-12.834648943387736,253.29063017008832,77.60893421043733
106,16.199860691827187,-252.37126507954102,-15.53029599856031,-66.72885132892385,34.32646203367397,-13.061410256478116,253.39072054603207,77.53454472114119
107,16.199679215730317,-252.46822883552176,-15.677793970845999,-66.44145280614006,34.09912127235352,-13.250361857327611,253.49722450741586,77.3102958496165
108,16.193716888765547,-252.57064831008054,-15.827074120497802,-66.00144646890601,33.86355426591336,-13.401712799086596,253.60898482335475,76.93521215073645
109,16.182170072996417,-252.67739544392538,-15.976268356011218,-65.40996660739064,33.62596538637549,-13.516239080606132,253.7247788894876,76.41046440264734
110,16.165414298951173,-252.7872916468346,-16.1236354321264,-64.671015568136,33.392174760875115,-13.595242286749984,253.84335189742157,75.73948862342081
111,16.14399806154788,-252.8991406960652,-16.267585281922862,-63.79149636635982,33.16749085196468,-13.640500985543248,253.96345067074134,74.92802906348003
112,16.11863114535925,-253.01176101073324,-16.406699380013695,-62.78112174651597,32.956609338676145,-13.654216590138804,254.0838563085088,73.98409833881752
113,16.09016757672972,-253.12401538728923,-16.539748478566253,-61.65219728009724,32.763540397011155,-13.638955399309875,254.20341380775412,72.91785264864312
114,16.05958358408281,-253.23483661231353,-16.665708707874014,-60.41928297651292,32.59156513665798,-13.597588431878831,254.32105716165853,71.7413850797781
115,16.0279511819836,-253.34324802770027,-16.7837763145104,-59.09874468831306,32.44322060198054,-13.533230452759382,254.43582906030943,70.4684449374284
116,15.996408118764952,-253.44837885935033,-16.89338068368839,-57.708212930204304,32.32031142448325,-13.449179293779379,254.54689503070477,69.11409552901657
117,15.966124972346085,-253.54947458061986,-16.994195069633303,-56.26597218387213,32.22394506913165,-13.348856270843692,254.6535523081974,67.69432655980398
118,15.938270218625819,-253.64590266491646,-17.086144435074857,-54.79030789657855,32.15458681558652,-13.235748239776626,254.7552338201508,66.22563997838948
119,15.913974211372558,-253.7371539978737,-17.16940961329441,-53.29884086836385,32.1121302093025,-13.113351617585812,254.85150757361316,64.72462949841992
120,15.894293247441368,-253.82284019633283,-17.244426697834257,-51.807879408483196,32.09597864424107,-12.985118493018996,254.9420717063964,63.20757401585746
121,15.880175192964018,-253.90268714835796,-17.3118805160079,-50.33181856948796,32.10513391971055,-12.854404761832326,255.0267455387037,61.6900638188594
122,15.872428385925808,-253.97652515910468,-17.372691416422857,-48.88261311775464,32.13828799151005,-12.724420107426853,255.10545706877272,60.186676068972766
123,15.871695633356303,-254.04427614580143,-17.427995128719836,-47.46934689949646,32.19391464476388,-12.598179661471315,255.17822745199865,58.71071275752862
124,15.87843508257713,-254.10593844555666,-17.479115785406705,-46.097916176822345,32.27035836040103,-12.478457318161338,255.24515313780657,57.27401042718021
125,15.892909464908628,-254.1615700034756,-17.5275322807974,-44.770838701026165,32.36591813878868,-12.367740895229415,255.30638652588942,55.886826644244714
126,15.915184494725896,-254.21127090515554,-17.574838172950205,-43.48719418956248,32.4789244206213,-12.268189591829984,255.36211615765578,54.55780379981688
127,15.945136101299736,-254.25516631215086,-17.622695458858313,-42.242695868560055,32.60780747924525,-12.18159446605307,255.41254749712166,53.29400657001273
128,15.982465105449306,-254.29339084342507,-17.672782794575006,-41.029887128826736,32.75115575411155,-12.109342930416636,255.45788529305128,52.101025483986774
129,16.02671738700061,-254.32607535624962,-17.72673911645522,-39.83845233134385,32.90776259777125,-12.052388515431742,255.49831841374532,50.98313569829743
130,16.077307607832537,-254.3533369172174,-17.786104194757943,-38.655626548274185,33.07665992842771,-12.01122733247241,255.53400791787195,49.943497425245454
131,16.133544899964868,-254.37527248046212,-17.8522583308974,-37.4666857035127,33.25713745474065,-11.985882714107705,255.56507891193505,48.98438270002761
132,16.194659314849225,-254.39195637997489,-17.926363961273154,-36.25549638533935,33.448746519745896,-11.975899354234116,255.59161638852595,48.10741245228929
133,16.25982814875711,-254.40344122321096,-18.009312237622453,-35.00510368136224,33.65128810890123,-11.98034790618879,255.6136647513274,47.31378819914624
134,16.32820151198619,-254.40976125053035,-18.101677833466916,-33.69833565067211,33.86478507857987,-11.997840539449083,255.6312302283274,46.60450397485971
135,16.398926687069594,-254.41093688836162,-18.20368527746518,-32.31840421577717,34.08943920489862,-12.02655754005091,255.6442850467177,45.980526165515386
136,16.471170897904827,-254.4069792710683,-18.31518966205189,-30.849484016744345,34.32557435235487,-12.064284669707897,255.6527722717233,45.44293154960228
137,16.544142111224534,-254.39789397314416,-18.43567334560056,-29.27725284987373,34.573567998525014,-12.108460593452513,255.6566106221218,44.99299686123519
138,16.61710750563217,-254.3836838474985,-18.564258656899195,-27.589379431072693,34.833774439897525,-12.15623325394234,255.65569915847144,44.63223629553673
139,16.68940934863894,-254.36435136620068,-18.699735330867885,-25.77594616422297,35.10644400797303,-12.204523718688415,255.6499221871083,44.36238623202404
140,16.760478166660224,-254.33990102067372,-18.84060069212564,-23.829796368143295,35.39164330126933,-12.250095826168902,255.63915484899132,44.185338872585184
141,16.82984313957949,-254.3103421947476,-18.98511022389407,-21.74679727532246,35.68918166266949,-12.289629901352791,255.62326968491195,44.10302851505656
142,16.897139561970643,-254.2756926459262,-19.131335929837174,-19.526012429395152,35.998548878947474,-12.319798871338962,255.60214415383325,44.11727598994295
143,16.962113084747262,-254.23598250213178,-19.277229775023123,-17.169780191992594,36.31886836039017,-12.337345249209937,255.5756688232093,44.229598532766225
144,17.02462035790121,-254.19125857270245,-19.420689384585497,-14.683699005856212,36.6488689230403,-12.33915759038107,255.54375581728405,44.440994054136866
145,17.084625622987325,-254.14158873393532,-19.559623021735376,-12.07652460742475,36.98687687509428,-12.322345076131333,255.50634704508263,44.75171024114052
146,17.142192792112766,-254.0870661343309,-19.6920107938705,-9.359989057840657,37.33082860267188,-12.284308835358878,255.46342169974366,45.161009943049855
147,17.197472781746438,-254.02781295714476,-19.815959252853286,-6.548555695156579,37.67830246061376,-12.222808537074368,255.41500254021304,45.66694465630238
148,17.250686488337656,-253.96398346504867,-19.92974712581835,-3.659127315824446,38.026567634544364,-12.136022699179783,255.36116054026738,46.26614748961613
149,17.302104630163466,-253.89576607965896,-20.031860711219718,-0.7107265216649171,38.37264680863555,-12.022601035263657,255.3020176410706,46.95365576660016
150,17.352026308579198,-253.82338439428642,-20.121018288763437,2.275833199598682,38.713388978123064,-11.881706999506891,255.23774759663874,47.72277167508302
151,17.40075825072374,-253.74709725089085,-20.196183571433274,5.278269643912097,39.04554858986674,-11.713048547593274,255.16857519025262,48.56496756721695
152,17.44859631345535,-253.66719821584448,-20.25656878411714,8.273135889178443,39.365867313136576,-11.516895074038667,255.09477431398062,49.46984107557559
153,17.495810199864017,-253.58401489765362,-20.301628498140175,11.236100828790665,39.67115501065643,-11.294078560233915,255.01666550641056,50.42512431325925
154,17.542631702656116,-253.4979085471543,-20.33104590970418,14.142207810964353,39.958366760435155,-11.045977197606419,254.93461353839925,51.416750952804954
155,17.589246250935965,-253.40927425067713,-20.344713666095178,16.966119598191028,40.22467296196476,-10.774480121874067,254.8490255007839,52.42898457267389
156,17.635787126728495,-253.31854178975604,-20.34271142774185,19.682363241311126,40.46751959594332,-10.48193238663412,254.76034958824934,53.444610861404136
157,17.682331527975624,-253.22617697489258,-20.32528210070158,22.265591580374835,40.68467562542007,-10.171059980330062,254.66907447387948,54.44519472353246
158,17.72889780949892,-253.13268304625723,-20.292808274190477,24.69087826498468,40.87426443203507,-9.844875682946906,254.5757289340633,55.411400959626576
159,17.775443672302966,-253.03860159844186,-20.245790066230978,26.93406030078115,41.034776265598666,-9.506567896853191,254.4808812531904,56.32337422181294
160,17.82186552676358,-252.94451240081287,-20.184825367364603,28.972136503676442,41.16505924583388,-9.159376080594424,254.3851378675569,57.16117079264629
161,17.867999489750368,-252.85103142081792,-20.11059323771202,30.783722387072057,41.26428778678428,-8.806457781986444,254.2891406410845,57.9052317935666
162,17.91362443807231,-252.75880633872833,-20.023840826668724,32.349552521956326,41.33190947746574,-8.450753324862164,254.19356211209865,58.53688483835908
163,17.958467311792635,-252.66850891753793,-19.925373710048795,33.65301118789316,41.36757414559886,-8.094854896494398,254.09909807017402,59.03885872285137
164,18.002210569057613,-252.5808237831507,-19.816049130415493,34.680662511084705,41.37105153461938,-7.74088710312644,254.0064569583067,59.395793248612236
165,18.044501454060352,-252.49643349500045,-19.696771299414305,35.422743899821455,41.34214624731761,-7.390406018789192,253.91634587574174,59.59472386548893
166,18.0849625945101,-252.41600026744769,-19.56848756898308,35.87358297913201,41.280620005097504,-7.044323360623326,253.82945339761378,59.62551919443901
167,18.12320336831791,-252.34014528103398,-19.432183933715798,36.03189938199651,41.186131619413246,-6.7028616618975185,253.74642997359507,59.48124963601747
168,18.158831446545925,-252.26942704587998,-19.288878253997463,35.90095878400476,41.05820426579722,-6.365545120955313,253.66786718397438,59.158467884094144
169,18.191463956578264,-252.20432060465893,-19.139609983886814,35.48855667416371,40.89622772533408,-6.031229130786111,253.59427749248067,58.657387254295266
170,18.220737853448487,-252.14519942342125,-18.985425884685355,34.80682208460018,40.699500389164875,-5.698169372250822,253.5260762638588,57.98195055553873
171,18.246319306757268,-252.09232159867025,-18.8273618441513,33.87184514692194,40.46731227131066,-5.364128926960881,253.46356766293394,57.13978957241055
172,18.267912097696424,-252.04582153749703,-18.666421322512374,32.703145295562145,40.19906633461632,-5.026519348461923,253.40693562714307,56.142081817441664
173,18.28526507197896,-252.0057076437589,-18.50355118711281,31.32300790469507,39.89443141116832,-4.682569251414287,253.3562405042725,55.0033160395232
174,18.298178586192616,-251.97186591661998,-18.339615901720336,29.755725259737048,39.553516233455994,-4.329511951022039,253.3114213289169,53.74098048977251
175,18.30650968632992,-251.94406885371092,-18.175371248377633,28.026782651651196,39.17705098035717,-3.964782199411535,253.2723031987662,52.37518821295855
176,18.310175582822154,-251.92198866795385,-18.0114389758994,26.16203208366977,38.76656071717829,-3.5862112691270838,253.23860883148157,50.92825228710728
177,18.309154940928355,-251.90521355030253,-17.848283963955232,24.186894865898847,38.32451454562116,-3.192209599431544,253.20997311604233,49.424221903179664
178,18.303486661105097,-251.89326556296663,-17.6861956081785,22.125630630100982,37.85443534419812,-2.7819269402545546,253.18595934308541,47.88838832903529
179,18.293266179769137,-251.88561877839567,-17.525275089115656,20.000704543289512,37.36095756909344,-2.355381315886247,253.16607585080058,46.34676872376172
180,18.27863974151312,-251.88171648921696,-17.365429908009876,17.832277379107538,36.849824384013466,-1.9135500289629186,253.14979204271583,44.82557569152198
181,18.25979737208016,-251.88098663082744,-17.20637655517021,15.637835280514363,36.3278199533406,-1.4584181564880436,253.13655303428447,43.35068128999428
182,18.23696532183282,-251.88285485451917,-17.04765158064335,13.431968054029532,35.80263755942936,-0.992982404842306,253.12579244393905,41.947085597540195
183,18.210398624411912,-251.88675485729254,-16.888630888382142,11.226297018924937,35.282688782461115,-0.5212106352972967,253.11694297413544,40.63840143725824
184,18.18037421619971,-251.89213562229943,-16.72855682968957,9.02954597653806,34.77686288050014,-0.04795964772543687,253.10944444642018,39.44636801412391
185,18.14718481126148,-251.89846526625183,-16.566572462855127,6.847741905702612,34.29424845089906,0.4211442554674762,253.10274896714284,38.39040673096506
186,18.111133453097146,-251.9052313424237,-16.40176201603625,4.684525748983145,33.84383132664237,0.879855896933391,253.0963230139088,37.48723215725598
187,18.07252844672807,-251.91193774461985,-16.23319615739425,2.5415484439966263,33.43418346780468,1.3214859762772968,253.08964648789163,36.75053000489314
188,18.031678293150822,-251.918098737774,-16.05998024373725,0.4189235107789438,33.07315743195547,1.739092340914444,253.08220912443454,36.19071208795251
189,17.988886354243178,-251.9232309909691,-15.881303354899767,-1.6842946760447255,32.76759997624357,2.125680126228646,253.07350498802606,35.814755762465566
190,17.944445250277326,-251.92684473929796,-15.696485666610286,-3.7696381124951586,32.52309660355635,2.474403483568032,253.06302602992224,35.62613246681859
191,17.89863130277434,-251.92843536536586,-15.50502161080722,-5.838787424148999,32.34375657710426,2.7787622782198445,253.05025586429767,35.624826951260694
192,17.85169950674411,-251.92747676517268,-15.30661635041839,-7.893195162702996,32.23204529339371,3.0327880016154207,253.03466500755303,35.80744583184026
193,17.803879474066004,-251.9234177704457,-15.101213378134881,-9.933790960762432,32.18866816291402,3.2312141127027645,253.01570874606188,36.16741140206675
194,17.755372619874247,-251.91568261725632,-14.889011540879878,-11.960782898175406,32.21250754051583,3.3696269725813193,252.99282853404844,36.69523424062354
195,17.706350719919286,-251.9036760974677,-14.670470450294507,-13.973562116642343,32.300611984958806,3.4445943246205784,252.9654575014113,37.378856030763274
196,17.656955927422405,-251.88679374454648,-14.446303999456488,-15.970710009528224,32.44823539069275,3.4537688459626077,252.93303041086259,38.2040521091948
197,17.607302354699204,-251.864437189713,-14.217462527070944,-17.950099696089044,32.64892244378341,3.395964717382961,252.8949982397848,39.15488156403413
198,17.557479299451085,-251.83603455015992,-13.985104978453643,-19.909076513710083,32.894636390719214,3.271205530155182,252.850847335547,40.214171172093685
199,17.507556084161717,-251.80106527967322,-13.750563040792612,-21.844696535889003,33.17592507640914,3.080742241432819,252.80012269203303,41.36401807230363
200,17.457588306132024,-251.75908837825187,-13.515299546515823,-23.753998235121173,33.48212127953747,2.8270403413337535,252.74245436812328,42.58629487354987
201,17.40762510371824,-251.70977237491053,-13.28086350808488,-25.63428083497036,33.80157322843739,2.5137359404741106,252.67758557574024,43.8631401518115
202,17.357716859339906,-251.65292517793225,-13.048844149536047,-27.483363914529633,34.12190065662906,2.1455611612268424,252.6054006297038,45.17741744829238
203,17.307922634829023,-251.5885217421683,-12.820826300137684,-29.299806414675967,34.43027092066868,1.728240032002448,252.52595079479988,46.513127371844746
204,17.258316637423466,-251.51672749200074,-12.598349422609507,-31.083068949635805,34.71368877015396,1.2683570132419124,252.4394760456419,47.85576039988469
205,17.208993151052905,-251.4379155433961,-12.382872279702116,-32.83361055217557,34.95929254668746,0.7732012676708047,252.34642085050947,49.19258223970918
206,17.160069553602323,-251.35267603749037,-12.175744813845679,-34.55291881928577,35.15464902762059,0.25059076945602626,252.24744234551997,50.512848620141945
207,17.111687185261967,-251.2618163871222,-11.978188258878594,-36.243479925424886,35.28803887168176,-0.291318716388506,252.14340973241178,51.807951402151055
208,17.064009934332784,-251.1663519066902,-11.79128381997358,-37.908701133181474,35.348724661765665,-0.844233928334659,252.03539437242165,53.07150212646437
209,17.017220525185703,-251.06748700297888,-11.615969493764577,-39.552802381004874,35.32719385693361,-1.3999272168435326,251.92465072481681,54.29936189134539
210,16.971514635671294,-250.9665877156251,-11.453043914151246,-41.18069476068648,35.21536957824219,-1.950435720784079,251.81258886463996,55.489627473849275
211,16.927093084943706,-250.86514688623404,-11.303175685164998,-42.79786222256241,35.00678310496821,-2.488249910549119,251.70073979041555,56.642582996056234
212,16.884152409767246,-250.76474367122702,-11.166916559951638,-44.410259114763086,34.69670325399197,-3.006485133917715,251.5907151673925,57.7606245809993
213,16.842874237620546,-250.66699951125304,-11.04471694731673,-46.02423088404072,34.28221939030953,-3.4990304114009674,251.48416356008644,58.8481627902194
214,16.80341398408266,-250.57353290356076,-10.936942449076705,-47.64645929051285,33.76227657034919,-3.96066960634355,251.3827254595782,59.911504630698225
215,16.765889528988986,-250.48591526080764,-10.84389039185366,-49.28392775263091,33.13766315531125,-4.387171194470839,251.28798937083513,60.958714040882974
216,16.73037065424303,-250.4056298388511,-10.765805553451328,-50.94389783542519,32.41095305716992,-4.7753441172543765,251.20145094807586,61.99944751931725
217,16.696870115605137,-250.33403534538166,-10.702894413278445,-52.63388508474457,31.586406489675706,-5.123058610685727,251.12447681163528,63.04476038544216
218,16.66533717196442,-250.2723354419188,-10.655337290696721,-54.361621701612705,30.669834564873522,-5.429232447945265,251.05827428161902,64.1068793253106
219,16.63565418132965,-250.22155486116992,-10.623297775111807,-56.1349949175098,29.668434183587113,-5.693784617602086,251.00386776255345,65.19893841839338
220,16.607636610065196,-250.18252230972195,-10.606928941516319,-57.96195307924165,28.590600350823454,-5.917559887839711,250.96208194938131,66.3346785989796
221,16.581036607762552,-250.15585983143973,-10.606375967551653,-59.85037585600061,27.445723297720843,-6.102228831773233,250.93353152444098,67.52811410825886
222,16.555550165028514,-250.14197795443727,-10.62177493044838,-61.80790994107971,26.243977625523563,-6.250168681802039,250.91861666170962,68.79317339614369
223,16.53082773878421,-250.14107576829466,-10.653247764478353,-63.84177639362081,24.996110134156886,-6.364330878072155,250.91752347908988,70.14332552212738
224,16.506488089969057,-250.1531450754391,-10.700893554691284,-65.95855969427363,23.713232139712606,-6.4481013778412235,250.9302285763637,71.59120582869498
225,16.48213491512625,-250.1779778707751,-10.764776508568383,-68.16399116392564,22.406621071614264,-6.505159660330327,250.95650690335117,73.14825610161046
226,16.457375617236632,-250.2151765410504,-10.844911093991414,-70.46274031855657,21.087535151587815,-6.53934188558431,250.99594233180034,74.82439436800603
227,16.431841281527095,-250.26416629552585,-10.941244922640115,-72.85822698902884,19.767044123393,-6.554512901194682,251.0479404112915,76.6277279406492
228,16.405206734082107,-250.32420945365413,-11.053639965907635,-75.35246489011637,18.455878340644485,-6.554450857726228,251.1117428924391,78.56432055126525
229,16.377209556193364,-250.39442133953622,-11.181852722898075,-77.94594424573295,17.1642979476607,-6.542747253939092,251.1864437262372,80.63802084240672
230,16.347667045289175,-250.47378762405162,-11.325514166963968,-80.63755759912708,15.90198332010638,-6.5227244112981895,251.27100635683155,82.8503555836077
231,16.316490232101945,-250.56118293724546,-11.484110651876614,-83.42456952227674,14.677947358593931,-6.49737168983665,251.36428213119513,85.20048718208912
232,16.28369416471546,-250.65539044316242,-11.6569672519666,-86.30262792653247,13.500469694610393,-6.469301134931277,251.46502954004774,87.68523171016676
233,16.249403853855608,-250.7551219334575,-11.843235087852658,-89.26581231252469,12.37705239641544,-6.440722598712473,251.57193388589303,90.29913102045495
234,16.213855599671398,-250.85903797059518,-12.041884090555351,-92.30671277471501,11.31439631122196,-6.413437644747721,251.68362696702022,93.03457075383544
235,16.177393794674387,-250.96576769917365,-12.251702460198198,-95.41653300363267,10.31839667452758,-6.388850728341681,251.79870647020553,95.88193526594104
236,16.140463551766814,-251.07392804224818,-12.47130372578004,-98.58521086130307,9.394156014165649,-6.367995369154877,251.91575486348148,98.8297906645392
237,16.1035995570162,-251.1821420593168,-12.699141745797588,-101.80155112861269,8.546011698101532,-6.35157246157829,252.03335761681734,101.86508806403828
238,16.06741148718941,-251.28905635503438,-12.9335333366213,-105.05336643483012,7.777574807540022,-6.339997565836251,252.15012065610287,104.97338053586998
239,16.03256636252498,-251.39335766675066,-13.172687704894777,-108.32762392116605,7.091776478485295,-6.333453924954983,252.26468717138505,108.13904881128393
240,15.999768431917863,-251.49378901516107,-13.41474155444528,-111.61059674762403,6.490917523257622,-6.331947987596866,252.37575415393053,111.3455324576764
241,15.96973750458708,-251.5891658740403,-13.65779851204142,-114.88802111524214,5.976717003467175,-6.335364393060568,252.48208911451349,114.57556498111104
242,15.943186845998467,-251.67839261730398,-13.899971287902456,-118.14526093984861,5.550355419830973,-6.3435177113514625,252.58254723644492,117.81141298873911
243,15.920801730994945,-251.76047913997826,-14.139424839753083,-121.36748332014538,5.212508314946685,-6.356198652711973,252.6760888441095,121.03512080359701
244,15.903219515046809,-251.8345572300762,-14.374418851267055,-124.53984801085201,4.963366456334714,-6.373212830102625,252.7617967338248,124.22876227074306
245,15.891011750209351,-251.89989615171442,-14.603348034189443,-127.64771297071569,4.8026395229046726,-6.3944103979479125,252.83889278393042,127.37470065619503
246,15.884668571349254,-251.955916995693,-14.824778980227439,-130.67685582202057,4.729541428620166,-6.4197050419165596,252.90675334578694,130.45585563551754
247,15.884585406066652,-252.00220552207878,-15.037482423382693,-133.61370813311066,4.742757002259012,-6.449080983936637,252.96492307757484,133.45597379202653
248,15.891051999048955,-252.0385233026049,-15.240459824450246,-136.44559631986246,4.840391512534588,-6.482587041064505,253.01312696034609,136.35989628469207
249,15.904243684790682,-252.0648169353689,-15.432963248936503,-139.16098013790682,5.019906304616005,-6.520317418531385,253.05128019682257,139.15381487026127
250,15.924214738010306,-252.08122500975688,-15.61450774525108,-141.7496775888407,5.278045473186492,-6.562379776141895,253.0794956048225,141.82550564108854
251,15.950893539662335,-252.0880823581779,-15.784875949411294,-144.2030638326651,5.610759894444963,-6.608852037390156,253.098088002018,144.36452889251197
252,15.98407930848381,-252.08592089670043,-15.944115296158897,-146.5142315038406,6.013135882884361,-6.659730286981554,253.10757488635616,146.76238356254112
253,16.023440286062513,-252.07546606513003,-16.092528666698573,-148.67810072630726,6.479336087299163,-6.714870873262567,253.10867246212018,149.01260574158798
254,16.06851349405259,-252.05762772050753,-16.230659370270317,-150.69146915777824,7.002559981146149,-6.773930461894059,253.1022859228292,151.11080287792205
255,16.118706457284766,-252.03348452013873,-16.359271188820692,-152.5529955850255,7.575030526553846,-6.836308200731066,253.0894930883764,153.05461853004266
256,16.17330151099134,-252.00426135736356,-16.479324061043013,-154.26311482484252,8.188012440838182,-6.901094269261553,253.07152102154092,154.8436267298035
257,16.231463322949715,-251.97130009557029,-16.591945917181565,-155.823886590796,8.831866095777068,-6.96702886961106,253.04971592507061,156.47915985609205
258,16.29224997015377,-251.9360244830601,-16.698401142685398,-157.238785982459,9.496139488539546,-7.032475209871776,253.02550723728075,157.96407880311554
259,16.35462745995543,-251.89990062256146,-16.8000561682282,-158.51244772692476,10.16969895765289,-7.095409312709663,253.00036731098325,159.30249855169583
260,16.41748727760076,-251.8643946972142,-16.898342832539438,-159.65037971531572,10.840897440803822,-7.153428635961596,252.97576838146435,160.4994854865714
261,16.4796665436777,-251.8309298505084,-16.994720414757243,-160.65866328944432,11.49777719002681,-7.2037805861414945,252.95313874208983,161.56074451451806
262,16.53997056485062,-251.8008442053816,-17.09063748239731,-161.543657883832,12.128302069522269,-7.243411083441924,252.93382016269706,162.49231397273658
263,16.597197702700424,-251.7753519539097,-17.187494885084167,-162.31172606148147,12.720612958748015,-7.269032403447783,252.9190285539592,163.30028452918378
264,16.650166421168393,-251.75550922118154,-17.28661128382302,-162.96899204637091,13.263298502010764,-7.2772085577460635,252.90981965464007,163.99055512693664
265,16.69774417246383,-251.74218607493341,-17.38919246498715,-163.52114305073857,13.745672596947612,-7.264455494751561,252.90706116618574,164.5686350251246
266,16.738877565743124,-251.73604574021883,-17.496305357852435,-163.97327852947276,14.158049582870326,-7.227352473732997,252.91141241201632,165.03949665438407
267,16.772623032080833,-251.7375318120982,-17.608857296875062,-164.32980842800055,14.49200792974204,-7.162660175503328,252.92331229338834,165.40747979249596
268,16.798176916548606,-251.74686393690342,-17.72758081343846,-164.59439792355352,14.740633179894646,-7.067440526525444,252.94297595709838,165.67624386876184
269,16.81490366330358,-251.76404195748188,-17.853024172943588,-164.76995342089333,14.898730916535133,-6.939172872466414,252.97040009518906,165.84876235283434
270,16.82236064584843,-251.78885794031967,-17.98554793135923,-164.85864288914675,14.963000742788786,-6.775861066335472,253.00537621889308,165.9273514246375
271,16.82031830102694,-251.82091499494405,-18.12532782445722,-164.86194313799604,14.932162841906012,-6.57612626173633,253.04751075626237,165.91372459845985
272,16.808774496009892,-251.85965146455817,-18.272364141104802,-164.7807073331135,14.807029784917141,-6.339280781900185,253.09625050460642,165.80906570788324
273,16.787962366234993,-251.9043688600152,-18.42649727839744,-164.61524785554573,14.59051787661273,-6.0653794073209175,253.15091175643326,165.61411456832775
274,16.758351128507087,-251.9542617682519,-18.587428544770145,-164.3654323328921,14.287594418768366,-5.755245715122098,253.21071125255006,165.32926252687477
275,16.72063960662357,-252.00844796063564,-18.754744670918065,-164.03079391567675,13.905159704475865,-5.410472538284444,253.27479708220503,164.9546585687726
276,16.675742460501027,-252.0659971627796,-18.927944032767215,-163.61065992020247,13.451865204767248,-5.0333970149146126,253.3422778677797,164.4903299359675
277,16.624769416684682,-252.12595740537876,-19.106462386272977,-163.10430487133362,12.937872147544748,-4.627051945105156,253.41224903204463,163.93632337281264
278,16.56899810856474,-252.18737839609742,-19.289696094854282,-162.51113393035214,12.37455741558636,-4.1950961965618125,253.48381549809704,163.29287331271064
279,16.509841339711546,-252.24933179113003,-19.47702141502875,-161.83090028062728,11.774176301921274,-3.7417276672047532,253.55611066604294,162.56060114119336
280,16.448809659616135,-252.31092858136188,-19.667809200760978,-161.06395539376555,11.149494025810336,-3.2715828235222766,253.62831190934398,161.74074522515645
281,16.38747021364901,-252.37133405442012,-19.861435132604345,-160.21152482940641,10.513399829616182,-2.7896271071954932,253.69965313836929,160.8354152787511
282,16.32740302509561,-252.42978090266294,-20.057286111702567,-159.27599534133665,9.878518683134605,-2.3010405370945453,253.7694351379635,159.84785782587377
283,16.270156149662576,-252.4855809827717,-20.25476373395279,-158.26119279149867,9.256835894286528,-1.8111025767281321,253.83703435839098,158.78271322438337
284,16.217201353596437,-252.53813603788126,-20.453285817496756,-157.17262588775785,8.659349172461258,-1.3250797138531107,253.90191065984513,157.6462401255047
285,16.169891995235925,-252.58694744948738,-20.65228691240506,-156.0176689523291,8.095760950035476,-0.8481181841516131,253.9636142622825,156.44648127427206
286,16.129424649210364,-252.63162487242542,-20.85121869921892,-154.8056582840713,7.574221172390357,-0.38514298487086285,254.0217919236825,155.1933457332014
287,16.096805782518686,-252.67189347302653,-21.049551217620042,-153.54788128608848,7.101127564196366,0.05923689385797869,254.07619222006736,153.89858704107303
288,16.07282455322887,-252.70759941282134,-21.24677586919934,-152.25744508321415,6.6809869586039765,0.480817767191751,254.12666970337094,152.57566420798406
289,16.058032606444826,-252.73871310798597,-21.442410982320677,-150.94902110208426,6.316338145119184,0.8758856459345695,254.17318757278022,151.2394820540719
290,16.052731569799253,-252.76532962755138,-21.636010374176152,-149.638472847872,6.00773436604084,1.2412953358287153,254.21581828676366,149.90601804609807
291,16.05696869908184,-252.7876655038338,-21.827174844094507,-148.34238448552168,5.753782388430831,1.5745425726001556,254.2547413954361,148.59185307698255
292,16.070540699279924,-252.80605137723256,-22.01556590842285,-147.07751651387278,5.551234935302061,1.873826309169365,254.29023794167756,147.31363226250178
293,16.093005185136022,-252.8209203052953,-22.200920362045387,-145.8602208124037,5.395133709893233,2.1380974093628775,254.3226810896298,146.08748779095163
294,16.12369871262711,-252.83279210931124,-22.38306359337528,-144.70585005423047,5.279000613701878,2.3670896409587896,254.35252309291738,144.9284585511112
295,16.161759983141245,-252.84225463266253,-22.56191928225594,-143.62819577454678,5.195074474926207,2.561329063341971,254.38027917065654,143.84994052863195
296,16.20615679222748,-252.84994309211336,-22.737513349807166,-142.6389855451293,5.134589484067864,2.7221186280171836,254.406509186812,142.8631980858953
297,16.255715559885616,-252.8565187850626,-22.909970745141525,-141.7474634026702,5.088089818316362,2.851495941521471,254.43179819197184,141.97695990479878
298,16.309152728968485,-252.8626483854885,-23.079504661774074,-140.9600699172558,5.045773066201127,2.952163560419727,254.45673697697606,141.1971155896526
299,16.365107755390795,-252.86898501397212,-23.24639885981634,-140.28023023136655,4.9978533715170865,3.0273927656207187,254.4819038682075,140.52652086159486
300,16.422177641852315,-252.87615212691205,-23.41098470762174,-139.70825107962938,4.934933787800264,3.080903335391954,254.50784895576112,139.96491194809587
301,16.478952904303558,-252.88473090920766,-23.573615203867885,-139.2413219124341,4.84837610616183,3.1167232558067273,254.5350816421122,139.50892386887267
302,16.534054575155515,-252.895251326446,-23.734638568287142,-138.87361113259323,4.730655354645613,3.1390335021068685,254.56406188450904,139.15220317937596
303,16.58617149140369,-252.9081865176976,-23.894374023862156,-138.59644613298673,4.575685371451999,3.1520039834229294,254.59519501038938,138.88560337843546
304,16.634096836171718,-252.92394993676743,-24.053092152339243,-138.39856502255202,4.379101550577301,3.1596274495072967,254.62882967012374,138.6974503552017
305,16.676762773846374,-252.94289454379964,-24.211001662624966,-138.26642815773045,4.138487292116837,3.165558565226707,254.66525832467897,138.57386546642317
306,16.713272024916463,-252.9653133273537,-24.368243573050783,-138.18457830066498,3.853532069110417,3.1729654201079187,254.70471956497363,138.49913456443687
307,16.742925298750226,-252.99144047796787,-24.524892836027195,-138.13603895583708,3.526111491291397,3.184400421550105,254.74740151339589,138.45611211669103
308,16.765243599691903,-253.0214526249825,-24.6809665984947,-138.1027409436305,3.160283280121543,3.2016967926408397,254.7934455746429,138.42665023142249
309,16.779984563609283,-253.05546964073437,-24.836437760465763,-138.06596746663936,2.762197374294685,3.2258957611294403,254.84294985135597,138.39204282631044
310,16.78715218387271,-253.0935545838458,-24.991252220015284,-138.00680781168137,2.339922967096815,3.257208059760349,254.89597159154044,138.333475301848
311,16.78699948690279,-253.1357124434152,-25.1453480426195,-137.906609486548,1.9031996410664431,3.295011719034196,254.9525281210091,138.2324699400597
312,16.780023829307588,-253.1818875409221,-25.298674743920177,-137.74741821167177,1.4631235275937196,3.337886512446938,255.01259590990037,138.07131700505803
313,16.766954509588107,-253.23195975540787,-25.451211013407885,-137.5123950247158,1.0317823244614475,3.3836839253436146,255.07610774518096,137.83348141364849
314,16.748732437934923,-253.28574004513695,-25.602979554504063,-137.186199972011,0.6218549406653175,3.429630140206678,255.14294832745233,137.50397504056892
315,16.726481849399484,-253.34296593357737,-25.7540581948615,-136.75533246556807,0.24619252186990223,3.4724581818476725,255.2129488718035,137.06968525644405
316,16.701474541532715,-253.40329773122815,-25.904586920756543,-136.2084193056884,-0.08260228836561513,3.5085640292254436,255.28588148255906,136.5196511204066
317,16.675087751908006,-253.46631633352283,-26.05477087902612,-135.53644253491564,-0.35258171125536336,3.5341802668610227,255.3614542234065,135.84527971363934
318,16.64875736253916,-253.53152341586755,-26.204879572233484,-134.7329006695868,-0.5528301405074938,3.5455598580141303,255.4393078414847,135.04049639229
319,16.623928518138463,-253.59834467232687,-26.355242503796994,-133.7938984774291,-0.6737998180479307,3.539161978260158,255.51901495868813,134.10182429669928
320,16.602005987682208,-253.66613647522735,-26.50624155264192,-132.71816239254647,-0.7075948659124823,3.5118315780026923,255.60008229216015,133.02839034058152
321,16.584306668168306,-253.73419606811194,-26.658300421686754,-131.5069809127431,-0.6481964347044746,3.4609644305852263,255.68195621209674,131.82185714230872
322,16.57201641240317,-253.80177513736731,-26.811871559642718,-130.1640718422355,-0.49162444259749816,3.384649886089334,255.76403167028735,130.4862828755706
323,16.566152829154436,-253.86809630843638,-26.967420965748147,-128.69538083408455,-0.2360338599342806,3.2817844550557744,255.84566420201784,129.0279136134114
324,16.567535041390776,-253.9323718570172,-27.12541126369778,-127.10881811027049,0.11825431018688402,3.152150735719863,255.92618440490645,127.45491517836346
325,16.57676081731129,-253.99382379343135,-27.28628338699818,-125.4139423461325,0.5687852683402415,2.9964580079302445,256.00491412446445,125.77705364369288
326,16.594191069288524,-254.0517044269311,-27.450437168900134,-123.62160248983106,1.111062065637368,2.8163428514186504,256.0811834918413,124.00533543722347
327,16.619941449778445,-254.10531648475995,-27.61821114141832,-121.74354978734051,1.7386913669101507,2.6143301590755685,256.15434791254927,122.15161950579922
328,16.65388070661223,-254.15403185788495,-27.789862008620275,-119.79203352537577,2.443576876667777,2.3937567228172707,256.22380411872234,120.22821521945468
329,16.69563555027051,-254.19730807400816,-27.965544563866093,-117.77939500096757,3.216153257602253,2.158661096081264,256.28900446891646,118.24748063925361
330,16.744601859011937,-254.23470164387035,-28.145293141210683,-115.7176749722988,4.045653121021336,1.913644685945376,256.3494687660652,116.22143644116822
331,16.79996199359488,-254.2658775214802,-28.32900588658065,-113.61825030383051,4.920399745505265,1.663710017583339,256.4047929749469,114.16141114837684
332,16.8607078632574,-254.2906140939839,-28.51643311928742,-111.49151560251839,5.828118330554934,1.414082840677134,256.4546543817889,112.07773329009042
333,16.9256692611174,-254.3088033376496,-28.707170805385054,-109.34662517548522,6.756258593734978,1.170025204991466,256.4988129201139,109.97948550004752
334,16.993546869055816,-254.3204459905968,-28.900659725471797,-107.19130934134478,7.692321273697166,0.9366468447742999,256.53710854185255,107.87433411135895
335,17.062949174428223,-254.32564180422204,-29.096190370284347,-105.03177666761728,8.624180593615781,0.7187222131311202,256.5694546504921,105.76844516938199
336,17.132432332814187,-254.32457520796748,-29.29291304689139,-102.87270983703034,9.540394007700884,0.5205202964283503,256.59582780858403,103.66649372820838
337,17.200541790659564,-254.31749711597234,-29.489852294535297,-100.7173575659708,10.430489754714612,0.34565388216159215,256.6162542653897,101.5717678349821
338,17.26585430543342,-254.30470409076386,-29.685924607495913,-98.56771866667933,11.285222194546485,0.1969542300150167,256.6307943090138,99.4863621311647
339,17.327018894747546,-254.28651650339015,-29.879958562559267,-96.4248076239903,12.096784976206127,0.076376121482323,256.6395258693261,97.41144922308631
340,17.382795195027054,-254.26325749195502,-30.07071659287316,-94.28898474120844,12.858973024988943,-0.015062911367260328,256.64252896785047,95.34761073631383
341,17.432087741775394,-254.2352343647639,-30.256917817513262,-92.16032876104919,13.567286174525337,-0.07730669782411508,256.63987247390236,93.29520505487557
342,17.473974902776693,-254.20272376955674,-30.437261599449478,-90.03902652493,14.218969846516716,-0.11124684277399666,256.63160434733356,91.25474578149473
343,17.507731636626147,-254.16596162789148,-30.610451829260487,-87.92575313949754,14.81299123467704,-0.11867196785590615,256.61774629507875,89.22726433587864
344,17.53284575773207,-254.12513852439292,-30.775222157238098,-85.822017425094,15.349952690084624,-0.10218195344860641,256.5982935215657,87.21463192602785
345,17.549027772009126,-254.08040084013092,-30.930362390235253,-83.73045091809828,15.83194715219248,-0.06507097942306553,256.573219879537,85.21982011207548
346,17.556214544307586,-254.03185738980193,-31.074746011869394,-81.65502385784276,16.26236328037807,-0.011184603911704774,256.5424881846843,83.2470847541877
347,17.55456708690112,-253.97959078744242,-31.20735834883079,-79.60117769779454,16.645650236077824,0.055242759556904164,256.5060648781557,81.30206455497054
348,17.544462637450003,-253.92367239886119,-31.32732444387477,-77.57587000437128,16.987053714590292,0.12976287016813964,256.4639377961846,79.39179192290496
349,17.52648101783367,-253.86417958353698,-31.433935393708254,-75.58753351450609,17.292335725134897,0.2078937176306601,256.41613560525263,77.52461985799418
350,17.501385220869217,-253.80121389310656,-31.526671871513425,-73.64595615933573,17.567490741132204,0.28529703945790796,256.3627474195151,75.71007354127548
351,17.470096382671397,-253.73491889969114,-31.605223717433187,-71.76209273781393,17.818470300115347,0.35794590086690475,256.30394115974497,73.95863903071208
352,17.433663682006852,-253.66549639273694,-31.66950469171382,-69.9478214880475,18.050927116404463,0.42227543181678057,256.2399793331211,72.28150380846655
353,17.39323006864616,-253.59321987241046,-31.71966168014296,-68.2156600368689,18.26998843597119,0.4753106266224231,256.1712311520633,70.6902648938511
354,17.349994942349657,-253.51844460279074,-31.756077885432408,-66.57845521518375,18.480066802635594,0.5147661538734079,256.09818028814124,69.19661994920021
355,17.30517500710056,-253.4416139159104,-31.779369863030674,-65.04906021401699,18.684714688910123,0.5391143260914485,256.02142802658,67.81205547815941
356,17.259964607625797,-253.36326187623487,-31.790378592789878,-63.640010856607695,18.886527615931744,0.5476187396436234,255.94169204562382,66.54754418343776
357,17.215496978954576,-253.28401269889963,-31.790155044708133,-62.363210850635774,19.087098400270957,0.5403326140063813,255.859801364694,65.41326126917753
358,17.17280797489709,-253.2045773515222,-31.77994086002702,-61.22963424696776,19.287022917229233,0.5180624741482678,255.7766880685296,64.41832739032698
359,17.13280389870119,-253.1257475417461,-31.761144799293202,-60.24905224460752,19.48595524380023,0.48229943440680606,255.69337619525948,63.57058432846955
360,17.096234956507786,-253.04838693975466,-31.735315536164876,-59.429790900717855,19.6827074148954,0.43512186089439153,255.6109678103373,62.87640829528632
361,17.063675554535386,-252.97341924262165,-31.704111305478822,-58.7785259225785,19.875386587463115,0.37907452364952726,255.53062601947727,62.3405647882546
362,17.035512182692923,-252.90181272632205,-31.669266922216774,-58.300120146055775,20.061560413989728,0.31703042094798334,255.45355468167966,61.96610783016651
363,17.011939040244098,-252.83456123947764,-31.632558767398784,-57.997508239666764,20.238440053929434,0.25204220945060674,255.38097485982942,61.754324989012304
364,16.99296097533213,-252.77266201091973,-31.595768462229387,-57.8716314602553,20.403069651554283,0.18719057546494142,255.31409843738996,61.70472773865118
365,16.978402850345876,-252.7170909874879,-31.560646091173556,-57.92142293368298,20.55251138189788,0.1254369186219956,255.2540996577641,61.81508457198279
366,16.967924178332176,-252.6687765789485,-31.528873902558473,-58.1438411570209,20.684016244820516,0.06948737130338105,255.20208549293866,62.081492030850114
367,16.961037792916773,-252.62857266187203,-31.5020313168119,-58.5339466553941,20.79517244175776,0.02167443599265575,255.15906570637685,62.49847680994489
368,16.957131356418824,-252.59723157888757,-31.48156181643287,-59.08501451303694,20.884025163651298,-0.016138577786772017,255.12592333341692,63.0591207301376
369,16.95549062932863,-252.57537780728646,-31.468742035133324,-59.78867423539659,20.94916380153509,-0.04262650349136425,255.10338621879484,63.755199962237505
370,16.95532361758186,-252.56348304413993,-31.464653300827507,-60.635068195148044,20.98977485067489,-0.05704234656055794,255.09200033067475,64.57733046259311
371,16.955784966081172,-252.56184358289605,-31.470156062100195,-61.61302062187192,21.005660962099448,-0.05922759466522978,255.09210573702376,65.51511295860821
372,16.95600018976181,-252.57056088688282,-31.48586791742286,-62.71021045710184,20.9972284951259,-0.0495934269918325,255.1038162111423,66.55727268356337
373,16.955089451281168,-252.5895261859124,-31.512146254563902,-63.91334316813279,20.96544733930648,-0.029074703407521333,255.12700339701524,67.6917911132466
374,16.952190622788823,-252.6184098384926,-31.549076744047785,-65.20831860080777,20.911787607146746,0.0009403016451458586,255.16128641134947,68.9060289975588
375,16.946481359493518,-252.65665613818007,-31.596469040984832,-66.58039396008378,20.838138120879716,0.03870054191050678,255.20602770640042,70.18684186097812
376,16.93719988705996,-252.70348414448407,-31.65386093911209,-68.0143427677588,20.74671161899274,0.08219856290192402,255.26033590284308,71.52069068078343
377,16.92366415924331,-252.7578949841471,-31.720531851722708,-69.49461185329429,20.639941479276445,0.1292872917381395,255.32307611823623,72.89375141393899
378,16.905288972921237,-252.81868592337094,-31.79552590950601,-71.00547887078616,20.52037458835481,0.1778015315292807,255.39288809483872,74.29202725820807
379,16.881600568230855,-252.88447135365251,-31.877684292329587,-72.53121241066265,20.39056478301443,0.2256783114919109,255.46821218619303,75.70146691443091
380,16.852248266770168,-252.95371066166433,-31.96568580743152,-74.05623549633684,20.252971024829005,0.27107045156641996,255.54732301674116,77.10809066922717
381,16.81701285356144,-253.02474274219662,-32.058094232574945,-75.56529129777165,20.10986417291752,0.3124482191896579,255.6283703654877,78.49812401849911
382,16.77581163160309,-253.09582659694945,-32.15341046807426,-77.04360765190846,19.963245955346817,0.3486847192315866,255.709426463335,79.858136202118
383,16.728700264394377,-253.16518704645247,-32.25012705709965,-78.47705496808393,19.81478353807972,0.37912156453750934,255.78853842956457,81.17517892066314
384,16.675871620900562,-253.23106419734523,-32.34678228874891,-79.8522907831175,19.665762888245364,0.4036123365330521,255.86378415038706,82.43691909221478
385,16.617651874751296,-253.29176506535495,-32.442011054784885,-81.15688396889378,19.517063760251578,0.4225423392890989,255.93332965583514,83.63175909028323
386,16.554494146103245,-253.34571562023197,-32.53458988022052,-82.37941259209376,19.36915839130862,0.4368241972066282,255.99548595080375,84.74893864984944
387,16.48697007160028,-253.391511363763,-32.623474011538775,-83.5095316478135,19.222134775093323,0.44786997014083146,256.0487631727013,85.77861449473417
388,16.41575982231347,-253.42796432554948,-32.70782509480973,-84.53800999418993,19.075743821382144,0.45754166091166276,256.0919198293829,86.71191642506273
389,16.341641098571507,-253.45414419053077,-32.787028672913365,-85.45673924131839,18.929468122004536,0.46808319263418374,256.1240048093548,87.54098161733867
390,16.265477365884195,-253.46941134812505,-32.86070120365574,-86.2587204878916,18.782608725105348,0.48203796355896134,256.1443899865609,88.25897168535873
391,16.18820514174719,-253.47344003870293,-32.92868646619679,-86.93803712378822,18.634385404189317,0.5021567695668299,256.15279161728114,88.8600791294894
392,16.110819771174242,-253.46623036634023,-32.99104132048849,-87.48982304026686,18.484045405916177,0.5313011532546993,256.1492792960585,89.33953079281463
393,16.0343590391012,-253.44810857602994,-33.04801109339246,-87.91023535076765,18.330975554953064,0.5723471418126548,256.13427188494586,89.69359569469806
394,15.959884153728463,-253.41971552587975,-33.09999547611862,-88.19643924912681,18.174812845880975,0.6280939694079953,256.108520438193,89.91960324598917
395,15.888457983475687,-253.38198367287646,-33.14750664876915,-88.34661026582789,18.015549145417847,0.7011818236201475,256.0730786490742,90.01597568134838
396,15.821120837038091,-253.33610314456314,-33.19112221715014,-88.35995636299275,17.85362618718204,0.7940219415297286,256.02926172688353,89.98227595836562
397,15.758864440612479,-253.28347767192705,-33.23143619166065,-88.23675948756843,17.69001750490443,0.9087415152017438,255.97859491377938,89.81926977400086
398,15.702604968732349,-253.22567151192854,-33.2690113786928,-87.97843379480902,17.5262942237657,1.0471448842485913,255.92275323203333,89.52899811903178
399,15.653155947637046,-253.16434913172358,-33.304336119643466,-87.58759601466767,17.364671720276156,1.2106914753043707,255.86349463944333,89.11485517834335
400,15.611201644771766,-253.10121017680464,-33.337787608961776,-87.06814239117597,17.208034209461054,1.4004899770348471,255.80258942180566,88.58166544562984
401,15.577271390522805,-253.03792271297138,-33.36960348168163,-86.42532619784568,17.059934549676004,1.6173073684414723,255.74174904073388,87.93575362184005
402,15.551715299490565,-252.9760577219219,-33.39986306609932,-85.66582996359833,16.924567131864958,1.8615906815812955,255.68255760542868,87.18500118432763
403,15.534682046839395,-252.9170274864163,-33.42847935074978,-84.79782719337433,16.806712631616396,2.1334988004549063,255.6264087545308,86.33888440561161
404,15.526099615043853,-252.8620301155338,-33.45520205978848,-83.8310294199686,16.711654514375383,2.4329411865532613,255.57445027416003,85.40848992527584
405,15.525660201731469,-252.8120022485089,-33.47963132684925,-82.7767156274093,16.645068365121787,2.7596201771710778,255.5275384597887,84.40650546227631
406,15.5328107215942,-252.76758197625531,-33.50124053321088,-81.64774208439495,16.612886304253692,3.1130734089602408,255.48620411758424,83.34718453645692
407,15.546750435400144,-252.7290840995134,-33.519406067759554,-80.45853108979706,16.62113992981686,3.4927129556926206,255.45063207364586,82.24628482166521
408,15.566437052586686,-252.6964897469956,-33.53344114078306,-79.2250369019003,16.67578633381774,3.8978579446653483,255.42065586756732,81.12097981157231
409,15.590602098297651,-252.6694518289568,-33.54263054952359,-77.96468624157598,16.782522661823467,4.327757782231749,255.3957687036377,79.98974286199744
410,15.617775492169633,-252.64731669036584,-33.54626369902242,-76.69628941053425,16.946595317604036,4.781603725884608,255.37515064964967,78.87220153910327
411,15.646318425978249,-252.62916088816965,-33.54366415631216,-75.43991652887709,17.17261024300289,5.258527381268295,255.35771074407776,77.7889588206463
412,15.674463061853215,-252.61384073410719,-33.534215173911356,-74.21673206137346,17.464350788160015,5.757585725185276,255.3421415352307,76.7613764591807
413,15.700357403580908,-252.60005147531282,-33.5173816275606,-73.04878016157927,17.824609576904894,6.2777334257647945,255.3269829412504,75.81131521282057
414,15.722113742837532,-252.58639271160348,-33.492729541348034,-71.9587138892223,18.255040417255767,6.817784529175199,255.31069214422052,74.96082713342419
415,15.737859103762812,-252.5714366368991,-33.459944734818514,-70.96946331358397,18.756035568195376,7.376366907192075,255.29171626287481,74.23179689757276
416,15.745786034095755,-252.55379579889885,-33.418852004673965,-70.10384085283874,19.326632453252852,7.951873986914902,255.26856462876646,73.64553218199242
417,15.744202034818752,-252.53218730274563,-33.369435631861016,-69.38408657455352,19.96445228360237,8.542418978392915,255.23987763330197,73.22230697548748
418,15.73157599336675,-252.5054907438627,-33.311861071565374,-68.83136103942816,20.66567125294502,9.145796970359065,255.20448935083883,72.9808659681848
419,15.706580196082578,-252.47279758550843,-33.24649670978411,-68.46519792772531,21.425023286687022,9.75945990269433,255.1614814540157,72.93790215625114
420,15.668126805428132,-252.43345016646327,-33.17393375161434,-68.30293253854602,22.235832041960034,10.380508618390124,255.1102263136632,73.10752301950237
421,15.61539802642334,-252.38706904831477,-33.09500179490817,-68.35912504143003,23.090069141177953,11.005705024521424,255.05041764755615,73.50072287942425
422,15.547869458877482,-252.33356798599664,-33.01077756513466,-68.64499927853944,23.97843552003075,11.63150595088253,254.98208765625225,74.1248805502863
423,15.465326309390539,-252.27315638904705,-32.92258462246226,-69.16791937723089,24.890463243511856,12.254118719610277,254.90561021524115,74.98330258730367
424,15.36787227779358,-252.20632968831043,-32.83198242917061,-69.93092772343284,25.814636132137665,12.869576870912217,254.821690315959,76.07483361369734
425,15.2559310728458,-252.13384849926265,-32.74074384111075,-70.93236889368778,26.73852889511655,13.473833049645268,254.73134051356766,77.39355629171901
426,15.130240614388123,-252.0567078769489,-32.650820830578795,-72.16562448314964,27.648965869286684,14.062864830185962,254.63584563898172,78.9286039752698
427,14.991840002207425,-251.97609833681105,-32.56429906694523,-73.61898266438602,28.53220148268492,14.63278828674593,254.53671751320348,80.6641081355857
428,14.84204932966253,-251.89336071545137,-32.4833428706326,-75.27566301351885,29.37412480240387,15.17997341898692,254.43564191193056,82.57929947418782
429,14.68244253047413,-251.80993730880047,-32.41013297304655,-77.11401120922045,30.160489754297117,15.701155143295498,254.3344205152068,84.64877577560304
430,14.514813745704211,-251.72732190083656,-32.34680028708531,-79.1078698170206,30.877170842990918,16.193533514116602,254.23491087232253,86.84294120807593
431,14.341138114464655,-251.64701119246152,-32.29535926540513,-81.22712135662401,31.510441769618136,16.65485720741017,254.13896738609762,89.12861185642183
432,14.16352827742101,-251.57045982879285,-32.25764433131191,-83.43838948545864,32.047271744513836,17.083485095377387,254.04838602420125,91.46977209436598
433,13.984188104898893,-251.49904083962883,-32.23525249548155,-85.70587470482616,32.475631991139714,17.478421926212004,253.9648550484477,93.82845726939232
434,13.805365162493365,-251.43401289604077,-32.229494773026396,-87.99229346133437,32.78480315760163,17.839325621519926,253.88991357737945,96.165730980526
435,13.629303245550075,-251.37649529062622,-32.2413583676445,-90.25988437725965,32.96567302142393,18.166485422716462,253.824919209913,98.4427203737833
436,13.458196068929578,-251.32745094056725,-32.27148076996724,-92.47144270664187,33.01101279220718,18.46077191515969,253.77102521457917,100.621670362207
437,13.294143006997544,-251.28767707770166,-32.3201360084037,-94.59134381143443,32.91571942276922,18.723561636984318,253.7291670326989,102.66697729327629
438,13.139107656800572,-251.2578027761051,-32.38723239848325,-96.58651813253884,32.67701086947886,18.956640325954588,253.70005721517308,104.5461640641833
439,12.994879893824052,-251.23829216074242,-32.472320378049154,-98.42734334317713,32.29456166533391,19.16208971391824,253.6841875081003,106.2307617486076
440,12.86304201011283,-251.22945204038575,-32.57460856495311,-100.08842371783463,31.770567916402737,19.3421630905806,253.68183664352637,107.69706722613611
441,12.744939494225699,-251.23144278576567,-32.69298614646233,-101.5492320181934,31.109734016012396,19.49915468808878,253.6930824645153,108.92675196269934
442,12.641656964866803,-251.24429146285954,-32.826050022064784,-102.79459531014815,30.319177714948378,19.635267420044023,253.7178172372388,109.90730384086986
443,12.55399964810869,-251.2679064185612,-32.97213557280424,-103.81501295722533,29.408255194141923,19.752482778502625,253.7557652373183,110.63229152083932
444,12.482480674153768,-251.30209264182366,-33.129350380392104,-104.60680231878052,28.388312931338692,19.852435868748216,253.80650187129515,111.10144881900067
445,12.427314440920828,-251.3465673263703,-33.29561063273752,-105.17207500839483,27.272377926416024,19.93629776618716,253.86947374494136,111.32058449534935
446,12.388416272261075,-251.40097520048192,-33.468680316415195,-105.51855339980192,26.074801784232207,20.00466670300956,253.94401927088927,111.30133001467819
447,12.365408491268479,-251.46490339207134,-33.64621357227773,-105.6592428261712,24.81087690518603,20.057469057711604,254.02938963493443,111.06074366880088
448,12.357632841229888,-251.53789583722812,-33.8258007340534,-105.61197917836398,23.49644440551743,20.093870740756707,254.12477018254805,110.62079350355214
449,12.364168944592944,-251.61946740783125,-34.00501849998958,-105.39887421809684,22.147513265861594,20.11219938910909,254.22930242786447,110.00774367489761
450,12.383858198196775,-251.70911790573948,-34.18148425469378,-105.04568197061943,20.779908551853396,20.109877817497402,254.34210678676445,109.25146929938376
451,12.415332225680002,-251.80634585273998,-34.35291370469817,-104.58110929207196,19.408963518984674,20.083369376748085,254.46230579450847,108.38472387211665
452,12.457044863449006,-251.91066172298872,-34.51717996049281,-104.03609247978466,18.049266407097225,20.028136197290664,254.58904714797626,107.44238134959421
453,12.507306701372332,-252.02160000907924,-34.67237144182895,-103.44306004734516,16.714468293733063,19.938611775263663,254.7215255635002,106.4606725709677
454,12.564321377071115,-252.13872927078975,-34.81684580325075,-102.83519993405001,15.417154020658588,19.808190041837328,254.85900218653148,105.47643330906753
455,12.626223018535276,-252.2616590782299,-34.949277413090755,-102.24574772375767,14.168774287541488,19.62923390727877,255.00082010733917,104.5263791922858
456,12.691114335503164,-252.39004264213864,-35.06869649452242,-101.70731094828116,12.979633701079903,19.393107083286253,255.14641449899935,103.6464210294944
457,12.757104820901173,-252.5235740917052,-35.174518622463246,-101.25124305409456,11.858926947355512,19.090233465898827,255.29531613397802,102.87103245887228
458,12.822348393062766,-252.66197984011507,-35.266563782243736,-100.90707876911921,10.814813370864103,18.710188347486632,255.4471475706728,102.23267995697688
459,12.885079715129454,-252.80500409417218,-35.345064629102076,-100.70204007199118,9.854519177643242,18.241825312200472,255.6016119627535,101.76132277369156
460,12.943648436557108,-252.95238911458324,-35.410663943547874,-100.66061861328545,8.984456298571462,17.673442069515144,255.75847503572396,101.48398722577222
461,12.996550697860146,-253.1038512554996,-35.464401565848725,-100.8042365056774,8.210347585644135,16.992987805973673,255.91754123669003,101.42441622785313
462,13.042457415043456,-253.25905411416568,-35.50769134486169,-101.15098345012558,7.537349216600748,16.188313775444993,256.07862540776193,101.6027914553819
463,13.080239080176034,-253.41758024045868,-35.54228889979333,-101.71542487356649,6.970162624560693,15.247467546666826,256.2415215017467,102.03552268790266
464,13.108986971845491,-253.57890273268623,-35.570251292073905,-102.50847366917657,6.513129731595267,14.15902939911737,256.4059697884351,102.73509715074279
465,13.128030689330892,-253.74235779058418,-35.59388996469446,-103.53731755247142,6.170306706594022,12.912486867209518,256.5716237857517,103.70998135631801
466,13.136951831882035,-253.90711911518306,-35.61571836114962,-104.80539501938047,5.945512909324478,11.498640662129338,256.73801797628545,104.9645691259206
467,13.135593495463171,-254.07217503843583,-35.638395397460776,-106.31241517044455,5.84235305948168,9.910032494354901,256.90453732798323,106.49917193499053
468,13.124065084988585,-254.2363094071985,-35.66466557232931,-108.05441962645726,5.864211816745115,8.141382964344501,257.0703897229123,108.31005085573717
469,13.102741749896259,-254.39808748995708,-35.69729622583606,-110.02388744788124,6.0142207161848935,6.190025881508236,257.2345825981776,110.38949221053323
470,13.072257595690447,-254.5558484598309,-35.73901244407841,-112.20988538190748,6.2951977166227815,4.05632421008177,257.3959053798968,112.72593059239196
471,13.033491847437203,-254.70770619251417,-35.79243034653608,-114.59826527266517,6.709559586256133,1.7440523295889578,257.5529195122345,115.30412252654374
472,12.987547452826986,-254.85156002969688,-35.85998991424113,-117.17190813151109,7.2592072468002105,-0.7392705901318147,257.7039578750113,118.10537178927159
473,12.935722129078544,-254.9851167539436,-35.94388898956215,-119.91101089180377,7.94538440769316,-3.3821105697402767,257.84713507989096,121.1078039892461
474,12.879472406382964,-255.105924445846,-36.04602042406078,-122.79340837058227,8.76851064223643,-6.168725296960131,257.9803696454545,124.28668455943519
475,12.820371722859703,-255.2114183289083,-36.16791450916622,-125.79492055403287,9.727991529106877,-9.07905840053759,258.1014185407638,127.61477191463523
476,12.760064056784428,-255.2989781757622,-36.31068892698709,-128.88971482003743,10.822010384012039,-12.08873064825,258.2079240962502,131.06269697180602
477,12.700214881489483,-255.36599621652226,-36.47500863186714,-132.05067433206818,12.047308083028394,-15.169134850597747,258.2974726921612,134.59936169120977
478,12.642461385208314,-255.4099536478951,-36.661058257569785,-135.24976717037768,13.398959194600545,-18.287638801934126,258.3676638322144,138.19235233505168
479,12.588363972158813,-255.4285028841458,-36.868529654855,-138.45841496092072,14.870153856385327,-21.407897992523914,258.4161872641187,141.80836690084578
480,12.539361036593217,-255.4195518972578,-37.09662683744545,-141.64786383570808,16.451995439713958,-24.490277024856002,258.44090497270105,145.41365969353558
481,12.496728758999213,-255.38134660974168,-37.34408989739796,-144.78956363646552,18.133324027847372,-27.49237568741844,258.4399343764455,148.97450840158976
482,12.461547174088084,-255.31254736320722,-37.60923840340426,-147.85556275216987,19.90057515054425,-30.369652570606235,258.4117289441804,152.4577097670024
483,12.43467315392266,-255.21229586748905,-37.890033524456854,-150.81892557853413,21.73768213729317,-33.07613608256329,258.3551526168964,155.83110875020748
484,12.416720455443661,-255.08026961804555,-38.18415674855858,-153.6541773389372,23.6260289458989,-35.56520989710572,258.2695447772616,159.0641630786296
485,12.408046696036095,-254.91672146726143,-38.489101792121716,-156.33777726793716,25.5444584790089,-37.79045739611681,258.15477300239525,162.12854064586543
486,12.408746958488289,-254.72250274765847,-38.802275386161355,-158.8486165649228,27.46933930640268,-39.70654764371842,258.0112713966711,164.99874207479152
487,12.418653544865986,-254.49906896134243,-39.12110222467864,-161.16853283598914,29.374691423971356,-41.27014385188061,257.84006283478703,167.65273564776848
488,12.437341152974348,-254.24846750550867,-39.443129381373595,-163.28282864016205,31.232369257996282,-42.44081412513164,257.6427638736309,170.07258742211147
489,12.46413649321654,-253.97330722339325,-39.766125760882325,-165.18077870263542,33.01229769059556,-43.18192347220317,257.4215714179497,172.24506615207306
490,12.498131150276777,-253.67670985922635,-40.088172536599735,-166.8561085550675,34.68275464502705,-43.46148563836323,257.1792305421808,174.16220084871753
491,12.538196352166926,-253.36224386686325,-40.407741018989825,-168.30742679794687,36.210691945091206,-43.25295327107738,256.9189832904537,175.82176844236292
492,12.582998272360458,-253.03384152608155,-40.72375504485538,-169.5385936739348,37.56208492145374,-42.53592536977962,256.64449885961284,177.22768993472488
493,12.631012589882397,-252.69570096121117,-41.03563582301407,-170.5590099234581,38.70230071372326,-41.296752020079516,256.3597863274079,178.39031542549264
494,12.680537302967991,-252.3521754167009,-41.34332814035489,-171.383811744986,39.59647552885333,-39.529018174904486,256.0690919920564,179.32658129306577
495,12.729703271776941,-252.00765295936344,-41.64730776318646,-172.0339600493979,40.209892348870554,-37.23389076607672,255.77678435326533,180.06002655792503
496,12.776482619088299,-251.66643053184683,-41.948570683809585,-172.53621513944162,40.508352775786335,-34.420316751539616,255.48723066093368,180.62066010785458
497,12.818695818649964,-251.33258686220577,-42.24860560834227,-172.92299145044242,40.45853986195266,-31.105063831516702,255.20466967553898,181.04467597551866
498,12.854018949794492,-251.00985905694765,-42.54935177362304,-173.23209085638493,40.02837282492957,-27.312600350268962,254.93308573916966,181.37401994342912
499,12.879993200142055,-250.70152770966243,-42.85314467842281,-173.50631693365355,39.187359261567735,-23.074816001806397,254.67608936642995,181.6558168977847
500,12.894039278726735,-250.41031501371612,-43.16265245025266,-173.79297616872563,37.90695543905227,-18.43058995655865,254.43680927288992,181.94167400765713
501,12.893479868749631,-250.1382997037506,-43.4808053808552,-174.14327525936528,36.16094983415227,-13.425217552872736,254.21780009398478,182.28687955839624
502,12.875573403380104,-249.88685178209192,-43.81072088609716,-174.61162643642948,33.92588852689154,-8.109710543688264,254.02096915164327,182.7495209059497
503,12.837562129782759,-249.65658907078793,-44.15562599011852,-175.25487522798406,31.181562485960605,-2.5399890139630092,253.8475246834428,183.38954747085623
504,12.776736641844247,-249.4473567499754,-44.51877946027869,-176.13146731497483,27.911575521415305,3.224014490393303,253.69794705273623,184.26780593255512
505,12.690517959208831,-249.25823017104167,-44.903395878244474,-177.30057291878435,24.104007417167335,9.119316356171101,253.57198358020133,185.44507475389253
506,12.576556970292907,-249.0875403508243,-45.31257411156802,-178.82118814789908,19.752179684813157,15.080885538169683,253.46866674831546,186.98112372010146
507,12.432849719613234,-248.93292074738744,-45.749232689096104,-180.7512324761968,14.855522162914628,21.042665864967997,253.38635469141323,188.93382115746718
508,12.257865626823572,-248.79137330472815,-46.216054318185236,-183.14665977158336,9.420528302819797,26.938593919728675,253.32279218270688,191.35830690711026
509,12.050684347607955,-248.65935134051992,-46.71544115829559,-186.06059716473484,3.4617765157260325,32.70359067023648,253.2751897676034,194.30624329454793
510,11.811135778120253,-248.5328565220881,-47.24948161621417,-189.542522044403,-2.9970146686012726,38.2745070362616,253.24031818391288,197.82514989988405
511,11.539936758443263,-248.40754680471952,-47.81992857078808,-193.63748330740157,-9.921938083808692,43.59100622413528,253.21461466786172,201.95782171478845
512,11.238817287470741,-248.27885175014165,-48.42818820114353,-198.3853694516129,-17.267903048113357,48.59636878919922,253.1942971458022,206.74182510560723
513,10.910628455532532,-248.14209114966917,-49.07531799332126,-203.82022386383684,-24.97774597765712,53.23820985056708,253.17548170194786,212.2090625942145
514,10.559423896837384,-247.992592444233,-49.76203201136723,-209.96960716368457,-32.98150155599474,57.469101507163685,253.15429818894734,218.38539625477483
515,10.190506495113299,-247.8258021737871,-50.48871111481418,-216.85400781180962,-41.195891191818184,61.2470971335807,253.12699852271834,225.29032058155371
516,9.8104324786466,-247.63738670136084,-51.25541545781127,-224.4863051111365,-49.5240857096907,64.53615774754874,253.09005217662232,232.93667873029196
517,9.42696608102967,-247.42331778359792,-52.06189635143131,-232.87129265935127,-57.85579782723667,67.30648392709372,253.04022372141569,241.33042047135703
518,9.04897976052852,-247.17993915765283,-52.907604543778476,-242.00527443858718,-66.06775635303349,69.5347596893281,252.9746279410688,250.47040511625585
519,8.686297499633712,-246.9040111431334,-53.79169228554958,-251.87574907631168,-74.0246071937309,71.20431715128846,252.8907590695481,260.3482569702833
520,8.349481625531768,-246.59273137252637,-54.71300715579403,-262.46119943730787,-81.58027540109897,72.30523241659762,252.78649206438317,270.9482834229888
521,8.049566528939492,-246.2437312311481,-55.67007636907029,-273.73100399726974,-88.57980773367744,72.83436368614,252.66005557008592,282.2474658976846
522,7.797745425107982,-245.85504931745825,-56.66108110040956,-285.6454833280967,-94.86169772906719,72.79534193225292,252.50997821499593,294.21553147237364
523,7.605018905507766,-245.4250849810835,-57.683821326855174,-298.15608995234487,-100.26067674049118,72.19852266642792,252.33501190844925,306.81510861500226
524,7.481816529540516,-244.9525365191191,-58.735672844705284,-311.20574363444416,-104.61093604782805,71.06090452744512,252.13403764247226,320.00196507389825
525,7.43760507243642,-244.43632976777496,-59.81353935327234,-324.7293078702679,-107.74972739452657,69.40601676395248,251.90596078529873,333.72532053072814
526,7.4804990379898015,-243.87554352211683,-60.913803593526005,-338.6541978494099,-109.52127186658763,67.26377340166236,251.6496038380522,347.92822202106225
527,7.616890165490893,-243.26933832859854,-62.03228236238654,-352.90110612687914,-109.78088967547895,64.67028750795365,251.3636049489944,362.54796697066513
528,7.851112434370118,-242.61689460826216,-63.16419072837684,-367.38482983251265,-108.39924654063785,61.66763544035587,251.0463300068078,377.5165573290512
529,8.185157595007668,-241.91736488023693,-64.30412088628421,-382.0151822517115,-105.26659732460088,58.303559237738035,250.69580494959362,392.76116883549565
530,8.6184543087056,-241.16984349439198,-65.44604074032516,-396.69797165327793,-100.29689630526376,54.631095568279335,250.30967344528668,408.2046218919003
531,9.147722231598651,-240.37335622943743,-66.58331650218427,-411.3360310425582,-93.43163757249495,50.70812100480157,249.88518380008554,423.7658446347839
532,9.76691056069024,-239.526871460923,-67.70876245985289,-425.830284053755,-84.64328871954696,46.59680471258523,249.41920795128186,439.36032423226175
533,10.467227804026084,-238.6293340346207,-68.81471980986588,-440.08083460470846,-73.93818508477152,42.3629607015724,248.9082944284414,454.9005487548522
534,11.237265395686807,-237.67972217427777,-69.89316520334681,-453.98807119023536,-61.35875904418217,38.07529354369138,248.34875594460433,470.29644873121873
535,12.06321262531704,-236.67712664472188,-70.93584848280526,-467.4537803048679,-46.984989311031306,33.80453499089441,247.736790758283,485.45585417782826
536,12.929155009197446,-235.62085004922218,-71.93445791439301,-480.38226675607376,-30.93497017431982,29.622474567265776,247.06863517692534,500.284988965165
537,13.81744353863815,-234.5105226125024,-72.88080994935052,-492.6814812196425,-13.364521488375257,25.600894314318786,246.3407425768705,514.6890295778784
538,14.709118856359654,-233.3462291736877,-73.76705917880251,-504.2641575508864,5.534212550620009,21.810425307931247,245.5499821903197,528.5727596226444
539,15.58437269787965,-232.1286405891356,-74.58592277675909,-515.0489644215401,25.53519496556814,18.319350268815207,244.69384890795385,541.8413546251469
540,16.423028963686093,-230.85914159387636,-75.33091242963279,-524.9616775460494,46.381940220669144,15.19238182342495,243.77067378151898,554.4013328642853
541,17.20502835104071,-229.53994662294357,-75.99656555960021,-533.9363791559994,67.79191496917554,12.489449273982405,242.77982403509716,566.1617057346994
542,17.91090313351458,-228.17419528071812,-76.57866667152337,-541.9166893045249,89.46180175505197,10.26452783171667,241.72188135765703,577.0353538948946
543,18.522231921503383,-226.7660201138441,-77.07444909208915,-548.8570281909317,111.07349838926031,8.564543123016048,240.59878813226854,586.9406424265243
544,19.02206755628966,-225.32058105609542,-77.48276738966244,-554.7238998615512,132.30069803089108,7.428380561785,239.41395304019537,595.8032697606391
545,19.39533396154019,-223.84406316495972,-77.80423136553934,-559.4971760809397,152.8158748726307,6.886024237251987,238.17230991420996,603.5583228484616
546,19.629188820974402,-222.3436366396858,-78.04129351818229,-563.1713463288872,172.29748842908313,6.95784412702509,236.88032628711883,610.1524875489627
547,19.713347824466204,-220.8273801422402,-78.19828301119365,-565.7566875180197,190.43721545492588,7.654045306835922,235.54596022627652,615.5463412468184
548,19.6403636204021,-219.3041699186125,-78.28138015969499,-567.2802964648935,206.94702108496577,8.974290157299247,234.17856550995592,619.7166362253366
549,19.405850169144834,-217.78353826729324,-78.29852628808099,-567.7869197806905,221.56588767136404,10.907504985915219,232.78874621000816,622.6584677932399
550,19.008642341671774,-216.27550584229007,-78.25926487592218,-567.3395095012474,234.06602887985548,13.431884731518293,231.38816282782352,624.3872102382344
551,18.450881841364122,-214.79039335385875,-78.17451174421001,-566.0194286466427,244.25842692431192,16.51511101071363,229.9892937663455,624.9400964353038
552,17.738023453188337,-213.33861945535745,-78.05625503780567,-563.9262301864817,251.99754284643748,20.114797439216513,228.60515825656253,624.3773147359708
553,16.878759288668856,-211.93049275293933,-77.91718996201293,-561.1769375455572,257.18506485746235,24.179171002570918,227.24900961868946,622.7825019323482
554,15.884861932563869,-210.57600656892805,-77.77029825351212,-557.9047665975287,259.7725793593525,28.647989874732527,225.934010329058,620.2625257661106
555,14.770949328221329,-209.28464499571893,-77.62838757464283,-554.2572486839568,259.7630741560734,33.45368807539886,224.67290215589074,616.946475429068
556,13.554174879231716,-208.06520782351876,-77.50361075344827,-550.3937405932169,257.2112133787013,38.52272748867438,223.4776853092369,612.9838126677223
557,12.25384674577503,-206.92566035490069,-77.40698845131908,-546.4823383981003,252.22235744158954,43.77712914527428,222.35932023144267,608.5416766423139
558,10.890982270128537,-205.87301230056343,-77.3479609177707,-542.6962449170877,244.950336608862,49.13614805413083,221.32746464572233,603.8013789165273
559,9.487807608803848,-204.91322808992535,-77.3339947374796,-539.2096731246887,235.59402111550688,54.51804790029359,220.3902569674702,598.9541675311857
560,8.067218026096139,-204.0511689415927,-77.37026899843259,-536.1933987030671,224.3927631248526,59.84192272673769,219.55415505580999,594.1963790355812
561,6.652218732589704,-203.29056476303998,-77.45946230501123,-533.8101031068829,211.62081669057832,65.02950369412189,218.82383629605084,589.7241338813659
562,5.265367742038767,-202.63401154060656,-77.6016574522575,-532.2096725423809,197.58087238502952,70.00688379943732,218.2021611752772,585.7277630021503
563,3.9282407916816755,-202.08298790903848,-77.7943741938263,-531.5246357075482,182.59687280497917,74.7060953111122,217.69019835843656,582.3861794711624
564,2.660935441122256,-201.6378836861225,-78.0327326305171,-531.8659310275021,167.0063008706841,79.06648368450372,217.28730557375664,579.8614248827834
565,1.4816288109893494,-201.29803355990973,-78.30974116086352,-533.3191900684435,151.15215120855137,83.0358345649033,216.9912579306487,578.293621548306
566,0.4062017041294354,-201.06175052724,-78.61669469164245,-535.9417071651148,135.37480444800124,86.57122327547478,216.79841366566367,577.7965470915204
567,-0.55205957022346,-200.92635551439122,-78.94366167953916,-539.760237555205,120.00402612792394,89.63956697817228,216.7039064251567,578.454019316163
568,-1.3826745647875085,-200.88820136053292,-79.28003308639117,-544.76973061269,105.35130828893195,92.21786886286169,216.70185276169545,580.3172403960247
569,-2.078087678146033,-200.94269083757322,-79.61510290853707,-550.9330647190444,91.70276390799978,94.29315288672736,216.78556356186405,583.4032050788287
570,-2.6336936396249966,-201.0842897127147,-79.93864885906206,-558.1818090864414,79.31277153805725,95.86209824007342,216.9477488542499,587.6942314918688
571,-3.047773089183558,-201.30653711120996,-80.24148297399273,-566.4179979981269,68.39854830051226,96.93039517082515,217.18070695023607,593.138628143623
572,-3.3213464509529267,-201.6020565112729,-80.51594500238485,-575.5168664439939,59.135802733228516,97.51185719428038,217.47649096090484,599.6524690304195
573,-3.4579586654348273,-201.96257152803332,-80.75631593888886,-585.3304642382365,51.65558535874233,97.6273378375472,217.82704819320037,607.122411917781
574,-3.4634109761277485,-202.37893138063433,-80.95913444132265,-595.6920385765552,46.04241562963718,97.30351172643336,218.2243307024894,615.409463347438
575,-3.3454579202707313,-202.84115180329874,-81.12340457676409,-606.4210517955198,42.33372056761308,96.57158838416436,218.66037831180253,624.3535669589525
576,-3.113487265066674,-203.3384780595066,-81.2506889732043,-617.3286806426826,40.520574492038456,95.4660305565393,219.12737843583534,633.778867840894
577,-2.7781980993329713,-203.85947720174153,-81.34508701275311,-628.2236248960207,40.54968342687746,94.02334600123403,219.61770966677076,643.499483649715
578,-2.3512886267194966,-204.3921663591329,-81.41310322501879,-638.9180368798482,42.326516027913954,92.28101306029384,220.12397792728686,653.3255930236071
579,-1.8451614380625265,-204.9241825367418,-81.46341615942725,-649.2333705331747,45.71944884601539,90.27658773425397,220.6390548337258,663.0696345293085
580,-1.2726507836092014,-205.4429973471616,-81.50656206441431,-659.0059411898633,50.56476913680183,88.04702486583778,221.15612761183033,672.5523971655585
581,-0.6467738668376862,-205.93617741924592,-81.55455015388192,-668.0919873641695,56.67236267560129,85.62822896693474,221.66876839012554,681.6087787806698
582,0.01949345909766436,-206.3916879476458,-81.6204269854941,-676.372035332731,63.83190518578822,83.0548315049367,222.17102793307237,690.0929935703969
583,0.7134169786845843,-206.7982330255039,-81.7178068219592,-683.7543867819426,71.81937180041317,80.36017226810819,222.65755506197786,697.8830248578979
584,1.4226809247949936,-207.1456224140241,-81.86038338189549,-690.1775786060467,80.40367771594065,77.57644493858328,223.12373872438607,704.8841440930445
585,2.1355419852918156,-207.42515087145586,-82.06143679194663,-695.6117004382702,89.35326408871046,74.73495340414173,223.565865750248,711.0313499125589
586,2.8409617930263056,-207.62997360613076,-82.33334846718073,-700.0584974955775,98.4424466965589,71.8664167295717,223.9812844911218,716.2906201710488
587,3.528720172005689,-207.75545993696568,-82.68713652127099,-703.5502318715174,107.45735244247349,69.00125719310212,224.36856303188077,720.6589134282283
588,4.18951212903145,-207.79950659562124,-83.13202520559493,-706.1473234976393,116.20128218540225,66.16980749970367,224.72763027582573,724.162903839209
589,4.815031496399578,-207.7627920104123,-83.67506342372485,-707.934842519642,124.49935840786539,63.40238072902494,225.05988852472882,726.8564849876047
590,5.398043236566441,-207.64895327384997,-84.320808914545,-709.0179778307843,132.2023418085599,60.72915993210044,225.36828686602806,728.8171339544947
591,5.932445089772156,-207.4646683997013,-85.07109548760135,-709.5166610159979,139.18952956011904,58.1798826071535,225.65734554729883,730.1412854549433
592,6.413317949491115,-207.21962815151502,-85.92489996764074,-709.5595782270176,145.37067719666166,55.78331655963908,225.93312252040832,730.938923866401
593,6.836963479409175,-206.9263844949066,-86.8783226912776,-709.2778497880661,150.68691474858983,53.56654549576448,226.2031146043495,731.327653370944
594,7.200927205132858,-206.6000669216678,-87.9246903625079,-708.7986924937065,155.11065637541654,51.55410292048406,226.4760875455095,731.4265472988684
595,7.504005463792024,-206.25796376705676,-89.05478314648123,-708.239396362278,158.6445325881073,49.7670097331412,226.76183201993675,731.3501013595248
596,7.746234818014006,-205.91897323782115,-90.25717969872764,-707.7019411809499,161.3194054513225,48.22178301234989,227.07084657345098,731.2026172389911
597,7.928862577391288,-205.6029378603949,-91.51870521593048,-707.2685462641257,163.19155825497828,46.929490108115864,227.41395355837287,731.0733204969575
598,8.054296927837164,-205.32988569258168,-92.8249594961189,-706.9983905466742,164.33917902609562,45.894923260006,227.80185985215812,731.0324699810876
599,8.126035021205473,-205.11921088851668,-94.16089533681604,-706.9256639179209,164.8582790453026,45.115966008536,228.24467985262467,731.1286483742741
600,8.148567364466562,-204.9888340103975,-95.51141315774566,-707.0590215325105,164.85820176786638,44.583214253770564,228.75144325078563,731.3873410106547
601,8.127257049009517,-204.95438791865016,-96.86193604177325,-707.3824187659907,164.45688437975247,44.27990240087668,229.32961382514708,731.8108203696335
602,8.068192901927372,-205.02847737969648,-98.19893068039137,-707.8572134489369,163.776034738482,44.18216902735063,229.98464754892578,732.3792646440304
603,7.978016651219149,-205.22005916185222,-99.51034398003232,-708.4253412079912,162.93638178911658,44.25967742071478,230.71961838628786,733.0529579047991
604,7.863725665959954,-205.53398418617343,-100.78593208278912,-709.013305533354,162.05314837389042,44.4765848484004,231.53493823703505,733.7753532601376
605,7.732454669450766,-205.97073455349513,-102.01746767442194,-709.5366820569701,161.2318819594179,44.79283151069623,232.4281936928154,734.4767347225282
606,7.59124198478031,-206.52637659102075,-103.19882177108812,-709.9048205073398,160.5647615939612,45.165697200164225,233.39411673957696,735.0781925462438
607,7.446788288751121,-207.19273726256915,-104.32592668449318,-710.0254395953223,160.12747937692666,45.55155246819542,234.42469945503504,735.4956326099233
608,7.305218324713612,-207.95779641214713,-105.3966365705769,-709.8088482405062,159.97677348320258,45.90771330404559,235.50945440079212,735.6435719667098
609,7.171858238665249,-208.80627261885755,-106.41050985345915,-709.1715861715064,160.14866900454294,46.194295477188675,236.63581323064284,735.4385254792287
610,7.051042675630004,-209.72036723140315,-107.36854295148335,-708.0393499970552,160.65746351846093,46.37595811328134,237.78964660033242,734.801854811135
611,6.9459659410692645,-210.6806206422382,-108.2728865409002,-706.3491475007413,161.4954762012112,46.42342705303668,238.95587957768817,733.6620213797149
612,6.858590117385349,-211.66682808735837,-109.12657401027315,-704.0506935843467,162.63356131125477,46.314698184143744,240.11916944120853,731.956249818436
613,6.789620237687918,-212.65895977016964,-109.9332871223951,-701.1071185434917,164.02236755672155,46.035839507912605,241.2646078752346,729.6316607681085
614,6.7385528348141515,-213.6380317870629,-110.69717679029922,-697.4950987565288,165.59430336862883,45.581336953966456,242.378407454059,726.645966985948
615,6.703799594882616,-214.58687964007584,-111.42274807657168,-693.2045398014151,167.26614449595286,44.95396025121031,243.4485329081339,722.9678430982511
616,6.6828825717936695,-215.49079444357398,-112.11480902060346,-688.2379432117505,168.94219532748386,44.16415846493237,244.46524084427804,718.5770773020706
617,6.672691779389842,-216.33799260962275,-112.77847379777737,-682.6095731029939,170.51788997585484,43.22902753720964,245.42149714862728,713.4645952457118
618,6.669790456719766,-217.11990205922382,-113.41920315691291,-676.3445117697597,171.88369498121267,42.17092220995087,246.31324891803712,707.6324160583146
619,6.670748405403357,-217.83126095471815,-114.04286002390955,-669.4776592906945,172.92915487627454,41.01581001707069,247.13953696877283,701.0935633343436
620,6.672480035179359,-218.47003750612984,-114.65575616784328,-662.0526972503363,173.54690786715855,39.79148354074177,247.90244504280716,693.8719162716559
621,6.672561614958984,-219.03719036956338,-115.2646670629531,-654.1210072261574,173.63649462068688,38.525757127387365,248.6068918531285,686.0019551643733
622,6.669502150926453,-219.53629750878827,-115.87679632929682,-645.7405163464152,173.10779083575153,37.24477475937377,249.26028121601715,677.5283375700745
623,6.662944681527124,-219.97308663471705,-116.49967773733762,-636.9744388771701,171.88391448818575,35.97154651384289,249.87203312300227,668.5052411952115
624,6.65377972350155,-220.35490258616045,-117.14101068355185,-627.8898955707145,169.90348996204196,34.724812350357666,250.45302443456671,658.9954280654925
625,6.644159699837075,-220.69014680137,-117.80843315038247,-618.5564192199896,167.12219062077477,33.51830496382255,251.01497186890563,649.0690191623783
626,6.6374114839654,-220.98772198764985,-118.50924342432482,-609.0443900839011,163.51352471567156,32.36045030670223,251.56979208299947,638.8020130725456
627,6.637852653200469,-221.2565117461108,-119.25008741313034,-599.4234806708913,159.06887277539295,31.25450830279237,252.12897381731963,628.2746274027173
628,6.6505248360248554,-221.50492066964537,-120.03663179765161,-589.761216950961,153.7968242671627,30.19912089758305,252.70299533255573,617.5695780575103
629,6.6808640822152405,-221.74049571918414,-120.87324456170282,-580.1217748153939,147.72189494062806,29.189203494301974,253.3008170610336,606.7704308007832
630,6.73433303305213,-221.9696448180689,-121.762704151111,-570.5651223118904,140.88273268851455,28.2170919888685,253.92947503569076,595.9601573674379
631,6.816042473592391,-222.19746358618866,-122.70595709924528,-561.1465900647015,133.32993882594124,27.27384286763192,254.59379549468522,585.2200049672759
632,6.930390406739108,-222.42767567356285,-123.70194171162741,-551.916908463574,125.12364362458239,26.35057860456705,255.29624501206317,574.6287475036803
633,7.080745097371982,-222.6626860774217,-124.74749247037654,-542.9226972912362,116.33097965626789,25.43977435968762,256.0369235403727,564.2623358266756
634,7.269194823962708,-222.90374038623122,-125.83733616921926,-534.2073391693569,107.0235933990598,24.53639390273246,256.8137001155499,554.1939105155421
635,7.496381754001591,-223.15117658850716,-126.96418626666544,-525.8121201084276,97.27532392384312,23.63880168325885,257.6224830599903,544.4940916670053
636,7.761430924083849,-223.40475038130128,-128.11893654286834,-517.7774847660748,87.1601570850939,22.74940210101123,258.4576087423022,535.2314223629937
637,8.061978309224935,-223.66401021924787,-129.29094918087418,-510.1442347213427,76.75053516565633,21.874983208155385,259.3123258112316,526.4728200916297
638,8.394294957329969,-223.92869500692316,-130.46842646914183,-502.95449671694956,66.11606740206591,21.02676681557723,260.1793458888921,518.2838851171703
639,8.75349747264352,-224.1991254793818,-131.63885025182955,-496.2523039618347,55.32264999131075,20.220187546409665,261.0514274549489,510.72892635640807
640,9.133828804552635,-224.4765598284083,-132.78946972560055,-490.08366523780217,44.43196995665612,19.474438164860896,261.9219572915993,503.8705919453972
641,9.528987537329321,-224.7634849379807,-133.90781624792012,-484.4960404137685,33.50134005384756,18.811826668382018,262.7854933456574,497.76903031618053
642,9.932479509706553,-225.0638168218942,-134.9822229356114,-479.53719253213546,22.583794267878744,18.256991975233188,263.6382340741528,492.480554013252
643,10.337963770619517,-225.38298774537688,-136.0023265122989,-475.2534405773309,11.728366017085813,17.836020320302406,264.4783822916333,488.05582761943026
644,10.739566190308151,-225.72790318874942,-136.959529118123,-471.68738799435084,0.9804736188418791,17.575495542174945,265.30637639685716,484.53764788309746
645,11.132138125199482,-226.10675911609374,-137.84739893982555,-468.8752452722787,-9.617650794097964,17.501505819582974,266.1249686713917,481.95842383557056
646,11.511443564896238,-226.52871852629707,-138.66199079084151,-466.8438968976823,-20.026533281350037,17.638619415237734,266.9391388745431,480.3374937378522
647,11.874265637923191,-227.0034556724705,-139.402071112645,-465.6078821481847,-30.209051031076704,18.00883423698613,267.75584132000654,479.6784322193266
648,12.218431854325022,-227.5405867079177,-140.06923598379672,-465.16646692524694,-40.130041364503164,18.630501924194085,268.5835949279702,479.966505956221
649,12.542765782985837,-228.14901682175378,-140.66791532507813,-465.50098437015095,-49.755901923882085,19.517228766929716,269.43193815520596,481.1664339203267
650,12.846978593333118,-228.83624510349148,-141.20526147044228,-466.57262035544727,-59.0541473238454,20.676765771657465,270.31078308246015,483.2206044743792
651,13.131515133165449,-229.60767717366653,-141.69092557591924,-468.32081843939966,-67.99289221384203,22.109920052894044,271.22971321428076,486.0479004519868
652,13.397366500300551,-230.4659996056288,-142.13673069413002,-470.6624748478159,-76.54025142958723,23.809546620541123,272.19727557253884,489.5432837003247
653,13.645857078605715,-231.4106679423771,-142.55625528534722,-473.49208052858756,-84.66368164744604,25.759705211599265,273.2203181994513,493.57828545569595
654,13.878411546746348,-232.43755177796237,-142.96434509922588,-476.68293679499976,-92.32932774739486,27.93508046883273,274.30341930432866,498.0025290858034
655,14.09630780820466,-233.53876724746695,-143.37657458498668,-480.0895198451074,-99.50147040049706,30.300758622492825,275.4484451166525,502.6463708439031
656,14.300424902252553,-234.70271138639475,-143.80868112589604,-483.5509996426572,-106.14218989743158,32.81243040253506,276.65426163836526,507.3246822274103
657,14.490999410590241,-235.91429642379705,-144.27599622911683,-486.8958371341332,-112.21135997242344,35.41705454645109,277.91661252738896,511.8417200082527
658,14.66740791308662,-237.1553671931822,-144.79289717800216,-489.947299676652,-117.66706489013515,38.053976878483454,279.22816272547664,515.9969459881022
659,14.827995150752445,-238.40527297356536,-145.3723005999618,-492.5296571775616,-122.46649823814631,40.65646302626828,280.57869633841034,519.5915778350812
660,14.969966911806587,-239.64155694704658,-146.0252162665293,-494.47475918197637,-126.56735938039907,43.15357279385829,281.95544852187805,522.4355840903013
661,15.089363203700909,-240.84072208432485,-146.76037591826278,-495.6286527849649,-129.92971940879886,45.47228336166018,283.34354520125476,524.3547882154917
662,15.181121484027035,-241.97903126298843,-147.58394864571326,-495.857887320883,-132.51828693805234,47.53975731575906,284.7265214837625,525.1977238151928
663,15.239232393118758,-243.0333013248544,-148.49935145674513,-495.0551658464566,-134.30496783072482,49.28564922197283,286.086889339833,524.8418883042281
664,15.256982536827072,-243.98165502837767,-149.5071607398877,-493.1440436799908,-135.27158351857028,50.644349704793704,287.4067268956535,523.1990741550259
665,15.227271447135706,-244.80420071951855,-150.60512705988896,-490.08243582687516,-135.41259119883094,51.55707721767948,288.6682646946541,520.2195110727364
666,15.142983790476595,-245.48361627649263,-151.78829202172923,-485.86477110841616,-134.73763687727683,51.97374310132017,289.8544478588381,515.8946224946111
667,14.99739368126047,-246.00562088174766,-153.04920183689123,-480.522713525462,-133.27376979033735,51.85453304241491,290.94945671100504,510.2582783556625
668,14.784575625738617,-246.35932499912798,-154.37820788413666,-474.12445334001956,-131.06715450930182,51.171165549690876,291.9391718203861,503.3865059825704
669,14.49979601306021,-246.53745523013043,-155.7638404836266,-466.77264499325497,-128.18413491382398,49.907803797437516,292.81157256224105,495.3956961556
670,14.139860159602005,-246.53645619144808,-157.19323896443854,-458.6011314066698,-124.71153173337063,48.06161013910945,293.55706123117034,486.4394074123154
671,13.70339282073985,-246.3564759544251,-158.65261928649937,-449.77064166421997,-120.75609137978041,45.64294284444166,294.1687075416042,476.70392614554885
672,13.191034724230207,-246.00124474659654,-160.12775996252452,-440.46368066161637,-116.44304622702882,42.675203209930935,294.6424108605154,466.4027820251556
673,12.605543540581738,-245.47785855971958,-161.60448759125686,-430.87884545042016,-111.9137923506493,39.19434918124859,294.976979638853,455.77044748714354
674,11.951794103476475,-244.7964803745561,-163.06914465256298,-421.2248051192355,-107.32273680137953,35.24809910115646,295.17412932530266,445.0554666708499
675,11.236679056481409,-243.96997242547792,-164.50902393099693,-411.71417149465384,-102.83340987936512,30.894855545859638,295.2384017507326,434.5132640803962
676,10.468917017222168,-243.01347370723335,-165.91275565189133,-402.5574697130774,-98.61397625414276,26.202384099940556,295.1770106823644,424.3988779461178
677,9.658780512469791,-241.94393789597117,-167.2706350290605,-393.9573939132549,-94.83231032840975,21.24628557082724,294.999619994452,414.95984972604026
678,8.817760052793705,-240.77964782517176,-168.5748796725536,-386.1035065080546,-91.65082460663284,16.10830276926562,294.71806265531484,406.42948127455617
679,7.9581834704152286,-239.53972324557876,-169.81980850946036,-379.1675113550014,-89.22125399728365,10.874504465937823,294.34601035790183,399.020646282628
680,7.092810909257172,-238.24363847511952,-171.0019366819043,-373.2992024478733,-87.6796033228954,5.633389477450534,293.8986049549557,392.9203136440297
681,6.23442581523506,-236.91076558885518,-172.11998427058245,-368.6231609374642,-87.14145968116132,0.47395354951818736,293.3920638230093,388.28490847058845
682,5.395441193535118,-235.55995706032238,-173.17480048054975,-365.2362449052675,-87.69785605512673,-4.5162385015298225,292.8432718590889,385.23660293752965
683,4.587538371643927,-234.20917930790503,-174.1692088175996,-363.20588914022306,-89.41184861858328,-9.252932718851863,292.26937291565093,383.8605955805884
684,3.8213525623736904,-232.87520545018432,-175.10778240398935,-362.56920713906084,-92.31593905020162,-13.656974948047239,291.6873729168133,384.2034056514133
685,3.106215869518389,-231.57337187025234,-175.99656160739457,-363.3328655229658,-96.41043696494448,-17.655965928992483,291.11376558926077,386.2721799079558
686,2.4499643515719463,-230.31739928812718,-176.84272839798982,-365.47368245301465,-101.66281868846234,-21.18574160112917,290.5641898487556,390.03498336277636
687,1.8588115994500116,-229.1192754302985,-177.6542531994996,-368.93988629485204,-108.00809937887956,-24.191642238955286,290.0531257244406,395.42202292196396
688,1.3372872111744738,-227.98919353715337,-178.4395303416081,-373.6529584408248,-115.35019809175996,-26.62954084446196,289.59363357171674,402.3277331422711
689,0.8882349240128139,-226.93553916458345,-179.20701751860682,-379.5099747188219,-123.56424161553355,-28.466608658153874,289.1971394270821,410.61363626420626
690,0.5128623684355035,-225.96491698262946,-179.96489313589097,-386.3863529904731,-132.49972394906285,-29.681802177436975,288.87326779257694,420.11187403398736
691,0.2108326059053791,-225.08220921105152,-180.72074345097948,-394.13890995869207,-141.98441450665376,-30.266061401238833,288.6297218518875,430.6292963992032
692,-0.019613177508325825,-224.29065757806444,-181.48128923007695,-402.6091278157838,-151.82888931276185,-30.22221391745122,288.4722099598056,441.9519822031503
693,-0.18151223642630088,-223.59196101436834,-182.25215932080283,-411.6265319804543,-161.83154513008367,-29.564584964343755,288.40441607855496,453.85006056693965
694,-0.2790254010892241,-222.98638158255275,-183.03771619786903,-421.01208616654554,-171.7839460277731,-28.318320567700457,288.4280106345121,466.0827002020152
695,-0.31727837963267114,-222.47285133000895,-183.84093644310326,-430.58152156774514,-181.47634462696615,-26.518439674340577,288.54269715263973,478.40313855674776
696,-0.3022048478245756,-222.0490729168047,-184.6633475349197,-440.1485334552857,-190.70321562578462,-24.20864167690712,288.74628920752315,490.5636337973994
697,-0.2403949930812349,-221.71160730233666,-185.50502117694748,-449.527800375294,-199.26863725297125,-21.439907045369978,289.0348118909529,502.320239605688
698,-0.1389514613938878,-221.45594288885036,-186.3646222738966,-458.53780658576153,-206.9913578955166,-18.26893960845722,289.4026221969501,513.4373242058952
699,-0.005353308090808858,-221.27654261452975,-187.2395111613405,-467.0034744043248,-213.70939175632645,-14.7565077360654,289.842543447665,523.6917787015146
700,0.15267239666575758,-221.16686856133126,-188.1258947228684,-474.758636126904,-219.28400041517216,-10.965746742168744,290.3460100684616,532.8768831054438
701,0.3272723020677461,-221.11938734303067,-189.01901976614428,-481.6483917532936,-223.60293719425184,-6.960485223633263,290.90322050698734,540.8058189649876
702,0.510583297358048,-221.12556326995528,-189.91339977574,-487.5314066448248,-226.58285776801938,-2.8036535056664444,291.5032975958267,547.3148334597527
703,0.6948455265728742,-221.17584941087227,-190.80306423514423,-492.2822017878221,-228.17083210916178,1.4441762259831508,292.13445688448365,552.2660705025138
704,0.8725135705333251,-221.2596886926,-191.681818388767,-495.79347953094225,-228.3449277977231,5.726078814768117,292.7841842084059,555.5500898765044
705,1.0363670100305336,-221.3655378031599,-192.54350077289544,-497.97851149027855,-227.11387091328083,9.989863927754874,293.43942392538696,557.0880964276222
706,1.179620600970224,-221.48092580126402,-193.38222617925908,-498.77359467599234,-224.51582586416393,14.188939687890386,294.08677885116464,556.8338980383348
707,1.2960328421090188,-221.5925570571756,-194.19260299423266,-498.140557907105,-220.61636702702717,18.282935650907458,294.71272209693416,554.7756030120115
708,1.380010130990409,-221.68646471751072,-194.9699160995579,-496.0692739255473,-215.50574080538266,22.238076894194958,295.30381998095453,550.9370539812608
709,1.4267024568733406,-221.7482168286545,-195.71026957564243,-492.58010446326625,-209.2955357179586,26.027311208019686,295.84696425073747,545.3789770201807
710,1.4320859830784234,-221.76317328071954,-196.41068689026156,-487.7261779093598,-202.11489092835274,29.630202110840212,296.32961124088854,538.1998033431059
711,1.3930279498456002,-221.71678841176671,-197.0691695172986,-481.5953745529311,-194.10638163040974,33.03261011232924,296.74002532959327,529.5360996550806
712,1.307329926651351,-221.59495164294972,-197.68471762528728,-474.31187454683095,-185.42172413609435,36.22619253685463,297.06752403018237,519.5625243116793
713,1.1737463794248073,-221.384356805545,-198.25731852040937,-466.0371100144199,-176.21744466730814,39.20775800777497,297.30272214173493,508.49121147687896
714,0.9919766980718642,-221.072889643747,-198.7879099497083,-456.96995630039714,-166.65065311339944,41.97851518485547,297.4377724409529,496.57047560412076
715,0.7626302651459126,-220.65002207593403,-199.2783261153321,-447.3459998661643,-156.87505549243653,44.54325641513541,297.46660020680065,484.08272536649565
716,0.4871658560837519,-220.10720093208548,-199.73123421325596,-437.43573364534933,-147.03732602538668,46.90951567549414,297.3851281828878,471.3414816952844
717,0.16780852890534026,-219.43821789780296,-200.15006844269416,-427.54155646374403,-137.27394174366748,49.0867368534638,297.1914872496631,458.687410968393
718,-0.1925510957904492,-218.6395462983488,-200.53896681996318,-417.9934923343019,-127.70856020817386,51.085483537927324,296.88620616100445,446.4833131926857
719,-0.5904689382721316,-217.71062938478795,-200.90271398348855,-409.1435977451381,-118.44999540406566,52.91671572531874,296.4723715098234,435.1080465602487
720,-1.0220639410013446,-216.65410435099238,-201.2466907354717,-401.3590881929692,-109.59081934938199,54.59115261418048,295.9557470923742,424.94942224874876
721,-1.483131727273672,-215.4759468058982,-201.57682857852035,-395.01428471329433,-101.206588521125,56.118733795255324,295.34484050095574,416.3961626347145
722,-1.9692487578539528,-214.1855220258035,-201.8995653321737,-390.48155129456404,-93.35566630823651,57.50818343460019,294.6509044622314,409.82907670283447
723,-2.4758616902228896,-212.79553201891707,-202.22179645549002,-388.1214594281781,-86.07958728321516,58.76667424848797,293.88786142105045,405.61166322887533
724,-2.998358811409795,-211.32185118820362,-202.55081615041072,-388.27247238939697,-79.40388807859799,59.899581749151196,293.0721422289333,404.0804013647183
725,-3.532123005779841,-209.78324801143927,-202.8942426226208,-391.24048579701395,-73.33931439139283,60.910315531443594,292.2224333686129,405.5350265049156
726,-4.072568220802063,-208.20099535709934,-203.25992287427073,-397.2885897317451,-67.88330464728655,61.800213355782354,291.3593315860845,410.2291141970146
727,-4.615163304495726,-206.59837744987672,-203.65581387841584,-406.6274291624775,-63.02164804124837,62.56848497505959,290.50490967890124,418.36130456159515
728,-5.155448109051857,-205.00010675864655,-204.0898387046034,-419.4065327091876,-58.73021769208582,63.21219550304403,289.68220209917206,430.0674935346284
729,-5.689046859720282,-203.4316689434877,-204.5697180407549,-435.7069550053719,-54.97668830385868,63.72628207688507,288.91462373071084,445.4142956703395
730,-6.211683079878769,-201.91861821475985,-205.1027796991545,-455.5355362016357,-51.72216184928779,64.10360209308799,288.22533959974885,464.39404753033756
731,-6.719198982724276,-200.48584869188738,-205.6957511970985,-478.8210255850118,-48.92264351451164,64.33501603955804,287.6366072166953,486.92157265997366
732,-7.207580447136729,-199.15686922516457,-206.35454315112048,-505.4122480573444,-46.530331416185184,64.40951269911035,287.1691163176399,512.8328709585288
733,-7.672986866302694,-197.9531093564019,-207.08403343240627,-535.0784165087174,-44.494704809854305,64.31438865684369,286.84135236477636,541.8858295084135
734,-8.111783629380524,-196.8932824875478,-207.88786314586176,-567.5116150688084,-42.76341470338189,64.03549592632751,286.6690097150777,573.7629822709167
735,-8.520573984961846,-195.9928290165254,-208.76825528943345,-602.3314033711034,-41.282997098872436,63.557568986108436,286.66447780941337,608.0762771124718
736,-8.896226650512602,-195.26345770298846,-209.72586580111877,-639.0914248671412,-39.999441989216464,62.864635268615466,286.83641970981586,644.3737448383885
737,-9.235895779995912,-194.71279857303335,-210.75967515944208,-677.2878451108077,-38.85865984965036,61.94050381867635,287.18945772628246,682.1479091070995
738,-9.537030721776164,-194.34417578065782,-211.86692697556006,-716.3693988373951,-37.80689081393186,60.76931897890411,287.72397623384677,720.8457291543398
739,-9.797374323876427,-194.15650420795598,-213.04311801151317,-755.7487865815244,-36.79110003083684,59.33616119373382,288.43604715178054,759.8798288045483
740,-10.01495025214861,-194.14430932525673,-214.28204178337054,-794.8151314212207,-35.75939689829138,57.627674799590324,289.3174790190597,798.6407345269995
741,-10.188041624483942,-194.2978661281896,-215.57588554842405,-832.9471834993241,-34.66150731835031,55.63270175814141,290.3559864018857,836.5098217337932
742,-10.31516494351528,-194.60344992184554,-216.91537818913622,-869.5269441366037,-33.44931801192734,53.342899790577135,291.53547267816293,872.8726520307431
743,-10.39504467734125,-195.04368922061627,-218.28998434443213,-903.953373117879,-32.07750146473444,50.75332279713986,292.8364160136102,907.1323752295775
744,-10.426594789430952,-195.59800882301067,-219.68813817966986,-935.6558431448606,-30.504220432597283,47.8629405635681,294.2363454588386,938.7228696555753
745,-10.408913786175193,-196.2431490456495,-221.09750859552943,-964.1070156073029,-28.691902882594164,44.675073522944174,295.7103915654363,967.1213037455425
746,-10.34129907839131,-196.9537453231243,-222.50528657917326,-988.8348316686396,-26.60807173118134,41.19771718981292,297.23189393511643,991.8598210859286
747,-10.22328452966606,-197.7029513233985,-223.89848477519948,-1009.4333396317681,-24.226207988827195,37.44373106556904,298.77304694288415,1012.5360773733235
748,-10.054702277227726,-198.46308864727123,-225.26423918318736,-1025.5721088854891,-21.526620004626594,33.4308698988775,300.30556468127463,1028.8223865855255
749,-9.835766829031018,-199.2063068223698,-226.59010336031753,-1037.0040081878142,-18.497284912993525,29.181641868454854,301.8013469433311,1040.4732606980724
750,-9.56717665225769,-199.9052381544109,-227.8643267577179,-1043.5711509218274,-15.134621298850023,24.722987979877622,303.2331295648697,1047.3311518171033
751,-9.25022628231831,-200.53363285990872,-229.07611051917274,-1045.2088354495402,-11.44414541493,20.085788571264317,304.5751042986823,1049.330230725609
752,-8.886920356246604,-201.06696096681628,-230.21583562293364,-1041.9473391320796,-7.440958461150777,15.304214763744785,305.8034952668687,1046.4980658123352
753,-8.48007978170833,-201.48296877281575,-231.27525940583277,-1033.9114625038378,-3.1500110614969747,10.414952774640252,306.89708077345995,1038.9551036081477
754,-8.033429520018275,-201.7621788007374,-232.24767754452432,-1021.3177655865253,1.3939057990643982,5.456335312861943,307.837650805847,1026.9118967328473
755,-7.551657353715526,-201.8883228330773,-233.12804979745195,-1004.46949043327,6.146486494576058,0.46741696480966316,308.61039192044615,1010.6640759751946
756,-7.040433734895684,-201.8486978940515,-233.91308912723304,-983.7492218731417,11.054584993730213,-4.512968352962072,309.20419242191423,990.5851196956772
757,-6.506384594713455,-201.63443542747797,-234.60131477346948,-959.60940159996,16.057255299419793,-9.447128641940711,309.61186177203155,967.1170353109464
758,-5.9570119784752915,-201.24067476323555,-235.19307008442476,-932.5608787417497,21.087158504366535,-14.299374085070282,309.83025900052866,940.7591338553719
759,-5.400561346627296,-200.66663351591254,-235.6905054854112,-903.1597519963132,26.07231584389173,-19.036778889857054,309.86032572331777,912.0551487122128
760,-4.845838681915114,-199.91556991877002,-236.0975262138058,-871.9928325659972,30.938162757557276,-23.629813687636084,309.70702050288764,881.5790218415965
761,-4.301984429083459,-198.9946351269671,-236.41970382592822,-839.6621300407652,35.60983376072016,-28.05282755558069,309.37915290863776,849.9197517111392
762,-3.7782144665144526,-197.91461693162844,-236.66415033169437,-806.7688293760659,40.014585665386655,-32.28436996208735,308.889117801565,817.6657608177691
763,-3.283540843759992,-196.6895798828267,-236.83935432696623,-773.8972788379176,44.08425055505849,-36.30735253015544,308.2525330751164,785.3892897347749
764,-2.826486883321999,-195.33641045768397,-236.9549796866347,-741.5995391611659,47.75760135681467,-40.109057469340875,307.4877873107113,753.6313520718822
765,-2.4148121437219334,-193.87427963923176,-237.0216290966928,-710.3810483089391,50.98251201015421,-43.68100455051067,306.615507446467,722.8877860753826
766,-2.0552623970326356,-192.3240390186609,-237.0505766752773,-680.6879320025153,53.717800920927274,-47.01869258383037,305.6579603716721,693.5969122243569
767,-1.7533582106939178,-190.7075700382195,-237.05347591423416,-652.8964376443814,55.93466041722524,-50.12123508657539,304.6384060066489,666.1292528002216
768,-1.5132332696561228,-189.04710886603485,-237.04205100231297,-627.304890060982,57.617595708277776,-52.99091336505558,303.5804225478286,640.7796914012549
769,-1.33753060107593,-187.3645712776181,-237.02778118820237,-604.1284650495335,58.76482307876898,-55.63267334692558,302.50722687126756,617.762351662864
770,-1.2273615170626297,-185.68090260465834,-237.02158915706195,-583.4969564067557,59.388106859099416,-58.05359455800534,301.4410144377416,597.20836046143
