time,ax,ay,az,gx,gy,gz,accmagnitude,gccmagnitude
0,-1.9920140047211283,-271.27595108816433,-46.81196150010864,-14.940011865236276,33.62398288950959,1.0580074957355348,275.28274586657324,36.806890865587455
1,-2.033887316846842,-271.2259440526669,-46.63758134260775,-14.842164352205335,33.96876173788098,1.1292261872676401,275.20557894943744,37.085731380945255
2,-2.078825062005389,-271.1676318296985,-46.47272814608858,-14.743959046011188,34.332818335937674,1.1931770041410463,275.1221344319805,37.381199672505936
3,-2.1265560795793093,-271.1007791248552,-46.318178325168525,-14.64738905334123,34.714007787934726,1.2496466819899434,275.03234118047857,37.69216015701989
4,-2.176742265375225,-271.0252162891282,-46.17456950253855,-14.554601640248201,35.109932242287314,1.2985863959749981,274.9361672115784,38.01734209067873
5,-2.22897757439022,-270.94085218766196,-46.04238586679435,-14.467879259794055,35.51795842071493,1.3401218047478607,274.833629002128,38.35534976630209
6,-2.2827895047688203,-270.84768783052266,-45.92194541606836,-14.389615668261836,35.93523587979476,1.3745590673269565,274.7248018264676,38.70467055806882
7,-2.337643233607317,-270.7458306103975,-45.81338979072579,-14.3222869716425,36.35871601271079,1.4023863373315781,274.6098311085574,39.06368064816502
8,-2.3929486668658804,-270.6355089565087,-45.71667737101257,-14.268417855434096,36.785172097453845,1.4242703898011557,274.4889447438283,39.43064871902342
9,-2.4480707583540755,-270.5170870703473,-45.631580102355635,-14.230543764550896,37.211221077552004,1.4410482017497854,274.3624661755534,39.80373846370135
10,-2.5023434017464656,-270.3910791868801,-45.557684184194486,-14.211170245317444,37.63334812056304,1.453713492751236,274.23082774228385,40.18101129581666
11,-2.555086967692741,-270.2581625270232,-45.49439449145639,-14.212730854409706,38.04793520477337,1.4633984062593737,274.09458349636895,40.56043093465524
12,-2.6056291775388947,-270.11918781039856,-45.44094250443328,-14.237544928026786,38.45129496116344,1.4713506458378027,273.9544203836213,40.93987151173892
13,-2.6533285334560848,-269.9751860245199,-45.39639760151291,-14.28777618113264,38.83971077683107,1.4789064778099765,273.81116651141406,41.31713055748654
14,-2.6975990755416475,-269.82737025640995,-45.359681767235685,-14.365392723317699,39.20948383017962,1.48746009515149,273.6657953657834,41.68994781350156
15,-2.737934979551826,-269.677131723006,-45.32958801826842,-14.472128743128346,39.5569873257737,1.498429918112993,273.51942519691016,42.056030360402765
16,-2.7739335585008127,-269.5260294322032,-45.3048030498455,-14.60944784880435,39.87872771441735,1.5132225033677507,273.3733131095024,42.41308404805856
17,-2.805315516343697,-269.3757730422542,-45.28393462219916,-14.778507849274677,40.17141207288372,1.5331948852911212,273.22884352478854,42.75885061665373
18,-2.8319415866407542,-269.2281986047003,-45.265543931606224,-14.980126623894312,40.432020064209674,1.5596163931623401,273.08751074307565,43.09114919360299
19,-2.8538247821046916,-269.0852371628185,-45.24818262085725,-15.214748682797698,40.657878103161636,1.5936312124352368,272.9508955096638,43.40792013856455
20,-2.871137425061979,-268.948876661979,-45.23043326996141,-15.482412096117871,40.84673270746816,1.6362230852442015,272.8206358156408,43.707268674721725
21,-2.8842121259777582,-268.82111819513847,-45.21095135520869,-15.782715731436522,40.99681969645311,1.68818353186329,272.6983925674203,43.98750556925675
22,-2.8935360261806156,-268.7039281018282,-45.18850599758625,-16.11478722407711,41.106925963846564,1.7500848685806405,272.5858111199513,44.24718237981283
23,-2.899737826362495,-268.5991877650016,-45.162016523574266,-16.477252768095255,41.17644094602908,1.8222591662365324,272.48447992149204,44.48511940060458
24,-2.9035673109168587,-268.50864310007324,-45.13058204598234,-16.868210531437924,41.205395513539486,1.904784143172663,272.3958876777526,44.700425265691244
25,-2.905867408746054,-268.4338557188487,-45.09350205956299,-17.285210114785084,41.19448671133655,1.9974767645320386,272.32138055549876,44.89250802623473
26,-2.9075395568696063,-268.3761575841625,-45.05028750883823,-17.725240863466027,41.14508747385791,2.0998949906957103,272.2621210401129,45.06107828207068
27,-2.909504227164966,-268.33661073700114,-45.00066361625951,-18.184731932483754,41.05924108729791,2.2113477009184095,272.21905016850997,45.20614553484118
28,-2.912659499637806,-268.31597353919784,-44.94456719978852,-18.65956677672292,40.939640724305164,2.330912355755283,272.19285498994674,45.32800929657153
29,-2.9178409737086066,-268.3146748727035,-44.88214158816363,-19.14511421758203,40.78959481786671,2.457459495550013,272.1839431758512,45.427246627551085
30,-2.925785860956931,-268.33279767032985,-44.813731395411104,-19.636277478380514,40.61297937544827,2.5896827779904528,272.1924264897935,45.50469771639594
31,-2.9371030354555936,-268.3700727466474,-44.73987763439853,-20.127561631276304,40.41417856763068,2.7261330308296743,272.21811413693604,45.56145087836821
32,-2.952249682784298,-268.42588310907615,-44.661311698676236,-20.61315878340909,40.19801506706531,2.865254764248163,272.26051593158166,45.59882795299846
33,-2.9715144062674486,-268.4992780424056,-44.57894571695871,-21.087049100154314,39.969671702792446,3.005423701331611,272.31885420384674,45.61837058216088
34,-2.9950062517932516,-268.58899561666954,-44.49385719386996,-21.543114543346746,39.73460608727525,3.1449840941009013,272.3920828213779,45.62182734510046
35,-3.022648990607141,-268.69349196295786,-44.40726698360295,-21.975261176165716,39.49845998592563,3.282284859578473,272.47891159954764,45.61114131094911
36,-3.0541801601830305,-268.8109755991946,-44.320510427158325,-22.37754523585712,39.26696530546195,3.4157138385960506,272.57783444086607,45.58843729976415
37,-3.0891548140074283,-268.93944526458677,-44.235001720025295,-22.744297997776172,39.04584866055235,3.5437296946005103,272.687159746052,45.556008054422165
38,-3.126954483411255,-269.07673024316864,-44.152191895015,-23.070244697200717,38.84073653443595,3.6648911161064017,272.80504218696154,45.51629860310407
39,-3.166802202278027,-269.2205329622221,-44.07352172455172,-23.3506132639588,38.65706304657088,3.777883083175031,272.92951585488044,45.47188823904311
40,-3.2077844002186082,-269.36847437050835,-44.000372185590784,-23.581229177468995,38.49998222556541,3.881540033297543,273.0585297087838,45.42546963767575
41,-3.248879998017632,-269.5181427252633,-43.93401609757937,-23.75859327946078,38.3742864474741,3.974865830572408,273.189986525801,45.37982462494529
42,-3.2889961825037735,-269.6671456864067,-43.87557443051894,-23.87993991097284,38.28433240120534,4.05705048602545,273.3217858329074,45.33779607085276
43,-3.327009328311644,-269.81316437192044,-43.82597972893348,-23.943273350933723,38.23397567934664,4.127483558132688,273.4518699223592,45.302255430777684
44,-3.361808793329561,-269.95400699836784,-43.785947924722045,-23.947381295722522,38.22651491463377,4.1857640653923776,273.578270856463,45.276065672571164
45,-3.392341082865323,-270.0876593706755,-43.75595901394265,-23.891825031773386,38.26464626612993,4.231706593054156,273.69915587472525,45.26203969117067
46,-3.4176520152627843,-270.21232976048816,-43.73624646558302,-23.77690694461813,38.350428941617714,4.265343128017424,273.8128687752516,45.262894734801215
47,-3.4369247706016024,-270.3264864029234,-43.72679458734289,-23.603616997763993,38.48526225604042,4.2869200741548195,273.9179654113319,45.28120375068045
48,-3.4495119505938425,-270.4288866740394,-43.72734257485203,-23.373560763687674,38.66987442909989,4.296889940914315,274.01324218412185,45.319344850282015
49,-3.454960066109771,-270.51859763516234,-43.73739385869031,-23.0888724853438,38.90432294995737,4.295897386179123,274.09775700991656,45.37945031363472
50,-3.453025299453829,-270.59500784262576,-43.756229543024254,-22.75211746494709,39.18800597018682,4.284759612496925,274.1708424762095,45.46335675165853
51,-3.443679991748623,-270.6578302882066,-43.782924946635134,-22.36618873612571,39.51968387275709,4.264441508048914,274.2321108986202,45.572558210656894
52,-3.4271099662664657,-270.70709640092906,-43.81636846669288,-21.934203323368273,39.89750987606112,4.236026313463188,274.2814510858804,45.70816402313575
53,-3.403703327542125,-270.74314135237694,-43.85528233151988,-21.459403259549575,40.31906824933598,4.200682913258408,274.3190169809661,45.87086298287203
54,-3.374031679164421,-270.7665813346854,-43.898245291971214,-20.945065849403203,40.78141850039555,4.159631057415407,274.34520884312474,46.06089497665678
55,-3.338824856585369,-270.7782838351629,-43.94371765704686,-20.394426571778492,41.28114385862541,4.114105898597233,274.36064803966514,46.278030710283424
56,-3.29894040286085,-270.77933213953,-43.99006906407784,-19.810616828360597,41.81440259857948,4.06532317070023,274.3661467162368,46.52155984602493
57,-3.2553291598355623,-270.7709853825424,-44.035609061822015,-19.19661779057138,42.37698123365207,4.014446152030435,274.36267364784317,46.790287868862116
58,-3.2089984704119665,-270.75463548793226,-44.07862027779342,-18.55523098460447,42.96434925167202,3.9625553448627877,274.3513175450724,47.0825422851615
59,-3.1609745470796993,-270.73176235354134,-44.11739382956386,-17.889065860867202,43.571715680216585,3.9106216804265146,274.3332490843691,47.39618912197378
60,-3.1122655006808984,-270.7038886711986,-44.150266655602366,-17.20054418230988,44.19408818751258,3.859484052209525,274.3096829647946,47.72866088767677
61,-3.063826338415518,-270.6725358072062,-44.17566045671765,-16.491920466618055,44.826335572233184,3.8098320092819846,274.28184133010484,48.07699703284034
62,-3.016527058948416,-270.6391821655858,-44.192121937628684,-15.765316924225203,45.4632543660119,3.762194396607839,274.25091989112394,48.4378974945108
63,-2.971124922393234,-270.60522538698507,-44.19836395936861,-15.022770461480368,46.09963985126063,3.716934543401455,274.218058005099,48.80778914002257
64,-2.928242008566218,-270.5719495767363,-44.193306840008255,-14.266288486425463,46.73036110478839,3.674252268834645,274.1843137554884,49.18290391139939
65,-2.8883491318331846,-270.5404984661155,-44.176118268891074,-13.497909547661298,47.350438875927054,3.6341925463509486,274.15064466928277,49.55936639198041
66,-2.8517569428639327,-270.5118550083417,-44.1462493964435,-12.719764338052904,47.95512445220015,3.5966602075644123,274.11789416786866,49.93328764251817
67,-2.8186146336583002,-270.4868275088863,-44.10346409066302,-11.934132385627874,48.53997731957188,3.5614396234179777,274.0867833577263,50.30086166352358
68,-2.7889161612084266,-270.46604210136303,-44.04785838758308,-11.143489873048015,49.10093936651277,3.5282179260260085,274.05790748554506,50.65846072478682
69,-2.76251340141435,-270.44994120354164,-43.979867753430085,-10.350544496596488,49.63440349474582,3.496610109443907,274.0317362995966,51.00272595842336
70,-2.739135212257025,-270.4387874247326,-43.900260713534514,-9.55825415821975,50.13727468577227,3.466184351541365,274.00861754696155,51.33064996433379
71,-2.7184111078809434,-270.4326721916449,-43.81011853164284,-8.769827641420314,50.60702177515838,3.436486143144877,273.9887828176688,51.63964868858796
72,-2.6998981734187604,-270.4315281854176,-43.71080182122358,-7.988707178977633,51.041718389905355,3.4070602100363834,273.97235497263017,51.92762045933586
73,-2.6831099328624997,-270.4351446406736,-43.603906031732,-7.218534691339083,51.440071734383565,3.377469646963607,273.9593565282057,52.19299073530183
74,-2.6675459972530096,-270.44318466105767,-43.49120847579225,-6.463105056908292,51.80143819038142,3.347312069143693,273.94971859234454,52.434741751897434
75,-2.652721394826012,-270.4552038911439,-43.37460994879454,-5.726310735176869,52.1258249772346,3.3162329020015666,273.94329019112496,52.65242672595575
76,-2.6381945559714413,-270.4706700926085,-43.256074192518774,-5.01208224921129,52.413877291038816,3.283936173968896,273.93984805844497,52.84616849727234
77,-2.623593060994814,-270.4889833690302,-43.13756852191631,-4.324328507472558,52.66685035335308,3.2501933383530295,273.93910716391713,53.01664243370107
78,-2.6086364219229865,-270.50949692577046,-43.021008754969955,-3.6668799700753607,52.88656574421909,3.2148507081574227,273.94073236569915,53.165043255132076
79,-2.593155229679648,-270.5315382758037,-42.90821106243827,-3.0434365934890972,53.07535149004172,3.177836041149407,273.94435151711843,53.29303540309244
80,-2.577105912045853,-270.55443066811245,-42.800852557180505,-2.4575215605984977,53.235965837536114,3.139164675108249,273.9495700978409,53.402686935193664
81,-2.5605802778188647,-270.577514255118,-42.70044156742094,-1.9124410512424255,53.371505563036635,3.0989453855631033,273.9559870455982,53.4963877541948
82,-2.543809182004237,-270.60016623916636,-42.60829776508957,-1.411249655702356,53.48530098073034,3.0573858180750375,273.9632110709473,53.57675422437681
83,-2.527160050591096,-270.6218190845821,-42.525541693533356,-0.9567204526506521,53.58080133219874,3.0147969627927385,273.97087648995296,53.64652368937609
84,-2.5111284337943207,-270.64197594216876,-42.453092675486396,-0.5513183321588182,53.661455685024606,2.9715957633290913,273.97865758353043,53.7084438106504
85,-2.4963239826420613,-270.66022268216835,-42.39167353404298,-0.19717494743750363,53.730595538941564,2.9283047017904718,273.9862806533149,53.765162700347034
86,-2.48345124340643,-270.6762362549273,-42.34182012501274,0.10393621091707517,53.791325778754306,2.8855472011468004,273.9935331939893,53.81912627928377
87,-2.4732856156236074,-270.6897893990585,-42.303893506593475,0.3506257232560374,53.846430276382314,2.844037969259808,274.0002698697166,53.87248900357284
88,-2.466644907509307,-270.70075195258926,-42.2780927241993,0.5419156337355493,53.898297345820744,2.8045678714774542,274.0064152374743,53.92704307668311
89,-2.464357211711914,-270.7090891484971,-42.26446664278074,0.6772681467150036,53.948868593278505,2.767983407674734,274.01196335612747,53.98416967833177
90,-2.4672262652325343,-270.71485727089004,-42.262923938183114,0.7566147970301623,53.999612798515784,2.7351612964275467,274.01697452405824,54.044813903025755
91,-2.475995904698708,-270.7181970187504,-42.27324109666975,0.7803847484040166,54.051524625294505,2.7069790213735523,274.0215694781792,54.10948331853682
92,-2.491315483442566,-270.71932502317685,-42.295068842392986,0.7495305718517595,54.10514639779459,2.6842824866722,274.025921575957,54.17826853876794
93,-2.5137080517919426,-270.7185241585267,-42.32793766166178,0.6655497807364884,54.16060999953251,2.6678521587272224,274.03024771137626,54.25088306171311
94,-2.543542735320131,-270.7161333814904,-42.37126302024319,0.5305004513606408,54.21769520484313,2.6583692105955525,274.03479879230304,54.32671890294772
95,-2.581012207797866,-270.71253774337686,-42.42435060516533,0.3470092935286401,54.27590044155206,2.656383201131107,274.03985047208914,54.40491425624058
96,-2.6261156425328935,-270.7081590491798,-42.48640167174973,0.11827050411639735,54.334522003548734,2.6622827211609685,274.0456946150424,54.48442943158083
97,-2.6786472352364035,-270.7034474478008,-42.55651854036571,-0.1519662770959194,54.392737890191654,2.676270281888492,274.05263178136636,54.56412746751127
98,-2.7381903752427585,-270.69887399196233,-42.63371050298228,-0.4594204494496927,54.4496925760627,2.6983425655131965,274.060964809678,54.64285592415048
99,-2.804117636589549,-270.69492391460085,-42.716900674954786,-0.7993185115095961,54.504579085641694,2.7282770122893805,274.0709933326134,54.719526414739775
100,-2.875596758747205,-270.6920901283079,-42.80493442819705,-1.1664461428231787,54.556714901239005,2.765625546630838,274.08300884024493,54.793188565447146
101,-2.9516026520976157,-270.69086632174583,-42.89658992079579,-1.5552138127658182,54.60560863254873,2.809716014999339,274.09728975463923,54.863095466104845
102,-3.0309353078428845,-270.6917389915302,-42.990591038304025,-1.95973439618004,54.65101505089029,2.8596616010341482,274.1140959105254,54.92875831165083
103,-3.112243397446628,-270.6951778184483,-43.085622943080885,-2.37391037390102,54.692976925048484,2.9143780855070953,274.13366188628146,54.98998871655572
104,-3.1940532903445873,-270.7016239947255,-43.18035038979802,-2.791527620574878,54.731852933546406,2.9726083569498583,274.156188817788,55.046927962085064
105,-3.2748031252740573,-270.7114764028404,-43.27343883846855,-3.2063526480181146,54.76833165062883,3.0329531522965407,274.1818345974707,55.10006310161057
106,-3.352881360955685,-270.7250758779508,-43.36357807717203,-3.6122304429682814,54.803432154000724,3.0939067356486745,274.21070263748896,55.150230357655744
107,-3.4266688847112077,-270.74268813816474,-43.44950769155188,-4.00318052880142,54.8384921929386,3.1538961467808395,274.2428296624116,55.19860660854907
108,-3.4945833743201566,-270.76448634740035,-43.530043480080934,-4.3734893548502525,54.87514512802646,3.2113226958696774,274.27817333028406,55.24669001390337
109,-3.5551243469165277,-270.79053464636064,-43.60410381069092,-4.717797403161041,54.91528703867969,3.264604435998945,274.31660082529174,55.29627098323432
110,-3.60691726213441,-270.82077423790105,-43.67073481279348,-5.031179455610433,54.961035509873895,3.3122183511886294,274.35787979226797,55.349394763836166
111,-3.6487551413071335,-270.8550136113183,-43.72913314755338,-5.309216356026132,55.01468166824317,3.352740967165002,274.40167295499907,55.40831693307374
112,-3.6796363503676917,-270.892924173951,-43.77866498734473,-5.548056479790966,55.07863703189633,3.384886081721756,274.4475374295974,55.47545303530148
113,-3.6987973914947996,-270.93404199852205,-43.818879910735255,-5.7444651427100055,55.155376645916085,3.407538390566486,274.4949292037728,55.553323501130556
114,-3.705739682722918,-270.97777576155573,-43.84951874813799,-5.895860425270761,55.24737981351331,3.419781980122243,274.54321268087904,55.644494853284485
115,-3.7002493690570093,-271.02342040976964,-43.87051487631571,-6.000334356214328,55.357069582082204,3.4209229146063134,274.59167473091816,55.75151811742472
116,-3.6824092822095285,-271.0701757213165,-43.88198888533919,-6.0566590462242615,55.4867520912912,3.4105053785614876,274.63954239595745,55.87686539750235
117,-3.6526023194600357,-271.1171686921091,-43.88423692841122,-6.064278107129881,55.6385569585246,3.388321041068375,274.686003230769,56.0228657548031
118,-3.611505736577932,-271.1634785202795,-43.87771349177589,-6.023284421495481,55.81438001115771,3.3544115409478197,274.7302271789913,56.19164178091149
119,-3.560076130685669,-271.20816292168035,-43.86300970693156,-5.93438595327663,56.01582977890022,3.309064266296185,274.7713889129933,56.38504846870524
120,-3.499525266240186,-271.25028467562726,-43.840828503340624,-5.798861764026439,56.244179144356394,3.2528018576552706,274.8086897635275,56.60461606339476
121,-3.4312873547674885,-271.28893764624223,-43.81195783634376,-5.618510675746723,56.500323385700376,3.1863660548274755,274.841378702897,56.85149847846571
122,-3.3569787994483655,-271.32327186264985,-43.77724304010114,-5.395595071888205,56.78474556569365,3.110696650378822,274.8687721549004,57.12642862017376
123,-3.278351667248565,-271.3525173890018,-43.73755921404677,-5.132782181821735,57.097489887297016,3.0269064404153077,274.89027253139125,57.42968164534267
124,-3.197242332434286,-271.3760066576217,-43.69378456231451,-4.833084912858999,57.4381433070378,2.9362531572245043,274.905385341399,57.76104684569297
125,-3.1155169592337186,-271.3931947827347,-43.64677570366916,-4.499803911975479,57.80582541722294,2.8401093737283505,274.9137345813905,58.11980855241705
126,-3.035015751503131,-271.4036771978781,-43.597345950779065,-4.136472071194556,58.199186398931936,2.7399312603714856,274.91507594107645,58.504736208325454
127,-2.957498105342792,-271.40720378672887,-43.546247328398046,-3.7468021760545582,58.616412718113146,2.6372268938187404,274.9093071519884,58.9140835743471
128,-2.884590870767008,-271.40368857308283,-43.494156820694734,-3.3346379039492606,59.05524019730891,2.5335246456800786,274.8964746583714,59.34559694085584
129,-2.817741794770759,-271.39321414764856,-43.44166720557352,-2.903907988680007,59.5129741487865,2.4303420646152687,274.87677587756184,59.796532212974064
130,-2.7581798873810266,-271.3760303882167,-43.38928277424005,-2.4585831714926254,59.98651637840461,2.3291555874880676,274.850556678752,60.26368081485888
131,-2.7068840500408267,-271.3525475074531,-43.33741998908194,-2.002635631832062,60.47239902219352,2.231371352134797,274.8183041387298,60.74340447256162
132,-2.664560961275046,-271.3233238134924,-43.28641265693794,-1.54000093558806,60.96682531312416,2.138297359714929,274.78063490174793,61.23167904234872
133,-2.631632911109197,-271.2890487201713,-43.23652075313838,-1.0745430675051952,61.46571743539866,2.051117270419509,274.73827954800663,61.72414758876449
134,-2.6082358883359213,-271.2505215736716,-43.187941840675556,-0.610023665393933,61.96477154900593,1.9708661779477208,274.692063370848,62.21618281595505
135,-2.594227690088872,-271.2086269023832,-43.14082401327374,-0.15007695506176502,62.45951983311752,1.8984087428615637,274.64288399453955,62.702958681121565
136,-2.589205233686619,-271.1643068417977,-43.095279288771195,0.30180802902282533,62.94539901622749,1.8344200636057668,274.5916864013729,63.17953057995073
137,-2.5925297839584,-271.1185316894852,-43.0513963808743,0.7422965691455632,63.417824380738885,1.779369655379091,274.5394361324054,63.6409229441385
138,-2.603358563331064,-271.07226964930186,-43.00925184875441,1.1682078435460905,63.87226774711318,1.733508916582766,274.4870915360163,64.08222253921397
139,-2.620681117167148,-271.02645675216553,-42.96891876165021,1.576504765470012,64.30433757566357,1.6968624962176528,274.43557588576317,64.49867532349867
140,-2.643358727430238,-270.98196777192385,-42.93047219842339,1.9642747295281735,64.70985912009446,1.6692240214083789,274.38575004788265,64.88578447611543
141,-2.670165081512281,-270.9395887926142,-42.893991176371124,2.328702724841354,65.08495247802777,1.6501566709481263,274.33838625926643,65.23940707139265
142,-2.699826429389603,-270.89999196329535,-42.85955702480419,2.667038860899965,65.42610636522022,1.6389990526226432,274.2941435239895,65.55584681712479
143,-2.7310597062289044,-270.86371291465804,-42.827248743586665,2.976562626810569,65.73024552533576,1.6348767527570374,274.25354516030774,65.83194031524833
144,-2.7626075188876618,-270.83113133677244,-42.79713635974287,3.254546243039272,65.99478993298612,1.6367197961759825,274.2169591338171,66.06513450639471
145,-2.793269355022599,-270.80245533032166,-42.76927354341807,3.4982194066650854,66.2177043508999,1.6432860804313494,274.1845819678373,66.25355332791248
146,-2.8219287701034075,-270.77771028757195,-42.74369070534212,3.704737637860618,66.39753728830952,1.6531905959204374,274.15642716188404,66.39605207796622
147,-2.8475766046000617,-270.7567331358086,-42.720389561948956,3.871156266166142,66.53344888768771,1.6649399108148744,274.1323190902816,66.49225844704767
148,-2.8693304410906992,-270.73917270273785,-42.69933985162631,3.9944118134439828,66.62522771137758,1.6769710447083377,274.11189323445274,66.54259962352194
149,-2.8864504969443767,-270.7244967345994,-42.68047856394126,4.071312181530107,66.67329684452,1.687693540606787,274.09460332561343,66.54831534037945
150,-2.8983520177433846,-270.71200577680395,-42.66371173611404,4.0985367212259,66.67871019051854,1.6955332789415332,274.0797356077366,66.51145722347343
151,-2.904614085011212,-270.700853783106,-42.648918692925186,4.072646988514296,66.64314024987397,1.6989763398793947,274.066430061326,66.43487526801984
152,-2.904984618787648,-270.69007499263853,-42.63595861126247,3.9901087691422035,66.56885894709475,1.6966110421488594,274.0537081055178,66.32219261524529
153,-2.899381260492622,-270.678616344754,-42.62467931445268,3.847325742926927,66.45871312410917,1.6871662508089302,274.0405060341335,66.17776994690533
154,-2.8878878015755416,-270.6653745491259,-42.61492804783876,3.64068494775383,66.3160961209073,1.6695442069098014,274.0257132690974,66.0066607318207
155,-2.870745892494107,-270.64923688365974,-42.60656368298437,3.366613970542722,66.14491644938157,1.6428464742596345,274.008214426473,65.814558278628
156,-2.848341948840671,-270.62912468902766,-42.59946950610859,3.021649481828808,65.94956400481207,1.606392076083753,273.9869340465426,65.6077351385329
157,-2.821189535358963,-270.60403818087843,-42.59356554572049,2.6025162808380595,65.73487361304075,1.5597274598007729,273.9608824697734,65.39297491675818
158,-2.7899080268923258,-270.5731006597156,-42.588819272582796,2.1062154604408945,65.50608504365127,1.502628519688828,273.9292007933642,65.17749604976859
159,-2.755198802212322,-270.53559974333695,-42.585253448305565,1.5301197733703908,65.26879802784426,1.435095436956399,273.8912023897303,64.96886668065942
160,-2.717820395987162,-270.49102312633715,-42.582949933057925,0.8720738901861079,65.02892042497251,1.3573414755294197,273.84640835600266,64.7749095334928
161,-2.6785638911187197,-270.4390866506107,-42.58204847740625,0.13049695020281635,64.79260759110252,1.2697770534370787,273.7945745710116,64.60359574993268
162,-2.6382295402652494,-270.3797530594669,-42.58274000452583,-0.6955155036826965,64.56619127318874,1.1729904184774447,273.7357086899963,64.46292705960367
163,-2.5976053483015242,-270.313240530187,-42.58525456881695,-1.6060935138996357,64.35609695860892,1.0677261747324795,273.6700762253621,64.36080638145891
164,-2.557448201336454,-270.24002076892805,-42.589844822231264,-2.600502355224568,64.16874946006689,0.9548628196830262,273.5981956430518,64.30489790322694
165,-2.518468037482698,-270.1608070339534,-42.59676622229799,-3.6770638890802996,64.01046751314308,0.8353903932155498,273.52082304160905,64.30247875859543
166,-2.481315431950784,-270.0765329544883,-42.60625535029568,-4.83309375579233,63.88734923512314,0.7103892719172051,273.43892749590043,64.36028553718961
167,-2.4465727775452413,-269.98832350043466,-42.61850770749019,-6.06485834188575,63.80515135647252,0.581010989858337,273.35365862730197,64.4843599295074
168,-2.4147489958323063,-269.89745993958576,-42.63365638739262,-7.367555018436051,63.76916606858726,0.4484616730357749,273.26630843981224,64.67989869830437
169,-2.3862774696377618,-269.8053409841698,-42.65175314353136,-8.735318499489042,63.78410000167457,0.3139882441960267,273.1782698382579,64.9511137413629
170,-2.361516725881464,-269.7134424410041,-42.67275347099111,-10.161255329770768,63.85396017839038,0.17886707529993734,273.0909943682847,65.30110818555954
171,-2.340753352034515,-269.6232774965242,-42.696507202115995,-11.637507482561613,63.98195179637783,0.044394361696094314,273.00595151625345,65.73177423845345
172,-2.324206638276942,-269.536359336049,-42.72275568851219,-13.155344878972773,64.17039243987094,-0.08812276744690219,272.9245914118303,66.24371798613558
173,-2.3120344229649623,-269.4541672001944,-42.751135963563,-14.705285429914234,64.42064684111513,-0.21737552657568723,272.8483120795865,66.83621550867268
174,-2.304339574028576,-269.37811634684425,-42.78119152176809,-16.27724006416203,64.73308559494471,-0.34206431021826317,272.778431639921,67.50720359331831
175,-2.301176494312714,-269.3095318742995,-42.812388761089856,-17.860679223044684,65.10707027495391,-0.46091218290883645,272.7161652604301,68.25330698317485
176,-2.3025569930826926,-269.24962608376086,-42.84413791729563,-19.44481651786008,65.54096625111455,-0.5726818745437786,272.66260634972525,69.06990257076343
177,-2.3084548173096877,-269.1994790095058,-42.87581743009903,-21.018804649805606,66.03218322740727,-0.6761967409108934,272.61871145158386,69.9512193052173
178,-2.3188081715785995,-269.16002182504667,-42.906800821803955,-22.571938188983943,66.57724217224595,-0.7703656618275664,272.58528839625086,70.89047088607958
179,-2.3335198126564767,-269.13202297125014,-42.93648506743348,-24.093857251929006,67.17186600647766,-0.8542113162260107,272.56298738624736,71.88001663904477
180,-2.352454796946126,-269.1160770431748,-42.964319087842235,-25.574745436662294,67.81109027733439,-0.9269007414358809,272.5522948314669,72.91154442940055
181,-2.3754364887777504,-269.1125966934764,-42.98983062781907,-27.005514681756733,68.4893891930996,-0.9877766192047003,272.5535299124865,73.97626821410738
182,-2.402241760235655,-269.1218079678957,-43.01264960336397,-28.377969270674107,69.20081186720701,-1.0363874195686436,272.5668439794295,75.06513199481395
183,-2.432596368474122,-269.14374947529404,-43.03252606373885,-29.68494128566654,69.9391234153645,-1.072514457385373,272.59222288728824,76.16901161108622
184,-2.466171419556101,-269.17827557849904,-43.04934116664202,-30.920390589169273,70.69794566027413,-1.0961941087421498,272.6294921900924,77.27890607334433
185,-2.5025817482405475,-269.225063471268,-43.063110021554145,-32.07946384925769,71.47089265077524,-1.1077338336958733,272.6783248676477,78.38611100539498
186,-2.5413869285180004,-269.2836237587788,-43.073975992984124,-33.15850910527051,72.25169701136542,-1.1077211167051042,272.73825112871367,79.48236822542587
187,-2.58209535509403,-269.35331406484835,-43.0821970598216,-34.15504482899854,73.03432424392962,-1.0970248476479987,272.80866990105466,80.55998747561928
188,-2.624171397310142,-269.4333551364441,-43.08812587959951,-35.06768537297637,73.81307335858085,-1.0767889996358262,272.88886173590384,81.61193868863151
189,-2.6670452232997173,-269.52284875618267,-43.092185912349805,-35.896027954738614,74.58266342396205,-1.0484187385337285,272.9780028127068,82.63191571283892
190,-2.710124733098271,-269.62079654618805,-43.09484599807921,-36.640509430750285,75.33830659301259,-1.0135593244928631,273.0751795183612,83.6143746994558
191,-2.7528091139586417,-269.7261186670721,-43.096595245446,-37.30224339468541,76.07576866088732,-0.9740683197258225,273.17940291901147,84.55455187245762
192,-2.7945036415276445,-269.83767162429336,-43.09791944587914,-37.88284908434619,76.79141807946763,-0.9319816968298247,273.2896225514507,85.44846577025463
193,-2.8346353346217033,-269.95426479154924,-43.09927983844623,-38.384283147339744,77.48226359099327,-0.889474471761525,273.40473929210725,86.29290824670521
194,-2.8726689260768428,-270.07467563205955,-43.101094863778094,-38.80868386312332,78.14597949525965,-0.8488165057283646,273.52361739446525,87.08542693312094
195,-2.9081224451370917,-270.19766383045237,-43.10372534280169,-39.15823545018222,78.78091644932466,-0.8123241751474509,273.6450959774309,87.82430009140063
196,-2.940581634728304,-270.3219846646389,-43.1074632627619,-39.43505798708268,79.3860950579329,-0.7823087287980777,273.76800031839326,88.50850339728302
197,-2.9697124900572014,-270.4464019981862,-43.1125241859154,-39.641126424836706,79.96117967244868,-0.7610223364814358,273.89115332692336,89.13766755409425
198,-2.9952713378140126,-270.5697012666667,-43.11904330646128,-39.77822018265794,80.50643088752052,-0.7506030537493295,274.01338756933677,89.71202586078962
199,-3.0171120022504474,-270.6907027255689,-43.12707529927425,-39.84790286323786,81.02263704636385,-0.7530201397927125,274.13355812912846,90.2323517796546
200,-3.0351897516732644,-270.8082749588038,-43.13659815722706,-39.85152972458428,81.51102724070694,-0.7700213370629644,274.25055633370465,90.69988781250443
201,-3.049561940645692,-270.92134825090903,-43.147521064975656,-39.790278843304634,81.97317034549434,-0.8030838380846741,274.36332396683446,91.11626821652162
202,-3.0603855165775413,-271.0289271268792,-43.159695998154646,-39.66520058990261,82.41086617501858,-0.8533707217049901,274.4708672373939,91.48343899448443
203,-3.0679117530447075,-271.13010139895226,-43.172932296975304,-39.47727925635827,82.82603565711787,-0.9216946241261962,274.5722697421752,91.80357903628231
204,-3.0724786530300623,-271.22405542504214,-43.18701315364909,-39.227500502033884,83.22061691158953,-1.0084903023158833,274.6667039723343,92.07902623718672
205,-3.0745014155451194,-271.310075734687,-43.201712922029486,-38.91691871967617,83.59647333609658,-1.113797541376427,274.75344135186873,92.31221193291213
206,-3.074461215402452,-271.3875574465995,-43.21681432985252,-38.54671937234999,83.95531842602078,-1.2372555497668285,274.83186108553855,92.50560619688169
207,-3.0728924213357547,-271.4560098909118,-43.23212481306963,-38.118272598301594,84.2986603352808,-1.3781095584748233,274.9014581019875,92.66167556778419
208,-3.0703683763256824,-271.51506166767103,-43.24749117552526,-37.63317566027627,84.62776734723732,-1.5352297693317976,274.9618501948638,92.78285369110328
209,-3.067485986819218,-271.56446517413565,-43.2628117290364,-37.09328292637045,84.94365364041025,-1.7071421077310671,275.0127842614405,92.87152422555278
210,-3.0648495299165446,-271.6041004642816,-43.27804518143955,-36.50072292014267,85.24708317711384,-1.8920695297501273,275.0541413908642,92.93001430085481
211,-3.063054184128176,-271.6339781547618,-43.29321584861366,-35.85790257705913,85.53858839683008,-2.0879820509189084,275.0859404569722,92.9605959901547
212,-3.0626697570366086,-271.6542409938315,-43.30841515601896,-35.16749926958875,85.81849977750771,-2.292653278571533,275.10833983530057,92.96549282476214
213,-3.064224966419793,-271.6651636994278,-43.323799755514436,-34.4324415158906,86.08698222882214,-2.503721011385778,275.12163690877543,92.9468883731981
214,-3.068192546297746,-271.66715072386444,-43.33958685084945,-33.655879630950196,86.34407457848498,-2.7187493620268053,275.1262651175809,92.90693425176708
215,-3.074975450100825,-271.66073167641906,-43.35604742519991,-32.84114791392507,86.58972893830858,-2.9352898841978314,275.1227883962856,92.84775548412743
216,-3.084894469471501,-271.64655423943645,-43.37349794488588,-31.991720281223763,86.82384736728855,-3.1509394156769956,275.11189292499705,92.77145177096183
217,-3.098177641593888,-271.62537453131165,-43.392290854354826,-31.11116157115361,87.04631393730338,-3.363392769929277,275.0943761964015,92.68009393332972
218,-3.114951883929543,-271.598044899671,-43.41280396981601,-30.203077040132897,87.25702102655971,-3.57048888372463,275.07113339741346,92.57571551951584
219,-3.1352373570752583,-271.56549903508665,-43.435428847405525,-29.271062721389157,87.45588935620215,-3.7702494252847627,275.0431410076323,92.4603002139328
220,-3.158945052654413,-271.52873424748066,-43.46055828130007,-28.318659205327737,87.64288188614812,-3.9609091679864674,275.0114374814162,92.33576616204782
221,-3.1858779780184086,-271.488790945298,-43.48857314921064,-27.34931104101208,87.81801218539948,-4.140937692707986,274.9771010839819,92.203948626175
222,-3.215736058849337,-271.4467297861846,-43.51982888712837,-26.366333491821706,87.98134830454751,-4.309052245095825,274.9412253829924,92.06658257794467
223,-3.2481245459215176,-271.4036074246449,-43.55464204135601,-25.372887951267376,88.13301351131564,-4.464221873003473,274.9048933724719,91.92528697109944
224,-3.2825653774177455,-271.36045209780474,-43.59327753920633,-24.37196697577307,88.27318549940048,-4.605663332474622,274.86915154788113,91.78155253380744
225,-3.3185107460704515,-271.3182404278998,-43.635937339029226,-23.366389533684973,88.40209581275658,-4.732829678881688,274.8349853918163,91.63673491632238
226,-3.355358157388954,-271.27787677876523,-43.68275093479885,-22.35880656037025,88.52003117265374,-4.845392897234079,274.8032976632092,91.49205481912972
227,-3.3924664947908574,-271.2401762411502,-43.73376796976723,-21.351716138694957,88.62733809587496,-4.943222284296337,274.77489059282965,91.34860622160052
228,-3.4291728257113263,-271.20585183668237,-43.788953088724426,-20.347486611492346,88.72443164479748,-5.026360506494647,274.7504525917977,91.20737302965001
229,-3.4648096963553807,-271.17550594900814,-43.84818312182061,-19.348384879842534,88.81180839188481,-5.094999287197222,274.73054949990154,91.06925344644411
230,-3.4987224640005943,-271.14962550078127,-43.91124667840438,-18.356606343270848,88.8900627797159,-5.149456497876987,274.71561991175577,90.93509027491572
231,-3.5302859752989355,-271.12858012973356,-43.97784617942981,-17.37430261009259,88.9599051392353,-5.190156008592989,274.70597384488735,90.80570435325025
232,-3.5589197965898145,-271.1126226130801,-44.04760223776372,-16.403603341247088,89.02217890036052,-5.217611008470859,274.70179398785734,90.68192762454929
233,-3.5841012970952333,-271.1018909837087,-44.120060107164605,-15.446629425437456,89.07787420306289,-5.232410755172725,274.70313892733526,90.56463216630652
234,-3.6053761212576148,-271.09641202221195,-44.19469773057205,-14.505496039416734,89.12813528819568,-5.23521004595578,274.70994796149705,90.4547519338562
235,-3.6223658675976353,-271.0961059542291,-44.270934856335636,-13.582305713651545,89.17425966875398,-5.226720287411049,274.72204724299877,90.35329489565797
236,-3.6347730693517666,-271.1007922176576,-44.34814284427765,-12.679132854418672,89.21768801982813,-5.207700951961819,274.7391570563802,90.26134443490653
237,-3.642383849544545,-271.1101961504317,-44.425655089211745,-11.798001979406177,89.25998477119785,-5.178950430821861,274.76090007292055,90.18005010121503
238,-3.6450688661775086,-271.12395640099743,-44.50277824233911,-10.94086222857402,89.30281029060751,-5.141295731251323,274.7868104218809,90.11060877857314
239,-3.642783274843554,-271.1416327946252,-44.578804418886115,-10.109560719108966,89.34788613314427,-5.095580971762768,274.8163433527205,90.05423795503219
240,-3.6355663664817186,-271.16271440194294,-44.65302437251726,-9.30581718305659,89.39695506698345,-5.042655060658128,274.84888524285,90.0121430250327
241,-3.6235413507677676,-271.1866277351762,-44.7247414259089,-8.531202100396177,89.45173751997616,-4.9833592324529965,274.8837638497393,89.98548048402814
242,-3.6069155320964015,-271.21274528646813,-44.79328590796682,-7.787120202581582,89.51388582058445,-4.918515265244733,274.92025898230327,89.97531858181051
243,-3.585980875923831,-271.2403948874112,-44.8580298397624,-7.074800738663736,89.58493727537929,-4.848915221771771,274.9576140234853,89.98259663021364
244,-3.5611146828720246,-271.26887047876085,-44.91840148389097,-6.39529522091336,89.66626689853433,-4.775313440210128,274.9950488210732,90.00808387634537
245,-3.532779819440762,-271.29744473014637,-44.97389917365563,-5.749482497292541,89.75904059326479,-4.698421251538617,275.0317742823021,90.05233876339715
246,-3.501523763895262,-271.32538354210004,-45.02410368523694,-5.138080066985751,89.86416977824484,-4.618904570722071,275.06700857923175,90.11566951716694
247,-3.4679756728904767,-271.3519619567656,-45.068688310705525,-4.561659808171997,89.98226875030629,-4.537384184715299,275.099994354842,90.19809723372637
248,-3.4328407836576864,-271.3764806211712,-45.10742571633102,-4.020665932782343,90.11361632572218,-4.454438306194125,275.13001593125637,90.2993228645214
249,-3.3968916849304467,-271.3982818248077,-45.140190714838106,-3.5154330673809437,90.25812338708734,-4.370606805724119,275.156415410108,90.41869958369884
250,-3.3609562285107666,-271.41676426432156,-45.16695832938947,-3.0462027607023883,90.41530786343279,-4.286396496922689,275.1786067269534,90.55521195343468
251,-3.3259020897578666,-271.43139595516163,-45.18779695819437,-2.613137224936149,90.58427844628191,-4.202286926882988,275.1960870572625,90.70746312070754
252,-3.292618240500362,-271.44172497100203,-45.20285697560236,-2.216329542580813,90.76372804053463,-4.118736256441078,275.2084453172583,90.8736710143342
253,-3.2619938398332504,-271.44738786527034,-45.212355642245896,-1.8558098471694622,90.95193757920225,-4.036186932948439,275.2153677639986,91.051674169001
254,-3.234895222484289,-271.44811571784743,-45.216559643907004,-1.5315471729798134,91.14679043022787,-3.955070956325821,275.21664086110803,91.23894742144941
255,-3.2121417867711854,-271.44373780101296,-45.21576682958786,-1.2434468701388568,91.34579725239072,-3.875814630538588,275.2121516686094,91.43262736947142
256,-3.1944816848641686,-271.4341829133244,-45.21028871409502,-0.9913437631556503,91.54613082506143,-3.7988427431901908,275.20188606930583,91.62954716794023
257,-3.182568249024384,-271.41947849447024,-45.20043505138026,-0.7749915806898197,91.74467002867895,-3.724582091452648,275.1859251664089,91.82627990127303
258,-3.1769380179587117,-271.3997476879811,-45.18650132247186,-0.5940495194715459,91.93805177217746,-3.6534642063563676,275.1644401651377,92.01918940072392
259,-3.1779911441184536,-271.3752045624241,-45.16875945042684,-0.44806702234758816,92.12272932530009,-3.5859270821371303,275.1376860072416,92.20448704348907
260,-3.1859749447427794,-271.34614776817483,-45.1474516548055,-0.33646789469161525,92.29503529100111,-3.522415708214967,275.10599402729804,92.3782928519195
261,-3.2009713604296666,-271.31295300237383,-45.122787192929245,-0.25853478119150136,92.45124733200535,-3.463381197997013,275.06976396586134,92.53669909056197
262,-3.2228890276247375,-271.2760647325182,-45.094941728166866,-0.2133948469074213,92.58765470833508,-3.4092782922052445,275.02945574795154,92.67583449887715
263,-3.2514605399436753,-271.2359876395856,-45.06405912100425,-0.200007310007414,92.70062371463423,-3.3605610040848624,274.98558145138855,92.79192732541112
264,-3.2862452695526145,-271.19327815391904,-45.0302555639316,-0.2171532958728659,92.78666028361341,-3.3176762078719424,274.9386978194914,92.88136550318667
265,-3.3266378428171133,-271.148536241948,-44.99362615984523,-0.2634283636857965,92.84246834802502,-3.2810550780394143,274.88939948562796,92.94075263047336
266,-3.371882048348771,-271.10239727968235,-44.95425411648222,-0.33723802755391963,92.865002963567,-3.251102463240799,274.8383127677209,92.96695883085343
267,-3.4210896436148186,-271.0555235563894,-44.91222251797115,-0.43679664280057323,92.85151761683147,-3.2281844940674644,274.78608956461414,92.95716598776121
268,-3.473263232341056,-271.0085948606642,-44.86762814883032,-0.5601301089558588,92.79960554177993,-3.2126149343232426,274.7334007137443,92.90890724527347
269,-3.5273221349411465,-270.9622977414145,-44.82059632077372,-0.7050829065308793,92.70723521826605,-3.2046409582405158,274.68092821912035,92.82010101040044
270,-3.5821300281856656,-270.91731327321867,-44.77129536624289,-0.8693299936256703,92.57278046567309,-3.20442915811326,274.6293559435876,92.68907992092346
271,-3.6365231398175544,-270.87430335833625,-44.7199494789563,-1.0503940105750629,92.39504561069197,-3.2120526541022305,274.579358562666,92.51461529419315
272,-3.689337962459064,-270.8338957516685,-44.666848697321356,-1.2456680746439885,92.17328608995508,-3.227480175956634,274.5315887517127,92.29593743581772
273,-3.739437745261624,-270.79666814114904,-44.61235486556316,-1.4524442135991984,91.90722458135969,-3.2505678842976296,274.4866627344946,92.03275189832335
274,-3.7857372912236755,-270.7631317789325,-44.556902504665075,-1.6679471840101623,91.5970623949552,-3.281054467538097,274.44514450376596,91.72525139074011
275,-3.8272257050449263,-270.73371533760627,-44.50099392723933,-1.8893729998666806,91.24348546435796,-3.3185597130508016,274.40752927121736,91.374122620499
276,-3.8629867234617805,-270.708749821252,-44.44518860108948,-2.113930936564856,90.84766394249907,-3.3625864168078294,274.37422697019355,90.98054698192247
277,-3.8922162624662824,-270.6884554349481,-44.390087408668016,-2.338887162925837,90.41124419060681,-3.412525286665411,274.345546813954,90.54619376481521
278,-3.91423693955781,-270.6729312965692,-44.3363128434265,-2.5616076703805715,89.93633192021146,-3.467662435982215,274.3216839581233,90.07320450847804
279,-3.928509545080914,-270.6621487850155,-44.284486348487086,-2.7795979749207147,89.42546546202576,-3.5271890830844637,274.30270925495546,89.56416732901938
280,-3.9346416202984766,-270.65594915028845,-44.23520409115594,-2.990537224498376,88.88157859823664,-3.5902130878026646,274.28856293451827,89.02208050733122
281,-3.9323933461031326,-270.65404574964003,-44.1890125680615,-3.1923048314619766,88.30795301666515,-3.6557719475791917,274.279052804386,88.45030525503788
282,-3.9216808696213046,-270.65603096864925,-44.146385481929045,-3.382998525920018,87.70816107001399,-3.7228468773572803,274.27385726205733,87.85250822476505
283,-3.90257711261284,-270.6613876083757,-44.10770320519393,-3.560943730056072,87.08600002165642,-3.790377649200171,274.27253311693096,87.2325948722737
284,-3.87531009359133,-270.6695042930558,-44.07323585275583,-3.7246952437148217,86.44541930958262,-3.8572779680626805,274.27452794655966,86.59463518353209
285,-3.840258812456678,-270.67969426820076,-44.043130675181544,-3.8730331847454225,85.79044263218417,-3.9224512760309187,274.2791964800058,85.94278360586037
286,-3.7979467246226264,-270.69121682089684,-44.01740427690223,-4.004955731346032,85.12508691481507,-3.98480698013774,274.28582033251996,85.2811953173395
287,-3.749032787488417,-270.70330045841445,-43.99593998344035,-4.1196713623288215,84.45328043786965,-4.043277178086644,274.29363029327004,84.61394121095124
288,-3.694300051652755,-270.7151668783197,-43.978490353688855,-4.216592998913225,83.77878253319652,-4.09683400917278,274.30183021423875,83.94492409950347
289,-3.6346418012663033,-270.7260546185377,-43.96468436792947,-4.295335806507867,83.1051072414091,-4.144507774721743,274.30962133045557,83.2777986247714
290,-3.5710452911979162,-270.73524117706245,-43.954038438801746,-4.35571955406181,82.43545315139247,-4.185405926562192,274.3162256809775,82.61589716696089
291,-3.504573163612729,-270.74206249993887,-43.94597025999899,-4.397775532041905,81.77264130723515,-4.21873288247454,274.3209073837699,81.96216369445425
292,-3.436342664109608,-270.7459290808077,-43.93981459075341,-4.421757270875662,81.11906256951066,-4.243810396044226,274.3229908689428,81.31909697633428
293,-3.3675028534155302,-270.74633832677995,-43.93484024526596,-4.428153768985832,80.47663519978855,-4.260097929766685,274.32187560754727,80.68870394871797
294,-3.2992101600943915,-270.74288315800425,-43.93026777571522,-4.417703619564899,79.84677280848662,-4.267212207162493,274.31704721821853,80.07246339112088
295,-3.232602824726242,-270.73525701991565,-43.92528766180641,-4.391408254166405,79.23036230998271,-4.264944885783464,274.30808509818286,79.47129957254211
296,-3.1687749647754098,-270.72325566366106,-43.919079208560156,-4.3505424365686025,78.62775126207163,-4.253277121986705,274.2946669657996,78.88556526292194
297,-3.1087510773565437,-270.7067761943184,-43.91083056831867,-4.296660086907397,78.03874393419981,-4.232389717027033,274.27657088184185,78.31503347675421
298,-3.0534618029583025,-270.68581399085434,-43.89976012478548,-4.231593449985176,77.46260557819164,-4.202667576669242,274.2536753931111,77.75889744908672
299,-3.0037217419051396,-270.6604582060976,-43.88513897123504,-4.157443548808143,76.89807456291479,-4.164697423411831,274.2259584645851,77.21577853980992
300,-2.96021008711982,-270.63088663740814,-43.86631366636215,-4.076559871126483,76.34338221223106,-4.119258097088854,274.1934958599845,76.68374195963108
301,-2.9234548116666,-270.597360682483,-43.842728084072185,-3.99150745884792,75.79628036638138,-4.0673033370931035,274.1564594970893,76.16032043055883
302,-2.893821053744459,-270.56022077762015,-43.81394299918787,-3.9050201059806877,75.25407692488365,-4.009937557964104,274.11511596309623,75.64254618871851
303,-2.8715040981548925,-270.5198822712436,-43.77965197520458,-3.819939226511435,74.71367991548018,-3.9483856816472103,274.06982492203525,75.12699209079261
304,-2.8565269977681327,-270.4768313226708,-43.739692141466705,-3.7391390964696396,74.17165083413221,-3.8839584829046334,274.0210367869122,74.60982285655824
305,-2.848742551442642,-270.4316202527158,-43.69404868496491,-3.6654406014665795,73.6242679126521,-3.8180151121067074,273.9692889015957,74.08685746848451
306,-2.847839205199327,-270.3848617674149,-43.64285240009525,-3.6015172885690876,73.06759946942846,-3.7519245001370773,273.915199553756,73.55364333158026
307,-2.8533505332841904,-270.3372215094251,-43.58637031361749,-3.5497991904906088,72.49758664609968,-3.6870272455604822,273.8594592828774,73.00554201475344
308,-2.8646681881685674,-270.28940841148165,-43.52499003654882,-3.5123811190696315,71.91013382986745,-3.624599340007344,273.8028190712001,72.43782541509238
309,-2.8810583895411,-270.2421623953306,-43.45919901243759,-3.490942488807983,71.30120409496307,-3.565818723627558,273.74607515658846,71.84578017408681
310,-2.9016820257671037,-270.19623914603136,-43.38956024472443,-3.4866850879095512,70.66691614914316,-3.5117352594761573,273.6900504532295,71.22481722077052
311,-2.92561824857417,-270.1523919928409,-43.31668638047127,-3.5002937948207316,70.00363858825098,-3.463244397028299,273.6355729048326,70.57058249496966
312,-2.9518910713330393,-270.1113513205348,-43.24121417746515,-3.5319234834735105,69.30807688579672,-3.4210646333804853,273.58345149937753,69.87906437635681
313,-2.979497999074371,-270.07380237904255,-43.16378136466741,-3.581213626509376,68.57734869811584,-3.3857188512023653,273.5344511027483,69.14669333995354
314,-3.007439274354249,-270.0403627290586,-43.085007661790804,-3.64733050712886,67.8090438776408,-3.3575196530994544,273.4892675892052,68.37043000512661
315,-3.034746083820957,-270.01156070446854,-43.00548121980499,-3.7290354641404977,67.00126696935253,-3.3365588838933964,273.4485048059034,67.54783895747057
316,-3.0605061188695992,-269.98781617764814,-42.925751068212186,-3.8247762161462626,66.15266165533129,-3.3227016110398497,273.41265470970933,66.67714724074958
317,-3.083885187214448,-269.96942471949814,-42.84632542696885,-3.93279706991535,65.2624182811022,-3.3155848929381597,273.3820817121141,65.75728791326523
318,-3.104144022976844,-269.95654604515204,-42.76767501298649,-4.051262771964467,64.3302669529834,-3.31462168496878,273.3570119608765,64.78793025231045
319,-3.1206499366936318,-269.9491973695251,-42.69023983478012,-4.178390027588711,63.35645954797595,-3.319010209609415,273.33752793124404,63.76949889207037
320,-3.132883423704383,-269.94725190500253,-42.614437625786486,-4.312580422687609,62.34174424492062,-3.3277490650001744,273.3235682678994,62.70318432765742
321,-3.140440276683884,-269.95044230882235,-42.54067214656901,-4.452548689095411,61.287335896419954,-3.3396582766424685,273.3149324203104,61.59094685367711
322,-3.143030091460501,-269.9583685870358,-42.46934001174564,-4.597440874731845,60.1948848899465,-3.353406385209128,273.31128938934717,60.43551530842209
323,-3.1404722630855213,-269.9705098495286,-42.40083530371741,-4.746937835780672,59.06644635788438,-3.367543465087513,273.31218988860593,59.24038121863991
324,-3.1326905943881047,-269.98623933148957,-42.33555186256729,-4.901340334246163,57.904450873017225,-3.3805396552065745,273.31708134146385,58.009788249201556
325,-3.119707492516041,-270.00484214452837,-42.27388358448488,-5.061632740803044,56.71167713916263,-3.3908283577183114,273.32532524898716,56.748716275462364
326,-3.1016384606266265,-270.0255352332848,-42.21622312896277,-5.229522916620609,55.491226643949446,-3.396852769136961,273.33621648470466,55.462858907639415
327,-3.0786872259332454,-270.04748902461876,-42.162959173842424,-5.407456410782152,54.246499820581015,-3.3971139643315666,273.3490040403922,54.158592965710376
328,-3.051141417516166,-270.0698503238697,-42.11447208818756,-5.598603777684633,52.98117301860562,-3.390218489231933,273.36291276833276,52.842938301066
329,-3.019368344705419,-270.09176612046247,-42.07112792219529,-5.806820618339925,51.69917549962233,-3.3749233975517923,273.37716577239763,51.523506484949834
330,-2.983810281454462,-270.11240803158006,-42.0332709673755,-6.036580849705219,50.404665683321255,-3.3501768506284035,273.39100721784365,50.20843716049945
331,-2.9449787769664804,-270.1309970518915,-42.00121559660252,-6.29288466325171,49.10200591951501,-3.3151527073317686,273.4037253400021,48.90632122256631
332,-2.903447804242618,-270.1468280583511,-41.97523836502965,-6.581143598547678,47.79573516789009,-3.2692779155055627,273.4146752599872,47.62611045167942
333,-2.8598458761540404,-270.1592932097388,-41.95557126658932,-6.90704605237288,46.490539166197635,-3.2122519497501028,273.42330090047767,46.37701380670186
334,-2.814847441118727,-270.16790311676436,-41.942396661057415,-7.2764072603951275,45.19121793324084,-3.1440579642034137,273.42915497842284,45.168381223915375
335,-2.7691638318582954,-270.1723045528209,-41.93584395854414,-7.695008241507011,43.9026506970504,-3.0649656705601607,273.4319158811019,44.009576366342245
336,-2.7235338438357024,-270.17229357005914,-41.93598788440685,-8.16842838417322,42.629758507913664,-2.975526178079873,273.4314002817388,42.90984025297921
337,-2.6787138083671542,-270.1678231815897,-41.94284810595072,-8.701876347771782,41.37746492384574,-2.8765591611184504,273.4275706327718,41.87814810878063
338,-2.635466889358112,-270.1590052608742,-41.95639013336383,-9.300023815989666,40.15065529193227,-2.7691328005001035,273.4205371754523,40.923062164773704
339,-2.594551270910003,-270.1461069216781,-41.97652759531439,-9.966846415724385,38.954135285723915,-2.654537052482551,273.410554734999,40.0525834971061
340,-2.556706884744826,-270.1295421659742,-42.00312605833506,-10.705475855254011,37.79258947147989,-2.5342509973023417,273.39801509598504,39.2740063006895
341,-2.5226403673824516,-270.10985978461986,-42.03600837208027,-11.518067102620387,36.670540786231975,-2.409905295626154,273.3834359170266,38.593778267773665
342,-2.493008110283445,-270.0877283297844,-42.07496111553757,-12.405684245149954,35.59231196031598,-2.2832410445821427,273.36744691755405,38.01737101364757
343,-2.468397601776982,-270.0639186477012,-42.119741275294274,-13.36820850500568,34.56199008157927,-2.156066494136371,273.3507736773044,37.54916471405448
344,-2.4493076518806984,-270.0392842051268,-42.17008196696503,-14.404271648055063,33.58339555588353,-2.0302131453099084,273.3342190912264,37.19235114540937
345,-2.4361283900227124,-270.0147393803261,-42.22569585814979,-15.511217608682397,32.66005653475208,-1.90749271442195,273.3186424392856,36.94885898708466
346,-2.42912209864119,-269.99123599973905,-42.2862749915042,-16.685094471821387,31.795189438164723,-1.7896563012666535,273.30493614665033,36.81930450446791
347,-2.4284060408490675,-269.96973859995666,-42.351486062589146,-17.920677987981964,30.99168562634573,-1.678356844069753,273.29400056216724,36.80296969060604
348,-2.4339384410526694,-269.9511991035174,-42.42096097418085,-19.211526624667414,30.2521037423567,-1.5751156341943122,273.28671741108406,36.89780878738732
349,-2.445508629907816,-269.93653175446815,-42.49428349394994,-20.550066909591635,29.578666867689613,-1.4812933875000118,273.2839228926866,37.10048298397044
350,-2.4627321008671497,-269.92658920192144,-42.570973691004326,-21.927706642033023,28.973263433989583,-1.3980661943816877,273.28638156853543,37.40642209012431
351,-2.4850509425949685,-269.9221405079685,-42.65047224617811,-23.33497258055529,28.43745078516534,-1.3264065958781965,273.2947621403338,37.80991115522139
352,-2.511739873644133,-269.92385161860904,-42.73212674898699,-24.76166855700764,27.972460298217385,-1.2670699866970154,273.30961598134536,38.30419934188733
353,-2.5419179152089257,-269.9322685729605,-42.815181872812374,-26.19704962709104,27.5792029409055,-1.2205864431095164,273.331358987978,38.8816278049123
354,-2.574565570344236,-269.94780355291084,-42.89877498888052,-27.63000778092444,27.258274048793982,-1.1872578899139374,273.360257095483,39.53377284350726
355,-2.608547220142384,-269.9707238273473,-42.98193841595526,-29.049264802286533,27.009956045209652,-1.1671603032759579,273.3964157005316,40.25160023413002
356,-2.642638282676711,-270.0011436462539,-43.06360909234195,-30.44356795767865,26.83421791407184,-1.160150461331676,273.43977317488293,41.025626435473555
357,-2.6755564577484674,-270.03901909512723,-43.14264592719562,-31.801884208411657,26.730710487595886,-1.1658766369577211,273.49009853019413,41.84608224178879
358,-2.705996072229175,-270.084145807537,-43.21785448028717,-33.1135885685978,26.698757022003363,-1.1837925825090498,273.5469930872448,42.703074443609864
359,-2.732664221670859,-270.1361593167789,-43.28801810865727,-34.368642202130715,26.73733913917092,-1.2131741811651522,273.60989580399684,43.5867412477656
360,-2.754317191592024,-270.19453782581843,-43.35193441301824,-35.55775602191643,26.845079014297212,-1.2531382186533568,273.67809186265004,44.487397730706526
361,-2.7697955987075913,-270.2586073795701,-43.408455637878426,-36.6725360353263,27.020219559039614,-1.30266282836998,273.7507242859757,45.39566845144508
362,-2.7780568207571608,-270.32754976902004,-43.45653146228913,-37.70560750608776,27.26060505621687,-1.3606092453883845,273.8268086577112,46.302605417736764
363,-2.778203551047343,-270.4004137712488,-43.49525229851207,-38.650716105890844,27.563665078347594,-1.425744557435734,273.90525124183245,47.19979072545346
364,-2.7695076633435827,-270.476130383511,-43.523890918273295,-39.50280540965387,27.926404571519402,-1.4967651788363858,273.98487080253994,48.079424218732136
365,-2.751428935957571,-270.5535325690545,-43.54194015353506,-40.25807108432781,28.34540281558166,-1.5723208137073064,274.06442427765893,48.934397297319286
366,-2.7236284795460928,-270.6313797661768,-43.54914465201849,-40.91399274780021,28.816823652669935,-1.6510387142116016,274.14263623288565,49.758354415030865
367,-2.6859768765538927,-270.70838701574957,-43.54552508980961,-41.46934469540308,29.336438886617017,-1.731548063972976,274.21823169925744,50.545743820626726
368,-2.638557096736961,-270.7832580438734,-43.53139365046102,-41.92418658105856,29.89966602498296,-1.8125043162671772,274.28997154674636,51.29185870325746
369,-2.58166229015119,-270.85472112144276,-43.507359862622465,-42.27983484165957,30.501620551032772,-1.8926132881640516,274.3566890807686,51.9928692227645
370,-2.5157885991041455,-270.9215661847242,-43.47432610925447,-42.538815368680844,31.137181818776842,-1.9706547542034076,274.41732624754826,52.645845169226334
371,-2.441623137736456,-270.9826815997818,-43.433472418811775,-42.70479786987022,31.80107071737957,-2.045505195764627,274.4709677790981,53.24876851431878
372,-2.360027289276384,-271.0370889923728,-43.38623058956831,-42.782512641594174,32.48793663863505,-2.1161592477903097,274.5168717148522,53.800535081581614
373,-2.2720155377975177,-271.08397458754854,-43.334248250790594,-42.77765103466998,33.19245098977121,-2.1817492623741863,274.5544948455686,54.30094491754714
374,-2.1787301794577454,-271.1227154024225,-43.27934405991717,-42.696751534974474,33.90940437114227,-2.2415623297098786,274.5835116187936,54.750681434435116
375,-2.08141239925117,-271.1528985018235,-43.22345578780828,-42.54707384534654,34.633804457477055,-2.2950541239970557,274.6038250001454,55.15127974607439
376,-1.9813703883875038,-271.1743317361679,-43.16858343759696,-42.33646349621136,35.36097157948855,-2.341859095779248,274.61556805693675,55.50508471326599
377,-1.879945500792905,-271.1870452339388,-43.116729700413146,-42.07320933914045,36.08662907260492,-2.381796763177438,274.6190959070142,55.81519910724335
378,-1.7784778626959974,-271.19128410566475,-43.06984004644503,-41.76589592899393,36.806985667494516,-2.414874071970696,274.61496885695703,56.08542211537757
379,-1.6782731448943633,-271.1874936436028,-43.02974473292671,-41.42325247280565,37.51880747818582,-2.441283915405394,274.60392837700215,56.32017826365197
380,-1.5805721927594447,-271.17629850825114,-42.99810503135849,-41.053999900395695,38.21947742461197,-2.4613998990569694,274.5868677692465,56.524436812288826
381,-1.4865248980998622,-271.15847727840213,-42.97636597164067,-40.66669779350693,38.90704020919713,-2.4757673609999498,274.5647992678684,56.70362187855064
382,-1.3971692766224229,-271.13493361349646,-42.96571777480496,-40.269593353263744,39.580231297595105,-2.485090619982197,274.53881915806784,56.863513959909206
383,-1.3134163551929527,-271.10666519738254,-42.967067778412385,-39.8704751030807,40.23848875106509,-2.4902164708492625,274.5100723593252,57.01014405212546
384,-1.2360411793831623,-271.0747315701093,-42.981023965392694,-39.476534399223645,40.881947223235926,-2.492114024972084,274.4797177458355,57.14968202617078
385,-1.1656799180560249,-271.0402218497062,-43.00789028605198,-39.094237947629324,41.51141398362572,-2.491851054486811,274.4488952289627,57.288321284418636
386,-1.1028326280008158,-271.004223136399,-43.047673104474974,-38.72921443073644,42.12832746204113,-2.4905670711006467,274.41869528522983,57.43216198623521
387,-1.047870826772854,-270.96779014388676,-43.10009755629411,-38.386158109492484,42.734699463956,-2.489443503160411,274.3901312822358,57.587095338704756
388,-1.001048708074174,-270.93191648386136,-43.16463235837674,-38.06875195234624,43.33304281447883,-2.489671534216413,274.36411479674905,57.75869159172943
389,-0.9625166834004402,-270.897508090426,-43.240521445689886,-37.77961252002024,43.92628670696938,-2.4924183934897695,274.34143414992496,57.952094474708204
390,-0.932335961155619,-270.86535939476136,-43.32682056860071,-37.52025854900943,44.5176824280055,-2.4987930790729984,274.32273646621167,58.17192486915101
391,-0.9104930299716149,-270.83613292678444,-43.42243670170561,-37.29110490103783,45.110702359915564,-2.50981259383788,274.3085135823838,58.422196476236344
392,-0.8969131184711633,-270.81034298384526,-43.5261679650978,-37.0914831663541,45.708935225405696,-2.526369787278688,274.2990920730859,58.706246037517026
393,-0.8914719398979026,-270.78834386177846,-43.636741894066596,-36.91968959776761,46.31598048335458,-2.5492038774152794,274.2946275382589,59.02668025589767
394,-0.8940053188112673,-270.7703229239243,-43.752850314120025,-36.77306016064003,46.935344625953036,-2.578874694693067,274.29510314861477,59.38534092151899
395,-0.9043165881870151,-270.7562985630783,-43.87317963722221,-36.648071383102256,47.570341846714214,-2.615741601629058,274.3003323177226,59.78328890045957
396,-0.9221818164597532,-270.74612294588513,-43.99643592288464,-36.54046455086422,48.22400118571571,-2.6599478721856182,274.30996529124263,60.220806727492935
397,-0.9473529354433367,-270.7394893205404,-44.121364476918885,-36.445389805117436,48.8989819066163,-2.7114111053645966,274.32349940524006,60.6974187490435
398,-0.979558806426826,-270.73594361831107,-44.246764142152344,-36.357565989089736,49.5974985532158,-2.7698200384872833,274.34029277583744,61.21192718524184
399,-1.0185043082014456,-270.73490012268456,-44.371496816204356,-36.271451660052705,50.32125680399302,-2.8346378923511444,274.35958128493724,61.7624620678385
400,-1.0638676412437784,-270.73566110962867,-44.49449304857968,-36.181422503238785,51.07140081656435,-2.905112090813418,274.3804989045191,62.346542676763356
401,-1.1152961183459842,-270.7374404638767,-44.614754741258466,-36.08195042997229,51.84847224750691,-2.9802899002112047,274.4021015285489,62.96114783953844
402,-1.1724007289254648,-270.7393912039833,-44.73135603582642,-35.96777988522841,52.65238065850295,-3.059039338717703,274.4233944183803,63.602792345541815
403,-1.2347497916571595,-270.7406365669014,-44.843443479512196,-35.83409723793673,53.48238471811587,-3.140074670267468,274.4433630895275,64.26760681756873
404,-1.3018621117797835,-270.7403039163376,-44.9502364699221,-35.6766894201725,54.33708357154746,-3.2219858684874727,274.461007070642,64.95141865181503
405,-1.3732002375769612,-270.73756038320465,-45.05102868617148,-35.49208807078301,55.2144179685396,-3.3032715098800067,274.47537556693214,65.64983198527067
406,-1.4481646100149148,-270.73164886815,-45.14519075329668,-35.27769530974454,56.11168110074409,-3.382374572154282,274.48560371144464,66.3583049722031
407,-1.5260895256440643,-270.7219228018117,-45.23217394147961,-35.03188707448181,57.02553944320238,-3.457720572281097,274.4909477850818,67.07222289905427
408,-1.6062418102747122,-270.7078778598844,-45.31151449594769,-34.75408992531082,57.952064079995395,-3.527757399859342,274.49081755770976,67.78696585348214
409,-1.687822929519648,-270.68917875499085,-45.38283832680365,-34.444827606262145,58.88677296036953,-3.59099611148479,274.4848038504292,68.49796986549244
410,-1.769974993704964,-270.6656793917048,-45.44586610105088,-34.10573459080108,59.82468431118365,-3.6460518915700235,274.4726996313958,69.20078077378103
411,-1.8517908037255868,-270.63743507624775,-45.50041894615595,-33.739535315199575,60.76038110958036,-3.6916843779648967,274.45451338312546,69.89110058989382
412,-1.9323277730333808,-270.60470598894864,-45.54642481890486,-33.34998949042016,61.688086172750495,-3.7268365472303957,274.4304739618561,70.56482672027143
413,-2.0106252706548466,-270.5679516512224,-45.583925244631814,-32.94180533708688,62.60174708637657,-3.750671248128169,274.40102662760273,71.21808483869316
414,-2.085724663689086,-270.52781667192875,-45.61308183313305,-32.520523515069264,63.4951298702363,-3.762604204013485,274.3668204185905,71.84725632166001
415,-2.1566911055775595,-270.48510867902735,-45.63418184668337,-32.09237492038902,64.36191994152477,-3.7623319436056533,274.3286876331049,72.44900095672433
416,-2.2226359705694305,-270.44076992267424,-45.64764210040264,-31.664115592949056,65.1958285470855,-3.749852830830891,274.28761675360016,73.02027519657796
417,-2.2827388599701095,-270.3958443544989,-45.65401052178853,-31.242841946474883,65.99070238998318,-3.7254793112213127,274.24472046999983,73.55834568612204
418,-2.3362683267021267,-270.3514419444167,-45.65396472287441,-30.835789570995534,66.74063373289125,-3.6898397526841955,274.2012004229546,74.06079728211097
419,-2.3826007563846683,-270.3087017508529,-45.64830699821932,-30.45011909862014,67.44006792481417,-3.643868805904782,274.15831005919785,74.52553447044079
420,-2.421237005769725,-270.2687550678867,-45.637955382728755,-30.092693205032084,68.08390516789945,-3.588785947136391,274.1173168413736,74.95077511223121
421,-2.451816352701343,-270.23268990442347,-45.623930817203984,-29.769849880643307,68.66759347481724,-3.5260626743897965,274.0794650576938,75.33503592357096
422,-2.474127168617779,-270.20151795130585,-45.60734092140095,-29.48717865464434,69.18721016353634,-3.4573795904965885,274.0459404542892,75.67711001222634
423,-2.488113676060677,-270.1761449085861,-45.58936111610017,-29.249308225256122,69.63952984792651,-3.3845752239439877,274.01783767412627,75.97603799555854
424,-2.4938783173459087,-270.15734461864884,-45.57121372473189,-29.059715408845104,70.02207764631534,-3.3095888655289207,273.9961310500318,76.2310754286416
425,-2.4916795967829772,-270.1457370787648,-45.55414534939935,-28.92056587947575,70.33316715354584,-3.2343999503335783,273.98164888120016,76.44166017083732
426,-2.481925601394918,-270.141770253491,-45.53940257456616,-28.832596462386242,70.57192343775523,-3.1609665968857086,273.97505113552535,76.60738364148622
427,-2.4651636172371916,-270.1457056592014,-45.528206097543574,-28.795046809263685,70.73829172796081,-3.091165794824854,273.97681058089034,76.72796951174935
428,-2.442066349069487,-270.15760779737883,-45.52172363144377,-28.80564552773604,70.83303244464996,-3.026737409757753,273.9871974924993,76.80326230655648
429,-2.413415302725112,-270.17733757917375,-45.521042193479566,-28.860652794198007,70.85770285781827,-2.969233737649312,274.00626819172123,76.8332268921192
430,-2.3800819298656295,-270.20454998043846,-45.52714059021004,-28.954958539873502,70.81462513444194,-2.9199759111228443,274.03385779857035,76.81795821685911
431,-2.343007126756516,-270.23869635584924,-45.54086300932989,-29.082232634853156,70.7068401270941,-2.8800181204859627,274.0695777805922,76.75769926513051
432,-2.3031795892741633,-270.2790320036179,-45.56289461135677,-29.23512114648096,70.5380462371764,-2.8501203862240647,274.11281903603486,76.65286425348323
433,-2.261613379692784,-270.3246295174009,-45.59373994081521,-29.405480738945503,70.31252324217117,-2.8307304589600792,274.1627611798883,76.50406382620162
434,-2.219324949896741,-270.3743981468542,-45.633704931057785,-29.584641648890315,70.03504206692288,-2.8219752493934087,274.2183883805388,76.31212936262354
435,-2.1773099155495235,-270.4271089413093,-45.68288325100158,-29.763688474432065,69.71076284870921,-2.823661979029835,274.2785116487913,76.07813427200391
436,-2.136520144856239,-270.4814250274928,-45.74114765324739,-29.933747317871894,69.34512494661698,-2.835289022776525,274.3417970505324,75.80341102523812
437,-2.0978420850106523,-270.5359360511051,-45.808146828042375,-30.08626767956456,68.94373347193293,-2.8560661916936567,274.4067989763724,75.48956340248824
438,-2.0620774139551563,-270.58919559336925,-45.88330814160371,-30.213287938084587,68.51224731511378,-2.8849439317938725,274.4719973692753,75.13847390450394
439,-2.0299269053494027,-270.63976022390517,-45.96584657384948,-30.307674261195732,68.05627353983213,-2.920650560977506,274.53583765420206,74.75230651903378
440,-2.0019779759196608,-270.6862287537127,-46.05478007057021,-30.363324321996615,67.58127249619137,-2.961736270031861,274.5967719989048,74.3335051337159
441,-1.9786960255398498,-270.7272802286731,-46.14895127933666,-30.37532914834054,67.0924771266554,-3.0066222630122943,274.6533004676544,73.88478786745617
442,-1.9604195025825963,-270.7617092861863,-46.247055248395434,-30.340088674795897,66.59482875947783,-3.053653183773588,274.70401064257993,73.40913745633135
443,-1.9473585744953132,-270.788457676045,-46.347672248498576,-30.255378931785113,66.09293036338093,-3.1011508973348563,274.74761439049206,72.90978764411632
444,-1.9395972737109013,-270.80664098170865,-46.449304576832844,-30.12037113069776,65.59101698871453,-3.1474677460268707,274.78298063133235,72.39020540035212
445,-1.9370989701400343,-270.8155698555853,-46.55041609016428,-29.935605037825646,65.09294209092678,-3.1910375310117547,274.8091632150143,71.85406877534814
446,-1.9397149402580076,-270.81476540273064,-46.64947323509357,-29.702920839600708,64.6021776651019,-3.2304226362973196,274.8254233280692,71.30524027520303
447,-1.9471956204785332,-270.8039686687274,-46.74498635765315,-29.425355085728736,64.12182561141715,-3.2643559028298355,274.83124616502664,70.74773575211229
448,-1.9592039104387562,-270.7831444389776,-46.83554994069933,-29.107007228217824,63.65463748312553,-3.291776076526349,274.8263518195997,70.18568893192302
449,-1.975329795857508,-270.7524797107245,-46.91988011230675,-28.75288377420726,63.20303970592539,-3.3118558765818813,274.81070044821183,69.62331182584025
450,-1.9951056816116746,-270.71237727265157,-46.99684749111961,-28.368727127082096,62.76916144914469,-3.324021929661822,274.78449178481407,69.06485135277033
451,-2.0180220293338516,-270.66344482503547,-47.06550351341752,-27.96083576860915,62.35486253151307,-3.327966002474659,274.7481591015966,68.5145424873388
452,-2.0435429797853675,-270.6064799969127,-47.125098976407905,-27.535881595406853,61.96175905846866,-3.3236471950697397,274.702357740801,67.97655817953492
453,-2.0711216172756,-270.5424515280552,-47.17509443066252,-27.100729185232286,61.59124495822994,-3.311285072431239,274.6479484148315,67.45495629727709
454,-2.1002145796914617,-270.4724768892525,-47.2151629037675,-26.662260824571096,61.24450822428771,-3.2913441021793455,274.5859756290022,66.95362404940444
455,-2.13029589833134,-270.39779674421465,-47.24518604298166,-26.227210478996295,60.92254140313077,-3.264510184397373,274.5176418187972,66.47622075453502
456,-2.160870133259038,-270.31974682352154,-47.265245100892884,-25.80200952188636,60.62614655784325,-3.2316604484484754,274.44427801967447,66.02612030386187
457,-2.191484896981121,-270.2397278997399,-47.275608237661224,-25.392646769322504,60.35593551014547,-3.1938277937202058,274.3673120135457,65.60635507515707
458,-2.2217426915876173,-270.15917462530706,-47.276715394819405,-25.00454500780705,60.1123266139686,-3.1521618266279883,274.2882349276034,65.21956331508846
459,-2.2513116849884227,-270.079524046328,-47.269161631701046,-24.642455695639732,59.895539643798756,-3.1078878959737493,274.2085672454077,64.86794209933447
460,-2.279934748377905,-270.0021846137397,-47.25367945431236,-24.31037294429067,59.70559052235946,-3.062265886011536,274.12982513209255,64.5532078720165
461,-2.3074359152487536,-269.92850645407873,-47.231120379150056,-24.011467328418053,59.54228748280693,-3.016550313758269,274.0534878649212,64.27656621514551
462,-2.3337234743852844,-269.85975357380903,-47.20243575422272,-23.748039564274652,59.405229891755674,-2.9719530853174407,273.98096703451574,64.0386919459413
463,-2.3587891387309097,-269.7970786182605,-47.168656722814085,-23.521493656048857,59.29381050595154,-2.9296099873948687,273.91357810690073,63.83972003593248
464,-2.3827030699921385,-269.7415007893196,-47.130873259477205,-23.332328784597724,59.207221538836436,-2.8905516591413916,273.85251492897135,63.67924734071855
465,-2.4056049474348637,-269.6938874642707,-47.09021246149188,-23.180149042390937,59.14446459455001,-2.8556794840182733,273.7988277455694,63.55634476022505
466,-2.427691694514582,-269.6549398703163,-47.047816565262046,-23.06369010398168,59.10436422917655,-2.82574664063536,273.7534051642182,63.469579166824815
467,-2.4492027984976144,-269.6251828751418,-47.004821254046604,-22.98086203909121,59.08558460385391,-2.8013444664243625,273.7169602336986,63.417044216539345
468,-2.470404271979905,-269.60495868770295,-46.96233470895126,-22.92880766311598,59.08664846307983,-2.782894229077314,273.6900205217058,63.39639902593187
469,-2.4915722189131264,-269.5944241547378,-46.92141768341422,-22.903975952065373,59.10595756886156,-2.7706442545179235,273.67292193846595,63.4049136628626
470,-2.5129767582337634,-269.59355137824326,-46.88306477826195,-22.902209988825245,59.141813738779156,-2.7646721132052514,273.6658060711544,63.4395204046279
471,-2.5348668257546265,-269.6021314402866,-46.84818703942168,-22.918848601619793,59.192439730265384,-2.764891321277868,273.66862084128985,63.49686970738672
472,-2.5574562566177614,-269.61978101661583,-46.81759589623697,-22.9488403555667,59.25599937848724,-2.7710618761735306,273.6811242728048,63.57338982454239
473,-2.5809116199318463,-269.6459516257556,-46.791988325081086,-22.98686795728821,59.330616630194484,-2.7828039332944536,273.70289110188884,63.66534904175681
474,-2.605342409034583,-269.67994127005875,-46.77193315248207,-23.027480513408225,59.414393358644325,-2.7996139798518818,273.7333219759728,63.76891952988705
475,-2.6307941509318957,-269.7209083084169,-46.75785871485418,-23.06523053973049,59.5054260160798,-2.820882904233848,273.77165512351047,63.88024180814253
476,-2.657244690952595,-269.76788755218587,-46.75004249438977,-23.094812257359195,59.60182126948792,-2.8459153609969636,273.8169805925672,63.99548878309808
477,-2.684603483346347,-269.81980874021644,-46.74860358299255,-23.11119757763976,59.701710819849666,-2.873949809968359,273.86825735367785,64.11092834442832
478,-2.712713426792419,-269.87551759179905,-46.75349880386101,-23.1097661964673,59.8032656655247,-2.904178611131428,273.9243335964773,64.22298357013285
479,-2.7413547532708953,-269.93379944634097,-46.764523133992334,-23.086426286754946,59.9047101355234,-2.9357676230519396,273.9839703272587,64.3282896871972
480,-2.7702506428912606,-269.9934051132004,-46.78131481090162,-23.03772237215375,60.00433604202125,-2.9678748787143516,274.04586794834285,64.42374699732379
481,-2.799074448569659,-270.0530781432185,-46.80336523124286,-22.96092713003147,60.10051723660537,-2.9996680505677586,274.1086950460964,64.5065689816062
482,-2.827458566660569,-270.11158247622205,-46.83003356878696,-22.854114129955867,60.19172472136963,-3.0303405036911233,274.17111833110954,64.57432476549597
483,-2.8550050251986847,-270.1677294181959,-46.860566033058724,-22.716208833765933,60.276542339174966,-3.05912574969052,274.231832676753,64.62497511216804
484,-2.881297743418004,-270.22040314125263,-46.89411970413821,-22.547015525465344,60.35368299639118,-3.085310087891739,274.2895904473378,64.65690115085717
485,-2.905916175639433,-270.2685842273256,-46.92979064534844,-22.347218218337908,60.42200535161055,-3.108243203270748,274.3432295958512,64.6689251399435
486,-2.9284498176862237,-270.3113709811496,-46.96664548117354,-22.118354099227407,60.480530900205544,-3.1273465122172577,274.39170012733706,64.660322717071
487,-2.9485129457150174,-270.34799822917483,-47.003755047722954,-21.8627588493984,60.52846133184525,-3.1421191186476713,274.4340884152727,64.63082629100347
488,-2.965758979156828,-270.3778531940602,-47.04022826171921,-21.583484290777815,60.565195856600724,-3.1521413577700717,274.46963865192,64.58061943300362
489,-2.9798939280767454,-270.4004879263705,-47.075244106225284,-21.284190170042752,60.59034786771242,-3.1570760420757242,274.4977705623264,64.51032228347157
490,-2.9906884190343193,-270.41562775574914,-47.10807969972548,-20.969013337637737,60.60375993181666,-3.1566676646966676,274.5180925025033,64.42096812361261
491,-2.997987747746364,-270.4231753189656,-47.13813281728483,-20.642418911061135,60.605515825952956,-3.150739950425632,274.53040922377147,64.31397144233301
492,-3.001719307584218,-270.42320991667555,-47.164937796339366,-20.309039057838508,60.595948279227386,-3.139192262955027,274.5347238726827,64.19108808985295
493,-3.001896732627234,-270.41598217942766,-47.18817428996537,-19.973505672812852,60.575641222507926,-3.1219954404016677,274.5312341126534,64.05436841000305
494,-2.998620334309589,-270.4019042435353,-47.20766879858021,-19.640283430209106,60.545425635657836,-3.099187574220253,274.52032255397205,63.90610451841961
495,-2.9920738646559624,-270.38153587230676,-47.223389370925375,-19.313509519128985,60.506368462829045,-3.0708700300099045,274.5025419948524,63.74877312941462
496,-2.9825180592674174,-270.35556720467036,-47.235434272416164,-18.996845894909267,60.459754543467035,-3.0372036934503654,274.47859629356805,63.584975567717784
497,-2.9702816080823387,-270.3247989607836,-47.2440156452766,-18.69334915052179,60.40706207210269,-2.9984051570154753,274.4493178768434,63.41737685448453
498,-2.955750206622262,-270.29012087344313,-47.249439206648006,-18.405362184144725,60.34993267494374,-2.954742457154729,274.41564283164456,63.2486459793132
499,-2.939354287139951,-270.2524889062082,-47.2520810025149,-18.13443079136502,60.29013764651098,-2.906530027890892,274.37858431533965,63.08139956298023
500,-2.9215559571946854,-270.2129016619456,-47.25236230094718,-17.88124723379676,60.22954213660995,-2.8541226865968863,274.3392048732535,62.91815101724503
501,-2.9028355424634924,-270.1723764014686,-47.25072383523102,-17.64562179028683,60.17006912932043,-2.797908652655861,274.2985882874177,62.76126704443957
502,-2.883677971342625,-270.13192521776085,-47.24760069408281,-17.42648231652077,60.113664992528676,-2.738301781849127,274.2578117161718,62.61293297605675
503,-2.864559169542267,-270.09253200821524,-47.24339917684981,-17.22190097797647,60.06226826749606,-2.6757333303127613,274.2179189814655,62.47512810379102
504,-2.845932705466693,-270.0551308869346,-47.238476899053275,-17.0291466470366,60.017783216276726,-2.610643599166821,274.1798958544552,62.34961182682353
505,-2.8282170655097763,-270.02058658325234,-47.233127323529715,-16.844760973149857,59.98205939851769,-2.543473773538653,274.1446480768804,62.23792107847309
506,-2.8117840602244337,-269.9896771827041,-47.227569639107095,-16.6646557642676,59.95687815709906,-2.474658223708442,274.11298262523405,62.14137903671785
507,-2.7969489617505063,-269.9630792985148,-47.221944449349586,-16.48422896193279,59.94394634496614,-2.4046175061635497,274.0855923821871,62.06111453223735
508,-2.783963045320623,-269.94135551463086,-47.21631510992368,-16.298496100076953,59.94489695169335,-2.333752262914083,274.06304403032374,61.99809085494241
509,-2.7730091615251755,-269.9249438630359,-47.210673950226074,-16.102233697038407,59.961295547817144,-2.2624381766411568,274.0457688030927,61.95314187950522
510,-2.764200675733263,-269.9141492446137,-47.20495222304989,-15.890130569566931,59.994650762755086,-2.191022137487535,274.03405580347555,61.92701269232377
511,-2.7575835848893004,-269.90913698721454,-47.19903248357245,-15.65694267697859,60.046426476071964,-2.1198197900046876,274.02804785322775,61.9204013535967
512,-2.7531410917208605,-269.90992901374455,-47.192762104294545,-15.397646958333285,60.1180531003489,-2.0491145620602667,274.02774010815557,61.933998168314346
513,-2.7507996905577365,-269.9164032443955,-47.18596666802225,-15.107589819614994,60.210935215530704,-1.979158077105667,274.0329818292211,61.968518842069216
514,-2.7504360026673558,-269.9282968196122,-47.1784620230586,-14.78262641730035,60.32645278321227,-1.910171567198704,274.0434816723114,62.02472805782709
515,-2.7518839898073337,-269.9452135549327,-47.170063918918686,-14.41924750211324,60.46595324591507,-1.8423476571973332,274.0588167143949,62.103450306885705
516,-2.754942475935576,-269.9666358425106,-47.16059444672208,-14.014691157895792,60.630732168684396,-1.775851790802476,274.07844529659627,62.205565358651505
517,-2.7593830104815127,-269.9919410331271,-47.149884952298,-13.567037187557899,60.82200085044095,-1.7108226516858773,274.101723663981,62.331986669084976
518,-2.7649581116275743,-270.02042208239936,-47.13777558686099,-13.075282112094776,61.04084047660504,-1.6473711738877068,274.1279262209272,62.48362225220446
519,-2.771409939984112,-270.05131184730965,-47.124112158695795,-12.539392773880603,61.288143699275565,-1.585578109558641,274.15626891544315,62.66131887924094
520,-2.7784794565480646,-270.0838099210299,-47.10874135583114,-11.960336498920604,61.5645457878862,-1.5254905828339185,274.1859348456926,62.86579173012548
521,-2.785916032448648,-270.1171104660741,-47.0915055568513,-11.340085914097111,61.87034852877172,-1.4671184731508915,274.21610078543824,63.09754269013547
522,-2.7934872806721565,-270.150429329418,-47.07223828821847,-10.681597070242619,62.20544078843526,-1.4104316624479991,274.2459631221011,63.35677132919344
523,-2.800988675896312,-270.1830288357565,-47.05076111957464,-9.98876055494332,62.56922008041364,-1.3553590771493125,274.27476176356015,63.643283221285515
524,-2.808252454401648,-270.21423892344654,-47.02688265843691,-9.26632660603438,62.96051960073195,-1.3017901497447097,274.30180081024736,63.95640062679105
525,-2.815155344561764,-270.2434735850205,-47.00040033527883,-8.519806525584166,63.377545030233,-1.2495789582624075,274.32646508663964,64.29488060633415
526,-2.821624743002904,-270.2702419239742,-46.971105650964546,-7.755353671821615,63.81782497539391,-1.198550952387867,274.34823196735465,64.65684533461375
527,-2.8276429500565468,-270.29415361567516,-46.9387932753431,-6.979627876641012,64.27817831767537,-1.1485118638955187,274.36667835314574,65.03972880655299
528,-2.833249071026756,-270.31491911904146,-46.90327380998788,-6.199647339327977,64.75470108438,-1.0992581494238076,274.38148310403807,65.44024341316839
529,-2.838538253711986,-270.33234547031907,-46.86438932835832,-5.422631997801064,65.24277484237457,-1.050588155848183,274.39242559537365,65.85436914105792
530,-2.8436580691737126,-270.34632875454884,-46.82203023728957,-4.655842254261366,65.73709806490982,-1.0023131365678766,274.3993812262719,66.27736746437022
531,-2.8488020093960666,-270.3568443613421,-46.77615177481861,-3.906416913427856,66.23174133407069,-0.9542672643606894,274.4023146820339,66.70382128199242
532,-2.854200234097193,-270.36393598767376,-46.72678861481394,-3.1812143403837,66.72022649206163,-0.9063158930821084,274.4012716368174,67.12770139171474
533,-2.860107845218755,-270.3677041837749,-46.67406642656019,-2.486661057304417,67.19562891886967,-0.8583615397163209,274.39636948340336,67.54245895521277
534,-2.866791138378824,-270.36829511195043,-46.61820961933457,-1.828612093548791,67.65070110159527,-0.8103473575884932,274.3877876183706,67.94114228899906
535,-2.874512490521605,-270.36589010648527,-46.55954480549744,-1.2122272619946832,68.07801472063893,-0.7622581654530106,274.3757577835439,68.31653525999234
536,-2.8835147243235273,-270.360696547264,-46.4984997817246,-0.6418671662625997,68.47011766545562,-0.7141193164535149,274.3605549362739,68.6613136307716
537,-2.8940058585258552,-270.35294039734794,-46.435598103592454,-0.12101223881440873,68.81970164655117,-0.6659938090997725,274.34248900717364,68.96821483783405
538,-2.906145107496576,-270.3428604728584,-46.371449635537,0.3477924651711074,69.11977533376017,-0.6179780638464649,274.3218976759784,69.23021584731244
539,-2.9200308752796524,-270.3307042427556,-46.30673777665981,0.7629646379706647,69.36383727970772,-0.5701967459845643,274.2991400806515,69.44071297737628
540,-2.9356912957543067,-270.3167248402878,-46.24220426869835,1.1238829327088393,69.54604240532235,-0.5227969569438846,274.2745912933592,69.59369703299816
541,-2.9530775933985556,-270.30117900062345,-46.17863240239739,1.4308556517625777,69.6613555972797,-0.4759420726477496,274.2486374133933,69.6839168398737
542,-2.972060264772307,-270.2843257389107,-46.11682905442697,1.6850607483299611,69.70568597699103,-0.4298054615429685,274.22167116308145,69.7070242776073
543,-2.992427955762288,-270.266425685756,-46.057605638782334,1.8884593606496805,69.67599564746129,-0.3845642162097305,274.1940879210953,69.65969419362614
544,-3.0138889876834054,-270.24774103879497,-46.00175809008263,2.043686409824281,69.5703773149298,-0.34039287058355155,274.1662821812959,69.53971321862738
545,-3.0360756378347893,-270.2285360393282,-45.95004635063963,2.153922805053736,69.38809628282833,-0.29745692170820864,274.13864444070043,69.34603265091924
546,-3.05855129601347,-270.20907779686075,-45.90317414437157,2.222754491232757,69.12959401588856,-0.2559059333444257,274.11155848762917,69.07878231651554
547,-3.080820407517487,-270.1896372269732,-45.86176986242762,2.2540240652299195,68.7964526937007,-0.21586612427908233,274.0853990069562,68.73924457185394
548,-3.102340795633965,-270.17048981601255,-45.826369203605715,2.2516810305497463,68.39132266859762,-0.17743261727976098,274.06052933111533,68.32979015314905
549,-3.1225377500970537,-270.1519158135784,-45.79739992792004,2.219636864833885,67.91781716111693,-0.14066186390653565,274.03729900173704,67.8537800363256
550,-3.1408192842916978,-270.13419930875733,-45.77516877463501,2.1616308208761095,67.38038052338766,-0.10556505197906059,274.0160406106911,67.31543950623903
551,-3.1565921133823056,-270.1176256186487,-45.75985038245357,2.0811117276890125,66.784137737913,-0.07210343545329405,273.9970653276253,66.71971200531009
552,-3.169278008785014,-270.1024766240922,-45.75147810815028,1.981140063446356,66.13473339067305,-0.0401864295473991,273.98065673611006,66.07210093756001
553,-3.1783301580861525,-270.0890240626784,-45.749937031685995,1.8643133790857247,65.4381681901774,-0.009672993920167985,273.96706303697607,65.37850747340406
554,-3.1832490617633264,-270.0775211590817,-45.75495992421291,1.73271692442819,64.7006403455289,0.01962362286409972,273.9564881244877,64.6450716797455
555,-3.183597424029337,-270.0681932384697,-45.76612717132459,1.5879001780410495,63.92839796677802,0.047928150108707684,273.94908233984944,63.87802318608719
556,-3.179013484213318,-270.06122814879933,-45.78287146269839,1.4308789358433904,63.127607293127014,0.07549327028028259,273.94493385438074,63.08354627203888
557,-3.169222272478748,-270.0567674380861,-45.80448767121637,1.262161644319328,62.30424015818303,0.10258813226351149,273.94406168798514,62.26766289447732
558,-3.154044331451001,-270.0548992424471,-45.830147953382145,1.08179774848623,61.46398282906208,0.1294861793586265,273.9464113109669,61.43613592774849
559,-3.1334015148786096,-270.05565366253643,-45.85892172966538,0.8894450073849826,60.61216730618777,0.15645293179974348,273.95185353670246,60.5943938669125
560,-3.1073195752712035,-270.0590010625856,-45.889799800624026,0.68445212599435,59.75372533038866,0.18373426318048325,273.96018700448116,59.74747742948515
561,-3.0759273997166527,-270.0648533638972,-45.92172145286818,0.4659527550120982,58.89316463220185,0.21154567895257378,273.9711441257311,58.90000780461219
562,-3.039452925222117,-270.0730681474747,-45.95360311704426,0.23296688515669392,58.034566303622235,0.24006306223687893,273.9844000631558,58.0561756681926
563,-2.9982159257000847,-270.08345522164456,-45.984367081999814,-0.015494246749739524,57.18160154996295,0.2694151989197529,273.9995841446736,57.219749480222625
564,-2.9526180038389263,-270.0957851916886,-46.01296901795839,-0.2803235648869393,56.33756551521587,0.29967813176536945,274.0162930375902,56.39410102880495
565,-2.903130273959697,-270.1097994872514,-46.03842354291181,-0.5622176902426637,55.505425420794026,0.33087113373475263,274.0341050095639,55.582245734988525
566,-2.8502794223010066,-270.1252212867172,-46.05982751854125,-0.8615843701269407,54.687879928932354,0.3629539631418103,274.0525946654152,54.78689489979014
567,-2.794633043958652,-270.141766810341,-46.076380929110925,-1.1784613925164742,53.88742639512295,0.3958251248042748,274.07134761401005,54.01051681824555
568,-2.736785245668576,-270.15915649814656,-46.08740512388715,-1.5124502450247683,53.10643249080512,0.42932106454086455,274.08997455548064,53.255403487120624
569,-2.677343347095332,-270.17712564531814,-46.092358178894166,-1.862667278787434,52.34720861702754,0.4632164482026296,274.10812433248327,52.52373954998524
570,-2.616916163041329,-270.19543413354114,-46.0908473014868,-2.227714473723252,51.612077643929034,0.4972258072590295,274.1254955803636,51.81767020567896
571,-2.556104025378405,-270.21387490041127,-46.08263841294837,-2.6056710979534463,50.90343876528865,0.5310068307731556,274.14184664742464,51.13936501833698
572,-2.4954905766135993,-270.23228068615515,-46.06766308724888,-2.9941066485230294,50.223822591776766,0.5641654790928535,274.15700336157704,50.491074848455085
573,-2.4356364006380944,-270.25052847262793,-46.04602282833191,-3.3901144970890913,49.57593500827402,0.5962629435587982,274.1708640666438,49.875179462491865
574,-2.377074606501933,-270.2685410088465,-46.017990318641125,-3.790364697874667,48.96268778355197,0.6268243216496262,274.18340127589533,49.29422376790657
575,-2.320308462789105,-270.2862849589888,-45.984006938304795,-4.191173508964807,48.38721440820511,0.6553487316002661,274.19465937584255,48.75094102617047
576,-2.2658110682495396,-270.30376553050303,-45.9446757136378,-4.588586391462893,47.852870135043325,0.6813204548937613,274.2047481058114,48.24826180710843
577,-2.2140268134783434,-270.3210179138004,-45.900749003514925,-4.978470659443754,47.36321573143597,0.7042205989900722,274.2138320278396,47.789307898427154
578,-2.165374061692455,-270.3380963659136,-45.85311063384964,-5.3566136644880515,46.921985028400044,0.7235387771531977,274.2221167584498,47.37737089205018
579,-2.1202481740695958,-270.3550621425592,-45.80275269445732,-5.718822469153157,46.53303691837733,0.7387844315936604,274.22983318131287,47.01587569656389
580,-2.0790238597811403,-270.3719716453803,-45.750747669346765,-6.061021302646912,46.200292949976784,0.7494976283322171,274.23722109360097,46.70832970613063
581,-2.042055897688263,-270.38886607440736,-45.69821693555136,-6.379343523990874,45.92766204712774,0.7552593547726667,274.2445137227667,46.458258731615246
582,-2.0096775471488533,-270.4057635379413,-45.64629698985537,-6.670215243002461,45.718954125278216,0.7557015258514705,274.2519242722466,46.26913104751273
583,-1.9821963807768717,-270.4226540305901,-45.59610506143418,-6.930428194057725,45.5777845188025,0.7505170445013425,274.2596351731765,46.14427106731065
584,-1.959887699846165,-270.4394971349645,-45.548705927304574,-7.157200011705887,45.507471252041775,0.7394703260328593,274.2677902014915,46.08676432564193
585,-1.9429860095757279,-270.4562219528994,-45.50508164901552,-7.348220787084713,45.51092736916946,0.7224086327612412,274.2764892610091,46.09935571621882
586,-1.9316752527161345,-270.4727287177957,-45.466105634189255,-7.501685652839354,45.59055080549457,0.6992743782380082,274.2857855286806,46.184343323569685
587,-1.9260787136294573,-270.4888916880668,-45.43252203013005,-7.616313999891268,45.74811456245444,0.6701183048700937,274.29568473999416,46.3434705952765
588,-1.926249687405677,-270.5045631049563,-45.40493103071889,-7.6913566062649785,45.98466016086994,0.6351131667437505,274.3061465039255,46.57781992088627
589,-1.9321640411903922,-270.51957813526695,-45.3837801840269,-7.726592379756576,46.30039750565231,0.5945672913134789,274.3170875911631,46.88771091328435
590,-1.9437156256836234,-270.53376082856903,-45.369361226278,-7.722316578811707,46.69461447315434,0.5489371750646337,274.32838715349476,47.27260690045512
591,-1.9607151510182839,-270.5469311758135,-45.361811430193185,-7.679322289591591,47.16559973156801,0.4988381121417636,274.3398937981544,47.73103333494716
592,-1.9828926575921346,-270.5589132650228,-45.361118091757625,-7.598876645999148,47.71058241331056,0.44505176487798054,274.35143428791633,48.26051191110469
593,-2.0099031795036244,-270.56954427686367,-45.36712473683199,-7.48269290272316,48.325692155460764,0.3885295528927861,274.36282337852174,48.85751404373478
594,-2.0413348038095664,-270.5786838062336,-45.37953795976012,-7.332899154835001,49.005942683754014,0.3303907721625505,274.37387410538497,49.517437001604826
595,-2.0767182165746476,-270.5862229081045,-45.39793438403782,-7.152004314426636,49.745241581010255,0.2719144823811837,274.3844078411818,50.23460545895103
596,-2.1155369505396835,-270.59209234573456,-45.42176780892336,-6.942861861750789,50.536428186500984,0.21452441987273618,274.39426362103086,51.00230055435434
597,-2.1572377454941445,-270.59626963206784,-45.45037698177232,-6.708631779402301,51.37134073975307,0.1597664655203687,274.40330640595,51.81281773130208
598,-2.2012405993664,-270.598784507047,-45.48299459531114,-6.45274089955013,52.240912961572384,0.10927849080583792,274.4114340323228,52.65755371837689
599,-2.246948234474245,-270.5997225029077,-45.518758133715025,-6.178841690062901,53.135299320165906,0.06475273048722922,274.41858260738775,53.52712205798835
600,-2.293754847162546,-270.5992263037677,-45.55672313956738,-5.89076933172444,54.04402728318355,0.027891207832246932,274.42473015466015,54.41149564170036
601,-2.3410541064338295,-270.5974947909495,-45.59587937175672,-5.592496799074278,54.956173902923986,0.00035514456630453197,274.4298984776485,55.3001737534113
602,-2.388246373134076,-270.5947799570694,-45.63517018241236,-5.28808756716849,55.860563159127985,-0.016290337714815965,274.4341534725749,56.182370195193094
603,-2.4347450531165817,-270.5913820939336,-45.673515224084525,-4.981645600161661,56.745979676801056,-0.02063461108156823,274.4376043018863,57.047218265874086
604,-2.47998194727997,-270.587643660621,-45.70983626451972,-4.677262491866428,57.60139380047354,-0.0114811578816997,274.44040178484926,57.88398774083745
605,-2.52341148009336,-270.58394206781855,-45.74308547046117,-4.3789619991965285,58.416192512061585,0.012093697150377494,274.44273612441793,58.68230853161327
606,-2.564513810071101,-270.5806814126893,-45.77227513279504,-4.090642669761839,59.18041026668087,0.050685233852612095,274.44483382799643,59.43239531786938
607,-2.602797025874012,-270.57828302588723,-45.796507556755174,-3.8160197508674853,59.88495348763312,0.10451033207936876,274.44695347196523,60.125267133407554
608,-2.6377988239196433,-270.5771745768673,-45.81500377917196,-3.5585680323954305,60.52181226511082,0.17336531186327409,274.44937983942987,60.75295570360614
609,-2.669088177601813,-270.5777775033536,-45.82712984805187,-3.321467710911933,61.08425279480497,0.2565937189084309,274.4524159942078,61.30869632567411
610,-2.696267536484694,-270.5804927370783,-45.83241951834203,-3.1075557675716245,61.5669843089498,0.35306589280443534,274.4563730772445,61.787095293384574
611,-2.718976048975215,-270.5856850152837,-45.83059234953943,-2.919285661088808,61.966294736082965,0.46117185131998206,274.46155794561923,62.18426833527048
612,-2.736894189629683,-270.5936663336079,-45.821566390941726,-2.7586982162772338,62.28015009460699,0.5788286723314653,274.4682590688126,62.49794527113871
613,-2.749750005577553,-270.6046791998191,-45.805464974435026,-2.6274063425676895,62.50825363154281,0.7035031589576688,274.4767312536988,62.727537046057584
614,-2.757327002103739,-270.61888030188527,-45.782617556708075,-2.5265956516226447,62.65206187777998,0.8322501520451787,274.48717979320367,62.874162394111316
615,-2.7594734904397917,-270.6363250984227,-45.753554893069335,-2.4570422477867058,62.71475604272693,0.9617663942416749,274.49974458418126,62.94063256112578
616,-2.7561130260042392,-270.6569537840018,-45.71899892876772,-2.419148067725825,62.70116848133829,1.0884593053898433,274.5144847199144,62.93139374815214
617,-2.747255349567844,-270.6805791530262,-45.67984767524422,-2.412993253087715,62.617665285747464,1.2085293885507786,274.53136411044846,62.85242817871558
618,-2.7330069899304417,-270.7068770577364,-45.6371552154313,-2.4384041822398923,62.47198729700177,1.3180643144554454,274.5502388306931,62.7111158573486
619,-2.7135804599912077,-270.7353803167656,-45.592107109504276,-2.495034933336554,62.27305292660118,1.4131421383226155,274.5708470752849,62.51606010065726
620,-2.6893009233888496,-270.76547699994813,-45.54599189653526,-2.582459084905231,62.03072711258129,1.489940687999892,274.5928027398194,62.27688077534366
621,-2.6606093900365355,-270.79641397843415,-45.50016989949903,-2.7002679332540898,61.755561555723574,1.544849980333581,274.6155937011278,62.00397991751737
622,-2.6280618060068557,-270.82730647975114,-45.45604087296228,-2.848170537447895,61.45851215673822,1.574584548088067,274.63858578164405,61.70828510666233
623,-2.592323701358917,-270.8571541171396,-45.41501204557399,-3.026090632254667,61.15064036292946,1.5762926979373963,274.6610331221704,61.40097668849667
624,-2.554160322462507,-270.8848634825009,-45.378467840336604,-3.2342554584446255,60.84280592105003,1.547659873345008,274.68209527104415,61.093205676572936
625,-2.5144224121423497,-270.9092769259164,-45.34774216635785,-3.473271916028851,60.54535921036535,1.4870034240859349,274.7008607757373,60.79580980421173
626,-2.4740279849853355,-270.92920665968956,-45.3240938320424,-3.7441860291186693,60.26784175151128,1.3933562049038903,274.71637652870515,60.519035600671955
627,-2.433940570231031,-270.9434729482411,-45.30868538772523,-4.048522402197487,60.018703575741704,1.2665365791303138,274.72768170708576,60.2722744497865
628,-2.3951445161426883,-270.9509449440124,-45.302565527105685,-4.38830112194069,59.80504591346347,1.1072026296573798,274.7338449165054,60.0638203780813
629,-2.358618141794859,-270.9505826432393,-45.30665502108024,-4.766030506068583,59.63239716845019,0.9168887177449037,274.7340030378136,59.90065687597649
630,-2.3253057953484695,-270.9414784259905,-45.32173602353216,-5.184675341345355,59.504529396846344,0.69802298452985,274.7274002447242,59.78827941067409
631,-2.296090126016008,-270.92289677468943,-45.34844449975108,-5.647601825482732,59.42332149930073,0.45392488908493617,274.7134257743006,59.73055944177395
632,-2.27176594207267,-270.89431101489447,-45.38726549716149,-6.158502230522078,59.38867409462127,0.18878229106285083,274.6916492719041,59.729654722216424
633,-2.2530168408949263,-270.8554361073845,-45.43853099967087,-6.721304061789435,59.39847968453599,-0.09239218221510473,274.66185271463706,59.785969530181504
634,-2.2403954285682675,-270.80625651380666,-45.50242020213977,-7.340069757276715,59.4486504166526,-0.3838256771277668,274.624057921095,59.898167349731736
635,-2.234307516756273,-270.7470480555186,-45.57896222650964,-8.018893331309448,59.53320469133809,-0.6790707239478937,274.5785485797573,60.06323753565751
636,-2.2350002709435413,-270.6783926877065,-45.66804148612323,-8.761799677702484,59.64441312275223,-0.9711119383084367,274.5258857580357,60.2766167376002
637,-2.2425539142411854,-270.601185339915,-45.769405961467726,-9.572650780162098,59.77300384592589,-1.2524935461124507,274.4669160878957,60.532365242050794
638,-2.256876284499636,-270.51663242471903,-45.88267858309254,-10.455061352019053,59.90842658407574,-1.5154670575518412,274.4027722574844,60.82339768641737
639,-2.2776993442070723,-270.42624218021325,-46.007371827063984,-11.412324927195554,60.03917395838547,-1.7521579213770284,274.33486598064263,61.14176654999847
640,-2.304576733967775,-270.33180749402123,-46.14290556480504,-12.447350355146577,60.153157092846854,-1.95474938731142,274.2648740828943,61.47899530638454
641,-2.3368817049672943,-270.23538206545913,-46.288628156171896,-13.562607893190673,60.23813070401728,-2.1156810672178454,274.19471854271336,61.826456183511226
642,-2.37380519207768,-270.1392506950896,-46.44384069089738,-14.76008336456462,60.28216074853381,-2.22785883452707,274.1265412502437,62.17578526840541
643,-2.4143541989933914,-270.04589436710404,-46.60782412213146,-16.041237962372406,60.2741254923361,-2.2848717949827964,274.062674099597,62.5193253489404
644,-2.4573509253341212,-269.957950806966,-46.77986879267209,-17.40697020804681,60.20423865505909,-2.281211156850241,274.00560500795325,62.85058448993354
645,-2.5014332151846164,-269.87817131545097,-46.95930555374985,-18.85757540864568,60.06458110973605,-2.212484971806747,273.95794052111074,63.164695946649665
646,-2.545057073446387,-269.8093747414885,-47.14553728637307,-20.392696796064378,59.84962553224608,-2.075621978411793,273.9223656602817,63.45886269087907
647,-2.5865022441181718,-269.7543993985948,-47.33806914706002,-22.011261474212237,59.55673652782608,-1.8690572715156504,273.901601527701,63.73276771897141
648,-2.623882116416434,-269.71605356434384,-47.53653546598881,-23.711393582144275,59.18662733475131,-1.5928923583821222,273.8983609623977,63.98892972577821
649,-2.65515940681815,-269.6970648820076,-47.74072122216408,-25.49029718548656,58.74375346267491,-1.249022402074404,273.9153022251045,64.23298309033814
650,-2.6781690857719207,-269.7000284628366,-47.95057648401502,-27.344102992512887,58.23662377637854,-0.8412240934004215,273.9549802605647,64.47386192295689
651,-2.690649860200221,-269.7273528834297,-48.16622292494546,-29.267676572798894,57.67801077631524,-0.37519861150326145,274.01979461532204,64.72387062080959
652,-2.6902851768179565,-269.78120288074945,-48.387952255128035,-31.254391316889848,57.08504432284955,0.14143452538476267,274.1119328276385,64.998628167133
653,-2.6747541687635605,-269.8634376812046,-48.61621703330501,-33.29587616437588,56.47917683331018,0.6991953655056965,274.23330834137863,65.316879987653
654,-2.641792271969712,-269.97554467234335,-48.85161477739622,-35.381754847196696,55.886012813437944,1.286854204964253,274.3854928284694,65.70017870474628
655,-2.589260495109918,-270.1185693400566,-49.09486652214352,-37.49939865768237,55.33500097015236,1.8915944825758724,274.56964403239243,66.17244248129232
656,-2.5152216383575348,-270.2930436405538,-49.34679096465764,-39.63371754895536,54.85899250599619,2.499225901661775,274.7864314629262,66.75940583105155
657,-2.4180211567151835,-270.498915840892,-49.60827517890261,-41.76701436075641,54.493674036215495,3.094444616985243,275.03596308776116,67.48798222407524
658,-2.296369865722289,-270.7354851361904,-49.880242719668495,-43.87892443561343,54.27688758776807,3.6611363996854314,275.31771640147997,68.38556040721338
659,-2.149425324717696,-271.0013441244778,-50.163619900503825,-45.94645849395602,54.247853200728954,4.182717907253158,275.6304770163851,69.47925724910638
660,-1.976868519407786,-271.2943317609021,-50.459301134244924,-47.944160986639126,54.44631184206907,4.642510392915112,275.9722874811298,70.79514943197347
661,-1.7789723760047078,-271.6114989589347,-50.76811439492591,-49.84438966023942,54.911607957122094,5.024139280890883,276.3404086123292,72.35750488199025
662,-1.5566586576777675,-271.9490886312998,-51.090788025792804,-51.61771510935228,55.68173235879747,5.3119519584914485,276.7312952818003,74.18803290250499
663,-1.3115399151192575,-272.30253158771353,-51.42792026676136,-53.233432146938995,56.792347460673106,5.491444923215065,277.14058825710384,76.3051699299326
664,-1.0459433651839294,-272.6664592436682,-51.779953004281566,-54.6601685438656,58.27581807965005,5.549690199063878,277.5631232601773,78.72341597558454
665,-0.762913883258893,-273.03473359008944,-52.14715128164247,-55.86657163498351,60.16027206537011,5.475749840821985,277.99295791905587,81.4527353706065
666,-0.4661938606140247,-273.40049441601604,-52.52958990768045,-56.822049726079335,62.46871577106812,5.261066460020669,278.4234168031716,84.49803450760587
667,-0.16017865298690184,-273.7562233186099,-52.9271479920744,-57.497543160104264,65.21822979282517,4.899817116148762,278.84715419546603,87.85872886874775
668,0.15015230269297378,-274.0938234730474,-53.33951148838361,-57.86629923922935,68.41927030002283,4.389217748710825,279.25623357533357,91.52841162782028
669,0.45932717947422547,-274.40471353698865,-53.766183006802216,-57.9046259164444,72.07510029068784,3.729765659818701,279.6422220583286,95.4946362495936
670,0.7614935226821593,-274.67993362436886,-54.20649744999991,-57.59260115894664,76.18137276766713,2.925408383312741,279.9962974817243,99.73882536546165
671,1.0505464839800331,-274.9102610390627,-54.65964156748278,-56.91471780557538,80.72588384163855,1.9836286063530413,280.30936550149613,104.23631727821123
672,1.3202692815135908,-275.0863332526963,-55.12467534939886,-55.86044708092268,85.68850812960538,0.9154367569230574,280.57218382929733,108.95655930365643
673,1.564481075595659,-275.1987753644138,-55.60055322984294,-54.42470728859213,91.04132177487651,-0.26473445204888246,280.775490502455,113.86345357448094
674,1.7771870452458638,-275.23832911915,-56.08614328735389,-52.60822750821335,96.74891036059373,-1.539235901936416,280.9101329611099,118.91585601332487
675,1.9527254008640687,-275.1959806225807,-56.5802430116603,-50.41779954687178,102.76885053567143,-2.8875070871683652,280.9671948406388,124.0682233705087
676,2.0859064238112484,-275.06308418114105,-57.081590731655986,-47.86641512069128,109.05234618347397,-4.2864753967492835,280.93811777726734,129.27139718829335
677,2.1721392367496604,-274.831480154364,-57.58887235563389,-44.973289196026435,115.54499334783937,-5.711041566270593,280.8148160881576,134.4735079529762
678,2.2075427040733424,-274.4936052483218,-58.100723482186055,-41.76377423989108,122.18764354014797,-7.134640513575114,280.58978280311095,139.6209779562092
679,2.1890375725152573,-274.0425941307688,-58.61572708678805,-38.26917332596192,128.917332762712,-8.52986463113952,280.2561860014904,144.65959770513194
680,2.1144177037857546,-273.4723714091114,-59.13240691342911,-34.52646226076487,135.66824361247893,-9.869135024859899,279.80795455551385,149.53564823690905
681,1.982399054550735,-272.77773286408024,-59.64921655064138,-30.577932113758404,142.37267009198408,-11.125405164938401,279.23985221276007,154.19704063548204
682,1.792645948937888,-271.95441463110524,-60.164524096823754,-26.470764075080808,148.96195906556505,-12.272880928570766,278.54753874797996,158.59444464041823
683,1.545775167390058,-270.99914910459984,-60.676592394750806,-22.256548869552777,155.36740817153367,-13.287740991507974,277.7276170216151,162.6823803855962
684,1.2433393799687236,-269.9097068744092,-61.183555043415,-17.99076328294265,161.5211065610661,-14.14884184588996,276.7776653627444,166.42025042015433
685,0.8877923474019397,-268.6849249320618,-61.683388750361864,-13.732216599712471,167.35671108135617,-14.838392256864845,275.6962556848176,169.7732924018522
686,0.4824389572893494,-267.3247225124408,-62.17388300528516,-9.542479482867867,172.81015573063883,-15.342582616421478,274.4829589378174,172.7134355665942
687,0.03137346817470194,-265.8301069984032,-62.65260844292316,-5.485306487424496,177.82029612384025,-15.652155326072284,273.1383406209343,175.22004606925742
688,-0.46059071258001066,-264.2031730336488,-63.11688559719793,-1.6260605851267946,182.32949342589995,-15.762902972097054,271.6639498509574,177.28054775828895
689,-0.9879967291290422,-262.44709817198503,-63.563756117193485,1.9688561481215079,186.28414401468515,-15.676081637551045,270.06230573938,178.89090628552438
690,-1.5448230135749066,-260.5661380234196,-63.98995896379071,5.232566560028341,189.63516228900687,-15.398727309954241,268.336884572436,180.05596602992185
691,-2.124563320864136,-258.565623093993,-64.39191445558096,8.098283036908285,192.3384246375668,-14.94386412871697,266.49211062410603,180.78963128370032
692,-2.7203071047136684,-256.45195858300826,-64.76571895991404,10.499882903765986,194.35518253341425,-14.330594283061805,264.53335250785034,181.11488541445368
693,-3.3248199521221733,-254.23262745696945,-65.10715238172308,12.372508176108209,195.65245181816172,-13.584060802058124,262.4669259066598,181.06364404258056
694,-3.9306242410286503,-251.9161961430507,-65.41169962368508,13.653205472221847,196.20338336018332,-12.735276372384602,260.3001023450683,180.6764404667088
695,-4.530080496315588,-249.51232101192127,-65.674586310953,14.281622619603656,195.9876175032268,-11.820813776515235,258.0411223234399,180.00194363249398
696,-5.115470230480296,-247.03175238208343,-65.89082856926778,14.20077695002623,194.99162139787774,-10.88235655832553,255.69920962538896,179.09631108763884
697,-5.679081293052714,-244.48633131070773,-66.05529649076465,13.357905624986662,193.20900483086282,-9.966111898326808,253.28458215566832,178.02238187715275
698,-6.213296700428404,-241.8889733537261,-66.16279091632727,11.70540012523949,190.64080683859478,-9.122091105946739,250.80845361893222,176.8487173897183
699,-6.710687484904422,-239.25363303692907,-66.20813314312063,9.20181563259855,187.29574241259974,-8.403266388519917,248.28301991607205,175.6485018251363
700,-7.164109406985539,-236.59524295109856,-66.18626712061234,5.812932566207539,183.1903961608589,-7.864615624154702,245.72142428548403,174.49831818430826
701,-7.566802597377294,-233.92962203138757,-66.09237370637986,1.5128335055665934,178.34934806974266,-7.562069878444543,243.13769584190877,173.47682037960251
702,-7.912492445593396,-231.27334861744208,-65.9219966195665,-3.7150544796061373,172.8052156797138,-7.551381492271178,240.54665718374167,172.66332704886702
703,-8.195489401949597,-228.64359526974627,-65.67117971498342,-9.877013327828212,166.59859717072052,-7.886933781875215,237.96379807074374,172.1363677150776
704,-8.410784919517145,-226.05792402711225,-65.33661490459393,-16.968252710443775,159.77790110404675,-8.620516686786969,235.40511375684957,171.9722167902224
705,-8.554140651386605,-223.53404287820015,-64.91579935380092,-24.97236709779108,152.39905079845565,-9.800095912161758,232.88690841553546,172.24345519533654
706,-8.622168238471525,-221.08952670772575,-64.40719949444377,-33.861102094996305,144.52505430301852,-11.468605946111927,230.42556624312516,173.01760262084656
707,-8.612397445824541,-218.7415086935506,-63.810418041601906,-43.59449171832955,136.2254344177424,-13.662799396819517,228.03729512831757,174.35586531429948
708,-8.523330912022644,-216.50635069982334,-63.12635872620113,-54.12141156771538,127.57551704746236,-16.412185998618924,225.73784990541094,176.31204447081814
709,-8.354484306550749,-214.3993032852391,-62.35738200549584,-65.38056940055542,118.65558027803995,-19.738094146986704,223.54224385957218,178.93164842061879
710,-8.106411151618849,-212.43416740625747,-61.50744375534414,-77.30192625383083,109.54987084413142,-23.652885962144587,221.4644582480983,182.25124714500862
711,-7.780711839249536,-210.62297082003215,-60.58220809411356,-89.80851056185826,100.34549894463431,-28.159353882722492,219.51716026774602,186.29809924776907
712,-7.380026436809329,-208.97567268888574,-59.589125213163406,-102.81855751889488,91.13122642492732,-33.250322919507006,217.7114402861163,191.090068581453
713,-6.908010808560967,-207.49990996561172,-58.53746542160277,-116.24787902934793,81.99616694296982,-38.90847807789672,216.05657928509808,196.6358302701596
714,-6.36929549475505,-206.20079868649128,-57.43830147289667,-130.01234844378445,73.02841971149434,-45.10643106080017,214.55985721402587,202.93534512999605
715,-5.76942677982502,-205.0808021843788,-56.30443254372953,-144.03037073226676,64.3136608180761,-51.80703417524428,213.22641217327916,209.98056000438788
716,-5.114789550340071,-204.13967635249037,-55.15024490907683,-158.225203802646,55.93371822998889,-58.9639425094614,212.05915892765395,217.75627251597575
717,-4.412511979837902,-203.3744993136372,-53.99150635979263,-172.52700061094689,47.96515859013484,-66.52241815724449,211.05877305301706,226.24108510738768
718,-3.670352798933824,-202.77978910370538,-52.845093825157484,-186.8744543845752,40.477915685910936,-74.42036278618491,210.2237440050893,235.40836696567226
719,-2.896572826050998,-202.3477084297417,-51.728656683333696,-201.21595029654395,33.53399170409636,-82.58955738011575,209.5504967814872,245.22714445566382
720,-2.09979335514646,-202.06835062254788,-50.660221935035345,-215.5101555513707,27.186262903373756,-90.95708072548172,209.03357803154327,255.662851114809
721,-1.2888446982460204,-201.9300960357494,-49.657751558990206,-229.7260146687476,21.47742124110534,-99.44687140528511,208.6658988171122,266.6778862503989
722,-0.47260854481874864,-201.92002378202375,-48.738666540480416,-243.84215553915104,16.43908291759496,-107.98139206397452,208.4390230216729,278.2319548889416
723,0.340142122932182,-202.02436025157573,-47.91935579279501,-257.8457516368155,12.091093712826602,-116.48334991213368,208.3434879026626,290.28218858927437
724,1.1409019433127803,-202.2289436508633,-47.21469100294254,-271.7309232298121,8.441059203541759,-124.87742419112905,208.36914168214747,302.78307328157064
725,1.921587642225093,-202.5196830373833,-46.63756992747416,-285.4967919795087,5.484125222970513,-133.09194984765003,208.50548250254502,315.6862335312049
726,2.674685365002158,-202.88299113913135,-46.198510620853604,-299.14532570248883,3.203029992714258,-141.06050711686905,208.74198365605173,328.9401394943923
727,3.393388860892267,-203.30617263782852,-45.905317425126896,-312.6791208353088,1.5684439282620448,-148.7233691276181,209.0683917714237,342.48981126171776
728,4.071726968812997,-203.777753300156,-45.762836207904684,-326.0992680923662,0.539605967511299,-156.0287639553636,209.47498739780414,356.27659441826165
729,4.704678866342982,-204.2877398059012,-45.77281125134159,-339.40343219694563,0.06525638326264524,-162.93391358316953,209.95280065926767,370.2380709046391
730,5.288275106778322,-204.82780469433686,-45.93384970986113,-352.5842512554713,0.08485573396266569,-169.40581972714995,210.49377780571461,384.3081522710915
731,5.81968176925178,-205.39139507164563,-46.24149266295011,-365.6281287289009,0.5300684521729004,-175.4217751014761,211.0908972528934,398.4173808088867
732,6.297264356829683,-205.97376742237412,-46.68838571191962,-378.5144554486099,1.3264781834620083,-180.9695880314555,211.73823608696756,412.4934410333809
733,6.720627669979197,-206.5719539933997,-47.264537534336945,-391.2152652456278,2.3954909177818395,-186.04751793583657,212.43099006702246,426.46186277379377
734,7.090627977657527,-207.18466867971387,-47.95765188031501,-403.69529907973543,3.6563717580384374,-190.6639286811107,213.16545184313537,440.24688018370585
735,7.409354524819389,-207.81216205434018,-48.753516884285546,-415.9124309068255,5.028352550921939,-194.83667583597725,213.9389533243504,453.77239956223144
736,7.680078699593454,-208.45603614070248,-49.63643487689853,-427.81839400057385,6.4327414023094756,-198.5922521998749,214.74977881755095,466.9630229282945
737,7.907170795181882,-209.11902974023232,-50.58967575292928,-439.3597382123274,7.794962053698818,-201.96472344498466,215.59705566170138,479.74507308897205
738,8.095985946825758,-209.8047846184569,-51.59593724792247,-450.47894591378036,9.04645156320167,-204.99449201339712,216.48062859132935,492.0475687855204
739,8.252722286331142,-210.51760174269145,-52.63779632103528,-461.115636714035,10.126348616057431,-207.72693218280742,217.40092312840295,503.803104987691
740,8.384255494379811,-211.2621953400802,-53.698137396034234,-471.2077981845431,10.982911730201979,-210.2109421046614,218.35880224085798,514.9486032338449
741,8.497954666028612,-212.04345112530297,-54.760545444483306,-480.6929911445714,11.57461621483565,-212.4974593830058,219.35541962140536,525.4259095078021
742,8.601484735349478,-212.86619380647804,-55.80965453468553,-489.50949235780615,11.870890504937089,-214.6379853142395,220.39207233374432,535.1822314283555
743,8.702600669407062,-213.7349679111815,-56.83144516484895,-497.5973530629931,11.85246579144215,-216.68315940533483,221.470055152571,544.1704210064281
744,8.808938344697697,-214.65383501409667,-57.81348620946139,-504.8993667366225,11.511327019155324,-218.68142068434807,222.5905185649344,552.3491223174324
745,8.927806717611574,-215.6261895871716,-58.74511955038433,-511.3619521565319,10.850267898233904,-220.67778625598,223.75433208416095,559.682813779338
746,9.065985886716904,-216.65459502863203,-59.61758739759784,-516.9359667944154,9.882067468390769,-222.71277118065768,224.96195434468976,566.1417812545446
747,9.22953600649597,-217.7406411226468,-60.424103810494934,-521.577469780564,8.628320951196967,-224.8214676199883,226.21331152414626,571.7020601680528
748,9.423622629992392,-218.88482438309853,-61.15987285271516,-525.2484527174735,7.117972809876384,-227.03279576824136,227.5076860709518,576.3453820267108
749,9.65236472842868,-220.08645344058996,-61.822056174422826,-527.91755088055,5.385614276711921,-229.36893472997198,228.84361849686883,580.0591536154986
750,9.918712043120342,-221.34358257790305,-62.40969296252212,-529.560738116244,3.4696198462821406,-231.84493828231578,230.2188259496595,582.8364869015866
751,10.22435818439163,-222.65297722949646,-62.923575641386485,-530.1619979192748,1.4102059908916282,-234.4685380982237,231.63014207577726,584.6762859064711
752,10.569694824777491,-224.0101153046347,-63.366085776342175,-529.7139528323639,-0.752500525242057,-237.24013503948896,233.0734829884523,585.5833852983019
753,10.953810609467562,-225.40922744423463,-63.74099625632447,-528.2184263313029,-2.980298570613679,-240.1529771861921,234.54384383764346,585.5687258984675
754,11.374536363788534,-226.8433779479328,-64.05324758491261,-525.6869069489466,-5.238573256926402,-243.19352119179158,236.03532958708087,584.6495458909347
755,11.828536066146535,-228.3045863603627,-64.30870749355422,-522.140883788647,-7.497712995978561,-246.34197125820248,237.54122224300895,582.8495635744052
756,12.311440941743708,-229.7839877830222,-64.5139237921063,-517.6120250834607,-9.734229406274448,-249.5729873213813,239.05408505139783,580.199127333633
757,12.81802186807338,-231.2720280372393,-64.67588030007538,-512.1421759530888,-11.931542786696106,-252.85655060218338,240.5659022117934,576.7353099387375
758,13.342393027830905,-232.7586879466004,-64.80176493044043,-505.7831570946755,-14.080412558542431,-256.1589702341802,242.06825056742102,572.5019263168913
759,13.878237495218084,-234.23372927691162,-64.89875770973714,-498.596352472046,-16.17900862815021,-259.444009213208,243.55249762053816,567.5494562328461
760,14.419043525629238,-235.68695335886017,-64.97384492328281,-490.6520812761559,-18.232636122668207,-262.6741017038599,245.0100182495146,561.9348561088258
761,14.958339222262214,-237.10846232748887,-65.03366380111068,-482.0287578094201,-20.25314231480059,-265.81162722378366,246.43242092827415,555.7212479422386
762,15.489913346557632,-238.48891246624325,-65.08438023814284,-472.8118525941485,-22.258049903490797,-268.8202008856018,247.81177332022017,548.9774781507344
763,16.008011350666223,-239.81974946381098,-65.13160003972128,-463.0926785549905,-24.26947356411268,-271.6659332954857,249.14081698533002,541.777544997249
764,16.507497949005604,-241.09341645203307,-65.18031232705555,-452.96703663929077,-26.31288520155652,-274.318609734818,250.41316162134018,534.199899494709
765,16.983980290438218,-242.3035273205815,-65.23486228994038,-442.5337643826424,-28.415796734863505,-276.7527369531724,251.62345063136968,526.3266307214915
766,17.43388868334058,-243.44499979032128,-65.29894951494728,-431.8932374301744,-30.606427631749202,-278.9484081916258,252.76749166281738,518.2425517973095
767,17.854514670457736,-244.51414495668828,-65.37564754913261,-421.14587706801694,-32.9124186631103,-280.8919432351082,253.84234794576105,510.03420707389773
768,18.244008949709773,-245.50871240509355,-65.46744010526847,-410.3907160158087,-35.35964459373462,-282.57626988453893,254.84638866838893,501.7888240866847
769,18.60134401688952,-246.42789236234503,-65.57626938745108,-399.7240699230675,-37.97116784715176,-284.0010252290832,255.7792990686922,493.5932350577571
770,18.926248209745676,-247.27227840350272,-65.70359241084329,-389.2383533131434,-40.766363531711455,-285.1723683003664,256.64205310577375,485.532791837354
771,19.21911890026006,-248.04379574569555,-65.85044182224946,-379.0210667725435,-43.7602344245072,-286.10250899833204,257.4368532390093,477.6902950905378
772,19.480922943560806,-248.74560103463125,-66.01748851129308,-369.15396827808013,-46.96292331200543,-286.8089706987141,258.1670428803436,470.14495379459925
