time,ax,ay,az,gx,gy,gz,accmagnitude,gccmagnitude
0,4.121724162288843,-256.14873301964576,-16.076758468730674,-38.81254566182527,18.936883869863596,-4.864876819113791,256.685921785501,43.465965925454974
1,4.188203509854996,-256.7323765122372,-16.22264111049235,-39.25095064777593,19.044804687713597,-4.790973568479957,257.2808470256905,43.89943022414146
2,4.245193223490926,-257.2997900280055,-16.361268571349004,-39.69790586933461,19.15524904590739,-4.724517159726261,257.8589354965647,44.34215626653485
3,4.29270716731773,-257.84662886258207,-16.49161285542582,-40.1514815797211,19.26820085378823,-4.66595733556638,258.415764421272,44.79244366748549
4,4.330888285823937,-258.36888426281405,-16.61274557227369,-40.609696811862015,19.383528526750474,-4.615663412318282,258.94725620460804,45.248495534887496
5,4.360010982191132,-258.8629653805493,-16.7238557849711,-41.07053382732188,19.500962840691898,-4.57391811572084,259.4497619356707,45.70842216170234
6,4.380477226745664,-259.32576631095156,-16.824263609978676,-41.53195361384105,19.620078806458903,-4.540910871485303,259.9201295348204,46.170247232963646
7,4.3928061621873935,-259.75471655922996,-16.913429400730262,-41.991912894828864,19.74028251011248,-4.516730781450996,260.3557548637742,46.631917366336545
8,4.397617913661803,-260.14781454803716,-16.990958608483997,-42.44838312188535,19.860803676871857,-4.501359718172591,260.75461542397477,47.091315752618726
9,4.395613094845337,-260.5036447110181,-17.056602529380772,-42.89937178865296,19.98069453310672,-4.494666076520573,261.11528722700604,47.546280476600366
10,4.387549924632325,-260.8213793497463,-17.1102552185629,-43.34294611315024,20.09883535676084,-4.496399705094051,261.4369460675743,47.99462775797058
11,4.374220915167648,-261.1007668079602,-17.15194700694043,-43.77725875004699,20.213946849633583,-4.506188461459101,261.71935481856985,48.43417988937432
12,4.356430876999831,-261.34210762688076,-17.18183530544656,-44.20057481549473,20.324609083451456,-4.523536781416539,261.9628384914775,48.862797142994
13,4.334977540075322,-261.5462201816631,-17.200193569386457,-44.61129922695457,20.42928634835636,-4.547826649882745,262.1682486489746,49.27841248829665
14,4.310635393291477,-261.71439699360934,-17.207399304056683,-45.00800323324351,20.526356940249403,-4.578321356362182,262.3369184435872,49.679067727943014
15,4.284142583394052,-261.84835272273745,-17.203921875226932,-45.38944902889531,20.614146863640833,-4.614172346592487,262.4706093481937,50.06294964626158
16,4.256190236664134,-261.9501649614429,-17.19031075471125,-45.754611436511,20.69096653916794,-4.654429324759023,262.57145074280146,50.428424880433916
17,4.227413572710397,-262.0222093537658,-17.167184724686592,-46.10269569682114,20.755149738964995,-4.698053538684415,262.6418739153475,50.77407231398656
18,4.198384535925874,-262.06709108117207,-17.13522244171021,-46.43315037944797,20.80509401226549,-4.743933945763155,262.6845425445391,51.098711768033425
19,4.16960605085393,-262.08757516202974,-17.09515453675367,-46.74567437355472,20.83930176291728,-4.7909057979364045,262.7022821280939,51.40142766872286
20,4.141508177905435,-262.0865180978534,-17.047757090084207,-47.04021693547938,20.856420901076962,-4.837771162823184,262.6980108861929,51.68158629539612
21,4.114446407384306,-262.0668030833086,-16.99384603053691,-47.316969898797424,20.85528366652982,-4.883320965427185,262.67467433692485,51.93884521413374
22,4.088702209314343,-262.03128043479904,-16.934271969648304,-47.57635137256893,20.834941922157974,-4.926358164683312,262.63518517842175,52.17315359093815
23,4.064485833531144,-261.9827143450548,-16.869915165862135,-47.81898057246411,20.794697069620693,-4.965721610748578,262.58236957898856,52.38474230876456
24,4.041941227208151,-261.9237366540547,-16.801680447132963,-48.045643880206484,20.734122829697604,-5.000310016881943,262.51892056662894,52.57410325244197
25,4.02115279328781,-261.85680799978843,-16.730491792232023,-48.2572527938648,20.653079459358757,-5.029105402497995,262.4473588688575,52.741957769690245
26,4.002153601289479,-261.78418645234666,-16.657285987057822,-48.454795053729455,20.551718471183186,-5.05119534011582,262.3700012684047,52.88921508045939
27,3.984934670899105,-261.70790358043894,-16.583004637271394,-48.63928086644675,20.430477489975498,-5.065793340381112,262.28893637181284,53.01692221622351
28,3.9694550809478053,-261.62974786937826,-16.508584029827855,-48.81168675673856,20.290065473534337,-5.072256709918857,262.2060076683087,53.12620785882415
29,3.9556527493077067,-261.5512554392105,-16.434942820976037,-48.97290001280467,20.131439086764644,-5.070101211259573,262.12280381468884,53.21822306713853
30,3.943455607061233,-261.4737079692897,-16.3629680405289,-49.12366679294424,19.955771464046308,-5.059011862616341,262.0406560687193,53.294082146157464
31,3.9327926097790096,-261.3981375549705,-16.293500188912798,-49.26454669664935,19.76441485924237,-5.0388492892140295,261.96064262727674,53.354806778957354
32,3.923603846803741,-261.32533799673604,-16.227318121970168,-49.39587609280808,19.558858795160386,-5.009651231708069,261.88359939379876,53.40127613342699
33,3.915849074114691,-261.25588187145024,-16.16512407294007,-49.517741883334516,19.340685390069396,-4.971629123859182,261.81013652959984,53.43418514271726
34,3.909514215778027,-261.1901426504155,-16.107528907059187,-49.629966756307944,19.11152364532985,-4.9251599830966954,261.74066004593135,53.454012651307735
35,3.904615599514329,-261.1283210308749,-16.055037824964728,-49.73210640829388,18.873004619400476,-4.870774114227362,261.67539760437614,53.461000659626535
36,3.901201832019892,-261.07047449433895,-16.008037147320834,-49.82345873436603,18.626719503502922,-4.809139273399905,261.61442756391597,53.45514549407286
37,3.8993532434880214,-261.0165488984066,-15.966783226042995,-49.903084608947225,18.37418255770078,-4.741042009218567,261.5577101271599,53.43620135739032
38,3.899178781900607,-260.966410694344,-15.931394714685188,-49.96983956020973,18.116800606876215,-4.667366940837498,261.505119230685,53.40369631698305
39,3.9008102980594073,-260.91987823190175,-15.901849313565025,-50.02241528658856,17.855850328773794,-4.589074772500062,261.4564736885399,53.3569602869354
40,3.9043944771458934,-260.8767506407577,-15.877985707035078,-50.05938955509632,17.592463940981947,-4.507179863865393,261.41156611497604,53.29516395238432
41,3.9100830984654467,-260.8368329690231,-15.85951084954394,-50.07928264744765,17.327623208504917,-4.422728138246282,261.3701883285063,53.21736698813452
42,3.918022533683537,-260.7999565796454,-15.846012165551908,-50.08061827914514,17.062161063651008,-4.33677599803458,261.3321522368818,53.122573465458274
43,3.928343324524369,-260.7659942303835,-15.836973677417967,-50.06198681991868,16.79676965386818,-4.250370748966527,261.2973055958923,53.009792066081154
44,3.9411504747458683,-260.734869761598,-15.83179469543392,-50.022108655933515,16.532013366328815,-4.164532846207861,261.2655425057991,52.878098617854064
45,3.956514903457439,-260.7065628165241,-15.829809722876282,-49.95989564376094,16.2683453034425,-4.0802400782513715,261.2368090056731,52.7266985177075
46,3.9744663499133734,-260.6811094020593,-15.83030868565287,-49.87450880990372,16.006125720391722,-3.998413607245866,261.21110453350036,52.554986785537096
47,3.994987866413405,-260.6585992484871,-15.832557172735415,-49.76541070070115,15.745641020970648,-3.9199056294802754,261.18848020280103,52.36260373548741
48,4.018011918801714,-260.63917083110186,-15.835816700691247,-49.632411002383584,15.487122051567127,-3.8454883674793185,261.1690347688832,52.14948448685401
49,4.043418067653671,-260.62300468764977,-15.839365008172296,-49.47570416904795,15.230760665596973,-3.775844165269606,261.15290892725596,51.91590071821585
50,4.0710321824617735,-260.61031542687914,-15.842516178674602,-49.29589782600241,14.976723828009758,-3.7115565695968145,261.1402783353401,51.66249319173431
51,4.100627099400707,-260.6013426315653,-15.844640152326944,-49.09403073673651,14.725164821825375,-3.653102367400826,261.1313455422502,51.390293687558426
52,4.131924612327539,-260.5963407409406,-15.845181088782644,-48.87157924119017,14.476231364092525,-3.6008445856851554,261.12633088680303,51.100735176985495
53,4.164598737195172,-260.5955679807066,-15.843674173136531,-48.63045136014756,14.230070662874422,-3.5550264643662035,261.12546241481044,50.79564940191277
54,4.1982802832472865,-260.5992744880019,-15.839760707850505,-48.37296819457505,13.986831682846505,-3.515766430878991,261.12896496038,50.47725151176736
55,4.23256283325914,-260.6076898891498,-15.833201494354716,-48.1018327273149,13.746665094163966,-3.483054202800297,261.1370486538581,50.14811193537124
56,4.267010226079225,-260.6210106428426,-15.823888456692854,-47.82008655346955,13.509721481368391,-3.456748370753585,261.14989716649154,49.81111611726553
57,4.30116551198407,-260.63938741783903,-15.811854194087815,-47.53105540104016,13.276148386679948,-3.4365761174310343,261.1676559362062,49.46941309791018
58,4.334561127763634,-260.66291267767025,-15.797278733770936,-47.23828460950909,13.04608673933172,-3.422135952735895,261.19042049020544,49.12635422753675
59,4.3667298094646645,-260.69160860537295,-15.780492343867722,-46.945466064670576,12.819667246195694,-3.4129043446225005,261.21822490929156,48.785423633707246
60,4.397215651389653,-260.7254155906617,-15.761973102411146,-46.65635842934623,12.597007381724177,-3.4082468713328664,261.2510305545727,48.45016239712556
61,4.425584773078206,-260.7641816844723,-15.742338193503654,-46.374702803988306,12.378209661459564,-3.4074340906163223,261.28871537691555,48.124088664977506
62,4.451435196805846,-260.8076536141775,-15.722328573487676,-46.104136186682496,12.163361841079016,-3.409661823448776,261.3310643623455,47.81061612306867
63,4.474405669936313,-260.8554700744269,-15.70278744866381,-45.84810533905335,11.952539497783917,-3.4140750745481676,261.37776184076847,47.51297340681694
64,4.494183269276765,-260.9071580086101,-15.684633656975222,-45.609783932567716,11.745811125821005,-3.419794431518132,261.42838642769027,47.23412719013595
65,4.510509740409585,-260.96213246667776,-15.668831442083354,-45.391996051755754,11.543245483705178,-3.425943557669159,261.4824092657214,46.9767117789168
66,4.523186687124726,-261.0197004353828,-15.656358245081444,-45.19714910091029,11.344920592401014,-3.4316763517200157,261.5391960545766,46.74296792673989
67,4.532079901766813,-261.0790688633542,-15.648172010636651,-45.027178806668076,11.15093363079402,-3.436202470723039,261.59801318068116,46.534693227794335
68,4.537123188198357,-261.1393569502436,-15.645179155707503,-44.883508384325104,10.961411035138374,-3.4388101369008734,261.6580380856071,46.35320587966481
69,4.538321824838489,-261.1996126014507,-15.648203970604646,-44.76702319217418,10.77651827525761,-3.4388854141090333,261.71837382113347,46.199322959214754
70,4.535755361935479,-261.2588327652172,-15.657960067438228,-44.67806147135245,10.596468934214526,-3.435927414574973,261.77806754133957,46.07335371516597
71,4.529579011210024,-261.3159871915605,-15.675024624563186,-44.61642110098295,10.421532836232771,-3.4295591627013167,261.8361325106778,45.97510778401797
72,4.520022776312125,-261.37004498522265,-15.699816380673127,-44.581381663887214,10.252043067282699,-3.4195340830824437,261.8915730547162,45.90391766082484
73,4.5073877568230145,-261.42000314401184,-15.73257835478635,-44.57174050826804,10.088401804816364,-3.4057382791913273,261.94341170857115,45.85867419295791
74,4.4920395512664015,-261.4649160667742,-15.773366053040448,-44.58586095716207,9.931084905501622,-3.3881889020502762,261.9907176075686,45.83787335970003
75,4.474399148657653,-261.5039248178491,-15.82204157030211,-44.62173043099318,9.780645194928502,-3.367028958178986,262.0326349538698,45.839672222407984
76,4.454931972855573,-261.5362848293454,-15.878273654335507,-44.67702602881432,9.63771434876121,-3.342518906925846,262.0684102705024,45.86195169839744
77,4.434135767234255,-261.56139076491195,-15.941543633101865,-44.74918501312985,9.503003124904806,-3.3150254032935855,262.0974171853473,45.902383678716525
78,4.412527830007893,-261.5787974268758,-16.011157169079514,-44.835477602686986,9.377299501478609,-3.2850075534634806,262.11917764472236,45.95849991867819
79,4.390631870651587,-261.5882357868608,-16.08626194085003,-44.93307949070481,9.261464035802744,-3.253001016204289,262.13337865644075,46.027760079698524
80,4.368964591355597,-261.58962342834985,-16.165871307122696,-45.0391416257924,9.156421542698068,-3.219600177479682,262.13988386269807,46.10761635467046
81,4.348022069585459,-261.58306894610877,-16.248893688022935,-45.150855082178474,9.063148056338155,-3.1854384827841407,262.1387394773444,46.195572343892756
82,4.328266108293011,-261.5688702018967,-16.334166952123105,-45.265509317208796,8.982652055904685,-3.1511669124463673,262.13017444846867,46.28923429641807
83,4.310110852706969,-261.54750676487174,-16.420496738221797,-45.38054270276514,8.915949168292714,-3.1174306183816967,262.1145951134332,46.38635345034006
84,4.293910082085043,-261.5196272272904,-16.506697434328196,-45.49358479942364,8.864030039386193,-3.084843960049406,262.09257496108245,46.484858884972475
85,4.279945660769272,-261.4860322122006,-16.59163437838991,-45.602490291998805,8.827821741846192,-3.0539645594075107,262.06484022961536,46.58288090372636
86,4.2684176881699605,-261.4476537591061,-16.674265587991002,-45.70536475815714,8.808143854076446,-3.025267429109143,262.03225192024684,46.67876540306801
87,4.259436912499534,-261.40553154763506,-16.753680941174437,-45.80058250223332,8.805661085003049,-2.9991205632571005,261.99578455694217,46.77107991656093
88,4.253019930679034,-261.36078627415424,-16.82913641349976,-45.88679659465072,8.82083493425287,-2.975763501979805,261.9565018584581,46.8586120642523
89,4.249087540406407,-261.31459048418884,-16.900081009003884,-45.962941094381705,8.853877286293683,-2.9552902701658765,261.91552947818354,46.94036104950787
90,4.247466331662911,-261.2681372449766,-16.96617447341658,-46.028225333797465,8.904708973590667,-2.937637815291928,261.8740250733415,47.015522756056264
91,4.247893306049028,-261.22260719534125,-17.0272945757328,-46.08212024730108,8.972926164638901,-2.9225807300457545,261.8331461566473,47.08346904303832
92,4.250023183698452,-261.1791347632458,-17.083533524158938,-46.12433706886864,9.05777695778399,-2.909732720869382,261.7940164829831,47.143722067605616
93,4.2534381894737,-261.1387746762868,-17.135183866669824,-46.15479922294827,9.158149906584892,-2.8985550049764996,261.75769210969105,47.1959248202893
94,4.257660360561534,-261.1024701643448,-17.18271494309082,-46.173608733116644,9.272575518013795,-2.888371567171455,261.7251285918595,47.239809408320085
95,4.262166553161836,-261.07102432204005,-17.226741559448982,-46.18100886286305,9.399241134390781,-2.8783909432530503,261.6971508816828,47.27516486811882
96,4.266406238638029,-261.04507597993995,-17.26798702011858,-46.177344984238786,9.53601903778548,-2.8677339078468287,261.67442740887515,47.301806431962014
97,4.269821901189816,-261.0250812472005,-17.307242858516055,-46.16302589728133,9.680507090080487,-2.855466170336595,261.65744964044745,47.31954826982595
98,4.271871447239135,-261.0113016727481,-17.345327415919307,-46.13848798571765,9.830080749589635,-2.8406349728716562,261.64651818362677,47.32818176999724
99,4.272051578897343,-261.0037996680602,-17.383044902326123,-46.104164580450174,9.981954899225526,-2.8223083406384775,261.64173615085855,47.32746130422632
100,4.269920664408991,-261.0024414076884,-17.421145979953806,-46.0604625628021,10.133253576534877,-2.7996156069352396,261.64301003225705,47.317098995830406
101,4.265119373928399,-261.00690692324156,-17.460290447291253,-46.00774749013612,10.281085371375323,-2.771787693779073,261.65005778288474,47.29676918100297
102,4.25738735174298,-261.0167066466069,-17.501012396574556,-45.94633745206638,10.422621890389333,-2.7381955149791914,261.6624233564385,47.26612209907629
103,4.246574571296951,-261.0312033703959,-17.543688349807237,-45.87650475088375,10.55517624994071,-2.69838485476913,261.67949664718884,47.22480514464183
104,4.2326467679311035,-261.0496385228017,-17.58850930371966,-45.798483685617946,10.676278112857979,-2.6521061819494234,261.700537783808,47.17248911075543
105,4.215685194810034,-261.07116168332004,-17.635458115645694,-45.712482375102866,10.783741485007276,-2.5993380388870464,261.72470481260393,47.108896444429575
106,4.195881505184676,-261.0948622253529,-17.684293942332637,-45.618696611192,10.875721521699447,-2.540302839881227,261.75108380949194,47.03382859481626
107,4.173528719662064,-261.11980182748954,-17.734545285158923,-45.51732402575372,10.950757098467491,-2.4754741251319343,261.778720315142,46.94718994007056
108,4.149009205079755,-261.1450464767846,-17.785512623875896,-45.40857729462802,11.007796891815795,-2.405574598705557,261.8066508321393,46.849006458141204
109,4.122780556996772,-261.16969663331713,-17.836280920170292,-45.29269567811134,11.046208028887886,-2.3315646706336763,261.83393311926835,46.73943821298932
110,4.095360238805608,-261.1929144275461,-17.88574172403837,-45.16995486953091,11.0657677001649,-2.2546216974358684,261.85967417780125,46.618785738016406
111,4.067309732036407,-261.21394699490395,-17.932624224138134,-45.04067575704192,11.066639233473875,-2.176110593062985,261.883055023287,46.487491307957306
112,4.039218783578055,-261.2321452434348,-17.975534159351724,-44.905233126546335,11.049334935256857,-2.097546890269888,261.9033514905532,46.34613671089565
113,4.011690117509457,-261.24697753561867,-18.01299899990454,-44.76406541873834,11.01466857608323,-2.020553633945311,261.91995046234996,46.1954393574294
114,3.9853247595505277,-261.2580380027364,-18.043517397089538,-44.61768634589353,10.963700779951003,-1.9468136560213278,261.9323611137379,46.03624835508152
115,3.960707968739477,-261.2650495412204,-18.065610772992393,-44.466698506018176,10.897680776457916,-1.8780187961843668,261.9402210797319,45.869541564953465
116,3.938395716212872,-261.26786195907124,-18.077875041807214,-44.31180826903722,10.817987990806765,-1.8158175481534793,261.9432978747925,45.69642380818055
117,3.918901656427099,-261.26644612565104,-18.07903064928083,-44.153840438028254,10.726076767628282,-1.761762564050895,261.9414862864295,45.518125585858535
118,3.9026845660568,-261.26088517240385,-18.067969265497535,-43.99375077497166,10.623427115617828,-1.7172595293924893,261.9348026651333,45.336001176593655
119,3.8901363310055097,-261.2513637643983,-18.04379555704298,-43.83263451067981,10.511503706005117,-1.683519072165003,261.9233770083682,45.15152486109275
120,3.881570806376476,-261.238156295527,-18.005862549795438,-43.6717293146936,10.391724518491447,-1.6615134505271656,261.90744357513057,44.96628418689214
121,3.877214175882607,-261.2216146156303,-17.953799264147474,-43.51241171042203,10.265439628784142,-1.6519396820738386,261.8873305371899,44.78196948261109
122,3.877197572559754,-261.2021556067033,-17.887529653198627,-43.35618650197229,10.133919799921905,-1.6551905518877816,261.8634489079157,44.60035920605204
123,3.8815525506048845,-261.18024867598706,-17.807282390037123,-43.204669413172645,9.998353852322321,-1.6713346584785909,261.8362807755595,44.423301163561625
124,3.890209637916656,-261.1564031349516,-17.71359154196763,-43.059563758391846,9.8598532787874,-1.700106404279099,261.80636680377506,44.252690113147786
125,3.902999900611809,-261.13115547587546,-17.607288405683605,-42.922632443150846,9.719462273964734,-1.7409066163682396,261.77429302678894,44.09044264763023
126,3.9196593202759678,-261.1050566326037,-17.489484782301165,-42.795666831854525,9.578171295892183,-1.792814238760475,261.7406770507136,43.93847045844909
127,3.939835746778028,-261.07865935526326,-17.36154805322725,-42.68045400813361,9.436932452671618,-1.8546092166394534,261.70615382802424,43.798653089542974
128,3.9630981630678295,-261.0525058497935,-17.22506878215885,-42.578743757020916,9.296675325783617,-1.9248062877398597,261.67136122006735,43.67281114977612
129,3.988947973133934,-261.0271158591129,-17.08182206667459,-42.49221631596021,9.158322199298592,-2.0016989258339417,261.6369256204666,43.56268073426302
130,4.016832020875295,-261.0029754248336,-16.933724222408784,-42.42245165213279,9.022801974773214,-2.0834121521869324,261.6034479949204,43.469889566887275
131,4.046157072101123,-260.98052667559125,-16.78278651322602,-42.37090076358426,8.891062241338911,-2.167962352528451,261.5714908041113,43.39593513858075
132,4.076305482732396,-260.96015910046106,-16.63106763801972,-42.338859279327465,8.764078997811842,-2.2533216844709316,261.5415663828197,43.34216488012245
133,4.106651639853178,-260.94220283031416,-16.4806266439668,-42.32744345507818,8.642863429074316,-2.3374842737034123,261.5141274022171,43.30975819406967
134,4.136578521348685,-260.9269244187803,-16.3334778340531,-42.337568551189996,8.528465043588191,-2.41853127206777,261.48955999599116,43.29971003183353
135,4.165493549090022,-260.91452544588964,-16.191548984707403,-42.36992957946113,8.42197051226404,-2.4946919518788424,261.4681799410498,43.312815706195785
136,4.192842953919999,-260.90514397689986,-16.05664377007773,-42.424984536470376,8.324497766624372,-2.5643982455382357,261.45023196738003,43.3496568055936
137,4.218124064691821,-260.89885857192576,-15.930408828968039,-42.502940448165454,8.237185261089964,-2.62633047123558,261.4358919102571,43.41058835938085
138,4.2408950885888,-260.89569422549755,-15.814305612110724,-42.6037427033744,8.161176662896496,-2.6794524301684994,261.42527108523313,43.49572764446626
139,4.260781992681369,-260.89562939603326,-15.709587141828212,-42.72706814288997,8.097601527030825,-2.7230346288408764,261.4184220451168,43.6049451032255
140,4.27748213959174,-260.8986032697494,-15.617280052075785,-42.87232220646511,8.047552742199503,-2.7566650621830924,261.4153448744815,43.73785777263512
141,4.290764516765938,-260.90452258324797,-15.538172543624075,-43.038640228731246,8.012061702208113,-2.7802477393140284,261.4159933731591,43.89382550676647
142,4.300466772802971,-260.9132675217045,-15.472808957795529,-43.224892809761414,7.992072228603733,-2.793989838019402,261.4202806809437,44.07195018175774
143,4.306489755668392,-260.9246962786797,-15.421491435477341,-43.42969510251897,7.98841421826511,-2.7983789368993506,261.42808395761796,44.271078022713745
144,4.3087906447819595,-260.93864789626053,-15.38428864038162,-43.65141986431725,8.001777845539845,-2.794152161003422,261.4392477432158,44.489805195182576
145,4.307375860924663,-260.95494317750916,-15.361050955511311,-43.888214187165005,8.032688979194688,-2.782259291296558,261.45358576652336,44.7264868500125
146,4.302294656805735,-260.97338380396553,-15.351431092829966,-44.138019875893704,8.081486350603853,-2.7638219399761286,261.47088128121123,44.97924984008223
147,4.293633822316161,-260.9937501466058,-15.354908791938898,-44.39859741306487,8.148300994328286,-2.7400908050532053,261.49088634401863,45.24600928610885
148,4.28151354829414,-261.01579848401593,-15.370818230674585,-44.66755335898549,8.233038586846408,-2.712402816909879,261.5133206663877,45.524489084501035
149,4.266084270736934,-261.039258432778,-15.398376860473181,-44.94237097967476,8.335365455020217,-2.682139689875904,261.5378707633157,45.812246404593836
150,4.247524191585366,-261.06383141762086,-15.436714493706413,-45.22044391759179,8.454699110585466,-2.650689007424698,261.5641901493164,46.10670023879433
151,4.2260371158524865,-261.0891909738133,-15.484901523139607,-45.499112727037186,8.59020416470203,-2.619408561208025,261.59190129785003,46.405164053761965
152,4.201850294583652,-261.11498552208263,-15.541975192074165,-45.77570393366701,8.740794414579936,-2.58959433633613,261.62059993159335,46.70488240079136
153,4.175212070113812,-261.14084393350856,-15.606962993085398,-46.04757088739718,8.905141765873246,-2.5624523537961372,261.6498619003801,47.003070923420154
154,4.146389194242564,-261.16638376389824,-15.678902595142173,-46.3121351810917,9.081692435931583,-2.5390745211223074,261.67925248831193,47.296958663265436
155,4.115663773585216,-261.19122163835425,-15.756858060376357,-46.56692703321103,9.268690603442964,-2.5204186425269053,261.7083376188308,47.58383113907419
156,4.083329969969776,-261.2149849878958,-15.839932366740483,-46.80962296286317,9.464209385716869,-2.5072927535223437,261.73669616911417,47.86107254555341
157,4.049690740804879,-261.2373241251365,-15.927276358525187,-47.038079335450355,9.666188729271331,-2.5003439304367823,261.76393240198274,48.12620559941288
158,4.015054870505419,-261.25792347614356,-16.018094237372193,-47.250360789221425,9.872479420272867,-2.500051646924753,261.7896873540526,48.37692790127668
159,3.9797343671437964,-261.27651077135556,-16.1116456459674,-47.44476301513172,10.08089192395024,-2.5067256161813716,261.8136479978219,48.61114402852842
160,3.944042192520842,-261.2928632329451,-16.207244372870782,-47.619829788319045,10.28924822709873,-2.5205079171036,261.8355532246784,48.8269928774666
161,3.9082903476242223,-261.30681023417003,-16.304253787485077,-47.77436451360457,10.495434435884897,-2.5413790866931616,261.85519613656555,49.02287003691274
162,3.8727884360027995,-261.31823242654355,-16.402079297654538,-47.90743678066351,10.6974516826063,-2.569167756815031,261.87242266375904,49.197445153159904
163,3.837842828002333,-261.3270578248797,-16.500158376858657,-48.018384443741546,10.8934629484898,-2.603563314035008,261.88712703322324,49.34967426596547
164,3.80375640506485,-261.3332557209582,-16.597949019387123,-48.106811556151655,11.081833703248412,-2.6441310067262807,261.8992450077893,49.47880697198498
165,3.770828623986468,-261.3368294954003,-16.694917799660452,-48.17258224873775,11.261164759937602,-2.6903289348938926,261.90874603039356,49.58438814498154
166,3.739355394376359,-261.3378094049918,-16.790528897319085,-48.21581054483983,11.430316354440057,-2.7415263723161027,261.9156254229487,49.66625398187453
167,3.709628120217601,-261.33624629013445,-16.884235364382345,-48.236846257421085,11.588423050909464,-2.797022820436898,261.91989764979945,49.724522417300925
168,3.6819313166926544,-261.3322069136032,-16.975473538592006,-48.23625744729914,11.734899557781741,-2.8560671193635256,261.92159140080196,49.75957837068611
169,3.6565384832263335,-261.3257713127202,-17.063660977839163,-48.21481025048864,11.869437916826277,-2.9178759560455942,261.9207468925531,49.772054688337086
170,3.6337062879676734,-261.3170321734523,-17.14819781385058,-48.17344704370502,11.991996853937389,-2.9816512673120332,261.917415389985,49.76280987662388
171,3.6136674704419165,-261.3060959325432,-17.228471157296337,-48.11326385950565,12.10278438550896,-3.0465962828024193,261.9116606368611,49.73290374589919
172,3.5966231382190688,-261.29308514977663,-17.303862142414562,-48.03548774005624,12.202235043437161,-3.111930198840441,261.9035617194103,49.68357194080011
173,3.582735292810538,-261.278141622097,-17.373755289973627,-47.94145442132562,12.290983278243695,-3.17690165757645,261.89321682326164,49.61620009506365
174,3.5721204156767397,-261.2614296721637,-17.43754999125615,-47.83258644425693,12.36983468965652,-3.240801296094238,261.8807473115584,49.53229808174673
175,3.5648447658623694,-261.2431390471057,-17.494673969856922,-47.710371547335164,12.43973669949929,-3.302973612468918,261.86630155558476,49.433474577466086
176,3.5609217750434756,-261.2234869522391,-17.544598495097933,-47.57634104346817,12.501750125649343,-3.362828272764381,261.85005802795973,49.321411959990556
177,3.560311665227582,-261.20271892002546,-17.586854927866387,-47.43204785727918,12.557022855342401,-3.41985078570061,261.8322273268137,49.19784145191921
178,3.5629231901618015,-261.18110842425546,-17.62105194078116,-47.27904400675433,12.606766472568317,-3.4736122594621306,261.8130529911002,49.06451842771168
179,3.5686172551200244,-261.1589553159178,-17.646892488477977,-47.118857518027305,12.652236293123613,-3.523777794720151,261.7928111168607,48.92319789021463
180,3.577212144071879,-261.13658321913306,-17.664189369094736,-46.95296900506746,12.694714837383827,-3.570113007347701,261.7718088334996,48.77561024997622
181,3.588490122594349,-261.1143359730131,-17.67287819863801,-46.78278838982278,12.73549836875996,-3.6124882351605865,261.7503816482924,48.62343768201752
182,3.6022051879876273,-261.092573084278,-17.67302695865005,-46.60963245680812,12.775885800162829,-3.6508801562078697,261.72888957077566,48.46829147881291
183,3.6180916949229758,-261.07166405737706,-17.66484185541401,-46.4347040819032,12.817169092395043,-3.6853707741058446,261.70771187004107,48.31169093398076
184,3.6358735371870545,-261.0519814879982,-17.648669717833627,-46.25907400330758,12.860624297219578,-3.7161439173346493,261.68724036959225,48.15504434524421
185,3.655273496503213,-261.0338929495129,-17.624997297885216,-46.08366591778845,12.907502624250796,-3.7434794909864477,261.66787133548036,47.99963271624314
186,3.6760222564882485,-261.0177518727627,-17.594447634162766,-45.909245522567055,12.959021215707496,-3.7677457082143095,261.64999616769325,47.84659666702443
187,3.6978664948511253,-261.00388773637434,-17.557773354715838,-45.73641389933065,13.016353525388334,-3.789389445451246,261.6339911997579,47.696926904386
188,3.7205755049167775,-260.99259596763704,-17.51584670537089,-45.565605364021394,13.080619242102502,-3.808924760286255,261.620206986987,47.55145835025102
189,3.7439459652102274,-260.98412804350477,-17.469646258623456,-45.39708962690309,13.152873663192894,-3.8269195644426093,261.60895756476145,47.410867751241646
190,3.7678047093588662,-260.97868233703616,-17.420240522211863,-45.23097788344831,13.234096451765662,-3.8439805313243425,261.6005102327966,47.27567439956782
191,3.792009551870424,-260.9763962006409,-17.368768810057173,-45.06723233438677,13.325179836416003,-3.8607365302116703,261.59507637842,47.14624353730116
192,3.816448287693817,-260.97733962615825,-17.316419677949145,-44.90567861505322,13.426916451073296,-3.8778211239689417,261.592803697153,47.022792063556686
193,3.841035907553109,-260.9815106838715,-17.26440707119859,-44.74602065059334,13.539987075256837,-3.895854853388887,261.5937700206249,46.905396236728315
194,3.8657100450669106,-260.9888328978975,-17.213944282819853,-44.58785748784729,13.664948509358716,-3.915428129940478,261.5979789155043,46.79400110167082
195,3.8904248529765995,-260.9991547289663,-17.166215973614218,-44.430701669800804,13.802221762222107,-3.9370855712996295,261.60535724514784,46.688431375029495
196,3.915143795692551,-261.0122513149707,-17.122348768860327,-44.27399872536938,13.952080714771066,-3.961312536087659,261.61575488715397,46.5884035230588
197,3.9398320023748883,-261.0278285018197,-17.0833811831698,-44.11714736147619,14.114641509894938,-3.988524455678546,261.62894669941335,46.49353879735745
198,3.964448739936153,-261.0455289867928,-17.05023379512152,-43.9595199948068,14.289853121373733,-4.019059363884051,261.6446366258559,46.4033770907057
199,3.98894034758827,-261.06494017214965,-17.023680727919196,-43.800483379299855,14.477489836385155,-4.053173830234988,261.6624636133735,46.31739166028052
200,4.013233806366512,-261.08560320198575,-17.00432359893366,-43.63941926190728,14.677146652591338,-4.091042317336406,261.68200889022705,46.23500500100458
201,4.037231095606858,-261.1070227058634,-16.992569127748048,-43.47574516873214,14.88823871654615,-4.132759795984934,261.7028042075376,46.15560633700406
202,4.060804590111743,-261.12867698751285,-16.988611479678486,-43.30893550861285,15.110005828065196,-4.178347256288495,261.7243408543209,46.078571232943524
203,4.083793875207172,-261.15002867811427,-16.992420183466127,-43.138543133521196,15.341522719780055,-4.227759554963378,261.74607952421536,46.00328366804229
204,4.1060044079549405,-261.17053608988226,-17.003734185074084,-42.96422132288942,15.581715390925492,-4.280894860466164,261.7674613104205,45.92916060236445
205,4.127208437447341,-261.1896655859547,-17.022062340365157,-42.785745930846105,15.829383326799729,-4.337604836966442,261.78792016692097,45.85567869497645
206,4.1471485891441775,-261.20690524157897,-17.046690369703892,-42.60303722606839,16.083227014904665,-4.39770469104736,261.8068971128931,45.78240249615191
207,4.165544504598874,-261.2217799152842,-17.07669395611022,-42.41618076927694,16.341879786614907,-4.460982315036816,261.8238562775125,45.709013143671356
208,4.182102760307351,-261.2338675391821,-17.110957339287214,-42.22544647058728,16.603942679367233,-4.527205964255823,261.8383025494166,45.63533630696128
209,4.196529860742725,-261.2428160046965,-17.148196597056003,-42.03130476127346,16.868020753990763,-4.596130127295119,261.8498001471637,45.56136785610414
210,4.208547526202072,-261.2483596073541,-17.18698691713692,-41.83443869920272,17.132759153823713,-4.667499428554179,261.85799101542773,45.48729558463494
211,4.217909041413681,-261.25033376689,-17.225793493819257,-41.635750897012784,17.396877176962917,-4.741050511543067,261.8626117213736,45.41351537678119
212,4.224415289443273,-261.24868673145363,-17.263006026784772,-41.43636444343588,17.65919872847476,-4.8165118872804,261.8635075400322,45.340640497971876
213,4.227929262205111,-261.2434872156492,-17.29697692398192,-41.23761746162286,17.918677692505177,-4.893601739135017,261.8606426697619,45.269503177057935
214,4.2283881410427115,-261.23492730678026,-17.326063134019638,-41.04105155448479,18.174417005854366,-4.97202372927454,261.8541058966089,45.20114829073792
215,4.225812301279274,-261.22332031342427,-17.348671123789963,-40.84839499261081,18.425680526395627,-5.051460991423001,261.84411134357657,45.1368196393069
216,4.220310792324455,-261.20909346925185,-17.363303979055107,-40.661541912606744,18.671897159099586,-5.131568695626307,261.8309941483665,45.07793983688937
217,4.212083064859201,-261.19277568689404,-17.368609037911312,-40.48252885786347,18.91265710978399,-5.21196578547045,261.8152011621871,45.02608507790483
218,4.201416976114799,-261.1749809535216,-17.363423997771648,-40.313509689782485,19.147700573092123,-5.292226682345577,261.79727713250304,44.982955961733204
219,4.188683320529596,-261.15638831524757,-17.34681921538604,-40.156729337157174,19.376899616459742,-5.37187389656187,261.77784717659483,44.95034525397021
220,4.174327240941005,-261.13771957261605,-17.318134015624768,-40.0144961958715,19.60023445659071,-5.450372539948675,261.7575965360492,44.93010305809373
221,4.158856912742937,-261.11971586981934,-17.277005163725256,-39.889152397769855,19.81776566910329,-5.5271276665329,261.7372486863203,44.924099471261215
222,4.142829943423185,-261.10311438443205,-17.22338611472517,-39.78304078133336,20.029604056987303,-5.601485196201316,261.71754293175724,44.93418450246058
223,4.1268379962865644,-261.08862623463926,-17.157556181148593,-39.69846732784005,20.23587989910715,-5.672736954144291,261.6992125635844,44.9621449310395
224,4.111490155489849,-261.0769164406513,-17.080119351286648,-39.637658125427606,20.436713120152696,-5.740130108888947,261.6829644180911,45.00965793365837
225,4.0973954780868,-261.0685864001903,-16.99199309278635,-39.602710565891186,20.632185604199364,-5.802880999817412,261.66946033465246,45.07824170204126
226,4.085145096981605,-261.06415902304764,-16.89438795448815,-39.5955393475117,20.822316473460717,-5.8601930165697045,261.6593007282418,45.16920383213262
227,4.075294202428604,-261.0640664601244,-16.788779001128578,-39.61781876995583,21.007040768200536,-5.9112778700500215,261.6530102936878,45.28358886768488
228,4.068344218146332,-261.0686402070144,-16.676870098153046,-39.67092361411107,21.186191690854695,-5.955379320567396,261.6510256986882,45.42212693811095
229,4.0647254654440745,-261.0781032657063,-16.56055199536939,-39.75587151882004,21.3594864560356,-5.991798223835109,261.6536850164579,45.585185889977005
230,4.0647806096330665,-261.0925641031437,-16.4418552230295,-39.873270099170135,21.526515796747848,-6.019917632476789,261.66121870298167,45.77272958490882
231,4.068749297784893,-261.11201239473814,-16.322899012141036,-40.02327193468812,21.6867372502013,-6.039226664922068,261.6737421827482,45.98428495916151
232,4.076754640731,-261.13631685619083,-16.20583760806242,-40.20553990835353,21.83947236845957,-6.049341933618171,261.69125043155753,46.21891988897474
233,4.088792410771254,-261.16522561966616,-16.09280530683925,-40.41922437975154,21.983907854311255,-6.050025494065622,261.71361509479925,46.47523298145388
234,4.10472381393874,-261.19836948678056,-15.985861344959892,-40.66295270886958,22.11910029741759,-6.0411984868779465,261.7405845403359,46.75135543047198
235,4.1242724327587625,-261.23526811723616,-15.886935624333903,-40.93483102124373,22.243983797396858,-6.022949830960633,261.7717869560976,47.04496435723199
236,4.147025623888613,-261.27533903079177,-15.79777635774285,-41.232457896726096,22.357379487077353,-5.995539449200965,261.8067364214378,47.353306741878754
237,4.172440449381327,-261.3179093276836,-15.71990111844526,-41.552949774590566,22.458005946332825,-5.959395600218106,261.84484192882775,47.673233129678735
238,4.1998540529307595,-261.36223016841245,-15.65455331571455,-41.89297813723445,22.544489731179755,-5.915106027857262,261.885419499078,48.001240637868975
239,4.228498191364226,-261.40749412294565,-15.602666502936488,-42.24881878957217,22.61537560562129,-5.863402874809572,261.92770762715196,48.33352519232199
240,4.257517517859926,-261.45285542708353,-15.564838876183435,-42.61641362433988,22.669136396057084,-5.80514162078394,261.97088622734606,48.66604316422653
241,4.285991274234037,-261.4974530161999,-15.541319742037635,-42.99144503315292,22.70418260794649,-5.741274634573112,262.0140990557261,48.99458250350727
242,4.312958128433209,-261.5404360182115,-15.532008770854643,-43.36942254379762,22.718872066005623,-5.672820214340777,262.05647935226006,49.31484303830295
243,4.337443808609277,-261.58099120461316,-15.536467812731647,-43.745780372746225,22.711519940563612,-5.600828222481819,262.0971782046398,49.62252489809444
244,4.358490964693039,-261.6183716956858,-15.553944224439393,-44.11598350492289,22.6804096823983,-5.526343633819034,262.13539488161695,49.91342317516583
245,4.375190454609496,-261.6519259761566,-15.58340413426074,-44.475638862476465,22.6238055972976,-5.450369528446925,262.1704081064827,50.18352614726399
246,4.38671304255758,-261.68112602334264,-15.623573776287687,-44.82060732484722,22.53996794262911,-5.3738312440241565,262.2016069611886,50.429113782943915
247,4.392340288491315,-261.7055931070532,-15.672986854046323,-45.14711193945741,22.42717142663255,-5.2975434977385705,262.22851984964086,50.64685289885976
248,4.39149322297028,-261.72511961249427,-15.730035814051634,-45.451837610816675,22.283727838577178,-5.222182246433025,262.25083972730334,50.833885230473605
249,4.383757303322508,-261.7396851214484,-15.793024917143434,-45.73201781629972,22.108013285168816,-5.148262863301987,262.2684436813965,50.98790479161061
250,4.368902159570071,-261.7494650367885,-15.860223061707568,-45.985504436456694,21.898500180623323,-5.076125892007542,262.281404994152,51.107221225616925
251,4.34689476250394,-261.7548303203664,-15.92991442293787,-46.21081758233083,21.65379373671103,-5.005931217526551,262.28999611014746,51.190806377577395
252,4.317904966464088,-261.7563375098703,-16.00044516009704,-46.407173275987695,21.372672242230426,-4.937660993732281,262.2946815385502,51.23832198579127
253,4.282303001342301,-261.75470907050743,-16.07026476152407,-46.57448788604678,21.054129959180774,-4.871131143143051,262.2961006428719,51.25012712925634
254,4.240649301352909,-261.7508050900464,-16.137961060983056,-46.71335926483208,20.697421078707812,-4.806010758595493,262.2950412704035,51.227264847863445
255,4.193677732184988,-261.7455880245066,-16.202288509016235,-46.82502553960897,20.302102959011727,-4.741848327423627,262.29240592215615,51.171428173809595
256,4.142273571482396,-261.7400825228982,-16.262189777597392,-46.911303429025516,19.86807684407827,-4.6781033742149445,262.289172523032,51.084906644975945
257,4.087447539109948,-261.7353324011711,-16.31681107449689,-46.97450871706244,19.395624407639904,-4.614181873353844,262.2863519110819,50.97051513608171
258,4.030306953971843,-261.7323567326811,-16.365511618138438,-47.0173620529873,18.88543872333965,-4.549473609505447,262.28494406139276,50.831507454141075
259,3.972024900656582,-261.73210686087145,-16.40786765650368,-47.04288353318628,18.338648566064823,-4.483389584689138,262.28589488924246,50.67147755438704
260,3.913808205939859,-261.7354259887756,-16.4436712947283,-47.05427960990519,17.75683524021765,-4.415397644851038,262.2900553152929,50.49425146761817
261,3.856865013695767,-261.7430129061988,-16.47292428180244,-47.054825861197315,17.142041371104643,-4.345054734299997,262.29814417265754,50.30377316356004
262,3.8023727431316616,-261.7553913533656,-16.495826859736024,-47.047749116597146,16.49677128940722,-4.27203446997632,262.3107164689387,50.103987659478356
263,3.7514472228345315,-261.77288638688094,-16.512761865748605,-47.03611236920545,15.823982818601227,-4.19614894202318,262.3281383874759,49.898724721400214
264,3.7051138354216033,-261.7956088204406,-16.524274501884577,-47.02270579136931,15.12707047338035,-4.1173638167636035,262.3505701322272,49.69158648567172
265,3.6642815488315086,-261.8234483661287,-16.531048441884593,-47.0099469944142,14.409840302919354,-4.035806051241168,262.3779572904672,49.485842251955084
266,3.629720687755087,-261.85607556244634,-16.533879072580316,-46.999793424092324,13.676476842175742,-3.9517638686023684,262.41003085613477,49.28433355268358
267,3.602045200773236,-261.8929519994495,-16.533644595116087,-46.99366943640623,12.931502826062726,-3.865679057952432,262.44631547633134,49.08939234648899
268,3.581700036137605,-261.9333478318512,-16.53127554348916,-46.99241013344774,12.17973246797762,-3.778132116611952,262.4861449528469,48.90277478919014
269,3.568954046833419,-261.97636521620734,-16.527723183777677,-46.996223497000614,11.426219244261546,-3.689821217014513,262.52868366819735,48.72561255453526
270,3.563898545365881,-262.0209661313485,-16.523927319401814,-47.004671847026074,10.67619926123566,-3.601536390931966,262.5729524288267,48.55838320939937
271,3.566451200418227,-262.06600296103056,-16.520784223422773,-47.016673262741925,9.935031330402463,-3.514130591227602,262.6178571447324,48.40090075393199
272,3.576364526194882,-262.11025022867733,-16.519115651879886,-47.03052330625302,9.208134777926784,-3.428489357550073,262.66221878495276,48.25232706828323
273,3.5932379685691056,-262.15243613410394,-16.51964002606216,-47.04393704845318,8.50092581578016,-3.345500701096404,262.7048033139726,48.11120455162679
274,3.616532646187475,-262.19127314636034,-16.52294682850597,-47.054110911129236,7.8187531070861365,-3.2660266201266075,262.7443509162614,47.97550963245396
275,3.6455880403596534,-262.22548760054667,-16.529475076927792,-47.05780322882852,7.166833047781545,-3.1908774149496018,262.7796045009896,47.84272611765264
276,3.67964013904515,-262.25384859426555,-16.53949651003549,-47.05143179134937,6.5501853230407825,-3.120789674707276,262.8093378143947,47.70993663491239
277,3.7178406469586673,-262.27519634077305,-16.553103904670472,-47.03118601927239,5.973569502041078,-3.0564084574705794,262.83238333634927,47.57392977843563
278,3.759276923422205,-262.28846975793044,-16.570204789651733,-46.993150872757404,5.4414237270707035,-2.998273833082804,262.84765975115215,47.431320002315346
279,3.802992338232567,-262.292732733182,-16.59052075483585,-46.93343910340075,4.957806784488541,-2.9468116503385393,262.8541984407896,47.27867680192744
280,3.8480067107265965,-262.28719827929285,-16.613592561249547,-46.848328028267176,4.526344924429721,-2.9023281378457986,262.8511682243514,47.11265926688442
281,3.8933363977399176,-262.2712496610584,-16.638791258929857,-46.73439663807585,4.15018473053286,-2.865007788913104,262.8378974317549,46.930151691894636
282,3.938013499075352,-262.2444575606029,-16.665335379604464,-46.588658592890575,3.8319531711291748,-2.8349139877876897,262.81389237733737,46.7283956548944
283,3.9811036624939304,-262.206592504246,-16.6923139300702,-46.408686593184626,3.5737257108994958,-2.811992013907094,262.7788514335923,46.50511390484281
284,4.021722099514037,-262.1576320611172,-16.718714494687624,-46.192723810152934,3.377003032521673,-2.7960742965952785,262.7326741693292,46.258621605598606
285,4.059047584430842,-262.09776264797915,-16.743455459763304,-45.93977853468558,3.2426965318675385,-2.786887939409527,262.67546532549596,45.987920966959386
286,4.092334346250832,-262.0273760576659,-16.765421248324234,-45.64969893889058,3.1711223671981164,-2.784064532515471,262.6075336789419,45.69277603832069
287,4.120921890501288,-261.94706103156386,-16.783499403630223,-45.323225772100606,3.1620035358261203,-2.7871521674746895,262.5293860450587,45.373765385150726
288,4.144242942826978,-261.85759032817674,-16.796618301538317,-44.96202181425221,3.214479258258892,-2.795629445913721,262.44171679904224,45.032311398056265
289,4.161829878363441,-261.7599038423275,-16.803784176728385,-44.56867785717972,3.327120864270035,-2.808921174832605,262.34539339316063,44.670685972258276
290,4.173320090008341,-261.65508842303893,-16.80411601980921,-44.14669580406581,3.4979533698432204,-2.826415343832562,262.24143843286464,44.29199316175928
291,4.178460640356254,-261.54435511155117,-16.796876842987352,-43.70045013088999,3.724481967510176,-2.8474808590164615,262.13100894188943,43.900130112651816
292,4.177112238165095,-261.4290145835576,-16.781499996818493,-43.23512940832663,4.003722699327145,-2.8714853965849585,262.0153735166362,43.499728078786845
293,4.169252219790403,-261.31045164049686,-16.75760970476186,-42.75665982785722,4.332236667706811,-2.8978126859311,261.8958881575364,43.09607561320092
294,4.154975983826338,-261.19009960327924,-16.725035582886868,-42.27161273706201,4.706167307577477,-2.9258785431099708,261.77397160979126,42.69502613754744
295,4.134496343330108,-261.06941537030116,-16.68382132577518,-41.78709810589083,5.121280473075616,-2.9551450201447285,261.6510809816599,42.30289205346453
296,4.108140501858849,-260.949855742626,-16.63422778101518,-41.31064567513843,5.5730073002096585,-2.9851320949502966,261.52868825546886,41.926327420902574
297,4.076344680864038,-260.83285544108327,-16.576730402502857,-40.85007537780738,6.056489935512134,-3.015426417486565,261.4082581172592,41.57220108066065
298,4.0396466510441895,-260.7198070331193,-16.51201088521895,-40.41335858767267,6.566630274730828,-3.045686778859697,261.2912273139703,41.2474620571115
299,3.998676420349066,-260.6120427251562,-16.44094288728146,-40.00847190009932,7.098141850615233,-3.0756461736398335,261.1789854903882,40.9589992048162
300,3.954145110103084,-260.5108177012456,-16.364572084549796,-39.643245464255926,7.645604928200784,-3.1051105298440174,261.0728572008531,40.7134973289872
301,3.9068318177193757,-260.41729454718586,-16.2840911315626,-39.32520829398164,8.203524688973324,-3.1339543503768956,260.9740846659902,40.517292340375114
302,3.857568315898225,-260.332528442606,-16.20081026381259,-39.0614334261963,8.766392125485925,-3.16211365746092,260.8838109982714,40.37622834391608
303,3.807221865408689,-260.2574532166099,-16.116124306479485,-38.85838620008008,9.328746970384392,-3.189576762224385,260.8030640410292,40.295519846529984
304,3.7566769682209684,-260.192868826611,-16.031476869034954,-38.72177918089936,9.885241710100596,-3.216373458513693,260.732741438906,40.2796223994443
305,3.70681716498166,-260.13943105098997,-15.948322596362646,-38.656437249284984,10.430705550409328,-3.242563251591628,260.6735977996984,40.332114882332235
306,3.658507802340701,-260.09764403372714,-15.868088557438647,-38.666176140971785,10.960207140585386,-3.268223226014821,260.62623466754303,40.45559632494896
307,3.6125802384751307,-260.06785589293423,-15.792136123828609,-38.75369739279125,11.469114886924622,-3.2934361711667997,260.59109361338454,40.651599780848116
308,3.569817547615516,-260.0502571677464,-15.721724855936406,-38.92050235644667,11.953153732284632,-3.3182796031791795,260.56845231622606,40.92052543179318
309,3.530941588121731,-260.0448816047622,-15.657979865613472,-39.16682768672576,12.408457339821041,-3.34281631172759,260.55842322798026,41.261594817550154
310,3.4966012674756906,-260.05160871743544,-15.601863959892471,-39.49160440562798,12.8316147359994,-3.3670869916724633,260.5609543333288,41.67282777956592
311,3.467361919064302,-260.07016768947636,-15.554155759934241,-39.89244221244214,13.219710644932894,-3.3911053899542667,260.57583164460095,42.15104330646485
312,3.4436959001185787,-260.1001424685926,-15.51543489735401,-40.365640127120024,13.570358937890072,-3.414856235658423,260.60268334140426,42.69188493882612
313,3.4259747452637312,-260.14097815216246,-15.486075106934559,-40.90622382325873,13.881728789047555,-3.4382960523544437,260.6409857047284,43.289870723872134
314,3.4144632992915924,-260.1919888764911,-15.466245473636768,-41.508009179516584,14.152563256663106,-3.461356773852946,260.6900710729036,43.93846695186987
315,3.4093161408127286,-260.2523673508377,-15.455919417482242,-42.16369079985646,14.382190087277367,-3.4839518945750916,260.7491379354264,44.630184187375626
316,3.4105764066536497,-260.32119592217117,-15.454890428309096,-42.86495371910113,14.570524571445066,-3.5059847103964548,260.8172629898133,45.35669361418205
317,3.418176989054112,-260.3974586861634,-15.462793160789518,-43.60260631665386,14.718064298039955,-3.527358073203342,260.8934145912294,46.10896154374579
318,3.4319440545797333,-260.4800538927275,-15.479128247265804,-44.366732488097476,14.825875706336477,-3.5479849911617007,260.97646674177827,46.87739999240722
319,3.4516028610205605,-260.56780594480654,-15.503289106361597,-45.146861108945295,14.89557243615172,-3.567799339363515,261.0652128108048,47.65203126692876
320,3.4767858430701133,-260.65947663924874,-15.53458912876094,-45.932150575076236,14.929285610765255,-3.5867658934635487,261.15837853168557,48.42266432258855
321,3.507042868956904,-260.75377573963334,-15.572287792840196,-46.7115857201496,14.929626348201733,-3.6048888800577825,261.25463426902644,49.179080270996835
322,3.541853431730004,-260.84937132238764,-15.615614384043806,-47.47418379365749,14.899640998526616,-3.6222182918981205,261.35260690563297,49.91122391887696
323,3.5806403313402817,-260.9449005401285,-15.663788136633249,-48.20920550782414,14.84275984163014,-3.638853358599591,261.45089190674287,50.60939768116701
324,3.6227841941373207,-261.03898150283806,-15.716033964553716,-48.9063664842967,14.76274019281569,-3.6549427607278786,261.54806619530535,51.26445366266979
325,3.6676380793118537,-261.13022689315,-15.771593539940215,-49.55604386065957,14.663604983823816,-3.6706813935042755,261.6427024253414,51.867979219438524
326,3.714541475201135,-261.2172597223985,-15.829732163919715,-50.14947247624725,14.549577903917465,-3.686303723169288,261.73338507681143,52.412471008852236
327,3.7628331098040357,-261.29873135659585,-15.88974242488871,-50.678925000905906,14.425016150551718,-3.702074030132894,261.8187285567284,52.891492484627236
328,3.8118620879813223,-261.3733416776639,-15.950945842336859,-51.137870575009956,14.294341800312534,-3.718274073575544,261.8973972447201,53.29980998177258
329,3.860996921628753,-261.43986104174,-16.012693498246275,-51.52110694109831,14.161972765058021,-3.7351889054700873,261.9681272100388,53.63350291533028
330,3.9096321246755537,-261.4971535327026,-16.074366263788345,-51.82486161711136,14.032254220184022,-3.753091658059733,262.02974914322164,53.89004412941906
331,3.9571922412926983,-261.54420084903285,-16.13537493012667,-52.04685835169619,13.909391287080451,-3.7722280849043286,262.08121187110487,54.068347044123854
332,4.003133401090363,-261.5801260318466,-16.19516049681496,-52.18634590562203,13.797383654832085,-3.792801461836769,262.12160569331127,54.16877696072264
333,4.046942690417253,-261.60421619592927,-16.253195006348612,-52.244087158306705,13.69996276567868,-3.8149582150512473,262.150184742714,54.193124750687645
334,4.088135809042365,-261.6159434511261,-16.30898346227926,-52.22230770951377,13.620532174041632,-3.8387744167232234,262.1663876090123,54.14454224189794
335,4.1262536630863655,-261.61498323752437,-16.362067339826783,-52.12460455190127,13.562111717541587,-3.864243135407451,262.16985550146796,54.027439948314516
336,4.160858678629668,-261.6012293250945,-16.412029935168462,-51.95581693717375,13.527286196080611,-3.8912625823083618,262.160447240375,53.847349276062666
337,4.191531633156105,-261.5748047791859,-16.458503457745632,-51.72186306394227,13.518159306932908,-3.9196250621557733,262.13825039725083,53.61075279500758
338,4.2178696801521856,-261.5360683015257,-16.501177552955664,-51.429547512724916,13.536313582031728,-3.949006906479044,262.1035879967585,53.32488741805202
339,4.239486050213952,-261.48561552242006,-16.53980886179835,-51.08634538707005,13.582776991369645,-3.978959789867144,262.05702035056544,52.99752631706972
340,4.256011715995728,-261.4242750057693,-16.57423113927706,-50.70016992624197,13.657996737315553,-4.0089040160012805,261.99934176913024,52.636746159128116
341,4.267099092080242,-261.35309888743717,-16.604365318809226,-50.27913097616026,13.761820638688485,-4.038124443153393,261.93157204206847,52.250686822118695
342,4.27242754563762,-261.27334817458757,-16.630228807937712,-49.831292158654506,13.893486473272777,-4.065769727558294,261.8549426707761,51.84731118495539
343,4.271710149309396,-261.1864727931361,-16.651943262186187,-49.36443488065268,14.051619765952859,-4.090855572489418,261.77087788523704,51.43417291974802
344,4.264700861729412,-261.09408653505477,-16.66974005164582,-48.88583746281576,14.23424078384089,-4.112272688411333,261.6809705317795,51.01820043546515
345,4.251201303568735,-260.9979372173855,-16.683962583903178,-48.40207754118239,14.4387819088141,-4.128800132278873,261.5869530708881,50.60550513192232
346,4.231066517483246,-260.89987263686857,-16.69506461264356,-47.918865343587385,14.662117048824705,-4.139124565748854,261.49066419330745,50.20122174948016
347,4.204209497822092,-260.80180317000196,-16.70360370997564,-47.44091437223038,14.90060520058444,-4.141865784686103,261.39401183527207,49.80938772271372
348,4.170604752687647,-260.7056620168152,-16.710229341710388,-46.97185451160311,15.15015050359656,-4.135608677348627,261.298933546602,49.432867087863116
349,4.1302915456665135,-260.6133641396461,-16.715665576074574,-46.514190833892215,15.406280957580693,-4.118941585566111,261.2073552647648,49.073322801205606
350,4.083377594903891,-260.52676497121627,-16.720689283111486,-46.069309605547375,15.664247337513487,-4.090500855308681,261.12114962796613,48.731239478304
351,4.030043869489577,-260.44761995783426,-16.7261054523465,-45.63753135013253,15.919142787597128,-4.049021143711049,261.04209499815937,48.40599671077871
352,3.9705508111376044,-260.3775459437548,-16.732721753027107,-45.21820936599463,16.166042265347755,-3.993390780180761,260.9718363280727,48.09599136999273
353,3.905245909272378,-260.3179853166613,-16.741324678927572,-44.809870864135824,16.400159640407075,-3.92271114444769,260.9118489222748,47.79880574983837
354,3.8345721665418946,-260.2701737536581,-16.752659596751048,-44.41039688637093,16.6170189967822,-3.836358609568989,260.86340604831236,47.5114170818714
355,3.7590767443215527,-260.2351123425486,-16.767416672464368,-44.017236370039186,16.81263562707003,-3.734047110788083,260.82755125954515,47.230442884035334
356,3.679419048360416,-260.2135448247335,-16.786223937389508,-43.62764909614451,16.983701375219354,-3.615888913243872,260.8050762163586,46.95241575123746
357,3.596377634859007,-260.20594070843447,-16.809647900015214,-43.23897168589102,17.127768404358953,-3.4824507905703945,260.79650474392525,46.67408048064236
358,3.510855434390037,-260.2124849149832,-16.838201421311958,-42.84890013254266,17.243425120940383,-3.334802673262377,260.80208373886126,46.39270569451268
359,3.423882777429806,-260.2330742932525,-16.872358052509718,-42.45578142775689,17.33045778062759,-3.1745558331845434,260.8217811787024,46.10640120880602
360,3.336617530000744,-260.26732081152477,-16.91257148315149,-42.05890565381304,17.38999113649231,-3.003887734181973,260.855290928762,45.81443124529136
361,3.2503414020478347,-260.31456077640297,-16.959298207673594,-41.65878864309399,17.42460137298553,-2.8255507642336566,260.90204354827455,45.51751236389815
362,3.166451324230971,-260.37386924443695,-17.013021258222803,-41.25743426168983,17.4383946013643,-2.642862228649958,260.96122209808755,45.218084025749484
363,3.0864447881516095,-260.4440788508101,-17.07427297082747,-40.8585648885127,17.43704448266119,-2.45967328838646,261.03178201919127,44.92053933613369
364,3.011898190103403,-260.52380242553977,-17.1436551195864,-40.4678089992674,17.42778317188932,-2.2803149675131213,261.11247432295727,44.631404030068104
365,2.944437460255388,-260.6114589154275,-17.22185519602227,-40.092836013518756,17.41934078318034,-2.1095198833464637,261.20187151449204,44.359453240965614
366,2.8857006277163455,-260.70530229119794,-17.309658004817415,-39.743430568211004,17.421829936306654,-1.9523189687496982,261.2983958647101,44.11575788262657
367,2.8372925584267645,-260.80345332518004,-17.407952070811795,-39.43150082128064,17.446573561165003,-1.8139132116302292,261.4003498852346,43.91365524734053
368,2.800732902261827,-260.90393437052654,-17.517730675894747,-39.171017925056134,17.505875862059867,-1.6995213522029078,261.5059491418534,43.76864131126869
369,2.7773991070305315,-261.00470750390207,-17.640087678152366,-38.977886166337164,17.612738050619228,-1.6142054860423687,261.6133578100715,43.698184935440466
370,2.76846694967246,-261.1037165206647,-17.776208496764657,-38.86974524956828,17.780522097649758,-1.5626775312384067,261.7207275302644,43.721466451754026
371,2.7748512816907143,-261.19893321817375,-17.927356682376523,-38.86570768050177,18.022567344996503,-1.5490904960432716,261.8262400758688,43.859044926526906
372,2.797149639709993,-261.2884081607617,-18.094856362010855,-38.98603515977607,18.351766371730214,-1.576819412912735,261.92815410042743,44.1324596813992
373,2.835591163518354,-261.3703257552385,-18.280070633589837,-39.25175837679305,18.780108027300038,-1.6482376411187327,262.02485585150873,44.56377247817655
374,2.889993042258891,-261.4430630498608,-18.48437576793649,-39.68424472760834,19.31819705329121,-1.7644949617996815,262.1149133100488,45.17505726753694
375,2.959726617591098,-261.50525119653247,-18.70913095603317,-40.30471844591328,19.97476128886797,-1.925304564838205,262.19713273534825,45.987844768850955
376,3.043695348938828,-261.5558379067666,-18.955643420533203,-41.13373767492991,20.75615921344063,-2.1287467780093134,262.27061599846303,47.022529679231184
377,3.140326904883937,-261.59414844377847,-19.225129051139568,-42.190633399374455,21.665902592714637,-2.3710982568260563,262.33481633090963,48.2977492961427
378,3.2475813537463343,-261.6199418206148,-19.51866933984432,-43.49291616749398,22.704211076168047,-2.6466961792951107,262.3895892952284,49.82974392961754
379,3.3629766208462355,-261.63345813032004,-19.83716623085064,-45.05565841236745,23.867617217161303,-2.94784744222308,262.4352351055587,51.63171166657943
380,3.4836312784122914,-261.63545254527816,-20.181297358823848,-46.89086319696383,25.148640919531317,-3.2647926161882137,262.472528100127,53.71317283706577
381,3.6063237367500873,-261.6272116524782,-20.55147471612553,-49.00683453421574,26.53555145048107,-3.5857333575402124,262.5027293337186,56.07936301366923
382,3.7275661863785423,-261.6105485058852,-20.947809818906688,-51.40756978576624,28.012233094643513,-3.896930180243197,262.5275789655772,58.73067740497632
383,3.8436910252473866,-261.58777400425873,-21.37008791963581,-54.09220001447024,29.55816763222307,-4.182875102250791,262.54926629418156,61.66219329780184
384,3.9509467569821815,-261.56164372894557,-21.817753011386326,-57.054508161121305,31.148543203669394,-4.4265407511362485,262.57037674128236,64.86329950717464
385,4.045599504435828,-261.5352809504163,-22.28990467323888,-60.28255650818228,32.75449462281796,-4.609704038166351,262.5938165907502,68.3174616132512
386,4.12403565442155,-261.51207796980407,-22.785307396605088,-63.758453900508066,34.34347487744161,-4.713338640420781,262.6227176926901,72.0021489466565
387,4.182861021866371,-261.4955792368766,-23.302412769977167,-67.45829009011167,35.87975188222444,-4.718066683235566,262.66032557706995,75.88894439666952
388,4.2189923657978685,-261.48935075188774,-23.83939450723132,-71.35225993792724,37.32501909486819,-4.604656729080163,262.7098754396511,79.94385187175065
389,4.229737979266812,-261.49684109794083,-24.39419556258069,-75.40499435301035,38.639103727482876,-4.354552880350425,262.7744612329387,84.12780909701232
390,4.212865179570025,-261.52124004541713,-24.964585488188135,-79.57610784355735,39.78075219182519,-3.9504186888894437,262.8569035979923,88.39740563789955
391,4.166653602496898,-261.5653409622101,-25.548225127037178,-83.82096441389312,40.70846934992688,-3.376679614140167,262.95962257979795,92.70579783608353
392,4.089934089502718,-261.631413132862,-26.142735186957925,-88.09165440362194,41.38138636138524,-2.620048806691624,263.0845208982968,97.00380404709122
393,3.9821136075909815,-261.72108942811366,-26.74576529043215,-92.33816506743266,41.76013158087253,-1.670022753612447,263.2328828919386,101.24115554991327
394,3.843187130299714,-261.83527358971,-27.35506035190734,-96.5097178014509,41.8076800557293,-0.5193355340469856,263.4052930881467,105.36787116816662
395,3.673737836639533,-261.97406987147593,-27.96852130636679,-100.55623569688731,41.49015954429337,0.8356371523809022,263.6015768296137,109.33571745466915
396,3.47492737323525,-262.1367361370955,-28.584257429666177,-104.4298974285076,40.77759433216901,2.3945306322587045,263.820763746569,113.09971173886045
397,3.2484782126548564,-262.3216599536596,-29.200628043788342,-108.08672822575232,39.644572062238666,4.152704869564805,264.06107334176306,116.61962288754225
398,2.9966502967858677,-262.52635589822154,-29.816272359862314,-111.4881764331037,38.070822858556774,6.101021577769646,264.3199207144501,119.86142458534592
399,2.7222141908952118,-262.7474813476092,-30.43012734286422,-114.6026250781073,36.04170383822838,8.22568611419139,264.59393960093416,122.79865830137835
400,2.428422848078298,-262.98086750566983,-31.041434443411802,-117.40679156273119,33.54858546285847,10.508154649620776,264.87901947047754,125.41366754044408
401,2.118983721480653,-263.2215623127272,-31.649736611383936,-119.88697435839028,30.58913899874924,12.92510667007722,265.17035333809366,127.6986708826951
402,1.798032407657237,-263.46388214862844,-32.25486714366336,-122.04011256124801,27.167526593562247,15.448482666570133,265.4624932062014,129.6566479561348
403,1.4701084083580411,-263.70146983330847,-32.8569317674487,-123.87463154625767,23.294497157323022,18.045586820585413,265.74941059336476,131.3020191534982
404,1.140133037665804,-263.9273572016818,-33.456285204760256,-125.41105510260527,18.98739247838645,20.679254547386265,266.02456033937835,132.6611060500561
405,0.8133889236218841,-264.1340312934734,-34.05350352183435,-126.68237091032249,14.270068987998593,23.308084899594157,266.28094662982113,133.77236476360383
406,0.4954999035695003,-264.3135038558204,-34.64935377686662,-127.73414186418687,9.172741443791857,25.886738080412286,266.51119085601914,134.68638883106567
407,0.19240944883448982,-264.4573843973501,-35.24476257420421,-128.62436067478944,3.7317555460098037,28.366298700567523,266.7076014765234,135.4656817118217
408,-0.08964479720076284,-264.5569574115397,-35.84078493691324,-129.42304961795952,-2.0107029733462944,30.694705914555865,266.8622464073616,136.18420203102522
409,-0.34416315084623517,-264.6032645191759,-36.43857446607823,-130.21161143873684,-8.006955066397435,32.81725206974067,266.96702856118736,136.9266873428067
410,-0.5644256637430284,-264.5871921794767,-37.03935518537474,-131.08194128458098,-14.204223379905812,34.67715181781251,267.0137650098535,137.7877645990322
411,-0.7435465306878158,-264.4995654476326,-37.64439483533124,-132.13531310226546,-20.54506863685382,36.216183626603176,266.99427002837666,138.8708576774355
412,-0.8745438943908302,-264.331248162428,-38.254978710959165,-133.48105713614575,-26.96786146164161,37.375405207895554,266.9004421427969,140.28690430000862
413,-0.9504272948125275,-264.0732499233717,-38.87238252406059,-135.235048010636,-33.4072852746017,38.095943501332826,266.7243552554728,142.15289657329356
414,-0.9643042189221454,-263.71684018585063,-39.497842429800684,-137.51802541489124,-39.794868119327816,38.3198585266852,266.458353912,144.5902613740594
415,-0.9095062131596542,-263.2536697818476,-40.132520499340096,-140.45377169188723,-46.0595440914844,37.9910786650163,266.09515284955074,147.7230990183561
416,-0.779733921704458,-262.6759002107602,-40.77746455026411,-144.167172723978,-52.128247986345,37.056402751064354,265.62794117397266,151.6763011226829
417,-0.5692193252594155,-261.97634104545375,-41.433562120276754,-148.7821904721459,-57.92654931579313,35.46656170887196,265.0504917229854,156.5735712515549
418,-0.27290245812785013,-261.148595567256,-42.101489176519415,-154.41977739570365,-63.37933347514224,33.17732931335433,264.35727614495903,162.53537473153557
419,0.11338103958317101,-260.187214181838,-42.78165470403791,-161.19576462160015,-68.41153823173455,30.15066806618026,263.5435858299798,169.67684664283817
420,0.5927060609443595,-259.087854324641,-43.474142601192824,-169.21875683445015,-72.94895271295754,26.355892295632515,262.60565811664856,178.1056890932767
421,1.1668631906234301,-257.84744453534114,-44.17865242903819,-178.58806709166083,-76.9190837681879,21.770826680808597,261.54080627162324,187.92009010366726
422,1.836168854113737,-256.46434928438464,-44.894440657244026,-189.39172400824268,-80.25209125194709,16.382934758613562,260.34755073603566,199.20669670450053
423,2.599286900557214,-254.93853015181313,-45.62026426959477,-201.7045821670558,-82.88178981198747,10.190388878466837,259.02574825477154,212.03867436392147
424,3.453068403616954,-253.27169823955325,-46.354329003611134,-215.58656454286972,-84.74671053294828,3.2030507385967844,257.5767149088654,226.47388398860218
425,4.3924167004786865,-251.46745220442392,-47.09424499696573,-231.08106354216872,-85.79121155230017,-4.556669802933106,256.00333869943915,242.55320677263217
426,5.410184777518239,-249.53139585827955,-47.83699302476418,-248.2135252247185,-85.96662269709869,-13.05311043233568,254.31017698053392,260.29904629839064
427,6.49711197069438,-247.47122882785933,-48.57890474749976,-266.9902395574521,-85.23240541245842,-22.236838873286718,252.5035336231544,279.71403659522264
428,7.641806553239767,-245.29680341871162,-49.315660415768356,-287.3973582026287,-83.5573058808703,-32.04435291607569,250.5915104216231,300.7799843056341
429,8.830780213115522,-243.02014073464935,-50.042307251470575,-309.4001602512061,-80.9204762953085,-42.39802621888784,248.58402706429422,323.4570725065364
430,10.048539772846521,-240.65539936255053,-50.75330123068385,-332.9425852589986,-77.3125366298858,-53.206324674363835,246.49280407488345,347.68335276764356
431,11.277740737726184,-238.21879065119833,-51.44257421208386,-357.94705168784344,-72.73654680167893,-64.36431381906954,244.33130358987242,373.3745503796273
432,12.499406128788436,-235.7284358845412,-52.10362720353955,-384.3145771905154,-67.20885687189003,-75.75447264747906,242.11462374256803,400.42420513780075
433,13.693212186369525,-233.20416242954786,-52.7296490349688,-411.9252149474565,-60.759801188518736,-87.24782336489423,239.8593437260999,428.7041665434526
434,14.837839719964657,-230.66723809283658,-53.313658049315165,-440.638817342385,-53.4342015831103,-98.7053801549013,237.58331821651012,458.0654577848655
435,15.911386415207255,-228.14004536738668,-53.84866296333214,-470.2961345305925,-45.291645397581725,-109.97991294895995,235.30542173511972,488.33951737789107
436,16.891831881253005,-225.6456999398693,-54.32783791571006,-500.720250777808,-36.40650669000052,-120.91801436618562,233.0452456947711,519.3398208338236
437,17.757544042852825,-223.20762062551512,-54.74470583690113,-531.7183557389841,-26.867683761337183,-131.3624493168562,230.82275316938706,550.8638771323443
438,18.487812758004353,-220.84906060073524,-55.09332356442058,-563.0838411162628,-16.778033162516657,-141.15475721487257,228.65789865453849,582.6955861210308
439,19.06339433789955,-218.59261225544276,-55.36846161224529,-594.5987055175201,-6.253489193070826,-150.1380664657036,226.57022211984912,614.6079333436733
440,19.46704910773044,-216.45970006725284,-55.56577126886178,-626.0362420722573,4.578132060622024,-158.16007020235506,224.5784284194043,646.3659884399815
441,19.68405341627476,-214.47007744309172,-55.68193185565218,-657.1639747454122,15.57863456874212,-165.0761017370783,222.69996451643786,677.7301625301185
442,19.702667666339238,-212.64134432244853,-55.71477165265935,-687.7468005880817,26.601230137808688,-170.75223897672817,220.95060789992638,708.4596694059421
443,19.51454304579393,-210.98850248932462,-55.66335727710181,-717.5502866155663,37.492582589709784,-175.06836045419726,219.34408006890555,738.3161254733379
444,19.115051656782903,-209.52356512021487,-55.528048142551704,-746.3440620112375,48.09507049788268,-177.92107232709523,217.89169915778572,767.067214835513
445,18.50352748479499,-208.2552361471506,-55.31051486488849,-773.9052396612741,58.249224148777664,-179.22642526594964,216.60208566150868,794.490339381253
446,17.683408829555432,-207.1886734179502,-55.0137228412522,-800.0217965153751,67.79628832711782,-178.92234202347652,215.4809345736685,820.3761700605846
447,16.662276194738315,-206.32534724130034,-54.6418843705929,-824.4958405330517,76.5808610678101,-176.9706808292261,214.5308658041657,844.532015363155
448,15.451783110726582,-205.66300270732316,-54.20038434432146,-847.1466931105496,84.45355891678149,-173.3588670194679,213.75136239780883,866.7849265229224
449,14.067480934111146,-205.19573034497634,-53.69568564489468,-867.813719628988,91.27366013834722,-168.1010352808874,213.1388029651242,886.9844657371817
450,12.528542259187406,-204.91414547250218,-53.13522098861492,-886.3588466639898,96.91167768906995,-161.23863680923225,212.68659110186385,905.005072952336
451,10.857391021738923,-204.8056723016145,-52.52727802164717,-902.6687118578739,101.25181347619905,-152.8404788264118,212.38538065889682,920.7479776860762
452,9.079250499457972,-204.854924757895,-51.88088395395327,-916.6564008527866,104.19424489961257,-143.00217765856152,212.2233917658874,934.1426141319197
453,7.2216231127871415,-205.04417225403975,-51.20569487822265,-928.2627345402469,105.65719468684757,-131.8450203239203,212.18680866903208,945.1475098142689
454,5.313718138190516,-205.35387527010656,-50.511893265697914,-937.4570789461837,105.57873637660346,-119.51424276817244,212.26024671874987,953.7506299790139
455,3.3858450335522,-205.7632724812846,-49.810095124322736,-944.2376591986183,103.91829120117681,-106.1767455476001,212.42727222031385,959.969171594102
456,1.4687908008868686,-206.25099849705057,-49.11126610537402,-948.631368003418,100.65777800010619,-92.01828090692379,212.6709555581496,963.8488122610742
457,-0.40680053724477083,-206.79570949749953,-48.42664360021478,-950.6930675661022,95.8023859637736,-77.24016023406494,212.97443552890465,965.4624303590086
458,-2.2110296080541376,-207.37669362865412,-47.76765981400993,-950.5043918063524,89.38094920744754,-62.05554788648517,213.3214716920244,964.9083230422177
459,-3.915309683190229,-207.97444404084987,-47.145859288429044,-948.1720633767424,81.44591041924718,-46.6854240902641,213.69696196128325,962.3079580272373
460,-5.492888285389404,-208.57117462840608,-46.57280370046977,-943.8257481275924,72.07286670955723,-31.354312712568458,214.08740442132742,957.8033034986745
461,-6.91931189668682,-209.1512615180352,-46.05995717843684,-937.6154787888588,61.35969468142886,-16.285877327857772,214.48128518880108,951.553788329235
462,-8.172825629541274,-209.70159705686268,-45.61854685823672,-929.7086898525743,49.42525547970657,-1.6984915120486834,214.86937796377669,943.732952607148
463,-9.234702302283504,-210.21184743065993,-45.259395706925744,-920.2869166336927,36.40768613716413,12.19911170551275,215.24494564667603,934.5248563936627
464,-10.089498067470535,-210.6746097747013,-44.99272727802217,-909.5422225029396,22.462291988088307,25.212009180603623,215.6038395985612,924.1203222609329
465,-10.725234343475126,-211.08546919311468,-44.827944580604395,-897.6734279737839,7.759066204259499,37.162977385351795,215.94449716478584,912.7130932563948
466,-11.133507949326553,-211.44296015818148,-44.77338748391037,-884.8822221042645,-7.520124252469367,47.896008423468224,216.267842594422,900.4959909302045
467,-11.309532856793766,-211.74844027095074,-44.83607512212405,-871.3692394732856,-23.184633026959848,57.279364007989955,216.5771004278744,887.6571568868773
468,-11.252118052335215,-212.00588723515153,-45.02144169938557,-857.3301847055889,-39.03834257337216,65.20808757508482,216.877533726412,874.3764559537175
469,-10.963586937987143,-212.22163192245438,-45.33307589805256,-842.9520819344533,-54.88310825662116,71.60590661462993,217.17612198190284,860.8221104339428
470,-10.44964447290259,-212.40404148700222,-45.77247566837588,-828.4097201346113,-70.52225223963485,76.42647251839345,217.48119504050226,847.1476246574416
471,-9.719198654931905,-212.56316666003494,-46.33883143876751,-813.8623587506457,-85.76401687422711,79.65390317730925,217.80203989766864,833.4890491938074
472,-8.784142890560798,-212.71036669157346,-47.028851623908885,-799.450753236667,-100.42488755822009,81.30261349860486,218.14849680784738,819.9626266154661
473,-7.65910535807334,-212.85792402496625,-47.83664448935076,-785.2945580297603,-114.33269958148159,81.41644030101718,218.5305598672553,806.662856793685
474,-6.361170731437978,-213.01865894789304,-48.75366964377317,-771.490164974486,-127.32945186774673,80.06708995496355,218.9579952596113,793.6610193429096
475,-4.909578794918035,-213.20555253495104,-49.76877047519241,-758.1090371166551,-139.27376190710245,77.3519587107761,219.43998803481688,781.004192781884
476,-3.3254037522685476,-213.43138450134387,-50.868295694212875,-745.1965991982653,-150.04290955292404,73.39139565922062,219.98482593767443,768.7148121998857
477,-1.6312174549364886,-213.70839120212656,-52.036313839375715,-732.7717447944315,-159.53443170271478,68.32549528423226,220.59962651045296,756.7908071569848
478,0.14926074633365002,-214.04794785388944,-53.254919342372624,-720.8270134385987,-167.66724427922927,62.310519326475884,221.2901114129421,745.2063565957841
479,1.991525237238027,-214.46027813946316,-54.5046231073998,-709.3294773844503,-174.3822816709663,55.51505535933025,222.0604297422154,733.913285675316
480,3.8706542712574037,-214.95419377858158,-55.764815293075515,-698.2223560889139,-179.64265650677484,48.116021850423806,222.91303031923826,722.843109892876
481,5.761686436274562,-215.53686636593997,-57.01428365934043,-687.4273478032997,-183.43335431268454,40.294626849322825,223.8485815082253,711.9097054626926
482,7.640000116052397,-216.21363366509092,-58.23176772267292,-676.8476340066042,-185.76048841743216,32.23238056314738,224.86593609500744,701.0125539512921
483,9.481691581340908,-216.98784260172621,-59.39652721463243,-666.3714770512053,-186.65015059004665,24.107252038126756,225.96213813935412,690.0404768871111
484,11.263946204720353,-217.86073143860432,-60.48890305019182,-655.8762980632503,-186.14690226094194,16.090048163950293,227.1324686034924,678.8757460833433
485,12.965396089575325,-218.83135382731115,-61.490850071312174,-645.2330944744016,-184.31195951003158,8.34108037348814,228.3705267484063,667.3984311064529
486,14.56645621494759,-219.89654729893522,-62.38642296406189,-634.3110375044407,-181.22113184159687,1.0071716290555672,229.66834443567288,655.4908293215648
487,16.049630212978915,-221.05094816412776,-63.16219967201477,-622.9820813028169,-176.96257960453016,-5.780955702212663,231.01653042352254,643.0418178128888
488,17.399776346562135,-222.2870539052451,-63.80763006078282,-611.1254177235389,-171.63445735240737,-11.91088106331202,232.4044416014038,629.9509704794671
489,18.60432429803092,-223.5953331779715,-64.31530118778328,-598.6316228088165,-165.34251025895236,-17.290254727748188,233.82037799410404,616.1322966709396
490,19.653434067000866,-224.96438257257554,-64.68111397476368,-585.4063608181385,-158.19768797024034,-21.848120137322226,235.25179827408007,601.5174777748218
491,20.540089615040632,-226.38112825056393,-64.90436916353443,-571.3735364077162,-150.31383538047874,-25.535780274837833,236.68555233924116,586.0585027343282
492,21.26012191820394,-227.83106939383876,-64.98776307031746,-556.4778127737987,-141.80551343879443,-28.327203023720596,238.1081271591718,569.7296302393722
493,21.81215883471433,-229.29855910113756,-64.93729583585274,-540.6864410619836,-132.78599592252183,-30.21896433887321,239.5059015973717,552.5286323512887
494,22.197502595198216,-230.76711707576004,-64.76209666087033,-523.9903725672996,-123.36548054629066,-31.22973205732616,240.86540542501143,534.4773001770337
495,22.419939502840904,-232.2197673359044,-64.47417204725006,-506.4046493992016,-113.64954484223821,-31.399297765269484,242.17357741654695,515.6212161259665
496,22.48549016671415,-233.6393933249987,-64.08808454458296,-487.9680912280033,-103.73786881417533,-30.78716975098149,243.41801734261526,496.0288191156868
497,22.402111867232954,-235.0091021684805,-63.620571194084405,-468.7423157256409,-93.7232374516925,-29.47074706528831,244.58722683811393,475.7898091067865
498,22.179367170987366,-236.31258937853218,-63.090112848139746,-448.8101486341076,-83.69082709046363,-27.543103232874397,245.67083447364314,455.0129558459673
499,21.828074499580772,-237.53449513926734,-62.51646747860168,-428.2734960198763,-73.71777079208276,-25.110418066746465,246.6598008679132,433.8233936975278
500,21.35995688799437,-238.66074353600408,-61.9201819000682,-407.25076580037694,-63.87298978930973,-22.28910688046083,247.5466003027263,412.35949952434026
501,20.787304515389252,-239.67885665383216,-61.32209673343407,-385.8739373197298,-54.217270836513535,-19.202707437302326,248.32537589571862,390.7694629128815
502,20.122664735070916,-240.57823614441932,-60.742859052189054,-364.2853856398902,-44.80356320523485,-15.978595314515596,248.99206579103662,369.2076665286896
503,19.37857051295919,-241.35040558785442,-60.202456225990524,-342.6345703368754,-35.677464269674054,-12.744607119186925,249.54449808815255,347.83099794980905
504,18.56731485831492,-241.98920791737712,-59.71978307909237,-321.07469631247193,-26.87785920752777,-9.625657544437509,249.98245256372198,326.79521220950534
505,17.700775418649933,-242.49095342065328,-59.312252601295526,-299.75944639824337,-18.43767810893782,-6.74044025563323,250.3076877704744,306.2514563358198
506,16.790290140165084,-242.854515271222,-58.99545817059714,-278.8398729492456,-10.384732419382487,-4.198303837535633,250.52393274833133,286.3430539399143
507,15.84658186050748,-243.08137104682842,-58.782892793872755,-258.46151933290855,-2.742591963150464,-2.096392304629442,250.6368432843452,267.2026304997935
508,14.879727007050091,-243.1755902230045,-58.685728500240955,-238.76182359702514,4.46853611066343,-0.5171347532510483,250.65392343606314,248.94963986758773
509,13.899161374771628,-243.14376913811807,-58.71265693173907,-219.8678370715716,11.230964010508302,0.473839552874343,250.58441388574536,231.68833126112733
510,12.913714431843502,-242.9949162640418,-58.86979052846278,-201.8942716971335,17.52875085652044,0.8292960353625988,250.4391495213424,215.50617521457124
511,11.93166289344012,-242.74029162613007,-59.16062262977957,-184.94187307721285,23.347032847120218,0.5214497560746626,250.23038932599349,200.47274835175253
512,10.960794373993874,-242.3932048139032,-59.586044302382994,-169.0961031723834,28.671483297948086,-0.45755199923144163,249.97162211384352,186.63906193325056
513,10.008472508210454,-241.96877622392304,-60.14441548881954,-154.4261083036824,33.48792466396104,-2.095732855500089,249.6773518090851,174.03730887269285
514,9.08169575727901,-241.48366606622415,-60.83168768353837,-140.98394509188057,37.78210908640574,-4.361969587141375,249.36286578711778,162.68099846050373
515,8.187143122997137,-240.95577536095698,-61.64157442898601,-128.8040387434086,41.53967814028929,-7.207227009673741,249.04398930576403,152.5654467175185
516,7.331201249995297,-240.4039227883341,-62.565764479126585,-117.90285372813801,44.74630628511979,-10.566300273995836,248.73682838537184,143.66859189661932
517,6.51996895102806,-239.84750099651987,-63.59417085169869,-108.27876509301463,47.38802588467051,-14.360002331075107,248.45750289146278,135.95210767802368
518,5.759236979910143,-239.30611596922762,-64.71520765830776,-99.91212805306218,49.45172429643742,-18.497719795070303,248.22187128369652,129.36278960286424
519,5.054442759559204,-238.79921339685592,-65.91608585618742,-92.76555272931174,50.92579522834317,-22.880248903278872,248.04524866630848,123.83419193818071
520,4.410601597442827,-238.3456967084824,-67.18311888829075,-86.78439860801699,51.80091739258586,-27.402815292009986,247.9421204225303,119.28849138398958
521,3.8322175486208314,-237.96354246295914,-68.50202942608163,-81.89750824167226,52.07092398625243,-31.95817723860129,247.92585476232176,115.63855022399937
522,3.32317838677065,-237.66942000997562,-69.85824905723324,-78.01820091901692,51.733717672119475,-36.43971188503984,248.00841880355438,112.79014482467883
523,2.8866400171577173,-237.47832344002484,-71.23720378281514,-75.04554387586424,50.79217870633112,-40.74438746326503,248.20010408676137,110.64431672620682
524,2.524906119129817,-237.4032245624848,-72.62457953660271,-72.86591102154094,49.25500973614066,-44.77553120459966,248.50926841076125,109.09979449679355
525,2.239309010703994,-237.4547558894104,-74.00656345949395,-71.35482778787336,47.13746030637841,-48.445311909612656,248.94210144830464,108.05542689620071
526,2.030097905600273,-237.64093250025738,-75.37005819343032,-70.37908690206197,44.461877565344814,-51.67686765321764,249.50242185535026,107.41256338261412
527,1.8963409287828854,-237.96692139646512,-76.70286786497253,-69.79910519887471,41.258036871666185,-54.40602254048218,250.19151365822947,107.07731758326473
528,1.835847317265401,-238.4348665465336,-77.99385559355893,-69.47147735744683,37.563216382803994,-56.582551563884245,251.0080095770072,106.96265310249282
529,1.8451160214194449,-239.04377716339596,-79.23307315718617,-69.25166960392094,33.42199247737279,-58.17096897122054,251.94782847845082,106.99023826749006
530,1.919316426148097,-239.78948572765782,-80.41186371910634,-68.99678556014553,28.88574728092144,-59.15083243734514,253.0041731858963,107.0920260643553
531,2.0523061428247615,-240.66468080049228,-81.5229381786277,-68.56832799496677,24.01189485024252,-59.516572068404706,254.16759331099664,107.21152655609899
532,2.2366897591553796,-241.65901774606814,-82.56042492857014,-67.8348746952813,18.862847682280666,-59.27686936078328,255.42611565434905,107.30475058256835
533,2.463921062552445,-242.75930816969696,-83.51989200073918,-66.67458446049882,13.50475882497621,-58.453626273136045,256.76544224076355,107.34081472940858
534,2.7244495654262035,-243.9497863080263,-84.39834018302463,-64.9774507335987,8.006085691900385,-57.08057803355797,258.16921347362455,107.30220786922953
535,3.0079101657534597,-245.2124479370412,-85.19416589459746,-62.64722593636628,2.4360289036663163,-55.20161451450894,259.61933142463124,107.18472885332052
536,3.3033525839653484,-246.52745470749733,-85.9070933362725,-59.60294929436997,-3.137096983367475,-52.868883232080286,261.09633600518885,106.99711331703669
537,3.5995050149493055,-247.87359421474127,-86.53807646123715,-55.78002453511662,-8.647503543268856,-50.14075173864137,262.57982465163605,106.76037527999824
538,3.8850643552586677,-249.22878358346236,-87.08917240649924,-51.13081058605321,-14.033523719647935,-47.07970824810465,264.04890413940336,106.50689632779107
539,4.1490034932973785,-250.570602030212,-87.56338907102959,-45.62470725470165,-19.23910966640397,-43.750276938228495,265.48266130414873,106.27930140615861
540,4.380884612369324,-251.8768360326841,-87.96451055785893,-39.24773768086815,-24.215184590761826,-40.21701880535043,266.8606380605447,106.12916507798025
541,4.571166422060225,-253.1260196824654,-88.29690532869655,-32.00164898315829,-28.920804755711565,-36.54268056015031,268.1632954916288,106.11559478485262
542,4.711492850586005,-254.29795268438676,-88.56532317188423,-23.902571157959933,-33.32409337437257,-32.78654333670039,269.3724520928675,106.30373776663652
543,4.794951088374018,-255.37417925153875,-88.77468825380537,-14.979291613872801,-37.40291472985256,-29.003010598634198,270.471682396742,106.76325592979843
544,4.816287949133441,-256.33841269787064,-88.92989623426288,-5.271218652835345,-41.145264807170534,-25.240461389460705,271.44666393189425,107.5668085883615
545,4.772075159400163,-257.176892750405,-89.03562337387174,5.1738787450165935,-44.549364227377396,-21.540381944088583,272.28546259418124,108.78857693424513
546,4.660816223534378,-257.8786654306135,-89.0961547849427,16.302256497067358,-47.6234501734875,-17.936776628662965,272.9787489805321,110.5028563363403
547,4.482989853240356,-258.43577871280365,-89.11523786689429,28.056601634667558,-50.385275783219555,-14.455849011752683,273.5199411125159,112.78273335263789
548,4.241027589213887,-258.8433909225672,-89.09596592903783,40.37835390076135,-52.86133738290411,-11.115936069188262,273.90527225802043,115.69885461078813
549,3.939226111699249,-259.0997927468186,-89.04069610941478,53.209843297672464,-55.0858609641673,-7.927673200623803,274.1337860363855,119.31828592641044
550,3.583597644715436,-259.20634741960384,-88.95100470345695,66.49615595925819,-57.099588399028,-4.894364714902464,274.2072642309347,123.70345348847957
551,3.1816645707956686,-259.16735675561637,-88.82768169653266,80.18665729676576,-58.94841022371373,-2.0125333063938915,274.13009530361495,128.91115532174004
552,2.74220675967131,-258.9898630370357,-88.6707646499408,94.2361211003593,-60.681895043847256,0.7273778757537077,273.9090933246257,134.99163057672985
553,2.274972195858471,-258.6833983364777,-88.47961021836885,108.60543461828962,-62.35176583368848,3.34017640787445,273.55327794499505,141.9876761527587
554,1.7903632701017311,-258.25969375841703,-88.25299960042301,123.26187130915142,-64.01037104175933,5.8449902416062605,273.07362627031364,149.9338042208468
555,1.2991123595722527,-257.73236133074573,-87.98927242928723,138.17894395575553,-65.70919401208134,8.264260319209784,272.48280715490677,158.8554398131001
556,0.8119607206614988,-257.1165608886691,-87.68648237433878,153.33587031402266,-67.49743826568562,10.622679737634398,271.79490765298283,168.7681641589169
557,0.3393541074145871,-256.4286633230008,-87.34256717750674,168.71670070445126,-69.42071911894662,12.946102163279042,271.0251602357942,179.67701618415379
558,-0.10883296035893843,-255.68592012526733,-86.95552579923536,184.30917117459532,-71.51988461202599,15.260441721572406,270.1896779677721,191.57587080950566
559,-0.5235344741730792,-254.90614741791885,-86.52359554284621,200.1033562662105,-73.82998174530793,17.590586642629358,269.3052032155894,204.44691765987466
560,-0.8966844496514096,-254.10743078207892,-86.04542234517147,216.09020128521766,-76.37937851324835,19.95934930271339,268.3888737716511,218.2602668557467
561,-1.2213580164436357,-253.30785527040658,-85.52021788397344,232.26001490893117,-79.18904861574417,22.38647557091476,267.4580085915062,232.97370920146898
562,-1.4918601137976197,-252.52526302747182,-84.9478978029989,248.60099921189018,-82.27202376739046,24.887736254880206,266.529913695591,248.5326561987307
563,-1.7037625440361774,-251.77703900139346,-84.32919616909088,265.0978866530594,-85.63301753437356,27.474122817142952,265.6217072255043,264.87028126464384
564,-1.853892904418886,-251.07992349181168,-83.66575215500193,281.7307434881101,-89.26822386779754,30.151168413271336,264.7501613042955,281.9078779891054
565,-1.9402816174189221,-250.44984894410126,-82.96016575522081,298.4739876309407,-93.16529244901169,32.91841374512641,263.9315573722673,299.5554449173785
566,-1.9620756505971504,-249.90179761786055,-82.21602001937536,315.29565712180334,-97.30348147738255,35.769035224392375,263.1815511634987,317.71249980185394
567,-1.919429216596542,-249.44967657530432,-81.43786795025116,332.1569537384041,-101.65398677288847,38.689650343653824,262.5150435294322,336.26912001685406
568,-1.8133824482443572,-249.1062067611617,-80.63118311317183,349.0120752932639,-106.18044412464907,41.66031170634831,261.9460538990082,355.10720008245863
569,-1.6457385841212318,-248.88282355937454,-79.80227425455205,365.8083399034188,-110.83959944784503,44.654696735331754,261.4875941229966,374.101911875951
570,-1.4189486634879132,-248.7895868575987,-78.95816570125511,382.48659599816006,-115.58213807434063,47.640494749864935,261.1515415064327,393.12334788004034
571,-1.1360104227010976,-248.8350991983324,-78.10644683892146,398.9819030508149,-120.35366008401583,50.579987128292146,260.9485108140058,412.0383225607678
572,-0.8003853747491273,-249.02643110359145,-77.25509552621462,415.22445989076357,-125.09578301187804,53.43080999089097,260.8877259886985,430.71230155398166
573,-0.41593527577110967,-249.36905320291072,-76.41228187898757,431.14074977723527,-129.74734697107877,56.14688262913583,260.9768933195712,449.01142267103694
574,0.013123313774861584,-249.8667752838405,-75.58616016631774,446.6548641773087,-134.24569102640555,58.67947919278439,261.2220786534277,466.80456700961236
575,0.48224955901383487,-250.52169271680916,-74.78465718831919,461.68996073882636,-138.52796459433355,60.97841628983229,261.6275917362239,483.9654333144857
576,0.9865983472655924,-251.33414102954123,-74.01526540630519,476.1698057904095,-142.53243470461382,62.99332538556853,262.1958810168415,500.37456495525913
577,1.5210347939015694,-252.3026600140796,-73.28484860162277,490.0203481903386,-146.19974961236764,64.67497635607099,262.92744263485366,515.9212769894339
578,2.0801486876951434,-253.4239697224224,-72.59946715900311,503.1712697401315,-149.47412135049075,65.97661744593107,263.8207479952906,530.5054310237281
579,2.6582744818842112,-254.6929618170136,-71.96422908847791,515.5574580414442,-152.30439382412746,66.85529734382725,264.87219506427436,544.0390082261639
580,3.249522267537452,-256.10271068091697,-71.38317147982607,527.1203509900071,-154.64496836934282,67.27313695412562,266.0760889682147,556.4474360856225
581,3.847824439179552,-257.6445092497272,-70.8591753240867,537.8091081944841,-156.4565648520847,67.19852111433688,267.42465747315356,567.6706323135918
582,4.44700132995327,-259.3079345476303,-70.39391480977625,547.581573260311,-157.7068031156007,66.6071832235557,268.9081063840793,577.6637393009685
583,5.040846991952667,-261.0809472207998,-69.987840541749,556.4050015810944,-158.370596809703,65.4831580099101,270.5147187313016,586.3975342649893
584,5.62323377650773,-262.9500279160229,-69.64019472707601,564.2565402570699,-158.43035921495078,63.81957950408059,272.23099977776286,593.8585129305922
585,6.188231766522294,-264.9003514228464,-69.34905523327433,571.1234590202189,-157.87602820663528,61.61930312825281,274.0418676491062,600.0486573380051
586,6.730236741653214,-266.9159975329473,-69.1114045721771,577.0031425692018,-156.70492435134327,58.8953331193374,275.9308871969185,604.9849101134645
587,7.24409850763563,-268.98019584215905,-68.92321932294676,581.9028646232614,-154.92146166321356,55.671039511621665,277.88054282640223,608.698387346021
588,7.725240331678108,-271.0756002591525,-68.77957524831308,585.8393715791796,-152.5367343905712,51.980152568433375,279.8725444796791,611.233369340894
589,8.169760003090019,-273.18458782620587,-68.67476332138688,588.8383084009863,-149.56800532453582,47.86652670094658,281.8881597922886,612.6461125114831
590,8.574503680352416,-275.28957571585914,-68.6024120760191,590.9335212225101,-146.0381217227056,43.38367042488463,283.9085647543883,613.0035265506498
591,8.937105172184415,-277.3733499435936,-68.55561219165456,592.1662706800926,-141.97488425871003,38.594043814153714,285.9152050376211,612.3817594533004
592,9.255985567802039,-279.4193992515498,-68.52704005899881,592.5843883197845,-137.41039264005352,33.56813028189808,287.8901603344387,610.8647301030204
593,9.530310973255611,-281.4122475796376,-68.50907817084432,592.2414065967806,-132.38038892668646,28.383295225716537,289.8165043892638,608.5426450842834
594,9.759909214403356,-283.3377784803848,-68.49393132646892,591.1956913984275,-126.92361643198008,23.122449707480087,291.6786537457718,605.5105335814036
595,9.94514947602314,-285.1835447676095,-68.47373857137771,589.5096043050879,-121.08120863533331,17.87254241288371,293.4626985273579,601.8668313559306
596,10.08679180035449,-286.9390566111711,-68.44068143498546,587.2487192947242,-114.89611892043474,12.722907402431002,295.15670877236107,597.712041247435
597,10.185816024580092,-288.59604115543533,-68.3870894865364,584.4811148536444,-108.41259830535195,7.763498718601288,296.7510099371984,593.1474930389271
598,10.243241919236727,-290.14866651500733,-68.30554456638482,581.276757349204,-101.67572482621632,3.083045970498103,298.2384211367938,588.2742198048732
599,10.259953776414804,-291.5937227170779,-68.18898514985226,577.70698506229,-94.73098507880715,-1.2328323614444883,299.6144495078372,583.1919610766007
600,10.236543267236351,-292.93075194570093,-68.03081200564286,573.8440945601342,-87.62390583463745,-5.103519123455227,300.8774338422308,577.9982954377504
601,10.173183877494937,-294.1621205196791,-67.8249956116948,569.7610224243112,-80.39973183065415,-8.455252242567957,302.0286305606267,572.7878968246774
602,10.069548501144356,-295.29302560125615,-67.56618487833565,565.5311063255475,-73.10314483258563,-11.22290209935724,303.07223542402926,567.6519004243517
603,9.924778794826608,-296.331430768212,-67.24981586199252,561.2279007543145,-65.77801871349743,-13.351633879481078,304.015335260224,562.6773562691124
604,9.73751097217692,-297.2879262871416,-66.87221847305642,556.9250149891475,-58.46720528957235,-14.79841835067416,304.867785449399,557.9467419444106
605,9.505958396705497,-298.17551219527184,-66.43071865499611,552.6959346626106,-51.21234579243433,-15.533356301636912,305.6420109629908,553.5375007049835
606,9.228047041184313,-299.00930510860195,-65.92373305510037,548.6137841838643,-44.053702972139725,-15.540782765883147,306.35273134382595,549.5215682758935
607,8.901595817857938,-299.80617290477994,-65.35085277983107,544.7509859868121,-37.030008850392676,-14.820118107835633,307.0166130289633,545.9648513503187
608,8.524530209419906,-300.5843048155308,-64.71291241117774,541.1787746648513,-30.178323341072524,-13.38643589430749,307.65185558951566,542.9266238613557
609,8.095115012735254,-301.36272765548455,-64.01204012538537,537.9665297380948,-23.533899950382075,-11.270722944406458,308.2777214729869,540.4588137124159
610,7.6121907753764475,-302.16078159594014,-63.2516847455284,535.1808998242764,-17.130057042786213,-8.519814163791253,308.9140214352385,538.6051624866622
611,7.075398762790278,-302.99757086344874,-62.43661609327474,532.8847027324366,-10.998056433050133,-5.1959925231756365,309.5805698994948,537.4002529736756
612,6.485380838016463,-303.8914059519769,-61.57289603473466,531.1355997375555,-5.16699423140648,-1.3762523289370494,310.2966259200052,536.8684132716387
613,5.843943216490007,-304.8592544763232,-60.66781895178632,529.9845573983534,0.3362893988160266,2.8487683009139313,311.08033630825304,537.0225210034747
614,5.154176482020124,-305.91621783273143,-59.72982190463699,529.474126161942,5.487275379355626,7.376172394146333,311.94819793904344,537.8627461822676
615,4.420528171447125,-307.0750505002126,-58.76836635655997,529.6365808940192,10.26380225177943,12.09248670482743,312.914556376076,539.3752857168937
616,3.6488280502798633,-308.3457381066882,-57.793794710631616,530.4919835439059,14.646075232010004,16.875616926734295,313.99115764156124,541.5311556691291
617,2.846269304629641,-309.7351491262553,-56.81716576988571,532.0462418185932,18.616654952616756,21.59704563823787,315.18676894657835,544.2851186193992
618,2.021350873032311,-311.24677298915213,-55.85007355477261,534.2892495643981,22.160439425134342,26.124236845527065,316.50688221629633,547.5748324380658
619,1.1837867878417485,-312.88055425302514,-54.90445388470932,537.1932036510563,25.264657813780982,30.323203013188458,317.95351112137456,551.3203124718681
620,0.34438765504249524,-314.63282837522246,-53.99238291305671,540.7111968979608,27.918896957797397,34.06118201816537,319.5250881818638,555.4238000023954
621,-0.4850823340749146,-316.49635999066476,-53.12587144326468,544.7761851082164,30.11518051129285,37.20936440399808,321.2164638043896,559.7701240074452
622,-1.292071544721583,-318.4604800265554,-52.316658312083206,549.3004173559494,31.848116001098074,39.64560702921918,323.0190044280612,564.227629676955
623,-2.063430784850093,-320.5113139133533,-51.576005317493504,554.1754024422651,33.11511736279894,41.257068304300816,324.9207827145418,568.6497261388494
624,-2.7856288997190575,-322.6320898276902,-50.91449512590891,559.2724625658319,33.916700294002425,41.94270261761777,326.906849174775,572.8770793007347
625,-3.4449965297405063,-324.8035134102594,-50.34183267349571,564.4439003420373,34.256836235895605,41.615556727161064,328.9595719201985,576.7404463605158
626,-4.027999911631965,-327.00419361807246,-49.866650378421056,569.5247797310309,34.14333983137369,40.20481820519494,331.05902933853014,580.0641189009363
627,-4.521545119766829,-329.2111030567327,-49.49631849108576,574.3352964233617,33.58825675593822,37.65757496304955,333.18343927105235,582.6699129611316
628,-4.913311044166511,-331.40005522642906,-49.23676417057551,578.683688705716,32.6082160947105,33.94025495150106,335.3096076542586,584.381617215549
629,-5.192106760413029,-333.54618092395714,-49.092305789386614,582.3696150750882,31.224714827141142,29.039725482623087,337.41337980373964,585.0297838277914
630,-5.3482456227472195,-335.6243871446993,-49.065511391840445,585.1878996784553,29.464310327914685,22.964040883995462,339.4700789470575,584.4567204227051
631,-5.373924445528414,-337.6097845921291,-49.15709103486247,586.9325225106869,27.358707118879263,15.742833808212497,341.45491944904995,582.5215171583378
632,-5.263592118473018,-339.4780740819237,-49.36583150355428,587.4007118245585,24.944732791084395,7.427348485252221,343.3433861173886,579.1049234388277
633,-5.014288920497993,-341.20588691366197,-49.68857910245204,586.3969860663165,22.264202479446908,-1.9098861971384795,345.1115753021244,574.1138790466322
634,-4.62593648853739,-342.7710787780085,-50.12027278079147,583.7369954327531,19.363671198996748,-12.175748040902823,346.73649745425274,567.4855082444045
635,-4.101559096618011,-344.1529803774998,-50.65402645296065,579.2510297358451,16.29407065021503,-23.25758305701019,348.1963439006975,559.1904039825368
636,-3.447419305273819,-345.3326103756873,-51.281256331973935,572.787087740713,13.110224729675974,-35.02464140203784,349.4707225899094,549.2350611626923
637,-2.6730547264463964,-346.2928573767945,-51.99184654451142,564.2134396938866,9.870238471261157,-47.32988590468728,350.5408683137565,537.6633593264876
638,-1.7912073491426206,-347.0186372249829,-52.77434439034102,553.4206545896104,6.634759557111619,-60.012160294977654,351.38983229237294,524.5570414165026
639,-0.8176423625788195,-347.4970300333748,-53.616175513544455,540.3231017143938,3.4661191775140336,-72.89868906815337,352.00265407519794,510.03518117806647
640,0.22914071963434637,-347.71739854436044,-54.50386912459971,524.8599674015294,0.4273678633312351,-85.80786353132851,352.3665160018213,494.25267237201405
641,1.3282961449393442,-347.67148672747527,-55.42328432609771,506.99584916242213,-2.418770467087224,-98.55225152197622,352.470877999926,477.39780451739244
642,2.4571057030631414,-347.35349590403234,-56.35983041068018,486.72099881835527,-5.010998478063801,-110.9417541932735,352.3075891916257,459.68901075696914
643,3.5915206735884273,-346.7601354206767,-57.29867627028674,464.05128449070855,-7.290570828110174,-122.78682434714085,351.87097283166935,441.37088443169154
644,4.706751647860602,-345.89064560241354,-58.224946119278684,439.02793067776827,-9.20241866165411,-133.90165832839213,351.1578820431382,422.70956477721
645,5.777884487089441,-344.7467918571243,-59.123900091490846,411.7170794522557,-10.696250621039123,-144.1072775211023,350.1677250441136,403.9875923409103
646,6.780500402698009,-343.33282996895747,-59.98109896495977,382.20919735640416,-11.727611851629815,-153.2344250024446,348.9024596928038,385.4983344266952
647,7.691278856617473,-341.65544360392533,-60.782552754895235,350.61833456442173,-12.25888583212403,-161.12621629581716,347.36655811435713,367.5400822306057
648,8.488563603174406,-339.72365585173327,-61.514853532737526,317.0812273613436,-12.26022592521302,-167.640498655181,345.56694297874435,350.4099253659568
649,9.152874674776815,-337.5487172898254,-62.16529352082157,281.75622350307196,-11.710403794682465,-172.65188924042582,343.5128977228842,334.3975164227561
650,9.667352273065243,-335.14397352959116,-62.72197006567632,244.8220037205511,-10.597560029060478,-176.05347742700644,341.21595356885456,319.7788476864751
651,10.01812206689541,-332.5247153932515,-63.17387940841603,206.47607202589955,-8.919838800834485,-177.75818911408476,338.68975646409876,306.8101731126898
652,10.194574985083015,-329.7080147195037,-63.511001214949495,166.9329921956422,-6.6858842669003336,-177.6998204641282,335.94991698777096,295.72221935303224
653,10.189557946168163,-326.7125482899294,-63.72437558087148,126.42235668246785,-3.9151732650653046,-175.8337547732021,333.0138457963416,286.71483780722195
654,9.99947493882746,-323.5584115408057,-63.80617380038199,85.18648569841457,-0.6381581440721402,-172.1373793544503,329.90057636713993,279.9522530299471
655,9.624300444793336,-320.26692271976026,-63.74976379083303,43.477866794270035,3.1038039995993816,-166.61021989156583,326.6305758157566,275.5590593203131
656,9.067509430907117,-316.8604171949546,-63.54977074621489,1.5563576556260879,7.258754004893136,-159.27380821700754,323.22554364763465,273.6171054267969
657,8.335930020219001,-313.3620309416597,-63.20213325896551,-40.31381392678871,11.764675974815532,-150.1712964670757,319.70819764692357,274.1633862251574
658,7.439526393290673,-309.7954719545376,-62.704154791642715,-81.86720959284918,16.55028703196111,-139.36682679411572,316.102045834821,277.18903028517116
659,6.39112043840154,-306.18477856213707,-62.05455003806868,-122.8404491191011,21.536063680746093,-126.94466216714743,312.43114364613865,282.6394350885686
660,5.2060613334190675,-302.5540644579067,-61.25348526010515,-162.97553340052607,26.63548724144489,-113.0080811560974,308.71983625952674,290.41556012504765
661,3.901852867531141,-298.9272517629675,-60.302611004156134,-202.0231643164121,31.756481566558982,-97.67803869979198,304.9924874110948,300.37634552252115
662,2.4977489883280097,-295.3277954930646,-59.20508494711546,-239.74600276256885,36.803008155506134,-81.09159618756777,301.27319796633697,312.3421832295614
663,1.0143286199935675,-291.77840510979604,-57.96558242228178,-275.92180488335015,41.676777613787195,-63.400127902574084,297.5855197929464,326.09933101857695
664,-0.5269390300379787,-288.30077094278204,-56.59029246029979,-310.3463745565353,46.27903273363696,-44.76731677431581,293.9521726206371,341.40512766211396
665,-2.104127889023955,-284.9153046805222,-55.08689754069345,-342.83626735188057,50.51235730687414,-25.366959936815732,290.3947730300895,357.99384097940487
666,-3.6952774698987962,-281.6409034417333,-53.46453537863955,-373.23117816581606,54.28246540135871,-5.380613048066857,286.9335850343736,375.58295948900474
667,-5.278796245880104,-278.49474597264424,-51.73374107373409,-401.39594279974676,57.49992725743045,15.004889150496115,283.58730074668495,393.879723859563
668,-6.833839511200291,-275.49212738083486,-49.906368102847274,-427.2220844991788,60.081789673553175,35.59999087355625,280.3728575292502,412.587687300945
669,-8.34065667806325,-272.64633596136235,-47.99548709997418,-450.6288415412709,61.95305100083249,56.21500081789968,277.30529525397765,431.41309573894483
670,-9.78090394298306,-269.9685727967412,-46.01526213388598,-471.56362258714387,63.04795433316344,76.6626505657847,274.397654560853,450.07089002755083
671,-11.137918923621923,-267.46791254828037,-43.980805164018875,-490.0018530072468,63.31106773876012,96.76057062978444,271.6609148733911,468.29015359213895
672,-12.396954324629794,-265.1513024301249,-41.90801032831005,-505.94619681106064,62.698127601482156,116.3336311832483,269.1039696085851,485.81885845309625
673,-13.54536800548994,-263.0235956033443,-39.813370553921786,-519.425163237079,61.17663009203898,135.21609935762942,266.73363531438036,502.4277981129759
674,-14.572767122480117,-261.08761484605833,-37.713779723478474,-530.4911322623859,58.726165956320855,153.2535717353294,264.554691101308,517.9136344567261
675,-15.471104494594217,-259.3442421190585,-35.62632435017984,-539.217857466071,55.33850445498607,170.30464861599674,262.5699445102218,532.1010251241701
676,-16.23472611083205,-257.7925294699073,-33.56806933055274,-545.697526674517,51.0174424145644,186.2423252436967,260.7803197904364,544.8438359289568
677,-16.860369692937255,-256.4298266229181,-31.555842645378345,-550.0374798257254,45.77844279074972,200.9550841163357,259.18496444391616,556.0254783928074
678,-17.34711533478767,-255.25192061483781,-29.60602371472788,-552.3566986404554,39.64809297449463,214.3476814952033,257.78136982743655,565.5584439674486
679,-17.696290413698094,-254.2531829611264,-27.73433950987462,-552.7821929808596,32.66341600524179,226.34162995569372,256.5655016107009,573.3831326736832
680,-17.911332168492088,-253.42672009659233,-25.95567166796979,-551.4454133932487,24.87106818011969,236.87538687439098,255.53193601324796,579.4660936344496
681,-17.997612418219227,-252.7645232665741,-24.283876936606635,-548.4788178949781,16.326454685858028,245.9042659538269,254.67399804325692,583.7978078379282
682,-17.962229755201353,-252.25761470685447,-22.731622396589227,-544.0127136133759,7.092791150239393,253.4000954985454,253.98389849875363,586.3901495543521
683,-17.813775306911307,-251.8961878721714,-21.310236175715506,-538.1724807124624,-2.7598662092595188,259.35065335234634,253.45286731486806,587.2736624720186
684,-17.56207895820708,-251.66974052529383,-20.02957398678925,-531.07626772181,-13.155605266121002,263.7589134162346,253.07128185041236,586.494779967991
685,-17.21794362107662,-251.56720043122655,-18.89790204952985,-522.8332249000113,-24.0136471882471,266.64214107083257,252.82878966663236,584.113106223197
686,-16.79287545623464,-251.57704411331406,-17.921797901503133,-513.5423169844657,-35.24933556843178,268.0308740317706,252.71442614799244,580.1988570654833
687,-16.29881781845815,-251.68740972276595,-17.10607208347839,-503.2917300855637,-46.77512528390516,267.96782201922696,252.71672802674834,574.8305381664284
688,-15.747896283513613,-251.88620561753157,-16.453715171879846,-492.15886101452014,-58.501573249658435,266.50671448658477,252.82384452943003,568.092915399864
689,-15.152181557984834,-252.16121666160856,-15.965875470681622,-480.21085230029524,-70.33833316565165,263.7111214142021,253.0236483406036,560.0753093370323
690,-14.523476308914073,-252.5002104259693,-15.64187243390852,-467.5056135898287,-82.19515402814311,259.6532681467722,253.30384873143743,550.8702240720652
691,-13.873130806611186,-252.8910453683688,-15.479249475719001,-454.093250720746,-93.9828782370419,254.41286158657775,253.6521089966465,540.5723005653969
692,-13.211890684397712,-253.32178279644327,-15.47386737864143,-440.0178079695869,-105.6144304673015,248.07594199648753,254.05616990719486,529.27756708367
693,-12.549778206385367,-253.780804071645,-15.620036347405069,-425.31921720739666,-117.0057838979761,240.7337723164942,254.50398034081817,517.0829446293064
694,-11.896006436436375,-254.2569339355448,-15.910681387445317,-410.0353402970801,-128.07688654142402,232.481774773502,254.98383547475075,504.08595373366506
695,-11.258923867982414,-254.73956973854607,-16.337532758420352,-394.2039884370617,-138.752527842396,223.41852182271006,255.48452165213416,490.3845607755987
696,-10.645985584916817,-255.2188147015741,-16.89133136174456,-377.864804833394,-148.96312494079407,213.64478476377903,255.99546527546843,476.07709762288516
697,-10.063745920163038,-255.68561149067475,-17.562038418347925,-361.06090561219423,-158.64540927689828,203.26263927396002,256.50688120864277,461.26218879994667
698,-9.517866825559285,-256.13187073814464,-18.339039670247598,-343.8401884470013,-167.742997333859,192.37462350475565,257.0099145970604,446.03862620649596
699,-9.013135836439224,-256.5505879743427,-19.21133627823467,-326.2562385690741,-176.20683358483382,181.08294195509453,257.49676900692276,430.50514251353616
700,-8.553487806979028,-256.93594195313915,-20.1677171283695,-308.3687866683296,-183.99549832801446,169.48870730610054,257.9608135311406,414.7600498299723
701,-8.142025611595937,-257.2833677287551,-21.19690991222925,-290.2437011077196,-191.07537741976617,157.69121273562342,258.3966621443499,398.9007285351177
702,-7.781036616413139,-257.5895990680878,-22.28771062996438,-271.95252572910124,-197.42069465807234,145.78722873281154,258.80022006117576,383.0229703365995
703,-7.472003632624756,-257.85267664376835,-23.429092792208593,-253.57160186080847,-203.0134107141076,133.87032083128483,259.16869390597793,367.22019748961344
704,-7.215610946206168,-258.0719206403919,-24.610298654314136,-235.1808365649212,-207.84299517806764,122.03018762053432,259.5005648258602,351.58259472177855
705,-7.011747600390976,-258.24786862284014,-25.820915535844662,-216.8621968155155,-211.90608062716353,110.35202145760057,259.79552598574423,336.19620030077095
706,-6.8595112522113375,-258.3821815291303,-27.050940639416144,-198.69802013928597,-215.2060098039148,98.91589706697026,260.05438793462935,321.1420072310414
707,-6.757216617312906,-258.47752235293046,-28.29083761065481,-180.76923612539153,-217.75228914070857,87.79619534493621,260.27895699934083,306.4951249707348
708,-6.702412748977052,-258.53741344173045,-29.53158738807153,-163.15359064030093,-219.5599639607492,77.06107094356663,260.47189311501654,292.32404705146917
709,-6.691913157147014,-258.5660792582156,-30.76473483900923,-145.92395648198203,-220.64893248831564,66.77197251921024,260.6365542598839,278.69006149235565
710,-6.7218421171678315,-258.5682817748164,-31.982431411091795,-129.14680172820067,-221.04321695470674,56.98322402873283,260.77683478664363,265.64682992292376
711,-6.787699521581348,-258.549155316333,-33.17747277348907,-112.88087150294405,-220.77021035859963,47.74167448577553,260.8970043858634,253.24014898321883
712,-6.884445313788421,-258.51404669756994,-34.34332951975641,-97.17612180006513,-219.8599169379912,39.086422541147215,261.0015532832045,241.50789514303997
713,-7.00660296391421,-258.46836510878336,-35.474168702450335,-82.07292700501577,-218.34420354452615,31.048621362449236,261.09504778113933,230.48014291797296
714,-7.148379819401748,-258.417444673868,-36.56486427032839,-67.60156746176865,-216.25607830812118,23.651368553494375,261.1819987071853,220.1794376398918
715,-7.303800793247352,-258.36642125429,-37.61099520012177,-53.78199113996813,-213.62901238337605,16.90968511784646,261.2667440193601,210.62119797357647
716,-7.4668509389092454,-258.3201240592901,-38.608831058352855,-40.623834884926985,-210.49631995215898,10.83058656351009,261.35334588895523,201.81422011762126
717,-7.631622000669681,-258.28298192293835,-39.555305739591375,-28.1266858987885,-206.8906106446523,5.413248037893896,261.4455019857286,193.76125453623501
718,-7.792457886231887,-258.2589436423165,-40.44798101764504,-16.280562320383776,-202.8433269447786,0.6492637810433929,261.5464703242379,186.45962654968648
719,-7.944094038158958,-258.2514115268054,-41.28500210827076,-5.066591816130513,-198.3843770639203,-3.477000830971807,261.65900684670953,179.90187373989062
720,-8.081785847116228,-258.26318731544745,-42.06504761159384,5.542132414078178,-193.5418713973264,-6.987968700781647,261.78531493627105,174.07637561539553
721,-8.201421628556883,-258.2964298905572,-42.78727612965058,15.579538927211432,-188.34196810503383,-9.91232829371355,261.927006312679,168.96795408850608
722,-8.299616301851593,-258.35262473023374,-43.45127176544023,25.085430516635718,-182.80883051937607,-12.284437256707518,262.08507327483306,164.5584268287724
723,-8.373782677450649,-258.43256569853605,-44.05699069894942,34.10422594678625,-176.96469586505148,-14.143662281418976,262.2598729298006,160.82709928767852
724,-8.422178107849836,-258.53635034639717,-44.60471100044619,42.683617799469786,-170.83005115536866,-15.533665878370474,262.451124646186,157.75118501937652
725,-8.443925221991805,-258.6633901146416,-45.09498760043656,50.873176230975986,-164.42390820269728,-16.50165103713743,262.65792219086933,155.30614780546006
726,-8.439006545111416,-258.81243652684344,-45.52861379750066,58.72293108931856,-157.76416564042412,-17.097574999349018,262.87876167340227,153.46596300106353
727,-8.408233886139854,-258.98162371090547,-45.90658994962448,66.2819668391931,-150.8680419010443,-17.373343804024316,263.11158561826704,152.20329938371054
728,-8.353194264774126,-259.16852668127063,-46.230099277655036,73.59706585460908,-143.75255942284195,-17.381999805171738,263.3538425220836,151.48962648457234
729,-8.276174737750512,-259.37023402415747,-46.50049012541286,80.71143575623692,-136.4350571319322,-17.176914776117872,263.6025604156291,151.29525576460168
730,-8.180068809380366,-259.583433043744,-46.71926352335761,87.6635555514282,-128.93370562487442,-16.81100133406501,263.85443231888775,151.58932692287817
731,-8.068267288971027,-259.8045049845073,-46.88806448739712,94.48617332958226,-121.26799770331057,-16.33595519578813,264.1059109935179,152.3397530335224
732,-7.944536555121368,-260.0296275403124,-47.00867530291476,101.20548508772195,-113.45918636010093,-15.80154023662794,264.3533099891014,153.51314016069375
733,-7.812887262150362,-260.2548814226767,-47.083009220826064,107.84051981599023,-105.53064337407172,-15.254927518341928,264.592907600967,155.07469867825833
734,-7.677436718035733,-260.4763573391543,-47.11310344529768,114.4027501955042,-97.50811456108929,-14.740098399724305,264.82105004699883,156.98816467717668
735,-7.5422686144513555,-260.6902595252779,-47.10111080347505,120.89594118076229,-89.41985238889852,-14.297320525749061,265.03425008702334,159.21575034874587
736,-7.411294481594328,-260.89300214037945,-47.04928985055239,127.31624055615133,-81.2966127168312,-13.962703895812965,265.22927757102417,161.71814171997988
737,-7.288121998331479,-261.08129532142755,-46.95999326958802,133.65250665592077,-73.17150929073304,-13.767842383513976,265.4032389302312,164.45456023248366
738,-7.175935837973128,-261.2522183410226,-46.83565433098747,139.88685935149766,-65.07972670249633,-13.73954409113262,265.5536432734257,167.38290123429337
739,-7.077396768448961,-261.40327811657363,-46.67877106810303,145.9954317862482,-57.058099284307346,-13.899651854914053,265.67845352498665,170.4599576396195
740,-6.994564076195091,-261.53245229509344,-46.49188785184495,151.94929285208843,-49.144569434117194,-14.264953181971165,265.7761219916178,173.64173123542852
741,-6.928845113530451,-261.63821713538783,-46.277574247679226,157.71550461581674,-41.37754391800169,-14.84717701306891,265.8456107287118,176.88382799451614
742,-6.880974114203966,-261.7195611328031,-46.03840139075508,163.25827518307443,-33.795170747942464,-15.653073058408316,265.88639780931294,180.1419279978986
743,-6.851020610241519,-261.77598563978586,-45.77691652248719,168.54016600883244,-26.434562413432058,-16.684568100344254,265.89847092775994,183.3723158309144
744,-6.838425949365621,-261.8074937702973,-45.495616629383726,173.52331338201094,-19.330993643754667,-17.938992601802806,265.882309809551,186.5324540116579
745,-6.8420646470464614,-261.81456886114006,-45.196922229866885,178.17062642029444,-12.517103469160665,-19.409370154521653,265.83885885614717,189.58158018623897
746,-6.860325770514429,-261.7981437487185,-44.88315233553058,182.44692784658898,-6.022132055422579,-21.084761702917056,265.7694913930308,192.4813081945491
747,-6.891208481635978,-261.7595620398012,-44.556501516414194,186.32000837275382,0.1287774415837909,-22.95065608946908,265.6759667604602,195.19621319228597
748,-6.932425442025773,-261.7005324672683,-44.21901977700587,189.7615700596813,5.915182963879488,-24.989398288997528,265.5603813429216,197.69438136912322
749,-6.981508008561907,-261.6230774916614,-43.872595655988256,192.74803825448456,11.321826862240611,-27.18064668162657,265.42511464784815,199.94790527653882
750,-7.0359078739230725,-261.5294775688664,-43.51894277908436,195.26122572443646,16.338975338818546,-29.501850790529154,265.2727717762403,201.93330659241875
751,-7.09309086243401,-261.4222127997497,-43.15959004773757,197.28883672430018,20.96259600967347,-31.92874105720156,265.1061239286672,203.63186971537314
752,-7.150619820959256,-261.30390385030057,-42.79587559372063,198.82480318764848,25.19436200073576,-34.43582245351802,264.928048777639,205.02987219724696
753,-7.206224753547842,-261.17725403467193,-42.42894455541484,199.8694500194779,29.041478367460375,-36.99686404722804,264.74147255663405,206.11870167713073
754,-7.2578593259882505,-261.04499431505997,-42.05975075008707,200.42949136414092,32.516334438867815,-39.58537706085521,264.5493156024948,206.8948533922026
755,-7.3037435288748975,-260.9098327320558,-41.689062408161746,200.51786445664573,35.635993497007966,-42.17507450676338,264.3544428738645,207.35980715169086
756,-7.342392710089129,-260.77440946313715,-41.31747215770635,200.15341206338604,38.42153869655956,-44.740306132671236,264.15962066024025,207.51978759373236
757,-7.372633424861596,-260.64125832289653,-40.945411335173006,199.36042848933167,40.89730099448323,-47.25646313275255,263.96748029558523,207.3854163822926
758,-7.393606566937469,-260.51277510534345,-40.57316846456112,198.16808754235072,43.09000070650124,-49.70034782096399,263.78048923894517,206.97126946174063
759,-7.404758120822254,-260.39119280382573,-40.20091140987868,196.6097735077165,45.02783868810105,-52.050504201162944,263.600929464824,206.2953562224514
760,-7.405817911103029,-260.2785634441214,-39.82871232877376,194.7223379550022,46.73957561664879,-54.28750612352109,263.4308827522905,205.37854016447568
761,-7.396767133948543,-260.176745975787,-39.4565742446887,192.54530605997397,48.253638102321105,-56.39420052727673,263.27222214058196,204.24392226018836
762,-7.377796119304539,-260.0873993945221,-39.08445787867823,190.1200561186868,49.59728831428347,-58.35590415375098,263.1266085439036,202.916208706113
763,-7.3492544360335605,-260.01198010578526,-38.71230735783265,187.48899509038998,50.79588975171991,-60.16055304204764,262.99549137329996,201.42108415928806
764,-7.311596018450772,-259.9517425015397,-38.340073562725394,184.69475139272583,51.8722961952572,-61.79880497725854,262.8801120123582,199.78460995602325
765,-7.265322491604958,-259.90774168164484,-37.967734198813,181.77940395876672,52.84638419473788,-63.264095658509746,262.7815090141252,198.03266436570664
766,-7.210928260825045,-259.8808371205331,-37.59531009677163,178.7837640233936,53.73474203905218,-64.55264956883416,262.7005238293867,196.19043889020875
767,-7.148851047213747,-259.87169599306367,-37.22287760098951,175.74672349634685,54.55052034954782,-65.66344642321936,262.6378058462879,194.28200127326951
768,-7.079431262924786,-259.880795082773,-36.85057707906394,172.70468121712554,55.30344162460392,-66.59814384821439,262.59381574715866,192.32993245135359
769,-7.002882934400787,-259.90842074955066,-36.47861760469302,169.69105583644742,55.999958669099435,-67.36095682633254,262.5688267229638,190.35504126247207
770,-6.919277899971248,-259.95466706517357,-36.10727784662418,166.73589146403452,56.64354529529733,-67.95849457945127,262.56292368471105,188.3761574101746
771,-6.828543878960664,-260.01943263312796,-35.736903224144456,163.86555957369416,57.235097321760584,-68.39955603640458,262.5760009921819,186.41000007957373
772,-6.730475923949087,-260.1024167413142,-35.367899448705906,161.10255805091626,57.77341791995146,-68.69488582279033,262.6077593327487,184.4711168748129
773,-6.624759883346777,-260.20311547370204,-35.00072259528435,158.46540578731302,58.255758854209155,-68.85689377768249,262.65770234038706,182.57188551934414
