time,ax,ay,az,gx,gy,gz,accmagnitude,gccmagnitude
0,13.145447951032358,-239.95077251926872,39.20531506737926,-67.65669046561321,20.016759611092954,-4.018694120533219,243.4879128543019,70.65581931532161
1,13.21565456758555,-239.8459851621903,39.380916100631545,-68.14265011724024,20.266784599919877,-4.102331240527885,243.41899824406042,71.20228546971147
2,13.279868220089371,-239.7452976079319,39.54309518111421,-68.60666154926106,20.509620468325327,-4.185479873252594,243.35162665682515,71.72538063850824
3,13.336312471419387,-239.64919852397026,39.69052062025455,-69.03743118007938,20.743966624157164,-4.269337005412289,243.28595477184092,72.2140583415178
4,13.38335930765266,-239.55813070212864,39.8219906824208,-69.42402724864543,20.968689685435287,-4.355002984365572,243.2221233527028,72.65768375773729
5,13.419580555232374,-239.47248945547196,39.93645077265445,-69.75615836546802,21.182839421641905,-4.443428170607478,243.1602614628655,73.04630171874659
6,13.44379404514894,-239.39262146712187,40.03301082681096,-70.02442795085506,21.38566174822489,-4.53536925197847,243.10049082810292,73.3708806234664
7,13.455102887537716,-239.31882389551458,40.11096221143804,-70.2205554204533,21.57660894276391,-4.631357416833941,243.0429299448392,73.62352365191225
8,13.45292656688064,-239.25134334888685,40.16979311382952,-70.33755689352937,21.755347080074145,-4.7316796493978135,242.98769731856058,73.79764041631454
9,13.437022982531387,-239.19037419689795,40.209201459850846,-70.36988076296079,21.92176031860305,-4.836373373735142,242.93491311398043,73.88807451349268
10,13.407501000351207,-239.136055829979,40.22910472432363,-70.31349641274957,22.075951282325835,-4.945233685046185,242.8846987218124,73.89118512862038
11,13.364823462332872,-239.08846895355143,40.22964627615988,-70.16593724295329,22.21823652254726,-5.057831597870959,242.83717428352577,73.80488349472655
12,13.309800832957983,-239.04763156061955,40.21119796002448,-69.92630153183293,22.34913601423435,-5.173541182352163,242.79245478347656,73.6286272522955
13,13.243575729585302,-239.01349556708186,40.17435857570422,-69.59521628242491,22.46935585071502,-5.291573162153122,242.7506456463445,73.36337734767378
14,13.167598588604388,-238.98594512420996,40.119947988901856,-69.17476998663615,22.57976367088098,-5.411012480041765,242.71183881479087,73.0115229655535
15,13.08359480848194,-238.96479740877615,40.048996864827,-68.66842021780228,22.68135681377443,-5.530857456983691,242.67611011414775,72.57678011818179
16,12.99352395005247,-238.9498063249558,39.96273236717692,-68.08088129167386,22.775223733175473,-5.650058435512992,242.64351841682299,72.06406906320963
17,12.899531877781772,-238.94066912214288,39.862560473963285,-67.41799625017825,22.862499801426566,-5.767554164656114,242.61410675976134,71.47937500254042
18,12.803896955532702,-238.93703554271556,39.75004568455632,-66.68659650845706,22.944319205511977,-5.882304601230094,242.58790521586403,70.8295958597254
19,12.708971529784042,-238.9385188450856,39.6268887265248,-65.89435191775094,23.02176508077903,-5.993319217799729,242.5649350369803,70.12238054171779
20,12.61712002693725,-238.94470791394548,39.49490254274651,-65.04961382373993,23.09582027971841,-6.099680288824733,242.54521340932746,69.36596102356509
21,12.530655157864926,-238.95517962368027,39.35598667342847,-64.1612539390587,23.1673212388696,-6.200560966833505,242.52875810021584,68.56898185057442
22,12.45177397899124,-238.96951060444323,39.21210026498837,-63.23850240028224,23.236917307393878,-6.295238257897397,242.5155912896796,67.74033114514617
23,12.382495832554634,-238.98728757590123,39.06523408753978,-62.290789007339455,23.30503765550937,-6.383101258685686,242.50574193058586,66.88897771779827
24,12.324604386891217,-239.0081155476831,38.917381876596735,-61.32759206196108,23.371867523523793,-6.463655218845249,242.49924610771433,66.02381915432315
25,12.27959606561916,-239.03162350862038,38.770511114638914,-60.35829924753319,23.437335146347124,-6.536522107599886,242.49614515144833,65.15354562062291
26,12.248637032305723,-239.05746765507266,38.62653327466194,-59.39208456783657,23.501110224355745,-6.601438351913468,242.4964816594436,64.2865235462387
27,12.232530485356236,-239.08533252872138,38.487273656102246,-58.437804491578476,23.562614321732994,-6.658250296967373,242.50029389163913,63.43070233002207
28,12.231695321126146,-239.11493049637866,38.354441221570646,-57.50391519516302,23.62104306881324,-6.706907816449034,242.50760907884646,62.59354583015792
29,12.246156484168216,-239.14599986792072,38.229599250565094,-56.59841129117174,23.675399546723067,-6.7474564702326205,242.51843608644958,61.781988799483635
30,12.275546843079988,-239.17830182888991,38.11413804200885,-55.72878484276151,23.724537763551613,-6.780028692544256,242.5327578071244,61.0024167739991
31,12.319120257618152,-239.2116164242299,38.009251117692735,-54.902001975739324,23.767214701163056,-6.804834628478979,242.55052374611807,60.26066638237446
32,12.375775414150208,-239.2457380227266,37.91591631869771,-54.124493201636106,23.80214902328981,-6.822153311948611,242.57164343799278,59.56204178210923
33,12.444089771304517,-239.28047084819946,37.83488292611486,-53.402152787464985,23.82808420207939,-6.832324808498496,242.59598143114505,58.9113420589458
34,12.522362552710526,-239.31562519453485,37.766665556301234,-52.740342158298446,23.843853573250545,-6.8357437231379246,242.62335452355032,58.3128939676882
35,12.60866531451835,-239.35101487485798,37.71154509915711,-52.14389235931239,23.848444710163093,-6.832854169934563,242.65353177020623,57.770584333653936
36,12.700898366408154,-239.38645631668547,37.66957641359707,-51.617101061785334,23.841060530574833,-6.82414602834475,242.6862375469878,57.287886817347164
37,12.79685123469912,-239.4217695030838,37.64060191889828,-51.163720534548084,23.821174678793366,-6.810152145883628,242.721157651193,56.867878619231455
38,12.894265299111476,-239.4567807010116,37.62426967513286,-50.78693440624809,23.78857890081144,-6.791446074116609,242.75794807241553,56.51324402974894
39,12.990896640055036,-239.49132663708295,37.62005411389087,-50.48932277823518,23.74342032553656,-6.768639882673532,242.79624571288457,56.2262633706742
40,13.084577063583254,-239.52525948086875,37.6272773910401,-50.272817073427355,23.686226785799743,-6.742381556787423,242.83568000135938,56.00878760800202
41,13.173271341258587,-239.5584517693362,37.64512948603026,-50.13864764845605,23.617918554215684,-6.713351464436387,242.87588414333896,55.86220049398854
42,13.255128967498363,-239.5908004489786,37.67268565811718,-50.08728843179773,23.539805125521138,-6.682257388640165,242.91650487842594,55.78737131447768
43,13.328529137430221,-239.6222295851267,37.70892057543028,-50.11840355568617,23.453565993072427,-6.649827657420181,242.95721011215733,55.78460208805355
44,13.392118033341152,-239.6526917673551,37.752719215417,-50.23080109259782,23.361214848686334,-6.6168019917404415,242.99769440324877,55.853573411269615
45,13.444837748266814,-239.6821685331701,37.80288537021577,-50.422398617619706,23.265047368429542,-6.583919860878468,243.03768270234855,55.99329314173841
46,13.485946283931913,-239.71067016452844,37.85814914920471,-50.690204460818286,23.16757371230846,-6.5519063682381375,243.07693286139127,56.20205180711753
47,13.515028160899668,-239.73823512188346,37.91717514855318,-51.03031729348619,23.071437951214122,-6.521455925818403,243.1152373902021,56.477388056965886
48,13.531995333880907,-239.76492930415466,37.97857296596417,-51.4379452743185,22.979327700834748,-6.4932141714055085,243.15242486829388,56.8160667104777
49,13.537078274512224,-239.79084525179312,38.040911544746905,-51.90744457363155,22.893878146675707,-6.467758761091474,243.18836132627655,57.21407111344947
50,13.530807290926099,-239.81610125454756,38.102738374126915,-52.43237587484485,22.817575243021555,-6.445579868891647,243.22295170041716,57.666610701353356
51,13.513984537926527,-239.84084009626164,38.16260376110476,-53.00557651196736,22.75266304925483,-6.427061432693657,243.25614114239488,58.16814390699846
52,13.487647783626272,-239.86522704153268,38.219089428397695,-53.61924525732585,22.701059905836118,-6.4124643388933675,243.2879157386102,58.71241586010422
53,13.453027658377321,-239.88944679668856,38.27084003014703,-54.26503644638635,22.664287538252164,-6.40191276813681,243.31830226282716,59.29250976245648
54,13.411500572219381,-239.91369947663827,38.31659603312098,-54.93416017217146,22.643416351241406,-6.3953847980143985,243.34736688644384,59.900910500992914
55,13.36453964579476,-239.93819582380155,38.35522658222342,-55.61748575905627,22.639029245301337,-6.392708093145936,243.37521301449496,60.52957908836145
56,13.313665880851103,-239.9631518819655,38.385761109118775,-56.30564665197003,22.651205306876996,-6.393561151582057,243.40197838276026,61.170036942748936
57,13.26040143993961,-239.9887830722385,38.407418378295894,-56.98914613787831,22.67952371232609,-6.397480155628536,243.42783126448316,61.81345976183208
58,13.206226398650903,-240.01529736368104,38.419631455533676,-57.658464666492854,22.7230871335272,-6.403871031883298,243.45296531910415,62.450781543047206
59,13.152539868143881,-240.04288721456604,38.42206691757956,-58.30417052140194,22.78056282498765,-6.412025896334987,243.47759254342398,63.07280974388774
60,13.100626130082695,-240.0717202667583,38.41463669912215,-58.91703582529754,22.850238464281084,-6.421142666607834,243.50193408356037,63.67035232096917
61,13.051626356297332,-240.10192924765528,38.39750141926113,-59.488159214464815,22.930088875905792,-6.4303463005406325,243.5262091993977,64.23435637740627
62,13.006516420855784,-240.13360188858,38.37106479808027,-60.00909517160141,23.017849186325662,-6.438709961569238,243.55062314675268,64.7560566367173
63,12.96609113783181,-240.16677172106878,38.33595959590574,-60.471988331778945,23.111089832967316,-6.44527451924473,243.57535492224739,65.22713034125957
64,12.930955033604137,-240.2014103671232,38.293026052891754,-60.86970944386593,23.207289182235037,-6.449065186462634,243.6005456515469,65.63985379292778
65,12.901519591497772,-240.23742153257353,38.24328397819511,-61.19598836979789,23.303900281235162,-6.449104698523406,243.6262880162256,65.98725486878305
66,12.878006802296209,-240.27463655859677,38.18789963977653,-61.44553876145811,23.398409433686638,-6.444423142928627,243.65261675451197,66.26325563175658
67,12.860458748685609,-240.31281129213696,38.12814867501753,-61.61416898541908,23.488385729710302,-6.434065244605927,243.67950017716285,66.4627996595766
68,12.848752738613884,-240.3516242480684,38.06537639646875,-61.698874380290796,23.57152217055626,-6.417096501479106,243.7068328565456,66.58195976120061
69,12.842621113546567,-240.39067640526414,38.000956930562374,-61.69790674002225,23.645670369819097,-6.392609976303119,243.73442999757253,66.61802297442297
70,12.841674380297832,-240.42949331057594,37.936252460811275,-61.61081768415389,23.70887171665602,-6.3597357224211315,243.7620242744257,66.56955073404704
71,12.845425971048954,-240.46753034248184,37.87257354964545,-61.4384731193462,23.759388124539853,-6.3176546673906815,243.78926602842688,66.43641261789794
72,12.853316911591872,-240.5041819507313,37.811141356555105,-61.18303638198923,23.795734954745658,-6.265618209019616,243.81572766392242,66.21979215057421
73,12.864739010438276,-240.53879541020896,37.75305269360184,-60.84791815987702,23.81671744455895,-6.202973807843241,243.84091284584474,65.92216306870353
74,12.879055753019045,-240.57068915514057,37.69924911261975,-60.4376923011302,23.821470175602954,-6.1291956697003735,243.86427071197252,65.54723467025032
75,12.895620674711516,-240.59917521468356,37.6504913568701,-59.95797842293684,23.809497113266843,-6.043918477567722,243.88521483159417,65.099865783953
76,12.913793380380993,-240.62358474909573,37.6073404311775,-59.41529481058037,23.7807079704674,-5.946971292404925,243.9031461365453,64.58594863039046
77,12.932953492763039,-240.64329524670757,37.57014628720031,-58.81688803077546,23.735445553954357,-5.838408315730421,243.91747858190828,64.0122661586851
78,12.952512725739696,-240.65775767370818,37.539044744745134,-58.17054831602122,23.674498660034224,-5.718533190238388,243.92766596379158,63.386328836067214
79,12.971925112692782,-240.66652183438867,37.513962816782126,-57.48442146464777,23.599096047774598,-5.587913852892134,243.9332282062354,62.71619879321308
80,12.990695209363055,-240.66925835338267,37.49463211864869,-56.766828305761535,23.51087879330263,-5.447385593027566,243.93377549214335,62.01031024036558
81,13.008383840508891,-240.66577596028444,37.48060957461059,-56.02610158623615,23.411850515586544,-5.298040866199406,243.92902879053756,61.27729494349012
82,13.024610775951748,-240.65603314716398,37.47130423236321,-55.27044769431822,23.304307158651138,-5.141205529866995,243.9188356433974,60.52582035330943
83,13.039053776564971,-240.64014380953202,37.46600866925331,-54.50783744785296,23.190749913726602,-4.978402412238501,243.90318055973682,59.76444601824401
84,13.051443815279098,-240.61837709692074,37.46393322971274,-53.74592680397251,23.073786283658475,-4.81130433651629,243.8821899547089,59.001501564636264
85,13.061556830460214,-240.591152196961,37.464241244739775,-52.99200523429535,22.95602516433067,-4.641679687753157,243.85613208061267,58.2449871238716
86,13.069202905005868,-240.55902898233288,37.46608354665352,-52.25296698036673,22.839972166140363,-4.471334150247057,243.82541265456493,57.50249491743115
87,13.074214165625738,-240.5226953728592,37.468630974862094,-51.53529872295834,22.727931260265372,-4.302052291413898,243.79056689152384,56.781149053054904
88,13.076432918160192,-240.48295207378428,37.47110399467837,-50.845076514471316,22.62191822852677,-4.135542302976442,243.7522485385245,56.08755961670582
89,13.075701509577756,-240.44069518040354,37.47279883640833,-50.18796507725655,22.5235903842299,-3.9733866243751526,243.7112163782999,55.427786869952634
90,13.07185511138168,-240.3968970022604,37.47310961124127,-49.56921352269315,22.43419576108403,-3.817000553752242,243.66831852623918,54.80731163679835
91,13.064718166869756,-240.35258533509526,37.47154569862653,-48.99364289702036,22.354543603072642,-3.667600379263869,243.62447467188258,54.231008578593105
92,13.054104775439194,-240.3088213071721,37.46774349756567,-48.46562247187151,22.284996638224506,-3.526182028007972,243.58065625930112,53.703119827013275
93,13.03982283146121,-240.26667588918028,37.461471655307264,-47.98903325191708,22.225484342694866,-3.3935107122749493,243.5378645422127,53.22722728216232
94,13.02168131642336,-240.22720523568816,37.452629312823085,-47.56721874144913,22.17553524230302,-3.270121551034787,243.49710657110802,52.806222775344615
95,12.99949990212382,-240.19142523601226,37.44123768484223,-47.20292458297678,22.13432528703453,-3.156330638353928,243.45936948563323,52.442276242793376
96,12.973120096425765,-240.16028592838362,37.427426150146665,-46.8982301920635,22.100738494322325,-3.052255475653244,243.42559389604304,52.136803010022184
97,12.942417491004214,-240.1346466771737,37.41141463941336,-46.654476828269,22.073435435582518,-2.957843078164312,243.39664749254,51.89043214270699
98,12.907315011231558,-240.11525316292133,37.39349429889319,-46.472197494558806,22.05092479142916,-2.872903496927026,243.37330021546387,51.70297845331864
99,12.867797177561075,-240.10271725082208,37.374008248744154,-46.351054538651326,22.0316331431215,-2.797146099539678,243.35620231347076,51.573421083587554
100,12.823925166960677,-240.0975006879008,37.3533339400526,-46.289790812888874,22.01396841598175,-2.730215819169802,243.34586644021144,51.4998916137575
101,12.775852010877474,-240.09990338619068,37.33186823212435,-46.28619971610312,21.996373023403876,-2.6717267467395533,243.3426546665152,51.479674425705454
102,12.723836822956704,-240.11005679718588,37.310015815107114,-46.337118386421956,21.977363875968763,-2.621290888934769,243.34677093936668,51.50922162828311
103,12.668256731826032,-240.12792251611194,37.28818104450867,-46.43844686841634,21.955557991389952,-2.5785405677228,243.35825906433354,51.58418434141628
104,12.609615240091344,-240.15329579695637,37.26676283137448,-46.58519452241281,21.929684231411354,-2.5431436875832403,243.3770057777625,51.699461646923034
105,12.548545928481522,-240.185813318397,37.2461520319195,-46.77155353942691,21.898583336285057,-2.5148118590534,243.40274811995772,51.849268080972045
106,12.485810692842945,-240.2249645170215,37.226730715104324,-46.990998262205565,21.861199617474977,-2.4933020780784143,243.43508430117257,52.02722008442139
107,12.422292075097577,-240.27010603582283,37.20887270742843,-47.23640801523657,21.81656828213557,-2.4784132508912147,243.47348750366078,52.22644121820997
108,12.358979749053088,-240.3204790551812,37.192944947422866,-47.50021017237103,21.76380242963411,-2.469979248821604,243.51732232712,52.439685090154114
109,12.296951742981047,-240.37522929083207,37.17930936878484,-47.774539135466476,21.702083359388705,-2.4678603164643995,243.5658636591112,52.659473782060005
110,12.237351375083101,-240.43342927682906,37.16832514672377,-48.05140576366799,21.630657043869252,-2.47193452419126,243.6183176264264,52.878248162255
111,12.18136108378128,-240.49410231383658,37.160351148027445,-48.32287072847737,21.54883855060034,-2.4820905996056855,243.6738440601869,53.08852500627048
112,12.130174372693423,-240.55624724060115,37.15574836651055,-48.581214568060105,21.456024963202683,-2.498222975142811,243.73157968078587,53.28305465663044
113,12.084966999420699,-240.61886303346864,37.15488204811294,-48.81909722757993,21.351716098562143,-2.5202293203408463,243.79066104091123,53.45497242109871
114,12.0468683537493,-240.68097219231908,37.15812313210881,-49.02970082054102,21.235541213603863,-2.548010245368663,243.85024619587452,53.59793730810641
115,12.016933719682106,-240.7416419362487,37.165848540814665,-49.20685113838197,21.10728909341761,-2.5814703517309643,243.9095341046834,53.70625300106371
116,11.996117830390286,-240.8000023978848,37.17843974887629,-49.34511567930018,20.966938494742372,-2.62051947482657,243.96778089693464,53.77496784635649
117,11.98524989325867,-240.8552612682379,37.19627904157596,-49.439878171036284,20.814685889355612,-2.665072889945494,244.02431238469745,53.79995262256389
118,11.985010178185597,-240.9067146722755,37.219742984011255,-49.48739135641188,20.650967754789356,-2.7150494361793256,244.0785325345716,53.777956611379075
119,11.995908318733811,-240.95375437292205,37.24919281036372,-49.48481102313081,20.476475180268274,-2.7703668596602857,244.1299279569892,53.70664380065672
120,12.018263595630598,-240.9958716587454,37.284961663223264,-49.43021483148138,20.292159154067164,-2.8309340657351925,244.17806875949626,53.584611805090894
121,12.052187632655885,-241.03265846637944,37.327338923963836,-49.322609370527665,20.099225490699265,-2.896640330811651,244.22260635625938,53.41139620829388
122,12.09757014691456,-241.06380637998956,37.376552306745864,-49.16192804171102,19.899118943754125,-2.9673418610581908,244.26326899213032,53.18746250409845
123,12.154068606166184,-241.08910405307532,37.43274883999004,-48.94902099421409,19.69349666178996,-3.0428464110797533,244.29985572540394,52.91418680818303
124,12.221102792167112,-241.10843335859522,37.49597615996695,-48.6856367914728,19.484191788473233,-3.1228969744357573,244.33222943331185,52.593825361261636
125,12.297855348062532,-241.12176441748556,37.56616559186655,-48.37439421196935,19.273168669643166,-3.207155790699128,244.36030926451247,52.22947194112274
126,12.383279341058742,-241.12914973241266,37.643118321242746,-48.01874193367313,19.062471760269826,-3.295190037594661,244.38406301336468,51.825001945085646
127,12.4761135520366,-241.13071781507344,37.72649563259966,-47.622904020600494,18.854170834127363,-3.3864605589088987,244.40349999078333,51.38500224871874
128,12.574905609025894,-241.1266666744152,37.81581376395141,-47.19181012296875,18.650305404388913,-3.4803148161767137,244.41866485834737,50.91468696632073
129,12.678042436112847,-241.11725729814748,37.91044348659988,-46.73101087505239,18.452831328087456,-3.5759849666218204,244.42963256551687,50.419800702167606
130,12.783787008049764,-241.10280705594636,38.00961421724286,-46.246580700517754,18.263572400176038,-3.6725915939297216,244.4365042579841,49.90651240120094
131,12.890320130900065,-241.0836829909741,38.1124224084569,-45.74501170469078,18.084179381139105,-3.769153215747487,244.43940403679613,49.381304119328476
132,12.99578584795084,-241.06029519439127,38.2178440795913,-45.23310330384747,17.916098398572913,-3.86460136296432,244.4384766802037,48.85085973320106
133,13.09833901237042,-241.03309066105066,38.32475142484719,-44.71785260203735,17.76055007291116,-3.9578008275904946,244.43388664432646,48.321958715654354
134,13.196193532987266,-241.0025480449839,38.43193327726336,-44.206350224557816,17.618520081646977,-4.047574546285682,244.42581864700887,47.801379578125314
135,13.287669807441393,-240.96917354145376,38.538118846072734,-43.70568538977129,17.490761206071276,-4.1327324208362475,244.41447988931205,47.29581645583183
136,13.371239922927534,-240.93349777871708,38.64200384442265,-43.222862599977574,17.377806202890284,-4.212103166757608,244.4001035832061,46.811810729334475
137,13.445569296032312,-240.8960732352336,38.74227815359365,-42.76473066628046,17.2799901569828,-4.284568104102502,244.38295309909498,46.35569775599601
138,13.509553509114996,-240.8574714714881,38.837654507918884,-42.33792305794126,17.19748038284341,-4.349095707412896,244.36332587996858,45.93356695284285
139,13.56234921454928,-240.81827947807452,38.92689800964318,-41.94880700473794,17.130311505983318,-4.404775700103247,244.34155633728125,45.551231852902696
140,13.603398171410781,-240.779094648444,39.00885628821449,-41.603437635203875,17.078423092714765,-4.450851482185317,244.31801715663576,45.21420559051274
141,13.632443712573298,-240.74051815835304,39.0824897464461,-41.30751292175162,17.04169712670798,-4.486749692271355,244.29311866227522,44.927676763121646
142,13.649539108547534,-240.70314678225975,39.14690072680903,-41.06632540514736,17.01999276101099,-4.512105713449767,244.26730604447633,44.69648084292422
143,13.655047376846232,-240.6675633808,39.20135984319721,-40.88470750968771,17.01317608292629,-4.5267839632698825,244.2410543651139,44.52506319546843
144,13.649632167457185,-240.63432646038066,39.24532748484292,-40.766968567316596,17.021143079599987,-4.530891905463247,244.2148613881987,44.4174311385097
145,13.634239481770022,-240.60395932385626,39.278468789355756,-40.71682323251336,17.043834531593678,-4.524786908059549,244.1892384528702,44.37709413068545
146,13.61007011868093,-240.5769393806194,39.30066103967657,-40.73731255915331,17.08124210934963,-4.5090753428094725,244.16469976821205,44.4069928727636
147,13.57854293452974,-240.55368817340613,39.311993133168414,-40.83072039590614,17.133405424111633,-4.484603657630971,244.141750619799,44.50941959182948
148,13.54124944541865,-240.53456263920341,39.31275731117036,-40.998488733209356,17.20040014814386,-4.452441540433167,244.12087505017365,44.68593285519869
149,13.499901075938917,-240.5198480679733,39.303433725173214,-41.24113606241145,17.282317566376136,-4.413857701989292,244.10252363095674,44.937270794092
150,13.456271202735108,-240.50975312921528,39.284668699542955,-41.558182668824536,17.37923610326546,-4.370289188069434,244.08710194916665,45.26326660640692
151,13.412134637887597,-240.50440716006693,39.2572477682871,-41.94808619518775,17.49118559982297,-4.323305428204063,244.07496032253331,45.66276980425659
152,13.36920720514847,-240.50385965699516,39.22206473630669,-42.40818998089031,17.618105507097642,-4.274568395953723,244.0663850394022,46.13357609947258
153,13.329087793608288,-240.50808166547608,39.18008809759658,-42.93468583350497,17.75979871567588,-4.2257902839909995,244.061591171371,46.67236828519635
154,13.293204970648858,-240.51696859323062,39.13232606533337,-43.52259227181684,17.915883348756072,-4.17869003705878,244.06071680868524,47.274670158187185
155,13.262769959610445,-240.53034389111508,39.079791292347586,-44.16574912267275,18.085745390125446,-4.134950030934996,244.0638184425743,47.93481560184449
156,13.238737531170987,-240.5479630542997,39.02346625727831,-44.85682975523981,18.268495421663523,-4.096174196897511,244.0708671957723,48.64593548116073
157,13.221776171520899,-240.56951755495527,38.96427035408395,-45.587373078343866,18.46293294050596,-4.063848945306343,244.08174575856836,49.39996585854218
158,13.2122487823358,-240.59463865254057,38.90302990561043,-46.34783841887845,18.66752162301964,-4.039308248400537,244.09624624067146,50.18768192125727
159,13.210204986683213,-240.62290139450525,38.840452530262574,-47.12768720352361,18.880378426997197,-4.0237040940312205,244.1140695328823,50.99876257299767
160,13.215385673584901,-240.65382927877403,38.777107405243406,-47.915495676069426,19.09927858053967,-4.0179831625340965,244.13482692205855,51.82189059781511
161,13.227239697667795,-240.6868999335353,38.713412866325626,-48.699102432343004,19.32167738588049,-4.022870057425981,244.15804453292336,52.64489243989509
162,13.244951827227206,-240.72155198435925,38.64963241788522,-49.46579316539131,19.54474849768592,-4.038856868166667,244.18317088450786,53.4549198426815
163,13.267480295679475,-240.75719324461122,38.58587963678317,-50.202522709111406,19.765437050570082,-4.066198386094291,244.20958768169825,54.23867293327453
164,13.293601772934263,-240.79321045502118,38.522131695904044,-50.896171518515054,19.980524842941445,-4.104911993941048,244.23662390173786,54.982661128585484
165,13.321961286712641,-240.8289807993761,38.45825042568922,-51.53383054023673,20.1867038768823,-4.154781112931444,244.26357309342433,55.67349491783448
166,13.351124607759305,-240.86388518637548,38.39400921925758,-52.10310542636361,20.38065404179761,-4.2153611255666625,244.2897134751037,56.29819858416219
167,13.379630827229665,-240.89732287271212,38.329123888038595,-52.59242859863591,20.559120696438136,-4.285986923526183,244.3143299874469,56.844531643064634
168,13.40604318169169,-240.92872663888693,38.26328572994497,-52.99136607876035,20.71898835910827,-4.365781663305486,244.336737139334,57.30130547550653
169,13.428996518795149,-240.95757762623532,38.19619524842247,-53.290905449751776,20.85734760095343,-4.453666879847922,244.3563014302282,57.658681458253334
170,13.447240159153337,-240.98341909409623,38.1275949081693,-53.483711835683465,20.971553424299984,-4.548374682928378,244.37246229652848,57.9084378111681
171,13.459675338806072,-241.00586856329693,38.05729915727948,-53.56434025813942,21.059274702698573,-4.648463207703074,244.38475073959435,58.04419419114471
172,13.465386816878361,-241.024627917946,37.98522000137169,-53.5293948832282,21.11853543155852,-4.752336712073882,244.3928049342459,58.06158543113528
173,13.463668435238697,-241.03949104433238,37.91138678640569,-53.3776281644315,21.147749360561008,-4.858271663664851,244.39638219520356,57.95837834801039
174,13.454042387487982,-241.05034855938882,37.83595938377319,-53.10997540744155,21.1457498631539,-4.964449826935946,244.39536673467146,57.73452788351544
175,13.436271814817209,-241.05718915385012,37.7592345317085,-52.72952273958234,21.111816542344712,-5.068998753125325,244.3897726942819,57.392170890532725
176,13.410366220780958,-241.0600970821308,37.68164562168252,-52.24140904540228,21.045699103960835,-5.17003923362245,244.37974201381186,56.935557834204594
177,13.376579172456692,-241.05924545444617,37.60375664540685,-51.65266543824299,20.947637645158775,-5.265738297431975,244.36553688161527,56.3709249097062
178,13.335397917111674,-241.05488529010046,37.5262512025221,-50.97199937824274,20.81837709268901,-5.354365368596487,244.34752684431945,55.70631180980575
179,13.287524907604423,-241.04733072265435,37.449917356952575,-50.20953428967508,20.659172565118347,-5.434348443236955,244.32617107791603,54.95133345085561
180,13.233851703607922,-241.03694115770645,37.3756288319476,-49.37651877867478,20.47178227635366,-5.504326774701441,244.30199670314548,54.116916863506354
181,13.175426225702141,-241.02410144561458,37.30432278409572,-48.485021559041975,20.25844528568486,-5.563196643281553,244.27557427319496,53.21501653151037
182,13.113414885206431,-241.00920124005208,37.236974409803175,-47.54762847200234,20.021842709707133,-5.61014727632055,244.24749170090266,52.25832224215935
183,13.049061620221037,-240.99261475981695,37.17456890015221,-46.57715643346766,19.76504263117374,-5.644684746005983,244.21832800892994,51.25997282832463
184,12.983646154391518,-240.97468220982864,37.11807151332429,-45.58639600948659,19.491430580720714,-5.666642587221287,244.18862838088398,50.233287163128125
185,12.918443755171122,-240.95569408834055,37.06839660895622,-44.58789013831064,19.20462887858289,-5.676178866704504,244.15888197181707,49.19152076686148
186,12.854688461559704,-240.93587943677232,37.026376544833305,-43.5937520007005,18.908409086839278,-5.673760425264111,244.1295037573804,48.147652899459665
187,12.793541273984626,-240.91539880926345,36.992731603915935,-42.61552090331984,18.606602200161202,-5.66013590698385,244.1008214374624,47.114205569313285
188,12.736064217795438,-240.89434243842632,36.96804252893101,-41.66405179295219,18.303011000735243,-5.636299856832478,244.07306814359677,46.103092925744235
189,12.68320061415205,-240.87273376698084,36.95272745892337,-40.74943191218295,18.001328368681357,-5.603450505054982,244.04638139990865,45.125497315714576
190,12.635761471924663,-240.85053815079516,36.94702484449591,-39.88091723140737,17.7050644795308,-5.562943852839856,244.0208083748076,44.19176707595451
191,12.594417709521831,-240.8276761029034,36.95098334381975,-39.06688163004178,17.417484912437313,-5.5162464361949315,243.99631693556287,43.3113309924244
192,12.55969777779359,-240.8040400009059,36.96445906093026,-38.31477315343058,17.14156085228812,-5.464888811434941,243.97281147685186,42.49262517851768
193,12.531989966263298,-240.77951280738077,36.9871200163204,-37.631073650780756,16.87993186722902,-5.410421448702857,243.9501520450591,41.74302957627921
194,12.511548235876617,-240.7539871224919,37.018457479476936,-37.02126024785564,16.634881221053277,-5.354374354132688,243.92817499349397,41.068812962941976
195,12.498500106689162,-240.72738286194453,37.0578036489515,-36.48976903061197,16.408323325433027,-5.298221382169086,243.90671333927867,40.475086877637835
196,12.492855215660002,-240.69966209393692,37.10435499741629,-36.039962746636725,16.20180267370343,-5.243349881318113,243.88561520601954,39.96577000082889
197,12.494513680709552,-240.67084008346995,37.15720028136213,-35.67410517555686,16.01650332933336,-5.191036066886592,243.86475922072088,39.543565104314595
198,12.503274130133585,-240.64099227570003,37.215351725309155,-35.39334511928452,15.853267713650352,-5.142426324858924,243.84406637077933,39.20995076249668
199,12.518841829762318,-240.61025759333788,37.27777739197388,-35.19771281991294,15.71262306260819,-5.0985244734597455,243.82350841708606,38.96518967139121
200,12.540837534496667,-240.57883880160918,37.34343252564105,-35.08613118238377,15.594813573458781,-5.060184789728588,243.8031133098207,38.80835482525326
201,12.56880754012609,-240.5470006980038,37.41128787442,-35.05644366204976,15.499836034279292,-5.028110339313876,243.78296808272287,38.737374172287865
202,12.602235088147093,-240.51506659721068,37.4803535545804,-35.10546021010617,15.427476696640419,-5.00285587737925,243.76321948593267,38.74909387147313
203,12.640552910594696,-240.4834132327154,37.5496976708242,-35.22902223561741,15.377347345616915,-4.984834385937416,243.74407235141612,38.83935991007693
204,12.683156372229993,-240.4524640242086,37.61845948555733,-35.42208703224629,15.348918931854074,-4.974326227561931,243.72578558298295,39.00311752142201
205,12.729416446634334,-240.42268075854957,37.68585737089906,-35.67883142526515,15.341551700417599,-4.971489944104524,243.70866581217686,39.23452744908282
206,12.778691706210047,-240.39455397057304,37.7511920155406,-35.99277345389936,15.354521370653073,-4.976373901888708,243.6930590263838,39.52709752896278
207,12.830338648748047,-240.3685924661393,37.813845370956074,-36.356909728979616,15.3870414686072,-4.988928255633678,243.67934063541136,39.8738272584291
208,12.883720032319424,-240.34531242521692,37.87327571846034,-36.76386484404415,15.438282327593692,-5.009017028087863,243.66790443828378,40.26736208890969
209,12.938211363455164,-240.32522645267804,37.92900923852139,-37.20604812976091,15.507387565924974,-5.036430408991216,243.6591509079537,40.70015334318548
210,12.99320607958401,-240.30883289950557,37.98062873363983,-37.67581236011065,15.593489045475296,-5.070897580241921,243.6534752338167,41.16461913089787
211,13.048120071184663,-240.2966057269991,38.02776064105558,-38.16560879311806,15.695721391466316,-5.112100428474249,243.6512555991005,41.653301450440324
212,13.102395961675821,-240.28898503758808,38.070061912197396,-38.66813302964992,15.813237076191449,-5.159688439758169,243.65284208423543,42.15901469977862
213,13.15550720052358,-240.28636813504266,38.107208478891515,-39.176456469915266,15.945222830593284,-5.213294942889927,243.6585463349855,42.67498096453732
214,13.20696178329975,-240.28910074707443,38.13888678216727,-39.68413863573285,16.090917775127238,-5.272554704553687,243.66863185708394,43.19494772577493
215,13.256305373922645,-240.2974680151972,38.16478930392087,-40.18531640571371,16.249633190311826,-5.337122678971367,243.6833046860666,43.713284140359164
216,13.303123666250883,-240.31168502855266,38.18461444026172,-40.67476738716902,16.420773322053925,-5.406693484424293,243.70270425945424,44.22505291210744
217,13.34704388344681,-240.33188690702548,38.19807059459842,-41.14794623073357,16.60385611419891,-5.481020939035818,243.72689447338726,44.72605602778973
218,13.387735382048637,-240.3581186473254,38.20488409463807,-41.60099449890747,16.798532371270174,-5.559936739254647,243.75585506924392,45.2128541376949
219,13.424909435179584,-240.39032516849542,38.204810356973546,-42.03072639164235,17.004601634908198,-5.64336709572787,243.78947368977904,45.68276082012145
220,13.45831839905142,-240.4283422504209,38.19764754537642,-42.43459389991896,17.222023031337493,-5.731345897893504,243.82753917410028,46.13381411006995
221,13.487754609661962,-240.4718892966276,38.183251823184364,-42.81063567244259,17.45091953033718,-5.824022883943562,243.8697368778944,46.564728399727166
222,13.51304950323897,-240.5205649671733,38.161553290323255,-43.157414086724685,17.69157443541251,-5.921665449549712,243.9156469240147,46.97483018630529
223,13.534073486633975,-240.57384658996395,38.13257180497936,-43.47394481520066,17.944419416326642,-6.024653130748052,243.96474617398218,47.36398121659673
224,13.550736844959086,-240.63109380392643,38.09643192562539,-43.75962266160547,18.21001388118131,-6.13346436829656,244.01641426000066,47.73249239066177
225,13.562991519229543,-240.69155624410172,38.053376061840204,-44.014146753877604,18.489015918763677,-6.248655822824954,244.0699433409052,48.081031440938695
226,13.570833208131255,-240.7543845482079,38.00377476265766,-44.237447546082656,18.78214547876717,-6.370835169023165,244.12455068098146,48.410527113357574
227,13.574303167652298,-240.81864378920235,37.948133128411506,-44.429617708783056,19.09014095345295,-6.500628834632316,244.17939298399656,48.722072533280326
228,13.57348925619934,-240.8833285967857,37.88709261180604,-44.590848917350904,19.413710831821174,-6.638646472631369,244.23358162362487,49.01683064636963
229,13.568526020095694,-240.9473794889051,37.821427840439306,-44.72137666893931,19.753482497998384,-6.785444050027744,244.28619823536042,49.295944932408005
230,13.559593813034361,-241.0097000807937,37.75203847211359,-44.82143542982072,20.109950455979337,-6.941487363240569,244.3363103480195,49.5604588457976
231,13.546917062385909,-241.06917483072723,37.679936449944755,-44.89122653981373,20.483426278971027,-7.107117624829964,244.38298678522625,49.811247561525064
232,13.53076182064306,-241.12468690960745,37.60622927902966,-44.93090130582233,20.873992449050963,-7.282520566543384,244.42531253546204,50.048965557472044
233,13.51143264971762,-241.17513577399603,37.532100054845856,-44.94056153566217,21.281462043626245,-7.467700299899224,244.46240279148842,50.2740133143828
234,13.489268719039112,-241.2194541550564,37.45878498557326,-44.92027936515359,21.70534603312959,-7.662458973202699,244.49341598156605,50.48652597375073
235,13.464638901077707,-241.25662441622305,37.38754912894985,-44.870137602319936,22.144829848256084,-7.866383052075332,244.51756584261813,50.68638617635356
236,13.437935768511583,-241.28569447141254,37.31966100673489,-44.79029091817755,22.598760827884544,-8.078836816831453,244.53413282039023,50.87326246651059
237,13.409568695750917,-241.30579358472013,37.25636665766214,-44.68104703003387,23.065648059879777,-8.298963419575253,244.5424752122117,51.046673521469636
238,13.379956494754415,-241.31614832786238,37.198863613254765,-44.542965570528466,23.54367587008437,-8.525693611460154,244.54204042634248,51.20607702907233
239,13.349519965886328,-241.3160987661085,37.148275329346596,-44.37697065893339,24.03073174712873,-8.757762065158921,244.53237653395263,51.350980310553204
240,13.318674475668802,-241.3051146654767,37.10562677099851,-44.184471384032186,24.52444880542573,-8.993731048140745,244.5131440250435,51.481067841536166
241,13.287822422282698,-241.28281125521573,37.07182198375669,-43.96748268726515,25.022262031153836,-9.232020981265167,244.4841274300772,51.596338861013415
242,13.257345414260573,-241.2489638907744,37.04762444641675,-43.7287378308873,25.521476635416914,-9.470947125876407,244.44524627416772,51.6972466094757
243,13.22759620216399,-241.2035208724768,37.03364078853663,-43.47178305629171,26.01934599456522,-9.708761339414806,244.3965647207645,51.784829744163765
244,13.198890742193031,-241.14661367037186,37.0303081787991,-43.20104533493545,26.51315598899265,-9.943697601147615,244.33829923312362,51.860826331204315
245,13.171501035944758,-241.07856382123703,37.03788543888124,-42.921865276822665,27.00031207181373,-10.17401985720165,244.2708235731036,51.927761509114355
246,13.145649428713286,-240.9998857905284,37.05644775234004,-42.64048918233714,27.478425067419316,-10.398070618867113,244.1946704567644,51.98900133494123
247,13.121504837468269,-240.9112852272117,37.08588476689921,-42.36401671609243,27.945391510147747,-10.614318619044424,244.11052929709413,52.04876728884999
248,13.099181043694177,-240.81365234011386,37.1259019701613,-42.100303452445225,28.399464358795203,-10.821403710403724,244.01923975564398,52.11210820976968
249,13.07873692826206,-240.70805048886007,37.17602537995079,-41.85782024393398,28.839310271831025,-11.01817715062309,243.92178119602306,52.184828833944536
250,13.060178468517165,-240.59570034232507,37.23560964610584,-41.645473736149356,29.264050344023254,-11.203735514382448,243.81925839461954,52.273376426384914
251,13.043462400829869,-240.47796005320865,37.30384949174436,-41.47239430056056,29.673282191695943,-11.377446692660808,243.71288393678836,52.3846891136376
252,13.028501516816702,-240.35630192932942,37.37979411764175,-41.34769918293746,30.067082332617804,-11.53896675977911,243.60395771433264,52.52601135155044
253,13.015171498684966,-240.23228617415518,37.46236395716634,-41.28023976106361,30.445988776430973,-11.688246890737156,243.49384398990478,52.70468341188183
254,13.00331899769328,-240.10753240283856,37.55036911988359,-41.27834242319583,30.810964588343484,-11.825529980701669,243.3839466059804,52.92791279808652
255,12.992770413073798,-239.9836896968947,37.64252896387502,-41.34955265630359,31.163343949104505,-11.951337116685297,243.2756829732116,53.20253607510089
256,12.983340708492667,-239.8624059023482,37.73749236941523,-41.50039144649803,31.504762926948164,-12.066444530009806,243.17045742862652,53.53477970728879
257,12.974841738155485,-239.74529678450972,37.833858341481346,-41.73613213372957,31.837077795909185,-12.171852089192601,243.06963447954433,53.93002820479545
258,12.967089894401058,-239.63391561756842,37.93019654067488,-42.06060464871668,32.1622742700738,-12.268744755829454,242.97451242938826,54.39260733715615
259,12.959913207384538,-239.52972384388787,38.02506733595384,-42.47603283582832,32.48237145748898,-12.358448689771516,242.88629795471718,54.925589546971175
260,12.953158118746083,-239.4340635764877,38.11704108420873,-42.98290947247958,32.79932465110961,-12.442383845113085,242.8060823625447,55.530628074271895
261,12.94669603671959,-239.3481328900314,38.20471657654063,-43.579912649162345,33.114931260396666,-12.522014973826098,242.73482045785903,56.207825695902876
262,12.94042965101658,-239.2729649646977,38.2867388799486,-44.26386634021431,33.430744228052355,-12.598802970116054,242.6733131083765,56.95564336153501
263,12.934298930112387,-239.20941212114383,38.36181703174848,-45.029747241675715,33.747997109073594,-12.674158426327713,242.62219460215502,57.77085330217911
264,12.928286645424665,-239.15813557488588,38.42874211783607,-45.870739208517435,34.06754451350557,-12.749399092913006,242.58192569464228,58.648540276064416
265,12.922423088176094,-239.11960137507248,38.48640618941898,-46.7783357469581,34.389820734908476,-12.825712612773815,242.5527928607721,59.582153329688175
266,12.916789443396162,-239.09408252039654,38.533822315886894,-47.74248985722667,34.714818084518605,-12.904125427938594,242.5349137644068,60.56360866003491
267,12.911519201302431,-239.08166672129332,38.57014585284518,-48.75180900066802,35.04208485845679,-12.985478166979778,242.5282483998071,61.58344189092887
268,12.906797073607558,-239.08226882757842,38.594696657857234,-49.793791112263925,35.370741259590076,-13.070407215008037,242.53261486427292,62.6310055274201
269,12.902855085117562,-239.09564669203218,38.60698146994248,-50.855095551970365,35.69951028501674,-13.15933170605238,242.54770840399695,63.694704863274
270,12.899965743844662,-239.12141917799403,38.606715086254695,-51.9218409725668,36.02675979748662,-13.252444993371235,242.57312223287954,64.76226357054023
271,12.89843239966671,-239.15908501428558,38.593838538160526,-52.97992061315011,36.35055183555495,-13.34970974865129,242.60836856077935,65.82100892269058
272,12.898577046775873,-239.20804120914394,38.568532351007654,-54.01532474715267,36.668695692826695,-13.450856110367893,242.65289826339423,66.85816626435246
273,12.900725904047322,-239.26759986489216,38.53122314085018,-55.014459985392286,36.97880229067461,-13.555382652125706,242.70611778390642,67.86115290201768
274,12.905193175547751,-239.33700259109517,38.48258210443952,-55.96445575170135,37.27833861264215,-13.662560344113222,242.76740225872862,68.81786280918607
275,12.912263507579556,-239.41543223704534,38.42351434756581,-56.853449261198854,37.564682125235414,-13.77144010691896,242.83610444427222,69.71693502346363
276,12.92217380062304,-239.5020221693271,38.35513861871312,-57.67084138556756,37.83517590739957,-13.880864921597402,242.9115596296222,70.54799991309898
277,12.93509515938927,-239.59586366018587,38.278757961243606,-58.40751656358758,38.087185524694505,-13.989487639684409,242.99308721860092,71.30189825819203
278,12.951115857820815,-239.69601210759507,38.195822855768306,-59.0560203340684,38.31815852393427,-14.0957955293683,243.07998999713777,71.97086826117773
279,12.970226232291727,-239.80149283229414,38.10788922204265,-59.61068841083621,38.52568685663935,-14.19814216039136,243.1715522577839,72.5486954427475
280,12.992306363506719,-239.91130714353852,38.016573966355715,-60.067721968282115,38.70757162549247,-14.29478651009329,243.26703794781477,73.03082034746008
281,13.01711730726351,-240.02443926498893,37.92351062836283,-60.42520537070125,38.861888376446345,-14.383938280011753,243.36568988061103,73.41439949842938
282,13.044296577919164,-240.13986457301326,37.83030727822613,-60.683065106614976,38.987049927950835,-14.463807510926012,243.46673084416346,73.69831635876696
283,13.073358594102105,-240.25655941231818,37.73850832367839,-60.84297200465237,39.0818627366629,-14.532655840546349,243.56936717644285,73.8831412018861
284,13.103700762773633,-240.37351251664342,37.649561414455896,-60.90819244307647,39.14557234696821,-14.58884628065954,243.67279506490402,73.971041528592
285,13.134615687904358,-240.4897378034312,37.564790208560964,-60.88339759662451,39.177893752452924,-14.630888261137441,243.7762094930526,73.96564757643945
286,13.165309628226366,-240.60428808451985,37.48537337637163,-60.77444219596796,39.17902351018221,-14.657474920886525,243.87881545066847,73.87188006758691
287,13.19492685737578,-240.7162690895638,37.41232983478379,-60.58812538240224,39.14963197198297,-14.667510196710277,243.97984079353546,73.6957491929344
288,13.222579057684543,-240.82485316438888,37.346509818904835,-60.33194587157128,39.09083566416351,-14.660124070385725,244.07855001463807,73.44413461872624
289,13.247378371964972,-240.9292920963492,37.2885910765615,-60.01386197872497,39.00415130043869,-14.63467523420728,244.1742581984435,73.12455596119464
290,13.26847234457831,-241.02892869383865,37.23907933713276,-59.642064575648064,38.891433938644255,-14.59074130793336,244.2663445593225,72.74494193803716
291,13.285078779372409,-241.12320688767062,37.19831233517171,-59.224768326828816,38.75480234699412,-14.52809754012131,244.35426511179008,72.3134046956184
292,13.296518538757072,-241.2116801351248,37.16646695966403,-58.77002407797519,38.59655480143807,-14.446685656318037,244.43756407686115,71.83802405365638
293,13.302244472466846,-241.29401784316886,37.14356935732729,-58.28555333622592,38.41907843202185,-14.3465751689659,244.51588361225288,71.32664491693865
294,13.301864941878529,-241.37000949050076,37.12950795461115,-57.77860449541209,38.22475505496001,-14.22791998720267,244.58897145118368,70.78669005714059
295,13.295160750656843,-241.43956612943214,37.12404939244101,-57.255829791603404,38.01586633189474,-14.090913482071468,244.65668605674156,70.22498992196064
296,13.282094711310013,-241.5027189447607,37.126857269289054,-56.72318179685429,37.794501149631614,-13.935745230992065,244.71899890169567,69.64763100878322
297,13.262813589705294,-241.5596145605335,37.13751335412113,-56.18582839552272,37.562468247641135,-13.762562501995868,244.7759934895779,69.05982447256339
298,13.237642713196617,-241.61050687967565,37.155540710947264,-55.648085461003724,37.32121721953967,-13.571439191378904,244.8278608221324,68.46579682569036
299,13.20707397701425,-241.6557454049847,37.180428157767906,-55.11336670846137,37.07177098556003,-13.362354443264351,244.87489120147504,67.86870466501239
300,13.171748263750706,-241.69576015468908,37.211655583562916,-54.58415033919487,36.81467260984438,-13.135182592384753,244.91746245021525,67.27057521564308
301,13.132433408839171,-241.73104343923507,37.24871953939434,-54.06196212408762,36.549948876294664,-12.889695403727035,244.95602477890662,66.67227410180081
302,13.089998848646237,-241.76212893839892,37.29115806698182,-53.547374627172886,36.27709234332947,-12.62557683249359,244.99108263787411,66.07350125178775
303,13.045388055705814,-241.78956869512336,37.338573211751815,-53.04002247738546,35.99506271275753,-12.342449700453862,245.02317398948773,65.4728153501864
304,12.99958987598903,-241.8139088074667,37.39064944704764,-52.53863395681171,35.70230733303645,-12.039912840033002,245.05284756693712,64.86768680795063
305,12.953609943288143,-241.83566477951226,37.44716639801488,-52.04107956862909,35.396799625904805,-11.71758649801222,245.080638887172,64.25457880765121
306,12.908443370097771,-241.85529766404372,37.50800471464309,-51.54443856453855,35.076093347341164,-11.37516321185453,245.10704602302582,63.629055607747965
307,12.865049791743852,-241.8731921764029,37.57314465601742,-51.045084597405534,34.73739000660319,-11.01246103799313,245.1325062863241,62.98591699867782
308,12.824331538999278,-241.8896377871866,37.642657824850765,-50.538791665125615,34.37761649555829,-10.629475936120317,245.1573749241289,62.31935756955479
309,12.787115312116882,-241.90481345057182,37.71669328531522,-50.020861231068196,33.99350996483258,-10.226430236314885,245.1819066871087,61.62314915172886
310,12.754137342090653,-241.91877621219345,37.795459719387445,-49.4862707726226,33.58170715132561,-9.803814358901882,245.20624076734484,60.89084434709271
311,12.72603174363451,-241.93145357229687,37.87920519765901,-48.92984303981226,33.138835639294655,-9.362419326352759,245.23038921342007,60.115998402719335
312,12.703321640852318,-241.94263927175166,37.96819567002573,-48.346434103530825,32.6616048294828,-8.903358183459183,245.25422864933898,59.292405905093446
313,12.686412681049111,-241.95199222840037,38.062692749306976,-47.73113698202367,32.14689462148619,-8.428075258930962,245.27749510783903,58.41434791488755
314,12.67558870183003,-241.95903863843517,38.16293113724648,-47.07949638623073,31.59183998092128,-7.938343168595885,245.29978204966292,57.476844332538704
315,12.671009525296203,-241.9631775679769,38.2690962477932,-46.38772899102823,30.993909700187604,-7.436248403431573,245.32054199069597,56.47590552113597
316,12.672711054023853,-241.9636905251269,38.38130301196014,-45.652942631804244,30.350977759059663,-6.924167078453515,245.33909239767118,55.408776489224
317,12.68060796675722,-241.95975548935655,38.49957718780693,-44.873346945717515,29.661385692358824,-6.40473280423711,245.35462655666188,54.27416620451952
318,12.694499310954743,-241.9504656826395,38.62384054292328,-44.048447255525346,28.92399426219256,-5.880798642735673,245.36622993216196,53.0724538908712
319,12.71407714158819,-241.93485300371157,38.75390099797637,-43.17921300321222,28.13822258952705,-5.355394789440513,245.37290212120257,51.80586357894
320,12.738938057112724,-241.91191563389637,38.88944832657342,-42.268211930544844,27.30407284252185,-4.831683110646236,245.37358400321526,50.478597954079994
321,12.768597098245964,-241.88064902661392,39.030055429103406,-41.31970171130405,26.422138686309484,-4.312909082489321,245.3671892813574,49.09692293876244
322,12.802503162803953,-241.84007931797947,39.175184613625134,-40.339672040785416,25.493596000325194,-3.8023511248222692,245.3526393302265,47.66919564023919
323,12.840054986591742,-241.78929801125892,39.32419780407655,-39.335832204128124,24.520174902030377,-3.3032668807993186,245.32889999665377,46.20583024905376
324,12.88061681630995,-241.72749656374558,39.47636930467163,-38.3175415865535,23.504112946507377,-2.8188357455113535,245.29501873593344,44.71919898657153
325,12.923533031666961,-241.65399937057978,39.630899829065214,-37.29568316595124,22.448090516250605,-2.3520969658389896,245.25016035060543,43.223468038042014
326,12.968141119057002,-241.56829370853964,39.78693094026061,-36.28248253336904,21.355150746178264,-1.905882955547022,245.1936397402126,41.7343713309491
327,13.013782602545096,-241.47005545709598,39.94355959507547,-35.29127724421281,20.228607595751857,-1.4827480887556306,245.12495041504334,40.268927746675914
328,13.05981179247689,-241.35916975953398,40.099852814403484,-34.33624318034297,19.071946645855245,-1.0848941031413317,245.04378792884833,38.845109646598694
329,13.105602400641367,-241.23574611617934,40.2548624682896,-33.43208607658158,17.888723752563443,-0.7140942519239333,244.95006771193508,37.48147236329247
330,13.150552095774826,-241.10012761917264,40.40763993874882,-32.5937075278935,16.682466855764584,-0.37161930957402783,244.84393696533908,36.19675562990922
331,13.194085064908656,-240.9528941101824,40.55725026066852,-31.835855794566015,15.456586099562504,-0.0581692559051378,244.7257803241132,35.00946895333738
332,13.23565289738286,-240.79485903544258,40.70278529369024,-31.17277264981862,14.214297053981916,0.22618520503861253,244.59621900261433,33.93747379095877
333,13.274734664981894,-240.62705981039883,40.84337543281742,-30.617848284895857,12.958561302616772,0.4820472232082522,244.45610320331332,32.99757602809127
334,13.310837564463217,-240.45074169217193,40.978199333779834,-30.18329665237729,11.692048019608075,0.710720868296528,244.30649778476706,32.20514247653801
335,13.343499528216933,-240.26733550806713,41.106491246028945,-29.879863299975497,10.417119370906589,0.9142178303657232,244.14866155709436,31.573754659007943
336,13.372294775040789,-240.07843000930893,41.22754581316159,-29.71657655073798,9.135841540940163,1.0952418864112718,243.98402100976753,31.11491181857499
337,13.396842614240569,-239.8857399866155,41.34072049725225,-29.700550866374908,7.850021823425463,1.2571503803219168,243.8141396489597,30.83779290787271
338,13.416819148477005,-239.69107154093865,41.44543608273027,-29.836848623250063,6.561270534200377,1.4038930888552652,243.640684383654,30.749084485374933
339,13.43197093945976,-239.49628604246027,41.541176038641865,-30.12840361044589,5.271084631523216,1.539929865748518,243.4653905556983,30.8528782618042
340,13.442129274882777,-239.3032643048771,41.62748572973388,-30.57600654644827,3.9809481003319447,1.6701293148616725,243.29002721185765,31.150638757248426
341,13.447223502154813,-239.11387231029335,41.70397233570301,-31.178350011192922,2.692442661752743,1.7996514468152656,243.1163639926779,31.641238403778026
342,13.447292015940533,-238.92992948314856,41.7703058437847,-31.932127613280738,1.407361447282142,1.9338178377648914,242.94614060259522,32.32105470261239
343,13.442489795158494,-238.7531801708675,41.82622092770409,-32.83218009910645,0.12781803947604395,2.077973224385575,242.7810394138963,33.18412186514427
344,13.433091725235682,-238.58526875848045,41.87151926677234,-33.87167951677264,-1.1436562826968522,2.237342717305754,242.62266150742397,34.22232777185552
345,13.419491279636748,-238.42771869353663,41.906071934531006,-35.0423415228663,-2.4040332462220664,2.416888888969208,242.4725063391457,35.425646092935295
346,13.402194502257428,-238.28191552116346,41.929821641575636,-36.334655552335214,-3.6497309878433217,2.621172890927625,242.33195509673138,36.782393079587884
347,13.381809572111454,-238.14909380530204,41.94278464691956,-37.738122922602514,-4.876583355524441,2.854223496764126,242.2022576134722,38.27949888213313
348,13.359032461638924,-238.030327620117,41.94505210462166,-39.241493932737285,-6.079836777620874,3.1194176137632286,242.0845225201688,39.902784183394
349,13.334629331766365,-237.92652418299429,41.936790628304216,-40.832996386043426,-7.254174972084791,3.4193754546546047,241.97971021138852,41.637234199275674
350,13.309416375762963,-237.83842011152555,41.918241964694,-42.500549397962246,-8.393770536870258,3.7558732629635054,241.88862813313023,43.467263399556906
351,13.284237825206764,-237.76657966802117,41.889721787098416,-44.231957681053196,-9.492361430458296,4.129776201666398,241.81192779854814,45.37696548821708
352,13.259942820334361,-237.71139427770646,41.8516176429181,-46.01508275675572,-10.543349547792454,4.540993659553013,241.75010286313508,47.35034429813044
353,13.237361946457828,-237.6730827006721,41.804385950657526,-47.83798886582038,-11.539918025628806,4.988458750410858,241.70348766461498,49.37152244510145
354,13.217284436513255,-237.65169150732396,41.74854768060082,-49.68906284400531,-12.475163528208359,5.470133159031565,241.67225586504696,51.424925960692356
355,13.20043711930263,-237.6470957948449,41.684682101154046,-51.55710889339187,-13.34223946560695,5.983037708408796,241.65641907755173,53.49544466561506
356,13.187465982540642,-237.6590002567139,41.61341788942362,-53.43142087958631,-14.134505774542934,6.5233081000965845,241.65582550733671,55.56856960741277
357,13.17892083359665,-237.6869408238596,41.535421112540746,-55.30183628966853,-14.845680534453281,7.086274304261048,241.67015875968153,57.630510243489915
358,13.175243248735654,-237.7302872474551,41.45138006228089,-57.15877701931724,-15.469988399906391,7.666561161530006,241.6989371871385,59.66829496134661
359,13.176757911443064,-237.788247192267,41.36198747691249,-58.99328246328643,-16.002300726657534,8.25820696453735,241.74151443689644,61.669858779316996
360,13.183667422587622,-237.85987256726594,41.26792112089628,-60.79703978066861,-16.43826244568717,8.854796122195392,241.7970820888607,63.62412152662237
361,13.196050562088159,-237.9440688735098,41.16982394103867,-62.56241465077749,-16.774401243949814,9.449601490942452,241.86467536279866,65.5210584491114
362,13.213863785724792,-238.0396082673576,41.068285060119024,-64.28248350554253,-17.00821541297253,10.035731619409784,241.9431827867294,67.35176320114793
363,13.236945585275986,-238.14514678055812,40.96382274026703,-65.95106557127784,-17.13823773172679,10.606278012627547,242.03136043367164,69.10850096698385
364,13.265023364583747,-238.25924569670252,40.856870284176445,-67.56275069431294,-17.164073839783207,11.154457568466713,242.1278508696177,70.78474755096309
365,13.297722690849037,-238.38039652484153,40.747765797220936,-69.11291741857292,-17.086414589798686,11.673745573226537,242.23120640623415,72.37520916979132
366,13.334579012888527,-238.50704846103974,40.63674681195301,-70.59773546496113,-16.9070226931772,12.157995106670397,242.3399157340907,73.87581765786996
367,13.375051969100303,-238.63763682336707,40.52395077927542,-72.01414773386604,-16.628694514661724,12.601539446425342,242.45243261707222,75.28369695018964
368,13.41854209140128,-238.7706108057508,40.40942211588811,-73.35982911814929,-16.255198204833505,12.999275054915199,242.56720512759023,76.59709897010408
369,13.464409175230449,-238.90445907010687,40.29312582065341,-74.63312246628696,-15.791189671272843,13.346723873361528,242.68270394017532,77.81531016180499
370,13.511991203651931,-239.03773211298468,40.17496684746752,-75.8329554124554,-15.242108385214426,13.640074815943843,242.79744845889846,78.93853336297788
371,13.56062273304747,-239.16906085245304,40.054813763294,-76.9587447656485,-14.614055824667368,13.876205457697932,242.91002994719565,79.96775282815288
372,13.609651951459085,-239.29717133649473,39.93252495161092,-78.01029708155194,-13.91366041143665,14.052685853200899,243.01913124455763,80.90459234395672
373,13.658455951334366,-239.42089577973604,39.80797576494417,-78.98771459091273,-13.147933846242651,14.16776712374006,243.12354299019637,81.75117712625475
374,13.706454012562533,-239.53918026019647,39.681085377111074,-79.89131483783405,-12.32412442641962,14.22035785796658,243.2221764603353,82.51000948225128
375,13.753118899778356,-239.65108938645258,39.55184231175195,-80.72157048054378,-11.449572979665238,14.209991493049008,243.3140731465786,83.18386628916787
376,13.797986342736454,-239.7558081735398,39.420327513111545,-81.47907318779549,-10.531576409701058,14.13678773025353,243.39841111797355,83.77572364179368
377,13.840662919539412,-239.85264136979052,39.28673342284263,-82.16452295445202,-9.577262658934538,14.0014107253511,243.47450814887077,84.28871111347198
378,13.88083242632896,-239.94101062780786,39.15137711776674,-82.77874195431471,-8.593479375728977,13.805026265329229,243.541821672173,84.72609549017069
379,13.918260511861904,-240.0204501529129,39.01470553158664,-83.32271056150093,-7.586696972548822,13.549259392632795,243.59994583832537,85.09129192501038
380,13.952797021670989,-240.09060164421007,38.87729135009694,-83.79762237360379,-6.56292530296579,13.236153062167944,243.64860621965792,85.3878992362924
381,13.984375305790595,-240.15120935059934,38.73981918361816,-84.20495457988093,-5.5276420695311375,12.868127610024445,243.6876528645189,85.61975521122882
382,14.013007784063388,-240.2021159085977,38.603062731021524,-84.5465493430163,-4.485730454858364,12.447940253666925,243.71705243485732,85.7910068344152
383,14.038777342197786,-240.24325943621224,38.46785463648371,-84.82470073264739,-3.441423421463304,11.978643585813368,243.7368801448537,85.90618908023903
384,14.061824631941482,-240.27467221763055,38.335051497276424,-85.04224033006459,-2.3982526364973498,11.463542038307823,243.74731223021286,85.97030444690806
385,14.082331991577215,-240.29648115124004,38.20549686125605,-85.2026134891342,-1.359000976451096,10.906145576491966,243.74861961552227,85.98889431961521
386,14.100505304060043,-240.3089097931144,38.07998496619728,-85.30993808582329,-0.32565897010084144,10.310120470205648,243.7411631317695,85.96809321094057
387,14.116555454191362,-240.3122813117786,37.95922748977007,-85.36903886531958,0.7006127991310666,9.679237826775351,243.7253900688592,85.91465835756887
388,14.130681026826892,-240.30702121397752,37.84382483035961,-85.38545315212973,1.7195116689051875,9.017321482659332,243.70183127845922,85.83596996102122
389,14.14305356801072,-240.29365855912437,37.73424259019083,-85.3654071940403,2.731606360761213,8.328197595052025,243.67109775227993,85.74000097820766
390,14.15380629056277,-240.27282458797723,37.63079324678897,-85.31576599623371,3.738330579874139,7.615648664103855,243.63387567574048,85.63525901912023
391,14.163026743059135,-240.2452481094822,37.53362269866064,-85.24396242558147,4.7419518792113555,6.883374663512352,243.5909193023708,85.53070587756004
392,14.17075378157205,-240.2117474893785,37.442701411565054,-85.15791304690609,5.745512249740693,6.134963487025291,243.54304148023496,85.43566196474805
393,14.176979119947076,-240.1732195724229,37.35782003816735,-85.06592823392306,6.752738827983608,5.373872154468857,243.49110215722962,85.35970310676403
394,14.18165359459917,-240.1306262025512,37.27858948090195,-84.97662253118477,7.767925310770497,4.603419326677565,243.43599552130866,85.31255576682794
395,14.184697914270052,-240.08497901961044,37.20444541027873,-84.89882838959454,8.795786826322686,3.8267887823255156,243.37863642614207,85.30399410523619
396,14.186017090677163,-240.03732288464508,37.13465726873244,-84.84151300693625,9.841292881778745,3.0470426820315004,243.31994639616582,85.34373910999278
397,14.18551713234662,-239.98871781132058,37.0683417724067,-84.81369499989256,10.909484422087335,2.2671427234435177,243.26083899620795,85.44135720921423
398,14.183122161367681,-239.94021895627918,37.004480803150415,-84.82435576771316,12.005281927359004,1.4899767039003156,243.20220398610385,85.60615404263733
399,14.178790054164926,-239.8928542517769,36.941943282095025,-84.88234003479731,13.133291887535657,0.7183875968318925,243.14488966092048,85.84705877401635
400,14.17252502508073,-239.84759964323848,36.87951016968766,-84.99624116634733,14.297619031259767,-0.04479792414420784,243.0896831023412,86.17249546181665
401,14.164386110254354,-239.80535241668528,36.81590135419952,-85.17426919427648,15.501691444635222,-0.7967444618471525,243.03728855627037,86.59024033475481
402,14.154491069500502,-239.76690350284053,36.74980310465658,-85.42410265491765,16.748105243758754,-1.5345889177922039,242.9883045693963,87.10726692664454
403,14.143015704782941,-239.73290980352954,36.67989500235188,-85.75272874872938,18.03849478142448,-2.255429497199499,242.94320074042582,87.72958433110846
404,14.130188987324262,-239.70386759814204,36.60487563770504,-86.16627933571476,19.373433465719188,-2.9563239485747377,242.90229503558157,88.46207668585343
405,14.116284656751066,-239.6800881318896,36.52348670331268,-86.66987233512224,20.752369103701138,-3.634297631233315,242.86573273190214,89.3083538367115
406,14.101610027575035,-239.6616766252811,36.43453543493888,-87.26746892422535,22.17359622667473,-4.286361410237622,242.83346824333347,90.2706236793255
407,14.086492609858642,-239.64851607983783,36.33691566607594,-87.9617565507289,23.63426615332549,-4.9095388273198255,242.805251261806,91.34959596063955
408,14.071264968318776,-239.64025727344196,36.22962794094564,-88.75406642141314,25.130433707491406,-5.500901453311335,242.78061868471113,92.54442559277042
409,14.05624821531158,-239.63631621440314,36.111799009992055,-89.64433213753748,26.657137634634857,-6.05761078337359,242.75889366368878,93.85270113727817
410,14.041734752600572,-239.63588006764607,35.98270062121417,-90.63109387626854,28.20851000301381,-6.57696450509535,242.73919281468486,95.27048145210576
411,14.027971244614802,-239.63792217894428,35.84176704116568,-91.71155026075213,29.777908469369454,-7.056444491592405,242.7204422010106,96.79238091508846
412,14.01514313958686,-239.64122634625184,35.688610411072,-92.88165789780275,31.358064489535952,-7.493763554742406,242.70140220278208,98.4117013174428
413,14.003362224927661,-239.64441998707616,35.52303289374888,-94.13627634623008,32.941240519835524,-7.886907988973089,242.68070087996267,100.12060640265105
414,13.992658637151155,-239.64601532625497,35.34503451172529,-95.46935387019252,34.51938999704929,-8.234173316478305,242.6568749053442,101.91033301563102
415,13.982978416381812,-239.64445716680524,35.15481561026481,-96.87414683565066,36.08431527442694,-8.534191339931924,242.62841657381838,103.77143099802255
416,13.974187165398355,-239.63817530443123,34.95277308339021,-98.34346336888812,37.62782048335133,-8.78594747110994,242.5938248967881,105.69402255525098
417,13.966079797471808,-239.62563933489344,34.73948990175644,-99.86992029185383,39.141858148295846,-8.988788187938813,242.55165850747449,107.6680710483084
418,13.958395893060967,-239.60541349220796,34.51571797986326,-101.44620161980393,40.6186699288099,-9.142419251280545,242.5005880377605,109.68364909590342
419,13.95083990155618,-239.5762091795266,34.2823549019581,-103.06530711973105,42.05092278938404,-9.246895875859652,242.43944570253882,111.7311964465356
420,13.943105249753348,-239.53693300647458,34.040415461585816,-104.72078048552642,43.43184208320031,-9.302606326871109,242.3672700277541,113.80175915218874
421,13.934901203224696,-239.4867284260719,33.79099935443584,-106.40690834244752,44.755342547363504,-9.310250408560433,242.28334397383614,115.88720294215906
422,13.925981020040387,-239.425009384196,33.53525663999812,-108.11888326248571,46.01615721953746,-9.270814102195528,242.18722504032323,117.98039515629412
423,13.916169667866559,-239.3514846845732,33.27435268454291,-109.85292607245866,47.20996298923909,-9.185541299177187,242.0787662183985,120.07535105353863
424,13.905389298457953,-239.2661720936218,33.009434173658086,-111.60636492025888,48.33350005175611,-9.055903220032297,241.9581269495071,122.16734177591893
425,13.893680798440505,-239.1694016441429,32.74159742950545,-113.37767081095363,49.384681095492255,-8.883565732648554,241.8257736318089,124.25296275447695
426,13.881219962195981,-239.0618080710814,32.47185979297744,-115.16645152756237,50.36268483911691,-8.670354428950912,241.6824696286768,126.33016287309715
427,13.868327058885251,-238.9443126290461,32.20113446266773,-116.9734078068463,51.268027788837315,-8.418217080539888,241.52925500476135,128.3982361663004
428,13.855468731152781,-238.81809460274866,31.930209063846245,-118.80025716250088,52.10260795662374,-8.12918305054517,241.36741626426348,130.45777910991328
429,13.843251285804849,-238.68455277939182,31.659728253964058,-120.64963181634414,52.86971475140753,-7.805319411539731,241.19844633035828,132.51061765088173
430,13.832404634728707,-238.54525730759642,31.39018064246564,-122.52495794380516,53.574000218798346,-7.448683889312356,241.02399516150084,134.55970909819496
431,13.823756561872642,-238.40189290391078,31.12189009010867,-124.43032398553835,54.22140813451778,-7.061275266540462,240.8458119248189,136.60902492375914
432,13.818197667442398,-238.2561951457277,30.85501110086932,-126.37034616305054,54.8190589858488,-6.6449824130006965,240.66568040924423,138.6634213616131
433,13.816638145247017,-238.10988224915695,30.589527664620135,-128.35003959231713,55.375090381596245,-6.201533503763041,240.48535001461886,140.72850536900097
434,13.819958256124941,-237.9645850313281,30.32525466709657,-130.37470354813522,55.89845374324312,-5.732447182611933,240.3064649594779,142.81050397725716
435,13.828954765628398,-237.82177773115725,30.061840931344225,-132.4498294171344,56.39866926769439,-5.238987483462179,240.1304943390586,144.9161452589327
436,13.844285642875956,-237.68271216917543,29.79877315615743,-134.58103942551026,56.88554231610938,-4.722124314966778,239.95866549756653,147.05255892479175
437,13.866415097730318,-237.54835751451392,29.535380453855282,-136.77406297182054,57.36884579086445,-4.182501278181232,239.79190300824934,149.2272037076527
438,13.895560846015341,-237.4193478071096,29.270839686546466,-139.03475505951903,57.8579748008263,-3.620412538225275,239.63077548630991,151.4478269849941
439,13.931645545745813,-237.2959393636087,29.00418213576367,-141.36915789217124,58.361581915934835,-3.0357904088308847,239.47545248500387,153.72245950279233
440,13.97425459189083,-237.17798015136754,28.734302147224504,-143.78360246766223,58.88720336868439,-2.4282052100434797,239.32567370870024,156.0594447767635
441,14.022602666831707,-237.06489302255517,28.459968364878737,-146.2848425383321,59.44088832805309,-1.7968787901730425,239.18073259412927,158.46749911946026
442,14.0755114260013,-236.95567436073,28.179838096603238,-148.88020925071103,60.02684444996508,-1.140712835176067,239.0394759643048,160.9557947109611
443,14.131400369761556,-236.84890925347173,27.89247525936165,-151.57777173903497,60.647113034866756,-0.45833270853467395,238.90032099515787,163.53405515549122
444,14.188292312541352,-236.74280373831485,27.596372248863407,-154.38648728514698,61.301286310324876,0.25185291147292815,238.761290127031,166.21265091720707
445,14.243834014048531,-236.63523392362663,27.289975969456044,-157.31632439968325,61.986277830327104,0.9915768610005916,238.62006375684143,169.00268105098968
446,14.29533169242695,-236.52381092024658,26.971718084565317,-160.3783430911551,62.69615501149399,1.7626236055791913,238.47404962451142,171.91602764959077
447,14.339800475617231,-236.40595969624638,26.640049226786193,-163.5847183933873,63.42204061551895,2.5667260416870445,238.32046692076702,174.96537025222605
448,14.374026395569844,-236.2790093110674,26.29347643714566,-166.9486957709989,64.15208767519829,3.405451005456861,238.15644241849498,178.16414902535652
449,14.3946391923704,-236.14029149130437,25.930602622931545,-170.484470302079,64.87153005559657,4.280076171587729,237.97911537240662,181.52646786468952
450,14.398193865953678,-235.9872440887983,25.550166558053814,-174.206985502591,65.56280865904618,5.191461738396097,237.78574747237337,185.0669316804427
451,14.381258579919459,-235.81751557666036,25.151082008711906,-178.13165207397648,66.20577136212563,6.139921048665252,237.5738337498146,188.8004158413338
452,14.340506255171658,-235.62906650272396,24.732474798271426,-182.2739913153568,66.77794323912846,7.1250950231426335,237.34121012169598,192.74176971899422
453,14.272807057658314,-235.42026387840482,24.29371676544288,-186.6492120234479,67.25486253932286,8.145835866314892,237.08615333213405,196.90546011047084
454,14.175319029084733,-235.18996481434002,23.83445552851146,-191.27173311108172,67.61047720457377,9.200105819896766,236.8074693907908,201.30516372357255
455,14.045574376583433,-234.9375861799824,23.354638887850957,-196.1546667710458,67.81759627915606,10.284896692158751,236.5045670870843,205.95332069665977
456,13.881559404943657,-234.6631575884978,22.854532764628296,-201.30927878015012,67.8483901314176,11.396175433397712,236.17751372419002,210.8606631859599
457,13.681786591268201,-234.36735559244676,22.334731856248688,-206.74444354610895,67.67493276656096,12.528860167061255,235.82707086554234,216.0357343725613
458,13.44535768363247,-234.05151759534036,21.796162652162298,-212.46611186330406,67.26977856455957,13.676829857099195,235.45470857905062,221.48441388460213
459,13.172016902635027,-233.7176346149522,21.240078981139316,-218.4768091934885,66.60656451853406,14.832969253093735,235.06259736174115,227.20946570733543
460,12.862193446039203,-233.36832273876902,20.66805065006492,-224.77518175655703,65.66062751087605,15.989249029965466,234.65357767912835,233.2101242912345
461,12.517032645049056,-233.0067739995439,20.08194579477373,-231.35560691640336,64.4096244341019,17.136839319589605,234.2311079562797,239.48173388982002
462,12.138415233174076,-232.63668846657814,19.48390731121517,-238.20788329015312,62.834141211638006,18.266253294610056,233.7991929067209,246.01545521519878
463,11.728964140410335,-232.2621904127923,18.876323453512693,-245.31701456764728,60.918275250155716,19.367516203041355,233.36229511826963,252.79805222277182
464,11.292038080123875,-231.88773226809377,18.261792745174073,-252.66309901420075,58.65017482872289,20.430354286751566,232.92523365921872,259.81177010111924
465,10.831711162365307,-231.51799064124086,17.64308389144128,-260.22133390642676,56.022518614860246,21.444397354084497,232.49307408326368,267.03431325183703
466,10.352737894498677,-231.1577590193195,17.02309212928463,-267.9621406735881,53.03291901011478,22.399388435512144,232.07101460814508,274.43892915977364
467,9.860503058597075,-230.81184182437372,16.404793921699458,-275.85141234805485,49.68423436078768,23.285393939082553,231.66427335718407,281.9946006073456
468,9.360955989151847,-230.4849542631664,15.791201823538552,-283.8508802808188,45.98477707582039,24.09300801137355,231.2779812990319,289.66634481587
469,8.860528824384772,-230.18163183931156,15.1853208201971,-291.9185923282996,41.94840712744045,24.8135453370687,230.91708490566566,297.41561407745166
470,8.366038547372261,-229.90615255209593,14.590106749640464,-300.00949031586833,37.59450303597251,25.439217296708488,230.5862616499818,305.2007886309866
471,7.884573135893167,-229.6624737205211,14.00842679001969,-308.07607092173583,32.94780515305234,25.963287188064488,230.2898503407344,312.97774927623084
472,7.423362826962895,-229.45418410504715,13.44302152041237,-316.06911147252316,28.038128919732298,26.380201091465345,230.03179700719554,320.70051478427155
473,6.989638266157644,-229.2844707254646,12.896467736698352,-323.93844067015056,22.89994893460354,26.685691943971168,229.8156157644914,328.3219277529992
474,6.590478100682797,-229.1560986972559,12.371141018357436,-331.63373404442535,17.571858211761953,26.87685549923764,229.64436301491605,335.7943722631369
475,6.232649330751184,-229.0714015586281,11.86917701502913,-339.1053148418725,12.095910869544834,26.952198074086827,229.52062249760837,343.07050741198316
476,5.922444344075825,-229.03227877131073,11.392430572954389,-346.30494281729557,6.516860434643592,26.911657226634453,229.44649792169534,350.10400221921776
477,5.665518978996001,-229.04019626813997,10.942432152730092,-353.186575585086,0.881309656666031,26.756597595005825,229.42360912279878,356.85025908448847
478,5.466736299261628,-229.09618530946935,10.520341477050325,-359.70708945826203,-4.763209092220129,26.489784846951316,229.4530870915223,363.26711456857106
479,5.330021106907478,-229.20083487084815,10.126898931543307,-365.82694886313095,-10.369201309211475,26.115340891977006,229.5355632069353,369.31550759415285
480,5.258230461465307,-229.35427350082747,9.762375872847118,-371.51081547819723,-15.890202528257262,25.638683127563578,229.67114874713437,374.96010626909487
481,5.253045404336794,-229.55613795578887,9.426525649571603,-376.72809039980103,-21.281770816866747,25.066449612023256,229.85940213194965,380.1698856682348
482,5.314888609860436,-229.80552772758176,9.118537744535255,-381.45338514381115,-26.502454339870166,24.406410904125895,230.09928316460196,384.91865038137047
483,5.442871882438874,-230.10094665384992,8.83699790760083,-385.66692028129677,-31.514707687118232,23.667368169685382,230.38909560249363,389.1854976157605
484,5.634776472617024,-230.44023498661497,8.57985749512902,-389.35485377100423,-36.28572936089695,22.859036271955812,230.72642155383423,392.95521895824254
485,5.887068256517837,-230.82049744292718,8.344415583458543,-392.509543959931,-40.788191444448564,21.991910098114246,231.10805332614396,396.21864095955755
486,6.194948980513078,-231.23803469848687,8.127317715171982,-395.129753878237,-45.00083156377226,21.077112440483297,231.52993027132254,398.97290567010157
487,6.552443992005812,-231.68828722169445,7.924575047923367,-397.2208031415585,-48.90887763383934,20.126222427943887,231.98708957887285,401.22169152911357
488,6.952526085562293,-232.16580093122974,7.73160696919427,-398.7946713688142,-52.50427847090798,19.15108476745068,232.4736405037021,402.97537261608505
489,7.3872741954764445,-232.66422372531042,7.543308993945932,-399.87005299615777,-55.7857188718845,18.163601719130742,232.9827710102409,404.251110833549
490,7.848064547943887,-233.17634054981832,7.354146142752315,-400.4723584863967,-58.758406398865,17.175511501289975,233.50679435307228,405.0728719546903
491,8.325790465298441,-233.69415246893558,7.158270074036727,-400.6336520365783,-61.433628360596266,16.198158443503438,234.0372408237411,405.4713534262244
492,8.811105334382978,-234.20900228507872,6.949656216595758,-400.3925117821494,-63.82809023889652,15.242261518147066,234.564996885864,405.48380997262865
493,9.294681502878634,-234.71174587330924,6.72225547677699,-399.7937958625078,-65.9630595903719,14.317688818775723,235.080490450934,405.153762767516
494,9.767476293359602,-235.19296495481643,6.4701540983210215,-398.8882970288568,-67.86335073939905,13.433246087133776,235.57391752900958,404.530579361686
495,10.220995164486313,-235.64321390941058,6.1877347829738545,-397.73227000928057,-69.55619413208832,12.596487462500743,236.03550230284455,403.66891468461023
496,10.647541533259403,-236.05329065355403,5.869831918987984,-396.3868195852587,-71.07003935943192,11.813556166469045,236.4557800631673,402.62800812314487
497,11.040442990491737,-236.41451973278652,5.511873712227944,-394.9171428604676,-72.4333425259316,11.089061816998631,236.82589056066362,401.47083752329195
498,11.394244463532175,-236.719034693366,5.110004494957955,-393.39162573385516,-73.67338729318627,10.425999537803673,237.13786828458984,400.2631372846173
499,11.704860153795435,-236.9600465441528,4.661181732553504,-391.880800256075,-74.81518530920343,9.82571412843423,237.38491601225473,399.07229379729233
500,11.96967777185837,-237.1320856537402,4.16324409928427,-390.45617571624877,-75.88049659691507,9.287910504083829,237.56164864160604,397.96613679944545
501,12.187610670482988,-237.2312056440507,3.6149490345276636,-389.1889617450783,-76.8870043226657,8.810709650119575,237.6642956973938,397.01164965338205
502,12.35909578234962,-237.25513961973587,3.0159800612038534,-388.14870658179757,-77.84767135791503,8.39074766284486,237.69085284667224,396.27362522395174
503,12.48603760241581,-237.2034012992942,2.366925666062671,-387.40187827339565,-78.77029815852077,8.023314149470309,237.64117513985326,395.81329731844374
504,12.571700648833612,-237.0773261538375,1.669232671877234,-387.0104212317017,-79.65729278581061,7.702525287240154,237.5170073627163,395.68698079480856
505,12.620554831822204,-236.8800503616512,0.9251378535854174,-387.0303253219522,-80.50565472404973,7.4215260688254014,237.32194969142182,395.9447565604698
506,12.638080017916106,-236.6164281301095,0.13758214454418757,-387.51024925204274,-81.30716503390693,7.172715587905378,237.06135967617658,396.6292405968523
507,12.630537847723541,-236.29289061502,-0.6898878567311866,-388.4902438831643,-82.04876678196113,6.9479886068259376,236.74219434074553,397.77447833794275
508,12.604720447561052,-235.91725213621473,-1.55322623136779,-390.00062327964173,-82.71311188843364,6.738986088964191,236.37279872319212,399.4050063590525
509,12.567686833825144,-235.49847148643406,-2.447997127898691,-392.0610308466963,-83.27924377204216,6.537346874894532,235.96264932306062,401.53512145534506
510,12.526498293237681,-235.0463777575696,-3.3694826288200335,-394.679744001848,-83.72337977217192,6.334952258496082,235.5220625500895,404.16839214270925
511,12.487963705993069,-234.57137124499118,-4.312785106165287,-397.8532532377344,-84.01975373221717,6.124154939910457,235.061879369757,407.29743927655124
512,12.458404761856377,-234.08411066796364,-5.272921010015811,-401.56614054089533,-84.14147778832162,5.897983811522208,234.59313795217727,410.9040013773526
513,12.443449567631548,-233.59519821772835,-6.24490413997378,-405.79126895562723,-84.06138366905378,5.650316415216923,234.1267463212386,414.9592875088347
514,12.447861486465657,-233.11487384763487,-7.223817481171535,-410.49028117138937,-83.75280776613354,5.376011806047435,233.67316681139675,419.42460775142035
515,12.475408241761667,-232.65272970583086,-8.204873561599468,-415.614392087061,-83.19029062235671,5.070998010291604,233.24212352775302,424.252260085259
516,12.528774315228352,-232.21745460855553,-9.183464082487975,-421.10544976667967,-82.35016967153629,4.732310249284948,232.84234290109958,429.3866440496772
517,12.609517499944282,-231.81661697798148,-10.155200319014282,-426.89723174048993,-81.21105313158154,4.358078520534342,232.48133585178533,434.7655663065308
518,12.718068341747886,-231.4564928140118,-11.115946351066016,-432.9169390843296,-79.75417183040813,3.947465816008524,232.1652281164262,440.32170079313966
519,12.85376939743303,-231.1419430971323,-12.061847368017991,-439.08684835323305,-77.96361347784523,3.5005609927607253,231.8986430136159,445.984165519787
520,13.014949888119828,-230.87634260794223,-12.989355035023344,-445.3260802509153,-75.82644989705497,3.0182328390405946,231.68463840945486,451.6801781503055
521,13.199030331102048,-230.66155973754104,-13.895251366748633,-451.55244305932814,-73.33277190330679,2.5019539199021357,231.52469713248897,457.33675249915865
522,13.40265094943129,-230.49798477524854,-14.776671990881923,-457.6843078561807,-70.47564917774152,1.953604104628425,231.4187679096173,462.88239761156495
523,13.62181710506895,-230.38460255618887,-15.631129249307962,-463.6424712694674,-67.25103410100205,1.3752642212230153,231.3653522179273,468.2487801425976
524,13.85205478710881,-230.31910418375475,-16.456535224562526,-469.3519600958573,-63.657629465993104,0.7690102199046752,231.36163122812414,473.37230954683935
525,14.088569285346487,-230.29803168336755,-17.251224353870505,-474.743730959576,-59.69674042261357,0.1367178046564384,231.40362611780967,478.19560458492634
526,14.326400451751967,-230.31694874302465,-18.013974720563223,-479.7562179645071,-55.37213081603153,-0.5201131181343445,231.48638429541253,482.66879949349345
527,14.560568383679964,-230.37063007851373,-18.744026405912944,-484.33668274148727,-50.68990298630911,-1.200505531268779,231.6041834265713,486.75064956857926
528,14.78620410342647,-230.45326159766267,-19.441094567539015,-488.442325021813,-45.65841775171925,-1.9041160526766754,231.7507447844503,490.409399461367
529,14.998660958267607,-230.55864376104557,-20.10537439069849,-492.04111811149437,-40.288267438115994,-2.631302286831944,231.91944770648598,493.6233834123862
530,15.193603953733295,-230.68039148006923,-20.73753490827091,-495.1123421306919,-34.59230945916577,-3.3831407877562385,232.10353797369444,496.3813347199413
531,15.367075902951404,-230.81212528833257,-21.3386989839319,-497.6467979244517,-28.585761482703507,-4.161391105219075,232.29632446458245,498.6823913142127
532,15.515540955900015,-230.9476499074279,-21.910407530794743,-499.64669529771123,-22.286352319652686,-4.968403405817419,232.49136000901902,500.5357946055558
533,15.63590758372043,-231.08111739516784,-22.454567256817313,-501.12521995526555,-15.714516177093245,-5.806969764394424,232.68260365704714,501.9602891153928
534,15.72553425145919,-231.2071727357645,-22.973382738550477,-502.10579375190866,-8.893612638357213,-6.680122315299824,232.8645624810514,502.9832403179631
535,15.782221678469227,-231.32108001716637,-23.469275224444463,-502.6210523489855,-1.8501512884692108,-7.590884831376342,233.03241152749123,503.63949738652366
536,15.804195734613296,-231.41882726551927,-23.944792068718975,-502.71157311059585,5.386001407971535,-8.541987648544751,233.1820906307048,503.9700361001991
537,15.790084773187678,-231.4972076741777,-24.40251189211622,-502.4243941129106,12.781454642933657,-9.535558780791874,233.3103765857039,504.02042503882893
538,15.738894757939596,-231.55387461880812,-24.844951238021174,-501.8113724895756,20.299184626826587,-10.572806163808503,233.41492888182907,503.8391653249481
539,15.649985039049973,-231.5873678616992,-25.27447852198677,-500.9274369259887,27.898501205256213,-11.653706906740778,233.49430718957439,503.47596044979804
540,15.523047053513174,-231.59710907647013,-25.69324051735315,-499.8287947688311,35.535103251007605,-12.776719123111217,233.54795943120166,502.97997794556255
541,15.358087497052813,-231.58336636423525,-26.103105611238096,-498.57115851583654,43.16123397744547,-13.938530553173031,233.57618065663962,502.3981684230295
542,15.15541671175247,-231.547189484171,-26.505626666914843,-497.2080586417067,50.72594539116177,-15.133856203407674,233.58004480269184,501.77370904096057
543,14.915642365799725,-231.4903195918307,-26.90202459400317,-495.78930880732355,58.17547904072352,-16.355295069682057,233.56131326197726,501.1446368167983
544,14.639668077551619,-231.41507901107158,-27.29319187603261,-494.3596845034515,65.45376726430337,-17.59325400060194,233.5223257001584,500.54273132037275
545,14.328696346102554,-231.32424782882978,-27.679713701344895,-492.9578664305727,72.5030547140768,-18.835945027191816,233.46587963333258,499.9926955216963
546,13.984234815952263,-231.220934824908,-28.06190328083648,-491.61568540588627,79.26463389887792,-20.069460985561395,233.39510586069136,499.5116678763491
547,13.608104464506052,-231.10845028447025,-28.439847517217743,-490.35768722426553,85.6796812627173,-21.27793278737268,233.3133468072482,499.1090790709336
548,13.202447859832215,-230.99018743831735,-28.813459371739718,-489.201015534197,91.69017288309496,-22.443769940082454,233.22404402657526,498.7868451684739
549,12.769735359972037,-230.8695176822171,-29.18253389565607,-488.15559093286555,97.239852530524,-23.54798358825863,233.1306395860411,498.53986786293575
550,12.31276708993785,-230.74970266266004,-29.546805721263492,-487.2245477279625,102.27522077547867,-24.570588300167326,233.03649410237819,498.3567949533297
551,11.834668670674583,-230.63382420090056,-29.906006629438533,-486.40487815233405,106.74651270652016,-25.49107515427169,232.94482219792752,498.22098211731094
552,11.338878918692991,-230.5247311580557,-30.25992245221466,-485.68822821370026,110.6086334792495,-26.288944669793413,232.8586443757527,498.1115915844154
553,10.829128126789222,-230.42500088128057,-30.608448886135733,-485.06178974653454,113.82202448196664,-26.944284140596796,232.78075290567418,498.004764190376
554,10.30940610339795,-230.33691192916592,-30.95164573959159,-484.5092387446825,116.35343718194213,-27.43837036244275,232.71368838212103,497.87480747105684
555,9.783919779307961,-230.26242442129603,-31.289788756719606,-484.0116792310829,118.17659565100712,-27.754275989205272,232.6597232260201,497.69535228578275
556,9.257040745068892,-230.2031645707712,-31.62341751551208,-483.54856289539595,119.27273180074658,-27.877456171963193,232.6208485367227,497.44044200262283
557,8.733243567072327,-230.1604106756728,-31.953377124413947,-483.09856554649247,119.63097954550571,-27.796291941138797,232.5987613106244,497.0855296409118
558,8.217036247292205,-230.1350790027923,-32.28085076263811,-482.64041041513195,119.24861603386756,-27.50256799462384,232.59485010177062,496.60836805088076
559,7.712884762264443,-230.12770948789512,-32.60737969868284,-482.15363436696447,118.13114058138255,-26.99186498485754,232.61017862479852,495.9897852978631
560,7.225134192988691,-230.13845280734088,-32.93486734251356,-481.61929564737216,116.29218575730889,-26.263849788094145,232.64546840738882,495.2143415910502
561,6.7579295334574825,-230.16706185587543,-33.265564193814434,-481.0206210139591,113.75326058926294,-25.322451303262746,232.70108311213735,494.2708655514661
562,6.315139797403558,-230.21289165577946,-33.602031348403095,-480.3435867010244,110.54333281133806,-24.175913811910995,232.77701825171698,493.1528669074612
563,5.900289318572159,-230.27491196204505,-33.94708156465737,-479.5774226598348,106.69826465316348,-22.836724630898228,232.87290046333663,491.8588205847852
564,5.516499895687273,-230.35173622186525,-34.303698601869705,-478.7150241471252,102.2601236701211,-21.321417541724646,232.98800016220892,490.3923144327621
565,5.16644658364051,-230.44166917177898,-34.6749372859118,-477.7532501603335,97.27639542443488,-19.650258126473194,233.12126028093215,488.76205029973505
566,4.852328641899539,-230.5427734635433,-35.063808274612036,-476.69308544138397,91.79912770424237,-17.846821505795432,233.27134213504658,486.981686620888
567,4.575855722842938,-230.652953668102,-35.47315272365162,-475.5396426360648,85.88403622467902,-15.937476900661174,233.43668759516888,485.0695109194076
568,4.338248078912552,-230.77005415189095,-35.905513023041195,-474.30198437972825,79.58959972622272,-13.950796790037085,233.61559503364177,483.04793343918516
569,4.140248516899006,-230.89196584502443,-36.36300646119456,-472.9927518977461,72.97616872237909,-11.916910986151343,233.80630513787398,480.942799026745
570,3.9821430817457966,-231.01673587988964,-36.84720893922131,-471.6275969079376,66.10510757158718,-9.866827328325677,234.00709167629432,478.7825232964406
571,3.8637870808676764,-231.1426734664747,-37.35905551808653,-470.2244263911758,59.03798469192265,-7.831740606063123,234.21635163672255,476.5970704034048
572,3.7846331649428215,-231.26844522006283,-37.89876360219904,-468.8024839746268,51.83582106192719,-5.842349833412672,234.43268886214804,474.41680235644264
573,3.7437587800838656,-231.3931535571304,-38.46578315188647,-467.38130579767005,44.55840289278566,-3.9282015597819657,234.65498550455385,472.2712423617636
574,3.739891207724157,-231.51639280027976,-39.05877672921028,-465.97960117081584,37.26366057188424,-2.1170740488304345,234.88245640756674,470.1878056141261
575,3.771429313573369,-231.6382792498671,-39.67563048305422,-464.61411748910996,30.007112639499695,-0.43441424051931843,235.11468288170508,468.19055866476555
576,3.836461878198445,-231.75945349720578,-40.313495304240895,-463.29855342206747,22.84137064820871,1.097163402454244,235.35162404907942,466.2990717063346
577,3.932783019340111,-231.88105534382632,-40.968855409379444,-462.042583572901,15.81569836679213,2.45830966603407,235.59360569714534,464.527426037589
578,4.057905833609177,-232.0046735047815,-41.63761989433524,-460.8510514210233,8.975617243465196,3.6333007246179108,235.84128810522586,462.8834314658087
579,4.209076040147331,-232.13227361300747,-42.31523173363413,-459.7233760288811,2.3625497963614874,4.610323096386647,236.09561546066703,461.36809609123605
580,4.38328809161828,-232.26610894023122,-42.99678841998528,-458.6532030380442,-3.986505984688533,5.381681793534694,236.35775032001408,459.9753751358593
581,4.5773067770044085,-232.40861883851653,-43.67716877455842,-457.6283137163794,-10.039275022031553,5.943930065853795,236.62899720007024,458.69220803297884
582,4.78769750926179,-232.56232020055901,-44.35116115122749,-456.63078916721895,-15.768475710509433,6.297918250285789,236.91071977714876,457.4988357738923
583,5.010868089945149,-232.72969714341195,-45.013589029717814,-455.6374118963348,-21.152057215687112,6.4487576876964985,237.20425619055354,456.36937510698
584,5.24312378151988,-232.91309363261266,-45.65943061539501,-454.6202747758585,-26.173393916073792,6.40569399814031,237.51083654191277,455.27261362168133
585,5.480736080097565,-233.11461302852183,-46.28392953778716,-453.5475585123851,-30.821424909819537,6.1818831128361555,237.83150600334488,454.1729805387118
586,5.720023796066414,-233.33602775005144,-46.88269428754392,-452.38443332160824,-35.090726280036186,5.794064337351716,238.16705623110113,453.03164255412827
587,5.957443201248745,-233.57870158731404,-47.45178480389471,-451.09403897706653,-38.98150577678764,5.262127870886115,238.51796722864532,451.80767275159366
588,6.18968247544104,-233.84352676440704,-47.98778550428698,-449.638499889133,-42.49951292915373,4.608579312607523,238.8843615023255,450.45924353732215
589,6.413754755682451,-234.13087760715925,-48.48786474535018,-447.97993807313577,-45.65586118058294,3.857909938741084,239.2659722033627,448.944801364691
590,6.627083804771864,-234.44058241541248,-48.9498210128033,-446.0814558841087,-48.466761572953274,3.0358881625264043,239.6621267260629,447.22419070536534
591,6.827576551333841,-234.7719147276247,-49.37211611254626,-443.9080706226154,-50.95316962964509,2.168793994559881,240.07174680182766,445.2597056392816
592,7.013677356459205,-235.12360459940876,-49.75389550897967,-441.42759235571816,-53.140348816245854,1.2826239199979992,240.49336554020982,443.0170573929762
593,7.184399735924895,-235.49386984324465,-50.094995897431744,-438.6114424619615,-55.05735579453424,0.4022977842294009,240.9251612009394,440.4662530987162
594,7.339332394020436,-235.88046636666212,-50.39594012249565,-435.43541244228163,-56.736454847832356,-0.4490984732546469,241.36500671260683,437.5823839347109
595,7.478617833262282,-236.28075575594883,-50.65791964393014,-431.8803607839829,-58.21247121705035,-1.2510003341020555,241.81053303890852,434.3463199724907
596,7.60290349308718,-236.6917871671411,-50.88276493186264,-427.93284145246577,-59.52209536511598,-1.985950720063177,242.25920352025162,430.74530580437846
597,7.7132672395874815,-237.11038964467554,-51.072904462843326,-423.5856525590825,-60.7031521273883,-2.6400570242522425,242.70839551948671,426.7734469634485
598,7.811120894828988,-237.53327042747753,-51.23131333794905,-418.8382894188269,-61.79385013673399,-3.2032977545306762,243.15548528817814,422.4320737520329
599,7.8980971373145294,-237.95711469098381,-51.36145286209448,-413.6972836688896,-62.83202776283331,-3.669664963944764,243.59793198214214,417.7299674325555
600,7.97592631679405,-238.3786824164226,-51.467202657508516,-408.17640987458304,-63.85441212647718,-4.037137299180174,244.03335707856718,412.6834342923996
601,8.046310436930675,-238.79489856240326,-51.552787057151896,-402.2967430212321,-64.89590770863944,-4.307487754702184,244.45961597258716,407.31621578021026
602,8.110801878919721,-239.2029333971604,-51.62269768573076,-396.0865540593513,-65.98893088471561,-4.485939480417138,244.87485923357949,401.6592272914791
603,8.170694486892824,-239.600270705763,-51.68161427531691,-389.58103576467687,-67.16280650416101,-4.580691584308919,245.27758185873336,395.7501237565806
604,8.226934344628726,-239.9847625115361,-51.73432578839191,-382.82185717990825,-68.4432423275724,-4.6023441500039,245.66665975521622,389.63269648893544
605,8.280056679184817,-240.35466977014954,-51.785653749629624,-375.8565513959932,-69.85189643374824,-4.563257091800381,246.0413734223571,383.35611229348774
606,8.33015358118249,-240.70868908174504,-51.84037932328388,-368.7377478921055,-71.40605121306598,-4.47688054269109,246.40141926722177,376.97401204031434
607,8.37687470319145,-241.04596585001588,-51.903175191877814,-361.52226650806796,-73.1184049044546,-4.357094874038272,246.7469092160014,370.5434911644034
608,8.419460244773957,-241.3660946065158,-51.97854275961545,-354.2700948460782,-74.99698759899286,-4.217596014370388,247.07835940366533,364.12398833841604
609,8.456802907090639,-241.66910744253627,-52.070754649055445,-347.04327412881565,-77.0452032079579,-4.071356605067202,247.39666877438555,357.7761105502238
610,8.48753344284239,-241.9554516230944,-52.18380197211912,-339.9047201800712,-79.26199230205492,-3.93018619555452,247.70308840382336,351.56042295303206
611,8.51012303435021,-242.22595752613452,-52.32134564100751,-332.91700654802486,-81.642103546619,-3.80440487979872,247.99918233696195,345.53623052921114
612,8.522994959814833,-242.4817980848161,-52.48667118949964,-326.1411366548265,-84.17645465861735,-3.7026353133497736,248.28678078512132,339.76037674543863
613,8.524637789615307,-242.72444089889507,-52.68264709112378,-319.6353322496543,-86.85255854440526,-3.631708710461678,248.56792661043173,334.2860831707232
614,8.513712714057402,-242.95559416858592,-52.91168708278745,-313.4538669053729,-89.65498740626067,-3.5966719944287684,248.84481613238393,329.16185418906997
615,8.489148620891807,-243.17714768212633,-53.17571727866994,-307.64597523631875,-92.56584738267712,-3.6008765405537617,249.11973546216544,324.4304719986468
616,8.4502201555356,-243.39111024725352,-53.476148832112656,-302.25486933033113,-95.56523844049545,-3.646124528743887,249.39499378304717,320.1281075527887
617,8.39660594258971,-243.59954510025986,-53.81385667189844,-297.3168919258369,-98.63167829882563,-3.7328470803119975,249.6728551624082,316.2835714021959
618,8.328426131266829,-243.8045049025601,-54.18916459159339,-292.8608303757843,-101.74247467066688,-3.8602889825751237,249.95547057848881,312.917723852928
619,8.246260261923556,-244.00796794881504,-54.60183692168304,-288.90740698070545,-104.87403653236049,-4.026677637922817,250.24481191520667,310.0430569539985
620,8.1511479690804,-244.21177716251518,-55.05107728891147,-285.4689515344383,-108.00212174160546,-4.2293586872148,250.54260974135516,307.6634529917961
621,8.044576022701067,-244.41758335691824,-55.53553550606007,-282.5492531083982,-111.10202425648768,-4.464887255825639,250.8502967378691,305.7741171621413
622,7.928455497195839,-244.62679414568674,-56.0533241948093,-280.14358201074765,-114.14870881301397,-4.729071360978222,251.1689586649753,304.3616773261435
623,7.805092445823518,-244.8405298388374,-56.60204697338359,-278.23887019666483,-117.11690405402081,-5.016971859662845,251.49929473618747,303.4044417721635
624,7.677154512039006,-245.05958765416395,-57.17883967117754,-276.8140386178052,-119.98116702858644,-5.322870563912137,251.84158913600965,302.87280622530363
625,7.547634670001124,-245.2844156261856,-57.78042506173579,-275.8404616116435,-122.71593301805817,-5.640224077069457,252.1956952040758,302.72980268301245
626,7.419811989925061,-245.51509770419983,-58.403180240250265,-275.28255964828344,-125.2955649745684,-5.96162487341608,252.5610335623839,302.9317834003527
627,7.2972081950832015,-245.75135157148972,-59.043214268548056,-275.09851107779104,-127.69441658074439,-6.278792631782525,252.93660512253,303.42923217294634
628,7.183538022220569,-245.99254048856716,-59.69645236657176,-275.24107025904874,-129.88692214446806,-6.582617577510349,253.32101935127756,304.16769140339665
629,7.082651092983396,-246.23769987859282,-60.358722082752685,-275.6584739330785,-131.84772520671595,-6.863273714827348,253.71253738894313,305.08878762556907
630,6.998463043955811,-246.48557849696454,-61.025836733464075,-276.2954111472465,-133.55185559539672,-7.110413826397233,254.1091287142412,306.1313312291856
631,6.934873937574937,-246.73469295909942,-61.69367191626224,-277.0940260868275,-134.97496129489997,-7.313450623615187,254.5085391201083,307.23245940994894
632,6.895672567502411,-246.9833932390031,-62.35823188837009,-277.9949193674522,-136.09359669570597,-7.461920119248432,254.9083668709669,308.32878616709894
633,6.884426372362929,-247.22993563770262,-63.01570387050432,-278.9381127494923,-136.88556273842366,-7.545914877212266,255.30614315688806,309.3575205098656
634,6.904358348427752,-247.47255882629096,-63.6624996699513,-279.8639452750711,-137.33028775716346,-7.55656705660156,255.69941246047452,310.2575145108948
635,6.958214433726285,-247.70955803703157,-64.29528521968027,-280.71387526758605,-137.4092312732026,-7.48655484487809,256.0858082902878,310.97020654538346
636,7.048126966743547,-247.93935239178683,-64.91099967250139,-281.4311716907731,-137.1062875564596,-7.330601506792553,256.4631199685254,311.44043163614515
637,7.175481576831947,-248.16054074433796,-65.50686663965435,-281.96148891654104,-136.40816254003275,-7.085934194191272,256.82934681452497,311.6170797099331
638,7.3407958818004335,-248.37194226605044,-66.08040093000595,-282.25332980901084,-135.30469767872896,-6.752670063642198,257.18273709959476,311.4535931511975
639,7.543618485214971,-248.57261928661467,-66.62941442532492,-282.2584121233886,-133.78911824260135,-6.334100164914285,257.5218104498998,310.9083067013042
640,7.782456033207621,-248.76188148196442,-67.15202427352266,-281.93196149648395,-131.85819123248524,-5.836846772044332,257.8453637605339,309.94464459776844
641,8.054734666473808,-248.93927214171717,-67.64666549245317,-281.2329596112359,-129.51228856659557,-5.270876863410772,258.15246195692026,308.53120043730627
642,8.356800241490912,-249.10453869902864,-68.11210877375703,-280.1243774234955,-126.75536263726156,-4.649362709840709,258.44241596717984,306.6417328390559
643,8.683959336618658,-249.25759079981825,-68.54748319086532,-278.5734202694947,-123.59485170624318,-3.9883893453159533,258.71475099832116,304.2551132055792
644,9.03056047298723,-249.39844988596187,-68.95230278995017,-276.5518047478227,-120.04154002712127,-3.3065174143556075,258.96916863815966,301.3552602142547
645,9.390112409379483,-249.5271946536161,-69.32649555673052,-274.0360777463666,-116.10940076361183,-2.624217875996094,259.205506489972,297.9310895742494
646,9.755434139419975,-249.6439069441197,-69.67043291197952,-271.0079775327967,-111.81544826342194,-1.9632017437537344,259.42369908832774,293.9764983602835
647,10.118829616517047,-249.74862265902604,-69.9849577658637,-267.45482714399503,-107.17962053925729,-1.3456730838322246,259.6237437958921,289.49039271766986
648,10.472279362014019,-249.84129209373137,-70.27140926870416,-263.3699427056846,-102.22470416283097,-0.793536744524497,259.8056751846135,284.47675775475466
649,10.807640933471005,-249.92175363247657,-70.53164247246042,-258.7530344804378,-96.97630381209963,-0.3275938244980198,259.9695509735333,278.94476035825994
650,11.11685067764687,-249.98972415026714,-70.76804083441716,-253.61057646078464,-91.46284895998063,0.03324206330944819,260.1154519512337,272.9088701640819
651,11.392120176170852,-250.0448088659138,-70.98351885426766,-247.95612071430193,-85.71562183461995,0.2726758295998031,260.2434975909882,266.38898095031
652,11.626122144140874,-250.08653280277164,-71.1815115090315,-241.810534503638,-79.7687845866198,0.3776795080870992,260.35387838185983,259.4105136361546
653,11.812162051908505,-250.1143952811078,-71.36594690289488,-235.2021403343685,-73.65937999347413,0.33903179420446766,260.4469051854802,252.00448194004122
654,11.944333220628472,-250.1279477502496,-71.54119877379996,-228.16674058940748,-67.42727916463934,0.15172597998272244,260.52307497386835,244.20750172510682
655,12.017654436113952,-250.12689365835215,-71.71201614130482,-220.74750863426192,-61.11505147490336,-0.18477125182719767,260.583150981389,236.06172448332535
656,12.028190058588416,-250.11120707263072,-71.88342843699031,-212.99472687216164,-54.767736031623485,-0.6664218477963325,260.62825372235363,227.6146738411163
657,11.97315299566221,-250.08126461596046,-72.06062596094272,-204.96534939157303,-48.43249995923653,-1.284684262312171,260.65995769166665,218.9189614431213
658,11.850990679510268,-250.03798312937735,-72.24881745302416,-196.72236369715046,-42.15817625262118,-2.0267450429038427,260.6803870243081,210.03185596032347
659,11.661453456882725,-249.9829534612215,-72.45306889403734,-188.3339246675079,-35.99468248829372,-2.8759046083733812,260.6923020796586,201.01467807461685
660,11.405643787117784,-249.91855922365724,-72.67813015020536,-179.87223698383593,-29.99233070683907,-3.812100684579094,260.69916807401376,191.9319973999321
661,11.086043592302117,-249.84806865013365,-72.92825831853659,-171.4121720011541,-24.201047423734227,-4.812546605448212,260.70519677834807,182.85061626966683
662,10.706516219512427,-249.77568812186092,-73.20704810874106,-163.0296220459002,-18.669529992550316,-5.852456526459002,260.71535306528386,173.83834063935925
663,10.272278888528968,-249.70656753672662,-73.51727997230375,-154.79961808936795,-13.444370687494109,-6.905825883900332,260.7353196722913,164.9625587452433
664,9.789841317890417,-249.64675031597022,-73.86079591370432,-146.79426274613027,-8.569182574697672,-7.946233465081823,260.77141580244125,156.28867094342687
665,9.266906627199205,-249.6030642959242,-74.23841109379408,-139.08055596412532,-4.0837614495444345,-8.947631341335551,260.8304679818188,147.87843603353207
666,8.712231805832197,-249.58295385353722,-74.64986660063637,-131.7182121339985,-0.023315852766714266,-9.885090580887937,260.91963481834586,139.78831719162534
667,8.13544707753746,-249.59425811491687,-75.0938254309999,-124.75758184080246,3.5822074009570493,-10.735473913589622,261.0461908038718,132.06792191021046
668,7.54683621936757,-249.64494459603273,-75.56791034773715,-118.23779721959382,6.708681158303276,-11.478011105354415,261.2172778117729,124.7586335111331
669,6.9570829589109175,-249.7428115775261,-76.0687794013476,-112.18525593965524,9.338225654562164,-12.094758435414786,261.4396360561088,117.89252630164192
670,6.376991489974549,-249.89517536029425,-76.59223281750317,-106.61254519973697,11.45949949788577,-12.570930068486325,261.7193285070321,111.49164265125928
671,5.817191474382407,-250.10855993915868,-77.13334370468748,-101.51788454894836,13.067853204203235,-12.895095950914245,262.06147376899844,105.56768939012375
672,5.28783943168305,-250.38840657137706,-77.68660456927788,-96.88513648906307,14.16534843305829,-13.059247749066673,262.47000221845707,100.12218492256852
673,4.7983291493950615,-250.73881943175243,-78.24608181480252,-92.68439914690677,14.76064793345194,-13.058740851619696,262.9474489692875,95.14705964304706
674,4.357023705707379,-251.16236126219917,-78.80557107905787,-88.87315888843364,14.868781637140449,-12.892126093849278,263.4947951759451,90.62568279125942
675,3.9710209165674697,-251.65990981253836,-79.35874732222533,-85.39794579401165,14.510794245254626,-12.56088919158514,264.11136644803514,86.53426062336926
676,3.645962532800842,-252.23058215227593,-79.89930497544785,-82.1964044788649,13.713279964119653,-12.069118670059593,264.79479394771806,82.84352565529987
677,3.3858953571977994,-252.8717299285683,-80.42108502689945,-79.1996694561528,12.507811414141553,-11.423124409656099,265.5410403314749,79.52061710738062
678,3.1931897485134826,-253.5790046871854,-80.91818739189137,-76.33491999866483,10.930272416495704,-10.63102904759159,266.3444893133115,76.531040840542
679,3.0685179707534265,-254.34648871051473,-81.38506816226999,-73.52798512584322,9.020108214680754,-9.702353599232286,267.19809446433237,73.84059442350447
680,3.0108917833582773,-255.16688360630883,-81.81662236444848,-70.70587463524913,6.819511283843406,-8.647616938598373,268.0935800650614,71.41714953984639
681,3.017755724324683,-256.03174619624826,-82.20825355085762,-67.79912562894013,4.372565630411778,-7.47796628858204,269.021684442199,69.23219845250358
682,3.085129871667787,-256.931759211145,-82.55593173452667,-64.74387355883718,1.7243766658100799,-6.204852688199119,269.97243429713444,67.26209148629452
683,3.2077937041468125,-257.85702303359096,-82.85624093720301,-61.483579855109575,-1.0797835271826,-4.839761642662972,270.9354372206863,65.48891585807891
684,3.379501224773372,-258.7973543122803,-83.10641723447718,-57.970372226310566,-3.9952853515863955,-3.3940050328465268,271.9001790404203,63.90099020691856
685,3.5932167821616314,-259.7425776401018,-83.30437783972688,-54.16597682376243,-6.978877767271917,-1.8785761571821222,272.85631286162914,62.49297204054025
686,3.8413609028350213,-260.68279750080205,-83.44874155489579,-50.04224266403222,-9.989329586781475,-0.30406579778209447,273.7939275360724,61.26559617672126
687,4.116055841075638,-261.60863925178245,-83.53884084631338,-45.581277805484476,-12.987962665528444,1.3193663318674609,274.7037847427385,60.22508097465275
688,4.409361414168543,-262.51145000154776,-83.57472578323957,-40.775233682653955,-15.939073277067386,2.981973357287115,275.57751584566756,59.382255458202955
689,4.713492910129545,-263.38345284133567,-83.5571599822228,-35.62578806643562,-18.810247150571527,4.674367168087875,276.4077721505208,58.751473273589575
690,5.021014308961529,-264.2178508972404,-83.48760852512524,-30.1433871939466,-21.572580672175278,6.387441145124092,277.1883250112994,58.34938711602808
691,5.3250017622046375,-265.00888085724483,-83.3682176565663,-24.346312830655634,-24.2008242518781,8.112283338225573,277.9141152572203,58.19365842144925
692,5.619174330881227,-265.75181870213527,-83.20178602456687,-18.259640484559682,-26.673463180235537,9.84009381655795,278.5812543712529,58.301671526036024
693,5.897991334637104,-266.4429430618822,-82.99172735565672,-11.914151638185503,-28.972746802594042,11.562118798045562,279.18698251202585,58.68931023015465
694,6.156718026463124,-267.079463775723,-82.74202463508368,-5.345256775306065,-31.084669980224895,13.269611738321341,279.7295906371734,59.36983982628538
695,6.3914633109692565,-267.65942482078685,-82.45717583585711,1.4080222427737354,-32.99890378839674,14.953828001377985,280.20831553739754,60.35292189781485
696,6.599194539082985,-268.18159177013945,-82.14213089072223,8.303972122642762,-34.70866745238773,16.60605551923468,280.6232174634397,61.643775549338194
697,6.777734790577866,-268.6453342494928,-81.80221913047953,15.298984205778813,-36.210532192723655,18.21767958067635,280.97505018491773,63.242489575575306
698,6.925747477295875,-269.05051336295526,-81.44306613534324,22.348214053405233,-37.50415040275051,19.78027615191574,281.26513274091144,65.143486389929
699,7.042711864456851,-269.3973827083702,-81.07049903531293,29.406106245145832,-38.59190977283678,21.285725429651052,281.4952308440214,67.33513975472961
700,7.128891638507225,-269.6865094397441,-80.69043979737371,36.426800109959316,-39.47852012459216,22.72633599968577,281.6674539416293,69.79955283502551
701,7.185297204036772,-269.9187189961067,-80.308786956588,43.36444464040131,-40.17054890385511,24.09497009025529,281.78417145939534,72.51250860868994
702,7.213641063008,-270.0950639559601,-79.93128748746746,50.173460494855696,-40.67592760502079,25.385161795479895,281.8479490619482,75.44360890446728
703,7.216284569603356,-270.21681452833474,-79.56340185123932,56.80879252012029,-41.00345446490002,26.59122251173968,281.8615033091637,78.5566195045001
704,7.196173824939912,-270.2854658803215,-79.21016647138268,63.226196852243426,-41.1623180183212,27.70833079328473,281.8276712076337,81.81003590482537
705,7.156762669726973,-270.3027559688501,-78.87605886259972,69.3826021283226,-41.16166190993441,28.732606856191254,281.7493899629303,85.1578773399028
706,7.10192163348592,-270.2706867976761,-78.5648713657465,75.23657484830078,-41.01020478686099,29.66117441613063,281.6296817393184,88.55070593285011
707,7.035833124334122,-270.19154207215263,-78.27959994768234,80.74890508954519,-40.715921600970454,30.492213894146477,281.4716384505379,91.93685408977834
708,6.962874863495658,-270.067895014827,-78.02235465653315,85.88331180876209,-40.285785682149715,31.22501093534487,281.2784024380461,95.26382767197087
709,6.887495343481612,-269.9026014297502,-77.79429774137839,90.60724871631102,-39.72556573830722,31.860002605855783,281.0531400496686,98.47983669149879
710,6.814086641378676,-269.6987747397205,-77.59561397620134,94.89277446136538,-39.03966935771257,32.398820843618104,280.7990063435108,101.53539131604636
711,6.746860976348297,-269.4597415507192,-77.42551561040106,98.71743691390226,-38.2310249552075,32.84432931793321,280.5191003527152,104.38489088419088
712,6.689737774486996,-269.18897821309315,-77.28228207629311,102.065112529869,-37.30099705976267,33.2006465355808,280.2164115742859,106.98812899486352
713,6.64624756603925,-268.8900306370505,-77.16333252962063,104.92673924577396,-36.24933439275478,33.47314555755862,279.89375949522287,109.31163930898553
714,6.619457702070079,-268.566421071476,-77.06532773491944,107.30088521091172,-35.07415496026913,33.6684196744215,279.55372891127587,111.3298143218443
715,6.611922752680151,-268.2215465919027,-76.9842968144607,109.19410503068355,-33.77197605520712,33.79420415440571,279.198604479318,113.02574197230432
716,6.62565994220221,-267.85857465995593,-76.91578383724084,110.62104830899392,-32.33779876241101,33.85924665861057,278.8303083407303,114.39172081685633
717,6.662147564893717,-267.48034132629755,-76.85500891080856,111.6043000212397,-30.765255990316216,33.873122718698916,278.4503447176703,115.42943162143911
718,6.722342325147896,-267.0892575629382,-76.79703821201555,112.17394674939312,-29.04683041160235,33.84599723773645,278.0597551893998,116.14975986105343
719,6.806710149360327,-266.6872290193624,-76.73695721886841,112.36687587793456,-27.17414457889374,33.78833769093048,277.6590880812856,116.57227862807189
720,6.9152643440214145,-266.2755942719403,-76.67004128142325,112.22582605907388,-25.13832081724371,33.71058895099351,277.24838511828875,116.72441439574479
721,7.047605025338218,-265.85508624953826,-76.59191761873372,111.79821675160026,-22.930404293680066,33.62282290533897,276.82718809463677,116.6403290640674
722,7.202954397638166,-265.42582084559984,-76.49871290316446,111.13479281158156,-20.54183958424673,33.53437795642636,276.39456768677616,116.35956107723372
723,7.380183569564785,-264.9873158152643,-76.38718085251483,110.28812726667859,-17.96498910165047,33.45350406967155,275.94917574859187,115.92547639924261
724,7.577828074314977,-264.538541976873,-76.25480478217521,109.31103156600867,-15.193680369832206,33.38702838824725,275.48932157060597,115.383586733482
725,7.7940910116442526,-264.0780074160472,-76.09987094865042,108.25492759137137,-12.223767695186517,33.34005473677549,275.01307160785416,114.7797973481866
726,8.026834591996911,-263.6038737426121,-75.92150969469073,107.1682393282101,-9.053691952172965,33.31570780633189,274.5183709829698,114.1586500150618
727,8.27356263744152,-263.1141015488496,-75.71970275914008,106.09486409609472,-5.68502006028254,33.31492981404644,274.00318367579763,113.56162775098227
728,8.531398148904453,-262.60662019398717,-75.49525660042353,105.0727833089956,-2.1229436745924777,33.33633443253313,273.46564682787886,113.02558711834567
729,8.797061318734487,-262.07951499174663,-75.24974323309054,104.13287041593394,1.6232848219747429,33.37612021647857,272.90423312003827,112.58138051964508
730,9.066854264871877,-261.5312229752442,-74.98541183281189,103.2979484460659,5.540001195993979,33.428043904104186,272.3179138665013,112.25272489517216
731,9.3366591575998,-260.9607269450483,-74.70507603799167,102.58214112226138,9.608883889742545,33.483452996727635,271.70631452643426,112.05536436469275
732,9.601956166992698,-260.367736744789,-74.41198323844606,101.99054991631009,13.806831688450417,33.53137695256975,271.0698539577291,111.99656287351787
733,9.85786668027839,-259.7528467661394,-74.10967298915361,101.51927524898079,18.10597700789774,33.55867700336271,270.4098589801329,112.07494930409857
734,10.099225521998527,-259.1176594836654,-73.80183188694949,101.15578412282687,22.473841141352455,33.55025560724324,269.7286465706835,112.28072233620351
735,10.320683618135321,-258.46486626355716,-73.4921518105014,100.87960973154019,26.87363134259921,33.48932736736671,269.0295672037669,112.59620610025735
736,10.516839989196725,-257.7982788485786,-73.18419751262991,100.6633519124017,31.264673567934743,33.357753409696215,268.31700459236885,112.99673096662227
737,10.682399458184555,-257.1228078496833,-72.88128840057864,100.47393164052397,35.60296954501526,33.13644038222548,267.5963295072715,113.45179748175525
738,10.812350208416023,-256.4443879884497,-72.58639813321061,100.27403924643943,39.84186278419245,32.80580319595934,266.8738082255737,113.92646667861112
739,10.902153382359241,-255.76985321749714,-72.30207448305455,100.0237060047977,43.932795149612986,32.34628734701368,266.1564690134884,114.38290820092874
740,10.947935289884297,-255.10676781161777,-72.03038073595415,99.68192343390828,47.8261334657677,31.738942364882302,265.4519325053739,114.78203027865793
741,10.946671539369103,-254.46322190273344,-71.77285870940466,99.20823481602706,51.47204411953228,30.966033098336073,264.7682137379056,115.08511347604225
742,10.896351669529423,-253.84760166003093,-71.53051233911181,98.56422908538862,54.82139253806171,30.011670794248978,264.11350489866686,115.25537343197283
743,10.79611290140393,-253.2683453851217,-71.3038098773427,97.71487752134675,57.82664368520386,28.86244183439842,263.49594860213307,115.25938585146214
744,10.646332654760887,-252.7336972551819,-71.09270220740795,96.62966718409633,60.44273937877514,27.508009016252235,262.9234118177824,115.06831852280766
745,10.448671442720755,-252.25147034290953,-70.89665462158601,95.28350000975847,62.627928534136224,25.941658701955372,262.40327049103206,114.658928656642
746,10.206060396289727,-251.82882979842626,-70.71468950728809,93.65734134865104,64.3445278092039,24.160767223908607,261.9422143045575,114.01429813167054
747,9.922630706633328,-251.4721055738783,-70.5454375691861,91.73861535704397,65.55959302518241,22.167161753696366,261.5460797510602,113.12429354336457
748,9.603585645996496,-251.1866418177656,-70.38719541734432,89.52135644399829,66.24548644229162,19.96735443959387,261.21971772070555,111.98575197929549
749,9.255019563127576,-250.9766872642255,-70.23798760292306,87.00613571505144,66.38033137651517,17.57263382604156,260.96689935104405,110.60240700162889
750,8.88369216514892,-250.84532788545351,-70.09563146388368,84.1997890023939,65.94835310979111,14.999003931204477,260.7902612053413,108.9845819623557
751,8.49677003607438,-250.79446007869464,-69.95780335150587,81.11497866980422,64.94011226809673,12.266968231746723,260.6912881784203,107.14868862263273
752,8.101550141659636,-250.82480003781632,-69.82210490211888,77.76962504002269,63.35264200029801,9.401162614065319,260.6703301351833,105.11657689826399
753,7.705181557613505,-250.93592295618507,-69.68612809400607,74.18624506939493,61.18950168470649,6.429847771251992,260.7266464104462,102.91478527473505
754,7.314401593074179,-251.12632444484478,-69.54751803310198,70.39123560706616,58.4607567936284,3.3842774058299363,260.85847110368303,100.57374031713816
755,6.935300960748161,-251.39349608331628,-69.40403283538278,66.41413581008048,55.18288770191978,0.29796378310077276,261.06309168944875,98.1269476919566
756,6.5731300168220415,-251.7340074122628,-69.25360058852007,62.286897656580436,51.37862167167311,-2.7941335648102883,261.3369339124347,95.61020696603431
757,6.232154705636696,-252.14358801109378,-69.09437395825529,58.043184981806924,47.07667462620695,-5.856467077342485,261.675647286958,93.0608697340426
758,5.915566988668493,-252.6172055630589,-68.92478322141702,53.71771070099781,42.31138506693669,-8.853777593833277,262.07418767913657,90.51714758876219
759,5.625450638819634,-253.14913865343212,-68.74358813117945,49.34561038972241,37.1222231775546,-11.751956649477247,262.5268960254821,88.01746551103241
760,5.362799866185313,-253.73304581718307,-68.5499280388606,44.96184035581854,31.55316430202835,-14.518864008807014,263.027574593601,85.59984935503799
761,5.127585625091864,-254.36203446161318,-68.3433683063091,40.600582018062944,25.651926960958733,-17.125071807294574,263.5695637993728,83.30133414615459
762,4.918862626980168,-255.02873448037536,-68.12393964933509,36.29463348121449,19.469089698507506,-19.544510124153224,264.14582331908105,81.1573826219415
763,4.734908929680416,-255.72538160721516,-67.89216614123875,32.07477437601532,13.057115746804786,-21.75499383125718,264.7490211631105,79.20130962590736
764,4.573389433718537,-256.44391485987177,-67.64907748696851,27.969100873356112,6.469326774890624,-23.738617017286163,265.37163362364043,77.4637158789351
765,4.431534661379045,-257.1760909345953,-67.39620188545236,24.002342576125702,-0.24112570577694786,-25.48200864918342,266.00605771994736,75.97194241594957
766,4.306326686577453,-257.91361636288354,-67.13553716264565,20.19518892509113,-7.022241707085906,-26.976450571453526,266.64473612387997,74.74956280895556
767,4.1946847329337364,-258.6482958189047,-66.86949958944184,16.563666534845183,-13.82406234472863,-28.217865559003947,267.28029264937214,73.81593284444872
768,4.093643465535186,-259.37219231649414,-66.60085157264842,13.118617597845772,-20.599432418281975,-29.206688233374635,267.9056742812297,73.18581603321442
769,4.0005172892940095,-260.0777924978817,-66.33261101382931,9.86533126669975,-27.304612054856044,-29.947634840140747,268.51429366799226,72.8690987407327
770,3.913044274570765,-260.7581683599976,-66.06794649472776,6.803374094076451,-33.89972442626632,-30.449389041248978,269.1001645449479,72.87060234829421
771,3.829504039329032,-261.40712604261955,-65.810063481322,3.9266527578835415,-40.349035570096696,-30.72422010254484,269.6580221134075,73.18999353695962
772,3.7488052122858133,-262.0193327535334,-65.56208731122157,1.2237241452661836,-46.621068755285044,-30.78754757115608,270.1834209923104,73.82178884174016
773,3.6705398668524185,-262.5904142489296,-65.32694883351697,-1.3216529742901986,-52.688559862585464,-30.657463520472636,270.6728047062633,74.755446355601
774,3.595004294156588,-263.1170172019873,-65.10727835070387,-3.7297509503419883,-58.52826282398015,-30.354220671479844,271.123542504108,75.9755354470835
775,3.5231873804792304,-263.596833016747,-64.90531303262563,-6.0239344756396145,-64.12061646953462,-29.899693027861638,271.5339313736664,77.46197415886269
