time,ax,ay,az,gx,gy,gz,accmagnitude,gccmagnitude
0,17.54147202890453,-255.04349026755634,-108.96525178635046,-50.36518096562934,55.98924531509466,-10.232772194285563,277.90618113449983,75.90231344775724
1,17.51092641491105,-254.9646162236258,-108.59073326823838,-47.46507967108411,54.281687332249824,-11.39938579212052,277.6909562120214,73.34667127989768
2,17.506804076779463,-254.8848642975571,-108.21588707302097,-44.71090748637287,52.56334079336701,-12.544013442248447,277.4761063945743,70.87701235201017
3,17.52582402242323,-254.8045727657954,-107.84588160110721,-42.13426565006452,50.83738607475203,-13.654028276560526,277.263724689143,68.51099934937503
4,17.564641850322435,-254.7241313365771,-107.48576778964403,-39.763850858811196,49.10755887545018,-14.717441825660254,277.0559058458741,66.26492827929441
5,17.619955318332646,-254.64398903617112,-107.14036855903586,-37.62473964750509,47.37826678563145,-15.723166390073164,276.8547175104533,64.15343317327624
6,17.688597340158722,-254.56465910395238,-106.8141770916362,-35.737725289016105,45.654665728231336,-16.661251679066073,276.6621712076713,62.189190339520195
7,17.76761347983437,-254.48672002956351,-106.51126624461492,-34.1187270376874,43.942688781443564,-17.52308861341583,276.4801930636953,60.38262775526895
8,17.854322202675768,-254.4108121797261,-106.23521067617479,-32.7782919479628,42.2490229898241,-18.301574382156574,276.3105942629134,58.741647653847416
9,17.946357256657294,-254.3376299140191,-105.98902268906222,-31.72120907855625,40.581033060883684,-18.991234184303355,276.1550415011964,57.271372501538345
10,18.041692523767566,-254.26790956595815,-105.77510230173381,-30.94625447668718,38.946634103321855,-19.58829656446048,276.01502800737643,55.97392618002368
11,18.13865051471332,-254.20241408206806,-105.59520169883433,-30.446082778544547,37.354118612678086,-20.090720869221894,275.89184600107205,54.84826313856496
12,18.23589634989446,-254.14191539148953,-105.45040410990278,-30.207277511481756,35.81194558550672,-20.4981770518454,275.786561711691,53.89005842588484
13,18.332419468239678,-254.08717564589494,-105.34111728092952,-30.210567374407617,34.328501831313616,-20.811979721479137,275.69999420900126,53.09167080439594
14,18.42750541423265,-254.03892828746254,-105.2670817871807,-30.431210188507464,32.911847198417036,-21.034979864653575,275.63269915996295,52.442189624803014
15,18.520700030498666,-253.99785951246966,-105.22739421007559,-30.8395401690158,31.569456446179334,-21.171418991343916,275.5849581731229,51.927573808541204
16,18.611768378563237,-253.96459023618502,-105.22054459400086,-31.40166795812802,30.307970721458016,-21.226751532816554,275.55677373145363,51.530888091791674
17,18.700650612136773,-253.93965832477284,-105.24446683314163,-32.080316738936375,29.13297093898927,-21.20744210776388,275.5478691058757,51.23263762260099
18,18.787416597521656,-253.92350078221065,-105.29660004508132,-32.83577196719753,28.048783909188362,-21.120744732589774,275.5576923253574,51.01119722485903
19,18.87222041225509,-253.91643577091875,-105.3739586956567,-33.626917066451064,27.0583299912238,-20.974471166196047,275.5854233124604,50.843326447636564
20,18.955255430574223,-253.9186446994344,-105.47320913609576,-34.4123231187683,26.163018566360357,-20.776755420633823,275.6299835618096,50.70475631372441
21,19.036710801680385,-253.93015498758007,-105.5907501755434,-35.1513574511122,25.362694922490277,-20.535821158552782,275.69004808152926,50.570828947600766
22,19.116730507878934,-253.95082440404312,-105.7227953159746,-35.80527433483205,24.655639427591456,-20.259758308788577,275.7640596048424,50.417167465679704
23,19.19537648723393,-253.98032801410653,-105.86545436876412,-36.338250974460195,24.038617345366998,-19.956314755562715,275.8502452619354,50.2203510157313
24,19.272597421454442,-254.0181487921416,-106.01481246389997,-36.718333638652766,23.506975451890415,-19.632708363934885,275.9466360337012,49.958568877946014
25,19.348204782336527,-254.06357287480392,-106.16700502812576,-36.918262116638935,23.054779800808358,-19.295463893015235,276.05108945052257,49.61222813783368
26,19.421857571827175,-254.11569025917538,-106.31828800192206,-36.91614548988928,22.674987533734605,-18.950278551510632,276.1613160955434,49.164491516880425
27,19.493056810090955,-254.1734014850441,-106.4651030608549,-36.695968264187094,22.35964450998043,-18.601919107395286,276.27491039185634,48.601725333958484
28,19.56115024256855,-254.23543052174455,-106.6041376855223,-36.24791295423913,22.100099748170344,-18.254152601851526,276.38938584988443,47.913842062031485
29,19.62534706050216,-254.30034377092775,-106.73237966742977,-35.56849291692503,21.887227275661342,-17.909711841095103,276.50221452176754,47.09452725346588
30,19.684741793029996,-254.36657482870294,-106.84716531819564,-34.66049714315384,21.711646012256516,-17.57029591629427,276.61086999631976,46.14134632887547
31,19.738346011711496,-254.43245438494418,-106.9462204903715,-33.53275631109775,21.56392881027521,-17.236604981564643,276.71287292670405,45.05573237736588
32,19.785126075266803,-254.49624431521997,-107.02769356095065,-32.199746150924895,21.434792762811025,-16.908407401662068,276.8058377741516,43.84286124702621
33,19.8240448275495,-254.55617469667138,-107.09017966393134,-30.68104967070132,21.31526435995877,-16.584636249004365,276.887519183001,42.51142449114992
34,19.854105038417146,-254.61048234265235,-107.13273558504818,-29.00070384467754,21.1968149312966,-16.263511104674272,276.9558563165413,41.07331403070253
35,19.87439251954044,-254.65744962879396,-107.15488489402493,-27.18645895815395,21.071463927781558,-15.942680289537025,277.00901371821396,39.54323470157578
36,19.884117172502037,-254.69544275840803,-107.15661319692295,-25.268980008553708,20.931849836703968,-15.619378069303734,277.0454177478339,37.93826226097988
37,19.882650559629614,-254.72294890813043,-107.13835381796405,-23.281019419085112,20.771270775273596,-15.290591070793754,277.06378809847786,36.277365011850364
38,19.869558824743883,-254.73861172206324,-107.100964586999,-21.256588840394596,20.58369892692552,-14.953228115011754,277.0631640810917,34.5809069974932
39,19.844629960039487,-254.74126445190555,-107.04569656559893,-19.23015509777112,20.363774746709606,-14.604287857126572,277.0429252767952,32.870149714579995
40,19.807894601528034,-254.72995989725447,-106.97415551381262,-17.235881644186357,20.106788014242237,-14.241018924955418,277.00280602360647,31.16676751399658
41,19.759639766552738,-254.70399634579613,-106.88825684582267,-15.306932532029975,19.808653197450536,-13.861067612282994,276.94290323923826,29.492389437251912
42,19.700415156480293,-254.66293891508568,-106.7901749164861,-13.47485121204754,19.465886211760683,-13.462608655692325,276.8636773164039,27.868177418027873
43,19.631031760676,-254.6066359092511,-106.68228776399113,-11.76902168722806,19.0755886309801,-13.044455271113154,276.76594613812034,26.314447836404074
44,19.55255256278241,-254.5352299347438,-106.5671187713162,-10.216215036662886,18.635443897646876,-12.606145439537688,276.6508725162606,24.850340575254716
45,19.46627531710895,-254.4491635746209,-106.44727688831372,-8.840220454572098,18.143728294275718,-12.148002342807521,276.5199454905327,23.49353718502717
46,19.373707669489416,-254.3491794122539,-106.32539699031719,-7.66155701971653,17.599337539444395,-11.671167809373172,276.3749559160308,22.260027663998198
47,19.276535204237476,-254.2363141225551,-106.20408177576861,-6.697260578275049,17.001827942074257,-11.177608612710394,276.2179666574449,21.163923778642292
48,19.1765832174383,-254.11188627037168,-106.08584653620099,-5.960739379521117,16.351469124197507,-10.670096442151408,276.05127762565206,20.217315771989842
49,19.075773221740285,-253.9774774741674,-105.97306818934673,-5.461692254824589,15.649303489460799,-10.152163282603686,275.87738594647806,19.430168662363617
50,18.976075454951967,-253.83490675925805,-105.86793993606028,-5.206083876912196,14.897206022183857,-9.6280347144069,275.6989417122645,18.810254028540932
51,18.879458970767594,-253.68619820811526,-105.77243262058396,-5.196172720429486,14.097936859592128,-9.102544198052957,275.51869994176786,18.36311317997449
52,18.787841166672948,-253.53354233743136,-105.68826344190065,-5.430588602740089,13.255178597368985,-8.581031713257381,275.3394695239721,18.092047970572157
53,18.70303875321052,-253.37925190516768,-105.61687224731071,-5.904457958315236,12.373550576391048,-8.069230206612609,275.1640600225699,17.99813625877043
54,18.62672208538734,-253.22571304483034,-105.55940525428018,-6.609576065255667,11.45859344104912,-7.57314321009552,274.9952272414766,18.080270073853004
55,18.560374474667153,-253.07533280574805,-105.51670568950055,-7.534626045323616,10.51671897131549,-7.0989167817699625,274.8356184598118,18.335215787830332
56,18.505257756424545,-252.9304844280885,-105.48931058029213,-8.665444420281908,9.555122437601932,-6.652708688562659,274.68771835293836,18.757696869781356
57,18.46238518442379,-252.79345197678276,-105.47745278709549,-9.985332292822276,8.581657314757983,-6.240557582078348,274.5537968170081,19.34050093873454
58,18.432502666523487,-252.6663761975773,-105.48106724810677,-11.475409944122685,7.604674900436065,-5.868254785476519,274.43586008445664,20.07461361513762
59,18.416079280289587,-252.55120356780546,-105.49980035093658,-13.115011001428957,6.632834024646987,-5.541221102656098,274.33560659128034,20.949381892448237
60,18.41330772540037,-252.44964045825628,-105.53302149157655,-14.882110519307268,5.674888442208735,-5.2643907227729745,274.254389042371,21.952709260198226
61,18.42411480353812,-252.3631140786981,-105.57983624427476,-16.75377947299907,4.739461466178138,-5.042103891661483,274.19318400020586,23.07128353180426
62,18.448181264124507,-252.29274150190128,-105.63910096627845,-18.706656380076492,3.834818710151182,-4.87800968494135,274.15257008120363,24.29083628643413
63,18.484969649245613,-252.23930767895672,-105.70943891952213,-20.71742514017184,2.968650326082602,-4.774980019847396,274.1327155472943,25.596430198907843
64,18.533758301200297,-252.20325306147208,-105.78925812247029,-22.763286820255825,2.1478738556538204,-4.7350359742575145,274.1333758263813,26.97276765079444
65,18.59367946656984,-252.18467123271523,-105.87677130192789,-24.822412150679455,1.378467840115412,-4.759287501115492,274.1539013422585,28.404511329076804
66,18.663759343904644,-252.18331675218138,-105.97001856422762,-26.874361070681797,0.6653447358172914,-4.847887687791023,274.1932559404689,29.876605415559037
67,18.742957912982945,-252.19862312562822,-106.06689365391475,-28.900455855269097,0.012269521172208989,-5.0000027386834525,274.25004601999933,31.37458468572821
68,18.8302064579532,-252.2297303674181,-106.16517481523384,-30.884095191504024,-0.5781722522601072,-5.213798777669101,274.3225601303351,32.88485845171661
69,18.924440921021894,-252.27552111029897,-106.26256128510461,-32.810998042847906,-1.1045561397305579,-5.486446355399516,274.40881834137457,34.39495678891593
70,19.02462966306759,-252.33466378036064,-106.35671623985425,-34.669368229660165,-1.5665523620592472,-5.814143253224582,274.5066302416609,35.89372782853826
71,19.129794815069268,-252.40566102245313,-106.44531646384269,-36.449973360943304,-1.9648161523011163,-6.192155875698189,274.61365994408277,37.371477031600605
72,19.23902699398484,-252.48690125439248,-106.52610814846108,-38.14613508323216,-2.3008421445494625,-6.614879275309581,274.72749590722066,38.82004224860885
73,19.35149355973735,-252.5767109266388,-106.59696731389825,-39.75363150371911,-2.576791843946843,-7.075915655065593,274.84572277934694,40.232801919687155
74,19.46644083490887,-252.6734049070849,-106.65596261910206,-41.27051690037009,-2.7953043388388568,-7.568170969029814,274.9659920645699,41.60461776371387
75,19.58319096738739,-252.7753325600404,-106.70141788524744,-42.69686817264771,-2.9593008058729815,-8.083968879486216,275.08608839517325,42.93171744789541
76,19.7011344723687,-252.88091753471338,-106.73197147527503,-44.03447160488938,-3.0717929987017216,-8.615180784576411,275.2039885567319,44.21152671104671
77,19.81971984686342,-252.98868986517786,-106.74662964584876,-45.28646704407126,-3.135704857107887,-9.153369967366693,275.3179109640866,45.44246387946998
78,19.93844183108211,-253.0973095773713,-106.7448110197402,-46.4569691235035,-3.1537147724755212,-9.689947249897163,275.4263538539547,46.62371226486419
79,20.056829779785325,-253.2055815514566,-106.72637941822379,-47.55068635503749,-3.1281241300397604,-10.216334918439069,275.5281209932004,47.75498722961848
80,20.174437234800877,-253.3124618837805,-106.69166255895479,-48.57255856794119,-3.0607557879199176,-10.72413511913191,275.62233423262836,48.83631454155034
81,20.290833310243602,-253.41705641606984,-106.64145466798345,-49.52743122304521,-2.9528843720299247,-11.205298437669553,275.70843280101167,49.86783495053081
82,20.405596054288203,-253.51861246035688,-106.57700185458151,-50.41978167279448,-2.805198796809646,-11.652288039591607,275.7861598442076,50.84964681349306
83,20.518307585803406,-253.61650507593336,-106.49997004864555,-51.253507812338356,-2.6177963295062177,-12.058234592221993,275.85553735975054,51.78169441870795
84,20.6285505298752,-253.71021953514744,-106.41239629228049,-52.031784301295296,-2.3902068178723153,-12.417077209007198,275.91683130282615,52.66370493358495
85,20.735905117231113,-253.79933178117793,-106.31662508736967,-52.756986178230704,-2.1214453233311867,-12.723685866202773,275.9705091361538,53.49517215635441
86,20.83994629887797,-253.8834886914628,-106.21523221844117,-53.43067471876769,-1.8100911604029408,-12.973961192906206,276.0171923828278,54.275380954143635
87,20.940240380261017,-253.9623898253928,-106.11093898629446,-54.053636217483664,-1.454391029942006,-13.164908269994404,276.05760682482367,55.00346281030565
88,21.036341011649117,-254.0357720631061,-106.00652017864152,-54.62596136157831,-1.0523834225339117,-13.294682067783144,276.0925329108204,55.678470606898
89,21.127784847541914,-254.1033981398564,-105.90470944014922,-55.14715131362972,-0.6020407528368641,-13.362603303314902,276.1227587271941,56.299459890060376
90,21.214087669103787,-254.16504959642722,-105.80810601577585,-55.61623674409905,-0.10142485107978953,-13.369144670895343,276.14903759252746,56.86556457185553
91,21.294742052668308,-254.22052417451206,-105.71908705418174,-56.03189785625292,0.45114938847955066,-13.315888492124952,276.1720519840436,57.37605729012807
92,21.369217652477417,-254.269637238991,-105.63972956478769,-56.39257660319902,1.056948100071556,-13.205457785872532,276.1923850541839,57.83038815402895
93,21.436964885580913,-254.31222643967595,-105.57174556286178,-56.69657618500518,1.7166566669145813,-13.041423532524895,276.2105004193249,58.228199735701345
94,21.49742236472968,-254.34815856505466,-105.51643299826532,-56.94214682163747,2.430228706488992,-12.828191478978967,276.2267302707293,58.56932023195962
95,21.55002792631859,-254.377337408349,-105.47464402356684,-57.12756017089484,3.1967524646419574,-12.570872214530901,276.24127130165215,58.85374017524405
96,21.59423266505771,-254.3997114524249,-105.44677127610137,-57.25117726862883,4.014341010431742,-12.275138477497315,276.2541875627554,59.081580602449066
97,21.629517116228712,-254.41528027837035,-105.4327521883119,-57.31151628394702,4.880052061110122,-11.947073771512574,276.2654191753011,59.253061977722574
98,21.655408650829763,-254.4240988580717,-105.43209073190232,-57.307326535471915,5.789842342886461,-11.59301642963857,276.27479582884837,59.36848325316505
99,21.671499224479362,-254.4262793476045,-105.44389525063046,-57.237674128697506,6.738560112077843,-11.21940329334801,276.2820541328273,59.428219263428055
100,21.677462721266682,-254.42199056406466,-105.4669301815836,-57.10204254310407,7.719977887975505,-10.832617151094412,276.2868580985843,59.43274246368227
101,21.673071113485776,-254.4114557824092,-105.49967873889678,-56.90044895536839,8.7268656803321,-10.438841957828995,276.2888221706339,59.38267224576341
102,21.658208523832517,-254.39494967451688,-105.54041323091037,-56.633574418017766,9.75110315737283,-10.043929586291272,276.28753623146895,59.278852076025274
103,21.63288221288025,-254.37279516487658,-105.58726963542196,-56.302903475342326,10.783827455541685,-9.65328141230564,276.28259193435895,59.122451745410736
104,21.597229675394058,-254.3453608294832,-105.63832326080549,-55.91086651651984,11.815611831242013,-9.271747438247331,276.27360966928995,58.91508925427138
105,21.55152139018845,-254.3130593058383,-105.69166262111014,-55.46097618051362,12.836669161945688,-8.903545024445759,276.2602654615341,58.65896434763461
106,21.49615920268152,-254.27634703231314,-105.74545900369598,-54.95794747591975,13.837073367337124,-8.552198726783296,276.24231713077864,58.356993533131856
107,21.43167071908091,-254.2357254863418,-105.79802966068996,-54.40779007944754,14.806991055212777,-8.220502206642971,276.2196291050733,58.01293467175091
108,21.358700399748127,-254.19174392875382,-105.84789306628373,-53.817860728460964,15.736915105105014,-7.910502599563269,276.1921953528819,57.63148812978323
109,21.27799822514204,-254.14500346871247,-105.89381508342949,-53.19686393279636,16.617891590693986,-7.623507092291083,276.16015988497213,57.21836124970834
110,21.19040682438715,-254.09616201240198,-105.93484508286667,-52.55479055827016,17.44173151343173,-7.360110849562488,276.12383412121,56.780283733840626
111,21.09684775141055,-254.0459393119938,-105.97034111978247,-51.90278627417098,18.20119927696333,-7.1202449242411605,276.0837101039301,56.324963546635466
112,20.998307214056442,-253.99512089517566,-105.999983354246,-51.252945397582444,18.890170573475217,-6.9032423665625,276.04046813903085,55.86097609872554
113,20.895821213617243,-253.94455924694955,-106.02377516856535,-50.61803013291223,19.503753282382075,-6.707920354361926,275.9949771464777,55.3975835844151
114,20.79045993855743,-253.89517043985373,-106.04203193819707,-50.01112028656886,20.038366127315438,-6.5326757390917205,275.9482860267472,54.94448611992902
115,20.683311356997347,-253.84792460950607,-106.05535801051026,-49.44520388447475,20.491771318712807,-6.3755909305651794,275.90160477434057,54.51151148179661
116,20.57546407533809,-253.80382920250582,-106.06461297186584,-48.932724354701385,20.863059286384534,-6.234546552140547,275.85627477234345,54.10825544715057
117,20.46798958840691,-253.76390461535033,-106.07086873431277,-48.48510461460278,21.152585818862665,-6.107336820670739,275.81372851968376,53.743689574631944
118,20.361924145265533,-253.72915258526984,-106.07535941105553,-48.112272076690026,21.361864341461075,-5.99178318606619,275.77543990360846,53.42575730052543
119,20.258250659787695,-253.70051846974889,-106.07942633526002,-47.82221090488947,21.493418508312985,-5.885841488237341,275.7428670072986,53.16098209596105
120,20.157881293211453,-253.6788493318255,-106.08446080521797,-47.62056852071101,21.550602542811227,-5.787697864767486,275.71739026151545,52.954112822117146
121,20.061641403341714,-253.66485044758448,-106.09184714374638,-47.510342123727405,21.537398608656282,-5.695848948119315,275.7002493972404,52.807831041531585
122,19.970255503182454,-253.65904338475815,-106.10290843422253,-47.491667757468925,21.458201723005246,-5.6091625470803566,275.6924830535054,52.72254273997204
123,19.88433576587662,-253.66172911323693,-106.11885691211253,-47.56172939169859,21.317603184890807,-5.5269159906626975,275.6948750244612,52.69627276977749
124,19.80437345759937,-253.67295962929353,-106.14075058576135,-47.714798952465024,21.12018312414618,-5.448810541256807,275.7079109802366,52.72467459435914
125,19.730733440115632,-253.69252116278915,-106.16945731661204,-47.94241060137925,20.870321616671518,-5.374961601913361,275.7317489652004,52.80116090330847
126,19.663651589198416,-253.71993105949713,-106.20562728937463,-48.233664316680404,20.5720360167986,-5.305865690603193,275.76620594003276,52.91715280681926
127,19.603234761824176,-253.75444899770673,-106.24967454224286,-48.57564558936215,20.22884999275188,-5.242346258232277,275.8107611993348,53.0624372442215
128,19.549462963421973,-253.79510173023576,-106.3017680480468,-48.953940495637546,19.843697501714416,-5.185481388296494,275.8645760782151,53.22561467441168
129,19.50219362442391,-253.84071947694068,-106.36183269553324,-49.35321910389173,19.418862798889567,-5.136517237021197,275.926528344357,53.394612654087396
130,19.461168225671013,-253.8899815436535,-106.42956025703717,-49.757855547171175,18.95595563222506,-5.096771738484475,275.9952590885955,53.55723600167919
131,19.426021698984925,-253.94146853197861,-106.50442994315512,-50.152550508258535,18.455919096842965,-5.067533598544257,276.0692295577228,53.701721285766176
132,19.396294952212674,-253.99371841341645,-106.58573750583572,-50.52292162806826,17.91906629151312,-5.049961914145873,276.1467850366955,53.817262712940504
133,19.371450564623416,-254.04528366599752,-106.67263120872131,-50.856029576783804,17.345141029873894,-5.044991835090451,276.22622254815747,53.89447828754945
134,19.350891347410943,-254.0947866298077,-106.76415245107977,-51.14081204355146,16.73339751003348,-5.053251493335789,276.30585886880795,53.92578925086145
135,19.33398123820773,-254.1409703037072,-106.85927847581132,-51.36840430034626,16.0826940783948,-5.074994943222014,276.3840952715301,53.905691918493126
136,19.320067873854214,-254.18274201128136,-106.95696446783428,-51.5323328017453,15.391596943675282,-5.110055062688584,276.4594755382677,53.83090864939397
137,19.308506024960053,-254.21920769512195,-107.05618251051342,-51.6285769782545,14.658490689676306,-5.1578192529985,276.53073414826713,53.70041324740875
138,19.298680905407704,-254.24969507626577,-107.15595531739004,-51.65550334219468,13.881693452798737,-5.217229430591656,276.5968321511686,53.515334952777685
139,19.290030350421144,-254.27376459713045,-107.2553832707895,-51.613684514608835,13.059575457776655,-5.286806411456,276.6569791004523,53.27875356084138
140,19.282064995853325,-254.2912079517072,-107.35366388560439,-51.505623048076714,12.190680081272669,-5.364697510245817,276.71064047610673,52.995405342804744
141,19.274385717298998,-254.30203498026054,-107.45010330443311,-51.33540533481859,11.273846637420814,-5.4487451043408965,276.757531119445,52.671324706594625
142,19.266697589450178,-254.30645056933616,-107.54411990884306,-51.10831404460692,10.308333612627566,-5.536573112074297,276.7975961821195,52.31344952501689
143,19.2588195680725,-254.30482379633474,-107.63524066715331,-50.83042828281258,9.293940165397718,-5.625687837563779,276.8309818432895,51.92921863911631
144,19.250689120101267,-254.29765189368334,-107.72309138361493,-50.50823911690577,8.23112253006059,-5.713589349157631,276.85799856756137,51.52618835715369
145,19.242361205083977,-254.2855217920696,-107.80738250309642,-50.14830467202208,7.121100809765549,-5.79788927909011,276.87908004488327,51.11169121612056
146,19.234001302279665,-254.2690720891686,-107.88789251165828,-49.756964183493096,5.9659507956005084,-5.876430530571679,276.8947412003998,50.69255541735893
147,19.225872527732577,-254.24895817898152,-107.96445116063582,-49.34012476980139,4.768675079354676,-5.947403931268992,276.9055386539483,50.27489776769667
148,19.21831732552998,-254.22582278833738,-108.03692461201855,-48.903128745329155,3.533247897942415,-6.009456553056291,276.9120365382872,49.86399715497602
149,19.21173475609596,-254.20027327810678,-108.10520412053965,-48.450703443176,2.2646288576332876,-6.061786334289421,276.9147796188625,49.4642499657003
150,19.206554875417975,-254.17286604968916,-108.16919913446061,-47.98699007941719,0.9687419099684231,-6.104217815312361,276.9142744736664,49.0792037039897
151,19.203211881652564,-254.14409759669604,-108.22883493039713,-47.51564336997222,-0.34758237980074014,-6.13725424049501,276.91097847340416,48.71166057396827
152,19.20211757435102,-254.114401264584,-108.28405434207161,-47.03998953826599,-1.6767012587489296,-6.1621020175265695,276.905295639969,48.36383903495864
153,19.203636395474344,-254.08414853991502,-108.33482293263855,-46.56322711895588,-3.0102888255715805,-6.180664594235322,276.8975781383229,48.037578389168566
154,19.208063063277788,-254.05365361894798,-108.38113703794339,-46.08865267615661,-4.339495663220218,-6.195504247788403,276.8881321012625,47.734569400427674
155,19.21560362970217,-254.02318009115467,-108.42303425606829,-45.61989234045351,-5.655133434440012,-6.209772051642312,276.87722660831224,47.45659288633665
156,19.226360688282092,-253.9929487953052,-108.46060591203356,-45.161120008701396,-6.947877665632775,-6.227108241817922,276.86510481684445,47.20574824332342
157,19.240323408261244,-253.96314621121832,-108.49401066653374,-44.71724410038643,-8.20848130938035,-6.2515171096421325,276.85199637912336,46.984654895829316
158,19.257363011653904,-253.93393305092496,-108.52348794679381,-44.29404674071983,-9.427991479578429,-6.287222186378491,276.83813035937055,46.796611516852956
159,19.27723417309628,-253.90545290729244,-108.54936962565118,-43.898261891023424,-10.5979618519517,-6.338508714895063,276.82374793634295,46.64570029881151
160,19.29958259896145,-253.87784085009213,-108.5720885679974,-43.53758208039473,-11.710653494347097,-6.409561130670323,276.8091142675385,46.536826381462944
161,19.323958773888634,-253.8512317333329,-108.59218311783314,-43.22058697373216,-12.75921732261114,-6.504303444755217,276.79452893512945,46.475685755743896
162,19.3498375587871,-253.82576774030585,-108.6102969081356,-42.95659109363811,-13.737852063826454,-6.6262500849724315,276.78033427522604,46.46865865737734
163,19.376642967300803,-253.8016044498988,-108.62717333476107,-42.755412560325205,-14.641932636792811,-6.778374066187709,276.76692062682304,46.52262965642916
164,19.40377705148138,-253.77891459148307,-108.64364385486961,-42.62706952100626,-15.468105198152397,-6.962998449579271,276.7547273297448,46.644740160426615
165,19.430651431019598,-253.75788872454407,-108.6606093084777,-42.581415728157324,-16.21434661775901,-7.181715901269831,276.74423834944304,46.84208358849491
166,19.456719656268643,-253.73873230776522,-108.67901382540715,-42.62773120205812,-16.87998769394898,-7.435339722680539,276.73597173309685,47.121357728041794
167,19.481508395844198,-253.72165897318715,-108.69981142087502,-42.77428773547169,-17.465700880189473,-7.723888056566206,276.7304626205839,47.48849240073908
168,19.504645500957192,-253.706880251105,-108.7239260086621,-43.0279117998432,-17.973454561131998,-8.046601217940287,276.72824017803214,47.94827316815
169,19.52588336947983,-253.6945924086462,-108.75220630779948,-43.39356892948315,-18.40643688258532,-8.401990385268082,276.72979952445905,48.50398312392163
170,19.54511660883703,-253.68496133925947,-108.78537792171693,-43.87399379528535,-18.768952721405054,-8.787914301627485,276.73557033088855,49.15708473651841
171,19.56239354015325,-253.6781065002062,-108.82399548994105,-44.46938893365688,-19.06629753823157,-9.201679246091114,276.74588411036433,49.90696222293908
172,19.57792138676586,-253.67408483392083,-108.8683980385425,-45.17721249756179,-19.304611607009992,-9.640156393060153,276.76094227324927,50.75074210163743
173,19.59206505331939,-253.67287562163062,-108.91867043504188,-45.99207149036195,-19.490717551342836,-10.099909829956085,276.78078695349683,51.68320550306603
174,19.605339429526254,-253.6743673882821,-108.97461327881699,-46.90573181964278,-19.631943415271635,-10.577328024149246,276.8052765458821,52.696800716552005
175,19.61839533292624,-253.67834820255976,-109.03572283182747,-47.90725035622224,-19.735932876530562,-11.068751500673201,276.8340678286626,53.78175864403448
176,19.631999564693803,-253.68450083459734,-109.10118196482297,-48.98322734885913,-19.810443854614736,-11.570589953989101,276.86660643308664,54.92630772867591
177,19.64700996266883,-253.69240414134345,-109.16986272681574,-50.11817053459155,-19.863136783426295,-12.07942293979577,276.90212721958255,56.1169789985239
178,19.664346594952796,-253.70154168265532,-109.24034103845491,-51.29495567128307,-19.901354299190455,-12.592079587567481,276.9396657583205,57.33898658509881
179,19.684960222018837,-253.7113179173786,-109.31092397427705,-52.4953624931568,-19.931895132242502,-13.105694313674718,276.9780814961353,58.57666483221157
180,19.709798947516568,-253.72108149459734,-109.37968981812158,-53.70066059107275,-19.96078659290453,-13.617737153317675,277.01609230374856,59.81394013119563
181,19.739773814230578,-253.73015435223274,-109.44454035783876,-54.89221670509597,-19.993062018107565,-14.126018945128987,277.05231907245246,61.03481400711732
182,19.775724141522787,-253.73786474383525,-109.50326389700199,-56.052093634146715,-20.032551524055478,-14.62867313180994,277.08533810830863,62.22383379420012
183,19.81838356333807,-253.74358199340978,-109.55360655743047,-57.16361158560532,-20.081695982127712,-15.124117352159592,277.1137384379344,63.36652849708093
184,19.868347815613106,-253.74675069948546,-109.59334881903104,-58.21184528712303,-20.141395011411177,-15.610999237402714,277.13618082687185,64.44979006492254
185,19.926045258782136,-253.7469222162416,-109.62038390754013,-59.18403435064773,-20.210899819612052,-16.08813179491807,277.15145526828354,65.46218412845677
186,19.99171097345859,-253.74378146559798,-109.63279462647941,-60.06988987597418,-20.28776086502275,-16.55442435693766,277.15853388540546,66.39417899263087
187,20.065365143203255,-253.73716744074855,-109.6289255725569,-60.861786678092784,-20.367838567362927,-17.008815184242597,277.1566165932985,67.23828697572785
188,20.146796420246865,-253.7270861687206,-109.60744826741154,-61.5548373109334,-20.445382765816586,-17.450211392554976,277.1451674664055,67.98911760352856
189,20.235551087657782,-253.71371543180553,-109.56741734339671,-62.14685068759804,-20.51318344815955,-17.87744096884263,277.1239404880596,68.64334723344585
190,20.330929027351623,-253.6974011415602,-109.50831632754459,-62.63818404049287,-20.562791594669047,-18.289220407072495,277.0929940717569,69.19961395327611
191,20.431987627417513,-253.67864578182738,-109.43009171131251,-63.03150184027828,-20.584804989675227,-18.684140071223315,277.0526942854187,69.65834976012933
192,20.537554621772262,-253.65808970032484,-109.33317395574092,-63.331458937797116,-20.56920984360855,-19.060667919105665,277.00370701846145,70.02156398687332
193,20.646250341505663,-253.63648623592857,-109.21848406189783,-63.5443276378796,-20.505765370104754,-19.417170806561508,276.94697948268566,70.2925928137411
194,20.7565190872644,-253.61467178075281,-109.0874245936528,-63.67758975999943,-20.38441538509236,-19.75195134535354,276.88371159462343,70.47582967713183
195,20.866668593544293,-253.59353196991225,-108.94185472224005,-63.739515044966055,-20.195708816311573,-20.063297318934467,276.8153180953645,70.57645064444257
196,20.97491605326261,-253.57396533137108,-108.78404983971117,-63.73874651665653,-19.931209964489234,-20.349540047396392,276.74338274413924,70.60014748718494
197,21.079438890103035,-253.5568459242049,-108.61664724100288,-63.683911609084454,-19.58387957271619,-20.609117836449144,276.6696064566411,70.55287936681506
198,21.178428279741773,-253.54298668563675,-108.44258007539403,-63.583275156074855,-19.14840921587672,-20.840640678387064,276.5957516948932,70.44065191049083
199,21.270143260074033,-253.5331053038464,-108.26500218170044,-63.44444699188997,-18.6214940420903,-21.042952620592192,276.5235856503024,70.26933021080225
200,21.352963207818988,-253.5277943797462,-108.08720656243233,-63.274153264938,-18.002032225537548,-21.215188610596485,276.45482475803766,70.04449013770663
201,21.42543661648149,-253.5274974298809,-107.91254015767899,-63.07807693071331,-17.29124335800205,-21.356823073038143,276.391082858221,69.77131043432077
202,21.48632447004282,-253.5324919116785,-107.74431740960782,-62.860769490865806,-16.49270214864247,-21.467707880449073,276.3338249368317,69.45450642298495
203,21.534636888123984,-253.5428799229443,-107.58573506167386,-62.62563300641252,-15.612287945400542,-21.548097742881566,276.28432790154733,69.09830475087806
204,21.569661967510434,-253.5585866087365,-107.43979073065528,-62.37496877920646,-14.658054497289973,-21.598661454553973,276.2436493328618,68.70645741973114
205,21.590985881856806,-253.57936575624916,-107.30920782900583,-62.11008689171688,-13.640027857351937,-21.620477972176896,276.21260466710277,68.28229235201083
206,21.598503493756052,-253.60481171143346,-107.1963691942405,-61.83146902348747,-12.569943188315962,-21.61501692374976,276.19175287715296,67.82879689087075
207,21.592419128566835,-253.63437660931223,-107.10326129464653,-61.538975530360844,-11.460933247958646,-21.584103760809715,276.1813904276878,67.34872975985031
208,21.573237704938286,-253.66739188450723,-107.03143031763678,-61.232086494560775,-10.327182330128224,-21.529870305919165,276.1815530823379,66.8447559292185
209,21.54174689270215,-253.7030931028291,-106.98195098244474,-60.91016517523677,-9.183559433496658,-21.4546919183378,276.19202506415934,66.3195974670522
210,21.498991229673642,-253.74064735808534,-106.95540853576013,-60.572730974289634,-8.045243608729777,-21.361112968945886,276.21235512690805,65.77619187851982
211,21.446239243218418,-253.77918271630227,-106.95189397554437,-60.21972776753575,-6.927353035401687,-21.251762834200914,276.2418791592833,65.2178478454934
212,21.384944756940424,-253.8178192741401,-106.97101210711175,-59.85177245983543,-5.844587628054654,-21.129265160119605,276.2797488594894,64.64838693210855
213,21.316703777998146,-253.85570124894159,-107.01190167023385,-59.4703682414882,-4.810893106895545,-20.996143639329595,276.3249657542746,64.07225904977653
214,21.243208541303353,-253.89202921780014,-107.0732665089768,-59.07806755499268,-3.8391527512691885,-20.854727973426026,276.3764194708359,63.49461958418172
215,21.16620030884053,-253.92609130731705,-107.15341652131191,-58.67857138487491,-2.9409116744202968,-20.70706407986168,276.43292878991673,62.921357254312575
216,21.08742243141701,-253.95729190584728,-107.25031691784217,-58.276754211113726,-2.1261374709004723,-20.554832887624066,276.4932837085858,62.35906404358444
217,21.008575101061066,-253.98517638073437,-107.3616442008665,-57.878607770428445,-1.4030204369321702,-20.399282116199387,276.55628660620187,61.814941832879015
218,20.931273176123614,-254.00945035693704,-107.4848472830522,-57.49110140280621,-0.777816137948925,-20.241175162709865,276.6207906741665,61.296644412832244
219,20.857008390356064,-254.02999235725352,-107.61721229813948,-57.12196178826508,-0.2547327574217981,-20.080760646902167,276.6857340404859,60.812057943112734
220,20.787117127189834,-254.04685899111018,-107.75592984633869,-56.77937984957161,0.1641347268627403,-19.91776534067443,276.750168439406,60.36902723986235
221,20.722754729111344,-254.06028231853682,-107.89816347653729,-56.47165717312855,0.4788220081306532,-19.751412173341016,276.8132816868095,59.975039191901274
222,20.664876990907743,-254.0706593905742,-108.04111798009038,-56.206808263340555,0.6914636934648946,-19.580463768776717,276.87441345298464,59.63687792327878
223,20.614229059453702,-254.07853423413064,-108.18210567999236,-55.99213815295261,0.8062123059496841,-19.403290587062298,276.9330638850888,59.36026891093414
224,20.57134148449731,-254.0845727963913,-108.3186086837116,-55.833817219760526,0.8291091133387908,-19.217961328708462,276.9888947390294,59.14953104505831
225,20.536532717943622,-254.08953170879394,-108.44833520908654,-55.73647634114292,0.7679092198415819,-19.022351940510745,277.04172301933056,59.00725646011358
226,20.509917036734947,-254.09422216117002,-108.56926842379852,-55.70284555218879,0.6318649735496118,-18.814268421413395,277.0915076263962,58.934037697972926
227,20.49141672576224,-254.0994705583929,-108.67970649726318,-55.73345804222137,0.4314734729015169,-18.59157772576755,277.138329950942,58.928260293962396
228,20.480777397995464,-254.10607785504212,-108.77829269646381,-55.826438690015905,0.17819560134560108,-18.352340463549478,277.1823696130101,58.985976273344654
229,20.477585503539824,-254.1147795035509,-108.86403448743513,-55.97739261615004,-0.11584464644305374,-18.094938847569647,277.22387664047943,59.100870521950924
230,20.48128731835937,-254.12620781992163,-108.93631084537759,-56.17940468259434,-0.4381709523749,-17.818193464680043,277.26314137053686,59.26432780945303
231,20.491208924486532,-254.14085831085572,-108.99486740027677,-56.423155721753176,-0.7762657600905225,-17.521462978985465,277.30046329905304,59.46560363720887
232,20.506576851068694,-254.15906122989836,-109.03979970284861,-56.697155720559735,-1.1178722296364159,-17.20472178823405,277.3361201183359,59.69209724153911
233,20.526539154499876,-254.18095946966295,-109.07152573787037,-56.98808841978399,-1.4512785304043816,-16.868611832946183,277.37033837605526,59.92972014995669
234,20.550186786841728,-254.20649386611615,-109.09074965061197,-57.28125606985032,-1.7655771623863397,-16.514466058396472,277.4032674966563,60.163348828823736
235,20.576575103009432,-254.23539696153773,-109.09841927582295,-57.56110772548686,-2.0508933695413756,-16.144302371279664,277.4349591280391,60.37734541772655
236,20.604745279402756,-254.2671961172714,-109.09568034010243,-57.81182977553164,-2.298578158651475,-15.76078827596045,277.4653537412104,60.55612658719885
237,20.633745302247,-254.30122654616366,-109.08383013027401,-58.01797363702255,-2.501362954944537,-15.367177676627035,277.49427607746736,60.68475739826051
238,20.662650062407554,-254.33665433752452,-109.06427306817525,-58.1650928718669,-2.6534744717033125,-14.967222574430968,277.52144043246676,60.74954484900107
239,20.690579962355887,-254.37250885715414,-109.03848011631045,-58.24036057988359,-2.750709830410965,-14.565063588899035,277.54646591734667,60.738604736152205
240,20.716717327585958,-254.40772306459795,-109.00795331301201,-58.23313795952646,-2.790473202769157,-14.165104354146932,277.5689008079983,60.642375705551906
241,20.740319921817502,-254.44117946927676,-108.9741960241091,-58.13546649861709,-2.7717761606603872,-13.77187574208475,277.58825405918094,60.45405598061869
242,20.760731119377294,-254.47175890212654,-108.93868873734428,-57.942459298210224,-2.695204490635596,-13.38989638427593,277.6040312811185,60.169941163484786
243,20.777386768959506,-254.49838918931113,-108.90286948889585,-57.65257138114058,-2.562854493530465,-13.023536034420975,277.6157721457167,59.78964555598521
244,20.789819236543213,-254.52009114143797,-108.86811744880063,-57.267734315411104,-2.3782418110885635,-12.676887982280261,277.6230863107306,59.31619451381927
245,20.797659273157958,-254.53601980127516,-108.83573795665569,-56.79334687409735,-2.146185664120285,-12.353656084479995,277.6256853623233,58.75598125424321
246,20.800636209245535,-254.54549940110914,-108.80694740757446,-56.238120427518346,-1.8726711308706665,-12.05706107422493,277.6234087781219,58.11858798667093
247,20.79857674342615,-254.548050871904,-108.78285677341647,-55.613784891631504,-1.5646918560651386,-11.789769668237765,277.61624240662894,57.41647781766278
248,20.791402449192077,-254.54341107659445,-108.7644531656842,-54.93466789655059,-1.2300754857301597,-11.553848625940514,277.60432849479554,56.66457016990032
249,20.77912609072187,-254.53154329664483,-108.7525796326759,-54.2171659625738,-0.8772942657956011,-11.350744415599776,277.58796692743863,55.87971804090189
250,20.7618468394753,-254.51263887354847,-108.74791416097611,-53.479131461506405,-0.515263687493793,-11.181287677557805,277.5676079862266,55.080109925164116
251,20.739744447705263,-254.4871102226865,-108.75094940795306,-52.73920268932686,-0.1531328223505464,-11.045720441008733,277.5438374380665,54.28462235460595
252,20.713072381591935,-254.45557567352043,-108.76197487539352,-52.016106403635156,0.1999290364792824,-10.943743140968014,277.5173550447155,53.51215070829688
253,20.682149928209633,-254.41883678394643,-108.78106302468045,-51.327962791017434,0.5349438342768651,-10.874577854548674,277.4889476794714,52.780946296497056
254,20.647353401215007,-254.37784896127383,-108.80806038143533,-50.6916221300496,0.8433279716671891,-10.837043757593761,277.4594582349053,52.10798683123223
255,20.60910671113523,-254.33368639865068,-108.84258422234166,-50.122060408769556,1.1170805651130213,-10.829640584496413,277.4297514972588,51.50840527668656
256,20.567871661124435,-254.28750249279506,-108.88402511436391,-49.631857833481504,1.3489501604943939,-10.850635882929765,277.40067818606997,50.9949987566244
257,20.524138381097764,-254.24048706616722,-108.93155535880463,-49.230779674980695,1.532573994899819,-10.898152076051813,277.3730384200346,50.57783485594187
258,20.478416333989955,-254.19382191847788,-108.98414323549139,-48.92547359520789,1.662585148296173,-10.970249703927358,277.3475459959602,50.263967642430735
259,20.43122626140201,-254.1486364680614,-109.04057284016066,-48.71929195076642,1.7346846321626315,-11.065003631504092,277.32479503921644,50.05727049068903
260,20.383093255244198,-254.1059654123398,-109.09946922295788,-48.61224202327706,1.745677456464202,-11.180569433578325,277.3052306909682,49.95838771056854
261,20.33454094523512,-254.06671032681683,-109.15932845685083,-48.601062021640125,1.6934738112474697,-11.315237587819018,277.2891254407525,49.96480236068466
262,20.286086681579228,-254.03160690716268,-109.21855228107914,-48.6794162503333,1.5770585157649906,-11.467473551145574,277.2765625119955,50.07101363907218
263,20.238237550708327,-254.00119921058325,-109.27548711782916,-48.83819910340624,1.3964336593844728,-11.635942306997197,277.2674274442238,50.268813932905076
264,20.19148706202548,-253.97582185969523,-109.32846736379435,-49.06593443818483,1.1525407217703694,-11.819516568420998,277.26140869519804,50.547652881948444
265,20.14631245005609,-253.95559075246172,-109.37586260714917,-49.34925425755375,0.8471692705555117,-12.017268482461846,277.25800760976773,50.89507351396081
266,20.10317276250417,-253.94040235916984,-109.41612771931423,-49.673438433204154,0.48285950342865513,-12.22844539836684,277.256557418479,51.29720360301864
267,20.062508060336146,-253.92994123030252,-109.44785389877727,-50.02299553010069,0.06280541235162618,-12.452431063281988,277.25625017895715,51.73928400313484
268,20.02473990526085,-253.92369498574794,-109.46981815744446,-50.3822637724372,-0.40923574655429656,-12.68869449748481,277.2561700104432,52.206214963066024
269,19.990272889052402,-253.92097587047704,-109.4810287011266,-50.73601087666695,-0.9290235759662687,-12.93672972131402,277.25533076157615,52.683101381057185
270,19.95949659701474,-253.9209479310074,-109.48076404086675,-51.070011845341384,-1.4919020450991825,-13.195990352629826,277.2527163541574,53.15577856102778
271,19.932787357053726,-253.92265888886158,-109.46860415581051,-51.371584792212545,-2.0928541609345013,-13.465823707460999,277.2473222563284,53.61130116295399
272,19.910509346344405,-253.9250757440214,-109.44445242933973,-51.63006635338623,-2.726545436296414,-13.745409252397122,277.2381966726698,54.03837954720123
273,19.893014875661887,-253.92712303621812,-109.40854743898416,-51.83721015347977,-3.3873593162028675,-14.033706028161928,277.2244800997328,54.42774949409838
274,19.880643798510352,-253.92772264891858,-109.36146405586605,-51.9874941156998,-4.0694287827279325,-14.329413089969172,277.2054420115517,54.77246332639777
275,19.87372200259552,-253.92583412862487,-109.30410367162678,-52.078325150810265,-4.766668854452818,-14.63094620996098,277.180513663229,55.068092817318785
276,19.872558921589686,-253.92049461026122,-109.23767372285323,-52.11013297394239,-5.472814583373008,-14.93643309640705,277.1493162468662,55.312836981822855
277,19.87744402733135,-253.9108574291535,-109.16365711169765,-52.086348507271296,-6.181468450652378,-15.243728211990248,277.11168379591726,55.507530954857494
278,19.88864232760248,-253.89622832073218,-109.08377264252869,-52.013266498094644,-6.8861598709195615,-15.550446994741408,277.06768027992166,55.65555564139834
279,19.90638897978195,-253.87609784688607,-108.99992805433392,-51.89979650019452,-7.580417983257021,-15.854018040696756,277.01761027842,55.76265159310885
280,19.93088324706872,-253.85016845745525,-108.91416745095934,-51.75711104660361,-8.25785721631718,-16.151750726743604,276.96202250738946,55.83664447147715
281,19.96228216786096,-253.81837450862898,-108.82861491594586,-51.59820446252771,-8.91227346731305,-16.440914896618654,276.9017053961816,55.887093300857806
282,20.00069441166586,-253.78089370419104,-108.74541598473245,-51.43738008675093,-9.53774730367472,-16.718828595554744,276.8376740073283,55.924876274488355
283,20.046174782022725,-253.7381487967366,-108.66667853439884,-51.289687418672685,-10.12874946973283,-16.98294938259644,276.7711478859844,55.961731903406026
284,20.098719698766377,-253.6907988979562,-108.59441458623695,-51.170333584489725,-10.680243194591426,-17.230964455729723,276.703519859131,56.00977553005237
285,20.158263819549845,-253.63972031512472,-108.53048455364222,-51.09409520616883,-11.187777414412718,-17.460874716040713,276.63631632554706,56.08101242278044
286,20.224677814855827,-253.585977417355,-108.47654559593092,-51.07475698301644,-11.647565128479947,-17.671068009701088,276.57115015245506,56.18686864011885
287,20.29776722443981,-253.5307846330434,-108.4340058559785,-51.12460189092499,-12.056541744402715,-17.860377134616407,276.5096678803314,56.33775952890652
288,20.37727231570296,-253.47546126440665,-108.4039863930108,-51.253974881793106,-12.412399411552503,-18.02811877771675,276.4534934839201,56.5427131850729
289,20.462868931805186,-253.4213813067744,-108.38729254189943,-51.47093754921535,-12.713594930099921,-18.174110368739036,276.4041713695748,56.80906272282162
290,20.554170367048616,-253.3699208096533,-108.3843961670136,-51.781025835525206,-12.959330739650232,-18.29866292923329,276.3631115088925,57.14221715650338
291,20.65073021894803,-253.3224054890069,-108.39542977929875,-52.18711701920155,-13.149510553656082,-18.402549374998756,276.3315395645019,57.545516507945216
292,20.75204598369237,-253.2800612765914,-108.42019283644716,-52.68940642802433,-13.284673193340465,-18.48694931290447,276.31045457470475,58.020172696968636
293,20.857563080822707,-253.24397022350945,-108.45816993277028,-53.28548889042996,-13.365909854944027,-18.553372943359754,276.300596269897,58.56529392912349
294,20.966679101564782,-253.21503366926012,-108.5085601277155,-53.97053503281613,-13.394771191550818,-18.603567987900625,276.30242345538755,59.17798661518288
295,21.078748256590774,-253.19394399903427,-108.5703163120823,-54.737548316132,-13.373171065806797,-18.639414479672414,276.31610422766335,59.85352539982457
296,21.193086107029092,-253.18116583912098,-108.64219310633521,-55.5776854120948,-13.30329365452158,-18.662812802011874,276.3415182029342,60.58557889593471
297,21.30897462360469,-253.17692721019353,-108.72280123279933,-56.48062035180095,-13.18750990716474,-18.675570593593793,276.3782704113361,61.366476506483224
298,21.425667406514407,-253.1812207975804,-108.81066570434628,-57.43493192680364,-13.028308353250948,-18.679294087323562,276.4257159261837,62.18750044700144
299,21.542394606123995,-253.19381495780615,-108.9042847430103,-58.42849411064343,-12.828244077292771,-18.67528915358096,276.4829936116497,63.0391868642225
300,21.65836695972226,-253.2142734101819,-109.00218627039855,-59.44885079242511,-12.589908442289785,-18.664476844566853,276.5490667236241,63.9116208445254
301,21.772778569603567,-253.24198192275736,-109.10297915339542,-60.4835587396916,-12.315920854980858,-18.647327627727027,276.622767671802,64.79471202876218
302,21.88480847610062,-253.27617982873858,-109.20539698476323,-61.52048610589475,-12.00894248871341,-18.623817728074986,276.7028440961171,65.67844018491601
303,21.99362149476357,-253.31599398779153,-109.30833277052716,-62.54805757232651,-11.671710429631561,-18.593410014415934,276.7880034809537,66.55306305301376
304,22.098369072219146,-253.36047287038994,-109.41086339454053,-63.5554411051356,-11.30708926223659,-18.55506065099989,276.8769538102449,67.40928182891972
305,22.198191019423167,-253.40861876482765,-109.51226319898919,-64.53267520646591,-10.918135715856,-18.507251387830397,276.9684382526669,68.2383627203083
306,22.292218856371626,-253.45941662884053,-109.61200646302603,-65.47073933044156,-10.508170712200014,-18.448046063354553,277.0612625070388,69.03221602552998
307,22.379581219255286,-253.51185875381435,-109.70975898437925,-66.36157360657435,-10.08085212244627,-18.37516882050104,277.1543141716632,69.78343700276649
308,22.459411542714385,-253.564965056863,-109.80535949584441,-67.19805688839848,-9.640240929385188,-18.286100766304767,277.24657428200106,70.4853151831085
309,22.530858167658007,-253.61779932196868,-109.89879232161289,-67.97395414185034,-9.190853375798941,-18.178191299166567,277.3371218852669,71.13182046931011
310,22.59309706323135,-253.66948197184814,-109.99015327865133,-68.68384508942779,-8.737692050149313,-18.048780011081565,277.4251329997701,71.71757513077964
311,22.645347305523465,-253.71919996809078,-110.07961112101458,-69.32304576750396,-8.28624970942762,-17.895324891296134,277.5098754331096,72.23782058805914
312,22.686889203230514,-253.76621435532627,-110.16736683876908,-69.88753334379638,-7.842480986232435,-17.715532474813394,277.59070084221787,72.68838677977877
313,22.71708452400765,-253.8098659594861,-110.25361304141524,-70.37388241585,-7.412738921455767,-17.507485559850338,277.6670353435518,73.06567012767275
314,22.735397808241164,-253.849579809259,-110.33849557769445,-70.77921840022628,-7.003675350597921,-17.269764138431636,277.7383699653963,73.36662393337521
315,22.74141746189634,-253.88486878444238,-110.42207945396451,-71.10119091584208,-6.622106386499666,-17.00155523214597,277.80425211396147,73.5887627822019
316,22.734875324587414,-253.9153366883025,-110.50432095516548,-71.33796762119637,-6.27484649577174,-16.702747401642412,277.86427888228525,73.73018051201124
317,22.71566367462662,-253.9406805034264,-110.58504758896039,-71.48824701641281,-5.968516910866959,-16.374005817110834,277.9180925409214,73.78957974523142
318,22.68384897704076,-253.96069124264218,-110.66394705221772,-71.55128734453805,-5.7093362363384434,-16.016823988467895,277.9653780930162,73.76630995066533
319,22.639681915158455,-253.97525269280592,-110.74056589398646,-71.52694787704453,-5.502902860805259,-15.633548675459839,278.0058624831531,73.66041045768742
320,22.58360332599792,-253.98433750082376,-110.81431794018995,-71.41573846308522,-5.3539798874092615,-15.227375246611567,278.039314952198,73.47265471547584
321,22.516245705312063,-253.98800043034893,-110.88450187218552,-71.21887321657832,-5.266293526704752,-14.802311822262471,278.0655481132241,73.20459232645305
322,22.438430114585955,-253.98636910691954,-110.95032672376432,-70.9383245701849,-5.2423551997022475,-14.36311177374085,278.0844195353864,72.85858593050737
323,22.35115863030646,-253.979632986921,-111.01094365663384,-70.57687450556477,-5.28331608956827,-13.915175399762346,278.0958338683723,72.43784073378328
324,22.255602775303192,-253.96803148945156,-111.06548230591866,-70.1381603395416,-5.388860793089378,-13.464422800069906,278.09974572229845,71.9464251437578
325,22.1530884875043,-253.9518421910473,-111.11309021784315,-69.62671279657872,-5.557144349802843,-13.017141147026276,278.09616358245586,71.38928140776737
326,22.045078106629482,-253.9313697812689,-111.15297425361521,-69.04798417364746,-5.784774547372885,-12.579810767568603,278.08515498784675,70.77222531516432
327,21.93314976250656,-253.9069362585139,-111.18444308191496,-68.40836430644654,-6.066839211753142,-12.158915662828509,278.0668530940988,70.10193400672331
328,21.818974537414537,-253.8788727105269,-111.20694988534296,-67.71518192400356,-6.396976291267734,-11.760745163075354,278.04146461765515,69.3859208528045
329,21.704291742776746,-253.84751293344786,-111.22013414568404,-66.97668892525455,-6.767482997270797,-11.391194151676226,278.0092789668479,68.63249627188732
330,21.590882467210726,-253.81318901015325,-111.22386092830273,-66.20202515272528,-7.169459122306463,-11.05556959994856,277.9706780490459,67.85071328183764
331,21.480541303725776,-253.7762288166792,-111.2182556386216,-65.4011613489507,-7.592978932099277,-10.758411070203774,277.9261459025616,67.0502965035592
332,21.375046065932487,-253.73695535170367,-111.20373198722777,-64.58481808934633,-8.027285671735983,-10.503332436537672,277.87627712882755,66.24155322692198
333,21.2761254670581,-253.6956878087863,-111.18101095025887,-63.764358516372816,-8.461002663942185,-10.29289137266406,277.8217831526629,65.43526494524568
334,21.185425106402807,-253.65274436478757,-111.15112877084948,-62.951652642309575,-8.882355166027407,-10.12849217289289,277.76349551840616,64.64255746824011
335,21.104472550534386,-253.60844666506753,-111.11543245569003,-62.15891094115373,-9.279397588478318,-10.010326245061867,277.7023656341341,63.87474744795151
336,21.0346426605344,-253.56312590047497,-111.07556179759996,-61.398485125744585,-9.640241326108567,-9.937353220107026,277.639460558368,63.143163117774385
337,20.977124492085323,-253.51713019500144,-111.03341771666561,-60.68263465429445,-9.953279169723425,-9.907324130982193,277.57595458299295,62.45893748902372
338,20.932891082015257,-253.47083280843842,-110.99111762030743,-60.023258831157776,-10.207402833425423,-9.916846556956205,277.51311653478984,61.8327733427716
339,20.902673344286168,-253.42464044126794,-110.9509394003505,-59.43159648037576,-10.39221039573348,-9.96149004395553,277.45229288288715,61.274681194287254
340,20.88693924836822,-253.37900069058972,-110.91525636991776,-58.917898085761685,-10.498200435450492,-10.035928566368284,277.39488679460055,60.79369400882768
341,20.885879441871737,-253.33440744343204,-110.88646573656172,-58.491078826536075,-10.516949506292427,-10.13411536755625,277.34233316054207,60.39756566026255
342,20.89940037718482,-253.2914028045648,-110.86691323413409,-58.158364696424705,-10.441269506808569,-10.2494842628393,277.29606943972794,60.09246358677335
343,20.92712568575462,-253.25057419883044,-110.85881652913226,-57.924947358474206,-10.265341564925242,-10.37517045000865,277.2575021876638,59.88266932073124
344,20.9684060155596,-253.2125456437694,-110.8641900142216,-57.79366605480193,-9.98482331207626,-10.504243090520498,277.2279694156019,59.77030307638879
345,21.022336926934962,-253.17796278587247,-110.88477349817724,-57.764736355590884,-9.596926910112387,-10.62994144953961,277.20869939093836,59.755089999664236
346,21.087783894584067,-253.14747197798215,-110.9219671059592,-57.83554551289411,-9.100465970684413,-10.745906242433344,277.20076699955484,59.8341857760104
347,21.163413103306567,-253.12169431877666,-110.9767745167672,-58.00053255443426,-8.495870577881979,-10.846398003218965,277.2050492804383,60.002077943951576
348,21.24772655551834,-253.10119612826426,-111.04975651470671,-58.25116809376124,-7.785170891054394,-10.926494703682287,277.22218217368976,60.25057653053756
349,21.33909998855109,-253.0864577886121,-111.14099664460282,-58.57604444835655,-6.971951098266383,-10.982261454132516,277.252520862027,60.56890375391052
350,21.435822201185765,-253.07784321823317,-111.25008048070232,-58.96108146340215,-6.0612766386305905,-11.010885887923191,277.2961062860078,60.94388787777732
351,21.5361345418838,-253.07557243178258,-111.37608956169238,-59.389847816651674,-5.059598459667699,-11.010773789253856,277.35264040946157,61.360261182595785
352,21.638269405061273,-253.07969961461822,-111.51761040760142,-59.843991821763304,-3.9746385190282925,-10.981600702654857,277.4214725395603,61.801056708053515
353,21.740486593269424,-253.09009882723072,-111.6727583061336,-60.30377011802546,-2.8152607840614743,-10.924316690833395,277.50159842743903,62.24809318830273
354,21.841106450998083,-253.10645882586513,-111.83921490054935,-60.74865740767866,-1.5913317744266922,-10.841103086165505,277.59167303954075,62.6825327352948
355,21.938538888182226,-253.12828766723868,-112.01427816492286,-61.15801581099163,-0.3135744485442019,-10.735281974784044,277.69003697808324,63.0854915708488
356,22.031307753816826,-253.15492697192605,-112.19492315691193,-61.511798593496415,1.0065808941876322,-10.611181188988091,277.79475575087326,63.438680599053804
357,22.118070328938973,-253.18557508281364,-112.37787192038937,-61.79126006727455,2.3571450223964083,-10.473959648609519,277.90367052291083,63.72504990936315
358,22.197631926784,-253.21931787866868,-112.55967091909899,-61.97964152439205,3.725713787080428,-10.329399822154166,278.01445856559593,63.929409513052626
359,22.268955852736532,-253.25516564364077,-112.73677428232352,-62.06280239624802,5.099604131784775,-10.183675704035453,278.1247012696047,64.03899797994052
360,22.331169389573205,-253.29209409372598,-112.90563092501571,-62.029766791998,6.465978891763242,-10.043105915337941,278.2319572564644,64.04397150182169
361,22.3835668894513,-253.32908738407826,-113.0627733790107,-61.8731584136326,7.811958006877632,-9.913902288427485,278.3338378110178,63.937788555377566
362,22.425611194661464,-253.36518070221396,-113.20490600550634,-61.58950160071826,9.124715025366786,-9.801924557657827,278.42808159948004,63.71746983110635
363,22.456934344906003,-253.39949996884482,-113.32899008309302,-61.17937267127962,10.391559295233032,-9.712451507110812,278.51262546813274,63.38371920195161
364,22.477337985323643,-253.43129625227152,-113.43232303915056,-60.64739331674732,11.60000580449593,-9.64997810071173,278.58566805869924,62.940898751523356
365,22.486793307265195,-253.45997274803727,-113.5126090008034,-60.00206596549379,12.737836049914586,-9.618046762524049,278.6457231177338,62.39685865830439
366,22.48543993105844,-253.48510261851357,-113.56801819654268,-59.25545913819801,13.793154457148695,-9.619119157283267,278.69165989482906,61.76263043074258
367,22.473582982220563,-253.50643666910028,-113.59723361105607,-58.422758373312384,14.754445646131549,-9.654492669029898,278.72272899272417,61.051999104807926
368,22.451687712058224,-253.52390067282548,-113.59948433080457,-57.521704888970376,15.61063816284156,-9.724263442605386,278.7385732262814,60.28097613850314
369,22.420371265481702,-253.537582947207,-113.57456574513137,-56.57194937300609,16.351180157653154,-9.827335491053699,278.73922408524925,59.46719947801558
370,22.38039147910747,-253.54771340361583,-113.52284700207083,-55.594351774345995,16.966131856037833,-9.961473162438368,278.72508507146534,58.62929025654313
371,22.332632805142726,-253.55463572112518,-113.44526599285287,-54.61025942338535,17.44627847180095,-10.123392417903165,278.6969035347678,57.7861965443808
372,22.278089559233305,-253.55877457771726,-113.34331191453593,-53.640795175751414,17.7832654426946,-10.308885045419904,278.6557327982118,56.956553454632065
373,22.217846745785334,-253.56060002961956,-113.21899536117067,-52.70618479470673,17.96975568276478,-10.51296911728623,278.6028864650736,56.158086005015576
374,22.153058844680892,-253.56059116574883,-113.0748059494139,-51.825148906870524,17.9996062321347,-10.730058609150479,278.53988686102093,55.407076950133515
375,22.08492716935103,-253.55920103724924,-112.9136575407411,-51.014380030969114,17.868059520233384,-10.95414506662275,278.4684094863077,54.71791684505804
376,22.01467657876479,-253.55682457442464,-112.73882119127676,-50.28811976453018,17.571942630247946,-11.178984473743354,278.3902251305904,54.1027482955565
377,21.943532279367,-253.55377089126387,-112.55384640769078,-49.657845575675495,17.109866543557892,-11.398282944742146,278.30714119829514,53.571211034604474
378,21.87269720670854,-253.55024118471835,-112.36247240647118,-49.13207114380768,16.482416348309364,-11.605875418860986,278.2209440578645,53.13028943508301
379,21.80333023188737,-253.54631331387907,-112.16853259372155,-48.71625911785834,15.692322767404118,-11.795892162900776,278.1333447235132,52.78425955691669
380,21.736525362077913,-253.5419339008042,-111.97585673879455,-48.4128406861705,14.744605056320106,-11.962908637677748,278.0459304663297,52.53472897327683
381,21.67329216386236,-253.5369183404797,-111.78817581086815,-48.22133256071043,13.646675340321694,-12.102075203040535,277.9601247447356,52.38075948903114
382,21.614537689916702,-253.53095858377603,-111.6090341368039,-48.138538954069524,12.408394854962884,-12.209224163993095,277.87715724360345,52.31906050860449
383,21.561050172971775,-253.5236381749752,-111.44171268867537,-48.15882397456304,11.042073411729923,-12.280952682080052,277.79804511553067,52.34423929694057
384,21.513484697311966,-253.51445381119407,-111.28916620532505,-48.274438603215856,9.562404828977673,-12.314681017548137,277.72358587125916,52.44909371545855
385,21.472350988162713,-253.5028424920335,-111.15397564398911,-48.47588589499818,7.9863331085597355,-12.30868642736553,277.65436169282947,52.624933071440374
386,21.43800338917223,-253.48821304287074,-111.03831624680573,-48.75230802216456,6.332846771752949,-12.262113823436206,277.59075419187593,52.8619132516391
387,21.410633072977962,-253.4699804852821,-110.9439404298623,-49.09187910446083,4.622701856132738,-12.17496494550984,277.53296791866876,53.14937311647811
388,21.390262556219028,-253.44760152926534,-110.87217386430083,-49.48218849645607,2.8780774272811596,-12.048068273595138,277.48106041055144,53.476160169333326
389,21.376742617374408,-253.4206094678844,-110.8239225517709,-49.9106004917333,1.1221708903862901,-11.883032212723538,277.4349763455545,53.83093488904144
390,21.369751723315098,-253.38864692854693,-110.7996884106546,-50.36457838968299,-0.6212563218427932,-11.682184293694537,277.3945834073926,54.202444930714506
391,21.368798083855932,-253.35149511136677,-110.79959089626435,-50.831963539920835,-2.3283692761506614,-11.448499281078096,277.359707628012,54.57976263922221
392,21.373224486497634,-253.3090981886089,-110.8233924766272,-51.301203165677926,-3.9757708464254327,-11.185519145085495,277.3301661308915,54.952481830109896
393,21.382216120804035,-253.2615814929722,-110.8705263520905,-51.76152422247074,-5.541017339785888,-10.897267802477094,277.3057953832555,55.31087238687427
394,21.394811676651397,-253.2092621545811,-110.94012553429357,-52.20305399724188,-7.003121890747922,-10.58816333990789,277.2864733887599,55.645993724683755
395,21.409918028884505,-253.15265107225954,-111.03105302592112,-52.61689132723158,-8.343029716559839,-10.262930096988988,277.27213470971736,55.94977040869196
396,21.426328730098707,-253.09244550083716,-111.14193305646954,-52.99513499532612,-9.544050492666907,-9.926512528497286,277.2627776487348,56.21503504537771
397,21.442746345223274,-253.0295120223216,-111.27118304433152,-53.33087786593589,-10.592234658216515,-9.583992218520875,277.25846323707333,56.43554486974694
398,21.457808450066498,-252.96486021706147,-111.41704545343077,-53.61817649709192,-11.47668231940965,-9.240508810759986,277.2593059635364,56.605979105846046
399,21.470116885980154,-252.89960798367744,-111.57761845206055,-53.85200616476237,-12.189775531358856,-8.901184994447757,277.26545663660863,56.72192408190698
400,21.478269588831083,-252.83494015423824,-111.75088449497142,-54.02821045975726,-12.727327061092822,-8.571055125111625,277.27707847706745,56.77985225405499
401,21.480894061730197,-252.7720626882996,-111.93473643008628,-54.14345305829038,-13.088641207097009,-8.254996648367106,277.2943182962653,56.777099923024366
402,21.476681458682748,-252.71215511673896,-112.12700111167455,-54.1951772557209,-13.276484781694114,-7.9576632997248815,277.3172751166026,56.71184680768926
403,21.464420322436265,-252.65632393803713,-112.3254606944709,-54.181576718119125,-13.296968841251564,-7.6834191166212555,277.3459687060065,56.58309903325231
404,21.443029216993914,-252.60555943386154,-112.52787196584019,-54.101578862311,-13.15934412127484,-7.4362726097864575,277.3803103741285,56.39067566217359
405,21.411587734636257,-252.5606980508155,-112.73198433590665,-53.9548404049767,-12.875715441941411,-7.219810929664167,277.4200782111423,56.13519770299254
406,21.3693655265868,-252.52239215323536,-112.9355573335668,-53.74175294444368,-12.46068265572257,-7.037134450820158,277.4648987422779,55.818077582469535
407,21.315849002674273,-252.49108849371805,-113.13637848084336,-53.463455008797865,-11.93091797717529,-6.89079282598998,277.5142365612586,55.44150637093523
408,21.25076519100178,-252.46701611439119,-113.33228214489735,-53.12184595155637,-11.30469162704145,-6.782724178878562,277.5673928034301,55.00843566264223
409,21.174102051949227,-252.4501836939757,-113.52116945295737,-52.71959654402211,-10.601359477655956,-6.714199655503449,277.62351245700336,54.522550998934385
410,21.08612435289172,-252.4403857764975,-113.70102881994919,-52.26015115720264,-9.840827679396048,-6.685775994334959,277.68159974822356,53.98823409494638
411,20.98738404381008,-252.43721693253607,-113.8699563255985,-51.74771698768314,-9.043009997497704,-6.697259073135134,277.74054034275156,53.41051182408815
412,20.87872400735502,-252.4400926604655,-114.02617518473144,-51.18723674188971,-8.227293764727735,-6.74768150751176,277.7991288793801,52.79499082428104
413,20.76127418542035,-252.44827568349578,-114.16805378835303,-50.5843424403826,-7.412029997282616,-6.83529726576973,277.8561003175071,52.14777763380993
414,20.636439406151258,-252.4609062667972,-114.2941220599693,-49.94528945199862,-6.6140624225583045,-6.957595873561558,277.91016368250587,51.47538539280443
415,20.505878655892005,-252.47703531225395,-114.4030860372513,-49.27687141139993,-5.848309021825296,-7.111338055623136,277.9600370112875,50.78462928528044
416,20.371475961934134,-252.49565924742902,-114.49384066413825,-48.58631815115892,-5.127408258466965,-7.292613578788774,278.0044825954083,50.08251390825405
417,20.235303436058327,-252.5157559551002,-114.56548081675932,-47.88117999471534,-4.461440473124636,-7.496920687734965,278.04234186961946,49.37611646413221
418,20.099577384346162,-252.53632101197795,-114.61731056457121,-47.169202547651835,-3.8577329882859392,-7.719265027806266,278.07256932896195,48.672469943668666
419,19.966608702927044,-252.55640328037444,-114.64885056721484,-46.458196439359305,-3.320755262320137,-7.9542745325974265,278.09426463331204,47.97845027621217
420,19.83874900944187,-252.57513857974448,-114.65984343760657,-45.75590637534371,-2.8521079227909785,-8.196325600365936,278.10670175920177,47.300670877922734
421,19.718334108133902,-252.591779986688,-114.6502569728527,-45.0698834882791,-2.450606625761817,-8.439675130049604,278.10935394160356,46.64538729608887
422,19.607626502459304,-252.60572340151936,-114.62028529755722,-44.40736443638071,-2.1124584078810598,-8.678592711906465,278.101913305314,46.01841387907942
423,19.508758743059854,-252.6165273181448,-114.57034806143218,-43.775160064010265,-1.831524614972969,-8.90748746784459,278.0843044105416,45.42505368272164
424,19.423679343570207,-252.6239260891375,-114.5010878983638,-43.1795557422736,-1.5996608213374817,-9.121024646468044,278.0566912877676,44.870042166868814
425,19.354102790129527,-252.62783632552603,-114.41336640373537,-42.626224746603796,-1.4071206798047111,-9.314228014813512,278.0194778599466,44.3575046028492
426,19.301464931189578,-252.62835645014886,-114.30825882542653,-42.120155180525295,-1.24300765577957,-9.482565273355391,277.9733019521695,43.89092643887872
427,19.266884887391523,-252.6257598326462,-114.18704743269988,-41.66558997341326,-1.0957563387610059,-9.622015059653092,277.9190233541619,43.47313507345168
428,19.251134533847896,-252.6204822964637,-114.0512131966404,-41.265978354480744,-0.9536235964021946,-9.729115478075144,277.8577065868764,43.10629052745089
429,19.25461641588584,-252.61310502687348,-113.90242509878351,-40.9239360757898,-0.8051692188171703,-9.800995352781749,277.7905990967564,42.791881503091496
430,19.27735058285214,-252.60433395600373,-113.74252617878274,-40.641210841853024,-0.6397059046813977,-9.835390394381317,277.71910553301,42.53072257770603
431,19.318970399047956,-252.59497650433954,-113.57351543173428,-40.4186492512297,-0.44769961692509186,-9.830647082963697,277.64475855521505,42.32294816907744
432,19.378727119773956,-252.58591617058465,-113.39752494865522,-40.25616223884988,-0.22110368114430626,-9.78571728114075,277.56918636419294,42.167999659566775
433,19.45550294970794,-252.57808507818936,-113.21679223645542,-40.152687443435504,0.04638644095420301,-9.700146467797406,277.49407701906875,42.06460366776956
434,19.547832330569303,-252.57243443441322,-113.0336282811086,-40.10614886512097,0.3591662110293531,-9.57405812721006,277.42113972440563,42.01074168712372
435,19.653931214938968,-252.5699030132282,-112.85038243576663,-40.11341633106321,0.7196462877760192,-9.40813633449786,277.35206362407087,42.00361382860202
436,19.771733962000237,-252.5713840937812,-112.66940556357466,-40.17026936132132,1.12826624346477,-9.203608016415021,277.2884750609675,42.03960181768573
437,19.89893719429326,-252.57769158265037,-112.49301304616216,-40.27137177211085,1.58359130782451,-8.962225763139843,277.23189458227364,42.11423834521165
438,20.03304959875827,-252.58952629785372,-112.32344922965122,-40.410264575430254,2.082482023472579,-8.686251429665168,277.1836951549922,42.22219110076286
439,20.17144640897925,-252.60744367087847,-112.16285454255626,-40.57938525124453,2.620324203176303,-8.378440137416161,277.1450631548218,42.3572701603797
440,20.31142718638712,-252.63182440634012,-112.01323589655661,-40.77012110660859,3.1913053272024308,-8.042023755757294,277.11696368710864,42.51246676863735
441,20.450275444758365,-252.66284981802215,-111.87644026586199,-40.972903149628266,3.788723307926195,-7.680692580199577,277.1001116655479,42.68002999900991
442,20.585318639456727,-252.7004835593701,-111.75413084768401,-41.17734486661908,4.405314008139693,-7.298573714264229,277.094949870836,42.85158551421009
443,20.713987113082972,-252.74446124846983,-111.64776512318606,-41.37242780515901,5.033584624840942,-6.900204516828683,277.10163498200063,43.01829797352538
444,20.833870670976,-252.7942890320968,-111.55857439195842,-41.546733210223714,5.666140745472614,-6.490499333387528,277.1200322634497,43.17107579216965
445,20.942771428648342,-252.84925148379557,-111.48754475186125,-41.688716292910954,6.295995443190278,-6.074707622250429,277.1497191536401,43.30081410338172
446,21.03875146398865,-252.90842852602432,-111.43539988595376,-41.78701712374029,6.916849282949578,-5.65836161273542,277.18999750376383,43.39866903382573
447,21.12017378858873,-252.97072048492015,-111.40258628728634,-41.830799753632164,7.5233307479193945,-5.24721187883512,277.2399137874682,43.45635394522129
448,21.185735325227782,-253.03488002469788,-111.38926165886917,-41.8101091054655,8.111187548174751,-4.847149729882232,277.29828632457406,43.466446297038026
449,21.234490894897444,-253.09954953284907,-111.3952872885092,-41.7162335185652,8.677420646067178,-4.4641161233827535,277.3637384469253,43.422692349912296
450,21.265867593221365,-253.16330246940214,-111.42022540076375,-41.54205960150318,9.22035465906974,-4.103997843033245,277.4347365897952,43.320296099862695
451,21.279669369241628,-253.2246872273996,-111.46334280173559,-41.2824053181029,9.73964058919458,-3.772512819569848,277.5096324816134,43.15617865770745
452,21.276072122513966,-253.28227213115082,-111.52362223314651,-40.93431705814097,10.236189573062182,-3.475087519747172,277.5867087565794,42.929194800727394
453,21.255610094245245,-253.334690224949,-111.59978239877677,-40.49731682253684,10.712039503034273,-3.2167301476069285,277.6642271945496,42.640294590813156
454,21.219154565770758,-253.38068243546675,-111.69030662076001,-39.973586557885845,11.17015982804497,-3.001903958677522,277.7404783502193,42.29261971378338
455,21.16788586416373,-253.4191376122188,-111.79347897050444,-39.368078150174334,11.614203421449623,-2.8344053226838355,277.81383082194174,41.89152652983466
456,21.103259553501903,-253.4491279770507,-111.90742605505851,-38.6885397133886,12.04821783968288,-2.7172512931433754,277.8827781634386,41.44453071889296
457,21.026967589681405,-253.4699386739735,-112.03016259822896,-37.94545158414843,12.476331238093222,-2.652581304511102,277.94598156238527,40.96117173353802
458,20.940895170542596,-253.4810903703886,-112.15963922961511,-37.15186872231502,12.902430265077236,-2.6415772016862085,278.0023067481428,40.45279878795998
459,20.84707403576637,-253.4823541799214,-112.29379105681002,-36.32316981548575,13.329848117164884,-2.6844051643467792,278.0508539425907,39.9322835515593
460,20.747633079231893,-253.47375849405321,-112.43058546863497,-35.47671711468134,13.76108050672487,-2.7801822746850178,278.09097990790787,39.41366791650902
461,20.644747291937197,-253.45558755575846,-112.56806733843172,-34.63143477398572,14.197545662565,-2.92696952671785,278.122311263261,38.91175811541096
462,20.540586168545666,-253.4283717943219,-112.7043996079368,-33.8073171494351,14.639401826541894,-3.121792055444141,278.1447483397607,38.441679065124504
463,20.43726276152405,-253.39287014365632,-112.83789727215843,-33.02488203417459,15.085432213109065,-3.360686372568662,278.1584590459994,38.01840505684215
464,20.336784661756916,-253.35004481687582,-112.96705312506758,-32.30458699582115,15.533003284737319,-3.638773501070051,278.1638625926769,37.656284662726584
465,20.241008418958863,-253.30102929787157,-113.0905543189576,-31.66622957084431,15.978097776341084,-3.950356127405723,278.16160349568645,37.36857875296958
466,20.151599185157238,-253.24709065717656,-113.20728970934411,-31.12835374528095,16.415419576539346,-4.289037241968332,278.1525169978384,37.167030554266375
467,20.069997448925886,-253.18958768545627,-113.31634878534592,-30.70768567183156,16.83856374354464,-4.647857211046267,278.13758775098967,37.06148558425896
468,19.997394506675867,-253.1299266440549,-113.41701352840965,-30.418620893625118,17.24024188565622,-5.019445801060303,278.11790408384314,37.05957714532722
469,19.934717792867424,-253.06951655005557,-113.5087448344559,-30.272783606492588,17.612550976643384,-5.396185326755305,278.09461036517905,37.166490124277985
470,19.882626402395765,-253.0097258259588,-113.59116520499904,-30.278675888356652,17.94727234037437,-5.770380781353195,278.0688598606746,37.38481241232475
471,19.84151619463522,-252.9518418791732,-113.66403920841648,-30.441431457276252,18.236186863277766,-6.134432519514126,278.0417700865754,37.71447949719609
472,19.811533013685324,-252.89703482168946,-113.72725278792872,-30.762684371131222,18.471392316665888,-6.481006850103868,278.0143821039347,38.15281373428497
473,19.792592073681774,-252.84632627544983,-113.78079208827769,-31.240558137357382,18.645608938551845,-6.8031998342682565,277.9876247535731,38.69465555858785
474,19.78440154958702,-252.8005641589284,-113.82472232898374,-31.869775116578097,18.752460218223145,-7.094689727609093,277.9622847236267,39.33257969599444
475,19.78648873289908,-252.76040442043413,-113.85916739258171,-32.64188025582517,18.786717260781636,-7.34987384675974,277.93898348186866,40.057185615011676
476,19.798227478864533,-252.72630064291587,-113.88429102039333,-33.545567555592854,18.744497167803583,-7.563986147057338,277.91816218239654,40.85744829069546
477,19.81886588132118,-252.69850213314567,-113.90028056074974,-34.567092697027014,18.623408350190296,-7.733192456193455,277.90007540594297,41.72111291925107
478,19.847553153357737,-252.67706052476186,-113.90733395448956,-35.69075127856935,18.42263828984025,-7.854661119693732,277.88479395673215,42.63511551979255
479,19.883364714350712,-252.661844211977,-113.90565011626772,-36.89939940933335,18.142981744005805,-7.926607748513038,277.8722160753687,43.58601042366547
480,19.925324625806052,-252.6525593103142,-113.89542228875536,-38.17499216179961,17.786809657972636,-7.948313737863612,277.8620856340536,44.560385596118536
481,19.972424805916734,-252.6487754986316,-113.87683357856959,-39.49911565991742,17.35798119424992,-7.920119154303008,277.854015437948,45.545247705550594
482,20.023640851933266,-252.64995508211587,-113.85005389301533,-40.85349032802765,16.861703416051455,-7.843391398795941,277.8475137750741,46.528360952634166
483,20.077944762038765,-252.65548382796624,-113.81523782987041,-42.22042592971018,16.304345292430575,-7.720471713675275,277.8420127196832,47.4985268722138
484,20.134315273503876,-252.66470236032728,-113.77252349769208,-43.5832132569776,15.693214688375543,-7.554602087013275,277.83689711383664,48.44579642440519
485,20.19174681356331,-252.67693696085905,-113.72203255414342,-44.92644232643444,15.036308658323092,-7.349835397552489,277.83153335620153,49.36161033221655
486,20.249258200987352,-252.69152848960476,-113.66387188002003,-46.236242226315525,14.34204850660026,-7.110931744656398,277.8252970744052,50.238868344921926
487,20.305902304787182,-252.7078580249087,-113.5981372600312,-47.50044283411832,13.619011647610272,-6.84324388636353,277.8175986418747,51.07193246127606
488,20.36077779781667,-252.72536793309328,-113.52491923418715,-48.70866306456341,12.875672293007012,-6.552594661398688,277.8079055163255,51.85657277869231
489,20.41304379109016,-252.74357742905434,-113.44431099533831,-49.8523338272226,12.120162398833733,-6.245149243212251,277.79576055626427,52.58986730388104
490,20.461937519988474,-252.76209215775518,-113.35641795817455,-50.924666309156024,11.360063101324743,-5.9272850195488065,277.7807957546164,53.27006862108748
491,20.506794584018802,-252.7806078218574,-113.26136847897072,-51.9205774858629,10.602235101988692,-5.6054617394053805,277.76274117270015,53.89645071987544
492,20.547070669675392,-252.7989083268811,-113.15932516931991,-52.83658494332681,9.852694254761754,-5.286094329050687,277.7414292077399,54.46914861062774
493,20.582363223945432,-252.8168592045977,-113.05049632969697,-53.67068228131295,9.116536107999341,-4.975430547545599,277.71679459014365,54.98900176045569
494,20.612431238036436,-252.83439717823532,-112.93514724003644,-54.42220473530901,8.397910505161086,-4.67943551477943,277.68887066428846,55.45741006580928
495,20.637211277969115,-252.8515167731303,-112.81361129601723,-55.091692490313015,7.70004468657641,-4.403685088205817,277.6577826450399,55.876208337486595
496,20.656828200725084,-252.86825496412646,-112.68630106650625,-55.68075688660511,7.025310768265519,-4.153269997577739,277.6237386814762,56.24756252361576
497,20.671599467459874,-252.88467491870747,-112.55371914704811,-56.191952717835555,6.3753310816371815,-3.932712472668754,277.5870195756086,56.57388850697956
498,20.682032398839667,-252.9008498057946,-112.41646832099516,-56.62865823626944,5.751112758835491,-3.745896776519613,277.54796780687354,56.85779242288515
499,20.688814035747722,-252.91684738860792,-112.27526025018392,-56.994963231907604,5.1532013543680355,-3.596014637594232,277.5069761877818,57.10202998823339
500,20.692793549845664,-252.93271583563114,-112.130921820872,-57.29556453746011,4.581842450615439,-3.4855261550078263,277.4644761956164,57.3094812302192
501,20.694957484305345,-252.94847100501406,-111.9843983478246,-57.535667538205715,4.037140266009141,-3.416136381038134,277.4209259148975,57.48313628082733
502,20.696398483770416,-252.96408546132352,-111.8367530239928,-57.720891847797226,3.5192032781989675,-3.388787459352058,277.3767976277772,57.62608767452343
503,20.698278505793734,-252.97947966065448,-111.68916222301267,-57.85717934354269,3.028268639314725,-3.403665916850606,277.33256536055995,57.74152492401277
504,20.701787734284977,-252.99451597893764,-111.5429064619779,-57.95070319741065,2.56479943187098,-3.4602244895746597,277.2886930055359,57.83272797014895
505,20.708100592525327,-253.0089963999236,-111.39935699718751,-58.00777721590724,2.129551291967606,-3.5572177097129205,277.24562384160754,57.9030571801711
506,20.718330527969556,-253.02266464584517,-111.25995813414626,-58.03476548339184,1.7236073537942804,-3.6927503581903336,277.2037723072418,57.955938628811225
507,20.73348567353211,-253.0352133605954,-111.12620534078594,-58.03799278396178,1.3483826680049973,-3.8643377402127466,277.16351875575384,57.9948442046098
508,20.754427864839805,-253.04629665874964,-110.99961919299244,-58.02365644622443,1.0056011028020617,-4.068976530507487,277.12520765992434,58.023266514850704
509,20.78183746751966,-253.0555478767369,-110.88171518402282,-57.9977401444634,0.6972491824017749,-4.303224659084223,277.0891493052726,58.04468864614219
510,20.816185950282257,-253.06260173321894,-110.77396957511671,-57.96592993388568,0.425512328535954,-4.563288376394923,277.0556244669287,58.06254871548061
511,20.857717357643168,-253.06711951751475,-110.67778173963866,-57.933532538276545,0.1926995395020596,-4.8451142633703554,277.0248910868324,58.08019897375658
512,20.90643906519805,-253.06881556815037,-110.59443385326166,-57.90539574050167,0.0011626453857133893,-5.14448359825802,276.9971917466215,58.10085911321748
513,20.962121582316044,-253.0674832054963,-110.52504931947936,-57.885830708815746,-0.14678408677241436,-5.457106271095755,276.9727608086647,58.127563461177374
514,21.024306736207826,-253.06301833782422,-110.47055192013983,-57.878536250776705,-0.24893898638118434,-5.778711448787896,276.9518303524976,58.16310195791487
515,21.092323298446892,-253.05543906981856,-110.43162814907025,-57.88652530298484,-0.3032786684811594,-6.105132460406768,276.9346342965085,58.20995520798029
516,21.165308946037925,-253.04489980911958,-110.4086953020652,-57.912054403609496,-0.3080115652419229,-6.432383820703634,276.9214102756876,58.270224423203786
517,21.242237360890474,-253.031698658664,-110.40187762391743,-57.95655744095793,-0.261617706692842,-6.756728831847945,276.91239899330253,58.34555771840006
518,21.32194930291158,-253.01627733983324,-110.41099236509531,-58.02058560462555,-0.1628743623272802,-7.074736739767462,276.90784100182356,58.437074950641964
519,21.403186696682802,-252.99921347951138,-110.43554713620092,-58.10375612022173,-0.010868279788930929,-7.383328962893581,276.9079712347013,58.545294042516694
520,21.484629096508506,-252.98120570671426,-110.47474934380696,-58.204712959116165,0.19500375520987587,-7.679814414536276,276.9130119571071,58.670062426883355
521,21.564932136429245,-252.96305250112368,-110.52752761560424,-58.32110328310989,0.4550434872763,-7.961914303470959,276.9231649327658,58.81049788388168
522,21.642767527926615,-252.94562602176245,-110.5925641585052,-58.449573916643175,0.7692656841867805,-8.22777695222169,276.93860348115163,58.96494360966755
523,21.71686379968382,-252.92984222710908,-110.6683362659098,-58.585792520341364,1.1374149220674044,-8.475983166531188,276.9594648555235,59.130942755171475
524,21.786046392703735,-252.91662858299875,-110.75316483857851,-58.724498143729924,1.558980919263379,-8.70554265655171,276.985843168539,59.30523770081964
525,21.849275114732194,-252.9068906786034,-110.84526771855056,-58.8595852473722,2.0332089308693493,-8.915882073383544,277.0177830353301,59.48379880041693
526,21.90567655964199,-252.9014791922098,-110.94281567170987,-58.98422397472892,2.559102278574233,-9.106825411764428,277.0552741939232,59.6618861134675
527,21.954569138245354,-252.90115878437678,-111.04398883192982,-59.091017414716404,3.135414817835548,-9.27856775768126,277.0982474785824,59.83414573010861
528,21.99547891201205,-252.9065805129185,-111.1470313142421,-59.17219398853577,3.760631914844611,-9.431643502835787,277.14657253714836,59.99473981303427
529,22.028145316538644,-252.9182592268875,-111.25030164297378,-59.21983021339184,4.4329392803904355,-9.56689013386013,277.2000576053266,60.13750671358912
530,22.052516831657858,-252.93655715523758,-111.35231676105792,-59.22609625298897,5.150179796642366,-9.685408551890653,277.2584515574237,60.25614477455581
531,22.068737431721054,-252.96167454795417,-111.45178771384717,-59.18351411873391,5.909799282176153,-9.788520671215268,277.3214483208772,60.34441097671703
532,22.077125095932075,-252.99364767007745,-111.54764558248813,-59.08521637571308,6.708782953424567,-9.877724882386723,277.38869346301914,60.39632366670293
533,22.078143835088852,-253.03235372524125,-111.63905682511115,-58.92519200245235,7.5435851115629395,-9.95464990357742,277.45979234696927,60.40635748401744
534,22.07237075971685,-253.0775216311155,-111.72542782058792,-58.69850589828152,8.410055254649512,-10.021007572597945,277.53431891862436,60.36961851251078
535,22.060459785809435,-253.1287472380706,-111.80639903699132,-58.401479524471306,9.303364359533001,-10.078545205134297,277.6118241430459,60.28198869629202
536,22.04310365700942,-253.18551161611322,-111.8818297707616,-58.03182220958487,10.217935523196173,-10.128998246963372,277.69184335629365,60.140230584172535
537,22.020995988157384,-253.24720124867838,-111.9517747229672,-57.588705521271365,11.147383545902878,-10.17404410438419,277.77390212352867,59.94204628503561
538,21.994794939519856,-253.31312914203295,-112.01645379923069,-57.072776512749684,12.084468395045397,-10.215258257709834,277.85752038891513,59.68608784058033
539,21.96508995426117,-253.38255591443692,-112.07621657723647,-56.486109244618525,13.02106776967879,-10.254073991854257,277.9422147609052,59.371919693113185
540,21.932372843335095,-253.45470994871684,-112.13150300148695,-55.83209739521617,13.948174111548115,-10.291747215478459,278.0274988271152,58.99993715611549
541,21.89701441171589,-253.52880576938188,-112.18280202641137,-55.11529370444244,14.855921291251189,-10.329327817256814,278.11288151891074,58.57124746319993
542,21.859247711320428,-253.60405997312904,-112.23061005262534,-54.341204297026785,15.733645764835044,-10.36763883344276,278.1978637370924,58.087521917193044
543,21.8191587994968,-253.67970425702072,-112.27539102708782,-53.516047633731695,16.56998619265103,-10.407264415764036,278.281933637993,57.55082891085605
544,21.776685569918317,-253.7549952536114,-112.31753999305658,-52.64648909739225,17.35302430284642,-10.44854718590881,278.36456106884,56.96345828495961
545,21.731624878293673,-253.8292209460753,-112.35735172428537,-51.73936319961471,18.070468156376595,-10.491594989606702,278.44519160960533,56.32774777637249
546,21.68364790364621,-253.90170347650667,-112.39499592445509,-50.80139618241854,18.709876968416594,-10.536296316432757,278.52324062979534,55.645922279852805
547,21.632323482676515,-253.9717983064035,-112.43050029058773,-49.83894237674446,19.25892437547634,-10.582342851256358,278.5980878113428,54.91995633208653
548,21.577148949899374,-254.03888998712372,-112.46374239524205,-48.8577479713696,19.70569468314651,-10.629256972303715,278.6690727068366,54.15146960596104
549,21.517587724019087,-254.1023851825042,-112.49445078015818,-47.8627556877695,20.039004386143418,-10.676421673369324,278.7354920053434,53.341664216769345
550,21.453112464243237,-254.16170394610916,-112.52221505414192,-46.857963060426854,20.248739324690845,-10.723110402989924,278.79659923562673,52.491311200657826
551,21.38325210377201,-254.21627050135797,-112.54650443087951,-45.84634536490071,20.326196416240826,-10.768514622065199,278.85160768058887,51.600791517961156
552,21.307640582526165,-254.26550482718986,-112.56669408194307,-44.82985147624678,20.264418102722992,-10.811767411076247,278.8996972682272,50.67019424386474
553,21.226064825567036,-254.30881618833348,-112.58209865844275,-43.80947695119485,20.058507508553326,-10.851962151259295,278.94002602820467,49.699471202982245
554,21.138509481827466,-254.3455994840484,-112.59201205837836,-42.785413591009906,19.70591275064091,-10.88816609334253,278.97174634968127,48.68864335710104
555,21.045196019234307,-254.37523510227598,-112.59575194145839,-41.7572691792393,19.206669764414457,-10.919429426413812,278.9940258814712,47.63805015549733
556,20.946613872025917,-254.39709286980124,-112.59270685605432,-40.7243456655838,18.563594300705564,-10.94479116153532,279.0060725792098,46.548629265702125
557,20.843541478304346,-254.41054051919417,-112.58238348291565,-39.685959368547415,17.782415326663163,-10.963283627382513,279.00716311500844,45.42221099658706
558,20.737055291651778,-254.4149567626515,-112.56445158125105,-38.64178318402558,16.8718438383201,-10.973937554600424,278.9966736148179,44.2618095275048
559,20.628525275648443,-254.40974866976566,-112.538784558685,-37.59218850168837,15.843572930277038,-10.975789615381531,278.974111498378,43.071891846734346
560,20.51959608013009,-254.39437271286104,-112.5054938016627,-36.53856360362904,14.712206745692923,-10.967893971099604,278.93914703273896,41.85860509597176
561,20.41215401485799,-254.36835860981748,-112.46495484229027,-35.483585775751976,13.49511760557013,-10.949338956056566,278.89164304401226,40.62994385932141
562,20.30828083678831,-254.33133498425016,-112.41782335584594,-34.4314262345997,12.212232227534601,-10.91926957047508,278.8316811689648,39.39584091397344
563,20.210196019431887,-254.2830558742472,-112.36503924077434,-33.38787025507181,10.885749548918215,-10.876916038870261,278.7595831933295,38.16816813328028
564,20.120189626995064,-254.223427144056,-112.30781768711299,-32.36033945517304,9.53979430035022,-10.821628330709801,278.67592634367236,36.96063852839156
565,20.040548390765544,-254.15253176701347,-112.24762694535099,-31.357808780204262,8.200012115560275,-10.75291620749181,278.5815516811769,35.78860558857919
566,19.973478124786997,-254.070652775872,-112.1861532458069,-30.39061695369226,6.893113524241451,-10.670494036261292,278.4775649241298,34.668761769304965
567,19.921026036060628,-253.97829253011096,-112.12525398487865,-29.47017560987044,5.646375537914368,-10.574329311979218,278.3653291877796,33.618743772923004
568,19.885006604596633,-253.87618688457337,-112.06690100976148,-28.608588563635024,4.487110631063144,-10.464693545730764,278.2464493632605,32.65665775127386
569,19.86693450613174,-253.76531286399268,-112.01311665883803,-27.818198301280614,3.4421137622088445,-10.342213833898192,278.1227481897195,31.800542345072145
570,19.867967594147885,-253.64688857981952,-111.9659060232837,-27.111081479410203,2.5370987698384777,-10.207922991930237,277.9962344840152,31.067791290472353
571,19.88886234263774,-253.5223644039841,-111.92718938008886,-26.498518808668674,1.7961361539734397,-10.063305695343502,277.86906439570754,30.47456004115964
572,19.92994349000772,-253.39340484242857,-111.89873863440347,-25.990467028940525,1.2411050330092785,-9.910337782525618,277.74349685283676,30.035182414655562
573,19.991089005158642,-253.2618611252635,-111.88212090697316,-25.59506160007658,0.8911729473240207,-9.751515874459958,277.6218445615697,29.761623594798
574,20.071730900313977,-253.1297352309268,-111.87865140091932,-25.31817808382624,0.7623179887967624,-9.589874762882125,277.50642211803506,29.662994789512524
575,20.17087174152336,-252.99913676880564,-111.88935672396578,-25.163077862364702,0.8669081634757912,-9.42899049362246,277.3994930043912,29.745152362293368
576,20.287115939211635,-252.87223466131633,-111.9149491017365,-25.13015979380376,1.2133526298099897,-9.272967606772069,277.3032173610651,30.010400402093026
577,20.418714192183508,-252.75120578590014,-111.95581134494881,-25.216833745055638,1.80583826941676,-9.126409571231001,277.2196023451467,30.45731079979183
578,20.563618990345734,-252.6381826952828,-112.01199189236021,-25.417524957809867,2.6441628328581723,-8.99437211906078,277.1504565908682,31.080669454153654
579,20.71954886785642,-252.53520230513516,-112.08320874138612,-25.723810414559992,3.7236726935459488,-8.882299960578374,277.0973498511613,31.871551669472087
580,20.884058991841112,-252.4441571029904,-112.16886078671978,-26.12468045487196,5.0353092391024,-8.795948180458293,277.06157845999024,32.81752434018023
581,21.05461550464631,-252.36675010794613,-112.26804518946706,-26.606911517325827,6.565763456741655,-8.74129038326268,277.0441369807024,33.902967187006816
582,21.228670743087243,-252.3044545870523,-112.37957983367842,-27.155529624599918,8.297733679569642,-8.724416306361176,277.0456963491924,35.10950020745847
583,21.403736166136202,-252.25847938849782,-112.50203040704092,-27.754339561387816,10.210277069665542,-8.751422110585368,277.0665888557492,36.4164999037737
584,21.577449853605096,-252.22974058660267,-112.63374189320518,-28.386491940092704,12.279241494662555,-8.82829685056109,277.1068002620662,37.801683130193204
585,21.747636033188925,-252.21883989557287,-112.7728742311983,-29.035059608521966,14.47776125014633,-8.960808656918573,277.16596916959145,39.24173488312922
586,21.912355079677507,-252.22605003359982,-112.91744175173687,-29.683596011290547,16.776797814756602,-9.154393889290764,277.24339352856833,40.71295523082764
587,22.069943339724837,-252.25130696343612,-113.06535595186962,-30.316650906390784,19.145705681791455,-9.414051975724472,277.3380440005824,42.191900883712265
588,22.219042703790816,-252.29420872164408,-113.21447124426281,-30.920222931413164,21.55280336639195,-9.744247967855825,277.44858376764654,43.65599857076954
589,22.358620178011922,-252.35402039471322,-113.36263330973297,-31.482133596222425,23.965930870947872,-10.14882417655818,277.5733942597744,45.08411027763249
590,22.487977949017804,-252.42968473628153,-113.5077293803127,-31.992313029281366,26.352977014338943,-10.63092173998389,277.7106061058411,46.457034301695636
591,22.60675458077546,-252.5198379229034,-113.64773919132658,-32.44299379142008,28.682362841876298,-11.192912690382798,277.8581343818482,47.75793061589195
592,22.71491803454522,-252.6228299331263,-113.78078465555073,-32.82881476098125,30.923470578214545,-11.836343047073074,278.0137169388383,48.97266371899112
593,22.812751242445813,-252.73674896743472,-113.9051757840381,-33.14684201123947,33.04701104199795,-12.5618876176778,278.17495431465346,50.0900605425505
594,22.90083102805598,-252.85944925644014,-114.01945028003134,-33.39651744403413,35.02532590185341,-13.36931744159522,278.3393496321243,51.10208477962472
595,22.98000120774746,-252.98858159241794,-114.12240475923639,-33.579548589950285,36.83262441030686,-14.25748108763461,278.504347094729,52.00393203026266
596,23.05134072351408,-253.12162599992487,-114.21311660700182,-33.699754424811665,38.445157129043764,-15.224301272328713,278.66736820394436,52.79405235244374
597,23.116127739614395,-253.25592619549943,-114.2909566381421,-33.76288230790105,39.84133156246653,-16.266788392431366,278.8258455236303,53.47410814666014
598,23.17580082028089,-253.38872590203624,-114.35559352715981,-33.77641025146206,41.00177652421164,-17.38107240301855,278.9772545447255,54.04887579380702
599,23.231918488417186,-253.51720752636467,-114.40699131776037,-33.74934675214006,41.9093634470695,-18.562453913348754,279.11914476280674,54.52609912912989
600,23.286118507180955,-253.63853390660762,-114.44540137016888,-33.692037467293225,42.549193659545786,-19.805474467860975,279.24917128313194,54.91630172362389
601,23.34007810943722,-253.74989366497027,-114.47134998386782,-33.61598428089447,42.90856090951628,-21.104004923467794,279.3651280502972,55.232563222371056
602,23.395476193852275,-253.84855027269163,-114.4856226468427,-33.53367808312418,42.9768982845225,-22.451349819203934,279.46498327268006,55.49026298574019
603,23.453958250461564,-253.9318944105268,-114.4892454681183,-33.458442348435106,42.74571839497464,-23.8403647383503,279.5469169511728,55.706792406491466
604,23.517104498614774,-253.9974986754239,-114.48346398849519,-33.404280875277166,42.20855537743254,-25.263582904607222,279.60935976367676,55.90123587395705
605,23.586401510568532,-254.0431732105042,-114.46971934258337,-33.385720327434434,41.360916887606926,-26.713346700346623,279.65103201530934,56.094019626421485
606,23.66321756893786,-254.06702052146377,-114.44962169575406,-33.41763683409778,40.20025364100299,-28.181939553316,279.6709810535063,56.30652777612238
607,23.748782161650762,-254.06748763794386,-114.4249209607935,-33.515056037079184,38.72595308656445,-29.66171377082624,279.66861549534855,56.56068564769135
608,23.84417020948032,-254.04341382509543,-114.39747489509095,-33.69291760494564,36.939362354618844,-31.145210393142715,279.64373470923925,56.878512190813275
609,23.950291693306188,-253.99407216022377,-114.36921470622416,-33.9657981648395,34.84384360181589,-32.62526792460366,279.5965521072897,57.28164544137556
610,24.06788724079728,-253.91920342597393,-114.34210832186646,-34.34759050519191,32.444862221707325,-34.09511779972568,279.52771093019874,57.790847566800466
611,24.197529965521095,-253.8190409230713,-114.3181216358361,-34.85114140000318,29.750105148395637,-35.548465572874726,279.43829138622203,58.42549869859573
612,24.33963347786348,-253.694324944442,-114.29917830035218,-35.487855115910364,26.769622825120933,-36.97955799268438,279.32980820772156,59.20309130788752
613,24.494465562951934,-253.5463057673548,-114.28711885267342,-36.2672742128155,23.515984618745655,-38.38323721085935,279.20419784721526,60.138739097951024
614,24.662166569720085,-253.37673414402525,-114.28366011387752,-37.196653272953846,20.004433923583942,-39.75498424756763,279.063794670011,61.24471606842367
615,24.842771089041296,-253.18783848390345,-114.29035595102319,-38.28054432573789,16.253026379185897,-41.09095440558647,278.911295718222,62.53004238299884
616,25.036231120302173,-252.98228834943535,-114.30856057438996,-39.520414615006786,12.282732962941404,-42.388007550844826,278.7497140174417,64.00013380046855
617,25.242438806759317,-252.76314458861165,-114.33939535943618,-40.914317684198565,8.117489535360361,-43.643736035705786,278.5823209630561,65.65653059230526
618,25.46124700870322,-252.53379722753007,-114.38371977511275,-42.456637386696066,3.784175909831317,-44.856492543564656,278.4125789146982,67.49672003800444
619,25.69248635578866,-252.2978928675363,-114.44210665831852,-44.1379214253331,-0.6874892756134641,-46.02541934824773,278.2440655956027,69.5140638351736
620,25.935977860668604,-252.05925371564473,-114.51482199450726,-45.94481666782199,-5.2651468907237104,-47.15047953553562,278.08039225309966,71.69783821363164
621,26.191540661366375,-251.82179067900393,-114.60180948763646,-47.860113236580865,-9.914092105673545,-48.23248978348803,277.9251179043963,74.03339033919374
622,26.4589949392708,-251.5894132279564,-114.70268036337347,-49.86289879874223,-14.597662786603719,-49.27315348411835,277.78166234759163,76.50240989251513
623,26.738160422586713,-251.3659388270772,-114.81670889831696,-51.92881916554275,-19.277712850911815,-50.27509238790915,277.6532207541017,79.0833097536308
624,27.02885109157728,-251.1550045312353,-114.94283403049332,-54.03043677649783,-23.915157039328214,-51.2418745602747,277.5426824336707,81.75170488272246
625,27.330866829872875,-250.95998293502365,-115.07966712881309,-56.13767531545907,-28.470569895752636,-52.178036191770104,277.45255588579283,84.48097422055378
626,27.643982896382674,-250.78390422358538,-115.22550569122129,-58.218336842587576,-32.90481942317878,-53.089094616763155,277.384901733296,87.24288716708466
627,27.967938220519365,-250.62938569626274,-115.37835250850766,-60.23867745291248,-37.17971481080353,-53.98154970759647,277.3412747048358,90.0082741993453
628,28.302423576018995,-250.4985698670186,-115.53593977175464,-62.164028328738645,-41.25864762549107,-54.862870616721075,277.3226755679683,92.7477204883486
629,28.64707057303625,-250.3930721196403,-115.6957577446566,-63.95945062912163,-45.10720680639049,-55.74146467112735,277.3295138451059,95.43226178448548
630,29.001442093757284,-250.31393888667688,-115.85508787731885,-65.59041433851104,-48.693749651675994,-56.62662512899514,277.36158220793675,98.03406306561726
631,29.3650243824635,-250.2616173812032,-116.01104050154024,-67.02349246430941,-51.98991367101806,-57.52845455629718,277.41804356491275,100.5270622037879
632,29.737220641817714,-250.2359380119731,-116.16059747461864,-68.22706255335612,-54.9710574986928,-58.457760860333515,277.49743200291323,102.8875630100504
633,30.117345763223494,-250.23611069300975,-116.30066026092507,-69.17200732274453,-57.61662272327658,-59.42592361097109,277.5976688417317,105.09476432930367
634,30.504621725321172,-250.26073621721332,-116.42810382564761,-69.83240531627945,-59.91041221429695,-60.444729252173126,277.71609496216763,107.13121428923282
635,30.89817318490657,-250.30783362698287,-116.53983628652139,-70.18620103850881,-61.84078413061168,-61.52617518353585,277.8495201721602,108.98318132549194
636,31.297022781983436,-250.3748840556807,-116.63286360454052,-70.21584222665005,-63.4007641451452,-62.68224442223047,277.9942896793918,110.64093619960867
637,31.70008561462943,-250.45889085488096,-116.70435785908738,-69.90887012568055,-64.58808136402911,-63.9246544971311,278.1463668251622,112.09894186232
638,32.1061622086819,-250.55645504452852,-116.75172698529457,-69.25844716434051,-65.40513579016513,-65.26458618468241,278.3014302345918,113.35595061823224
639,32.51392921705518,-250.66386433145556,-116.77268334597262,-68.2638055243355,-65.85890682109668,-66.71239945381515,278.4549825995445,114.4150104793775
640,32.921927204040415,-250.7771932465728,-116.76530824914369,-66.93059988216069,-65.9608130207911,-68.27734531970371,278.60246758697485,115.28338466125051
641,33.32854529386839,-250.89241145662263,-116.72810955876989,-65.2711482147888,-65.72653317061031,-69.96728302355864,278.73939098313156,115.9723897480462
642,33.73200311250896,-251.0054970385688,-116.66006986019417,-63.304546175623166,-65.17579746088937,-71.7884119508697,278.86144214822167,116.49715918008103
643,34.13033115287051,-251.11255137744564,-116.56068313696065,-61.0566432678938,-64.33215586939953,-73.74502694804967,278.9646120287361,116.87633952894123
644,34.52135127989611,-251.20991227571145,-116.42997847304021,-58.55987275864354,-63.22272855882998,-75.83930424786038,279.0453042092703,117.13172758174296
645,34.90265945078003,-251.29426188434124,-116.26852984563382,-55.85293167674874,-61.87794072868736,-78.07112323428116,279.10043577676043,117.28785651845381
646,35.27161283141587,-251.3627262942058,-116.07745164481017,-52.980311934342225,-60.3312419676129,-80.43792706330382,279.1275252249856,117.37153941486572
647,35.62532340412331,-251.41296407025376,-115.85838020449688,-49.9916882586388,-58.61880797474915,-82.93462303994147,279.12476528545454,117.41137799748434
648,35.960659960115954,-251.44324155936533,-115.61344230161815,-46.94117297487807,-56.77922073625577,-85.5535218886592,279.09107931980185,117.43724411961513
649,36.27426006564833,-251.45249337926157,-115.34521207883301,-43.886451554458375,-54.8531219620571,-88.28431379226465,279.02616060030743,117.47974090726078
650,36.562553140961406,-251.4403671033702,-115.05665802191236,-40.88781603383856,-52.88283385402357,-91.11407837204203,278.9304943750533,117.56964997783349
651,36.82179519745205,-251.40725175020177,-114.75108160488531,-38.00711569065864,-50.911941130982825,-94.02732562545735,278.80536307522686,117.73737057718763
652,37.04811512446837,-251.35429015214564,-114.43204928362103,-35.30664554675867,-48.98482872683762,-97.00606517026654,278.65283539606867,118.01235595000595
653,37.23757178758606,-251.28337557380368,-114.10331969483903,-32.84799330687137,-47.146170725831446,-100.02990189323039,278.47574024916867,118.42255184237581
654,37.386220635658745,-251.19713313921278,-113.7687679658601,-30.690864409304698,-45.440367875672706,-103.07615716973247,278.27762670772245,118.99384184589302
655,37.49018805773269,-251.09888676383036,-113.43230889785623,-28.89190335052215,-43.910933364391646,-106.12001606061204,278.0627110762094,119.74950442438586
656,37.54575143377241,-250.992612339889,-113.09782065710951,-27.503527839371873,-42.59982938057075,-109.13470211730845,277.8358121761792,120.70968695351701
657,37.549422685701174,-250.88287785942558,-112.76907061178683,-26.572791082697197,-41.54676019214579,-112.09168245350918,277.6022758695481,121.89090291968728
658,37.49803311840975,-250.77477105264342,-112.44964498660208,-26.140286919507453,-40.788430932401845,-114.96090643961516,277.36788976151814,123.30555949769456
659,37.38881742410831,-250.67381511585714,-112.14288397216966,-26.239112743255838,-40.35778479094221,-117.71108167499966,277.1387890238891,124.96152395947382
660,37.219494874325356,-250.58587325300033,-111.85182380590375,-26.89390606810716,-40.283234656934674,-120.30999076709443,276.92135439187484,126.86173862048923
661,36.98834582748507,-250.51704294973683,-111.57914713930865,-28.119971852855652,-40.587908211500384,-122.72485189454743,276.7221035028328,129.0038951195488
662,36.69428161561498,-250.47354101519488,-111.3271427528667,-29.922518864646563,-41.28892777065125,-124.92272513901841,276.54757674750016,131.38017953204735
663,36.336905660013265,-250.46158044128194,-111.09767546253417,-32.2960241099485,-42.396747626679385,-126.87096509202681,276.40421871065837,133.9770999238415
664,35.916563445770905,-250.4872400796592,-110.89216694007848,-35.22374447779944,-43.91457207303124,-128.53771827208084,276.29825616255187,136.775407335541
665,35.43437888204688,-250.55632807927716,-110.71158807453412,-38.677394108523266,-45.8378766495843,-129.89246153371528,276.2355734642787,139.7501198622653
666,34.892274627100015,-250.674240076995,-110.55646328940294,-42.61700458478578,-48.154053431366705,-130.90657510902335,276.22158621953366,142.8706575913395
667,34.29297415990245,-250.8458133946674,-110.42688686211477,-46.99098292447379,-50.84219853762556,-131.55394135819796,276.2611141202859,146.10109382614428
668,33.639983749771325,-251.07517892467908,-110.32255089524598,-51.7363797293388,-53.87305670557302,-131.8115578122801,276.35825420827786,149.4005253863608
669,32.937553070187164,-251.3656128350289,-110.24278425246091,-56.77937693386733,-57.209134097438316,-131.66015075910076,276.5162561176021,152.72356199151292
670,32.19061404509785,-251.71939064267647,-110.18660136890867,-62.03600151367841,-60.80498688440985,-131.0847736017783,276.73740118217,156.02093201264717
671,31.40469850168603,-252.1376466686233,-110.15275916180961,-67.41306815724619,-64.60768991357254,-130.07537270104808,277.02288755974166,159.24019940946127
672,30.585836159942083,-252.6202424257582,-110.13981931784741,-72.80935009297038,-68.55748707793859,-128.62730255979767,277.3727237483295,162.32658456238462
673,29.740435286149225,-253.16564794574248,-110.14621238299102,-78.11697289605765,-72.58862282638886,-126.74177206992564,277.7856330353549,165.2238799330662
674,28.875148910145597,-253.7708401814027,-110.17029975439192,-83.22302119789379,-76.63035235547342,-124.4262040419204,278.25897146282335,167.87544988568158
675,27.996729862123033,-254.43122231262836,-110.21042999568994,-88.0113428687773,-80.60812611944428,-121.69449126705348,278.78866175891085,170.2253023789612
676,27.11187810814872,-255.14056716599492,-110.2649866436941,-92.36452957222494,-84.4449420575389,-118.56713388666631,279.36914541951177,172.2192184715388
677,26.227084063079808,-255.89098728338533,-110.33242547811284,-96.16604677212933,-88.06285602609438,-115.07124489862632,279.9933548209617,173.8059236188441
678,25.348471822020596,-256.6729336195315,-110.41129981224935,-99.30248052099313,-91.38463691253847,-111.24041322859667,280.6527069694328,174.93828249074085
679,24.481646633431325,-257.47522444838506,-110.50027277092185,-101.66586290326268,-94.33554728938088,-107.1144168786273,281.3371202972693,175.57449635160404
680,23.631551449771372,-258.28510576776347,-110.59811606183854,-103.15603311172433,-96.84522282440675,-102.73878217533631,282.03505588436786,175.67927881808257
681,22.80233799846648,-259.0883442635649,-110.70369561942638,-103.6829870669807,-98.8496139392479,-98.16418905944937,282.7335846479195,175.2249821379195
682,21.99725840450282,-259.8693536912428,-110.81594555267307,-103.16916553701081,-100.29294185595747,-93.44572670267767,283.41848230252646,174.19264234999966
683,21.21858372048793,-260.6113552783894,-110.93383274353869,-101.55162918027429,-101.12960918780554,-88.64200850258304,284.07435403098805,172.57290834073362
684,20.46755550227279,-261.29657237524634,-111.05631506936177,-98.78406908072073,-101.32599410040557,-83.81416061554827,284.68479067562777,170.3668176063243
685,19.74437573296049,-261.90645910040143,-111.18229663649396,-94.8386032774031,-100.86204856497108,-79.02470343444136,285.2325579056914,167.58638120224015
686,19.04823909115473,-262.42196220719046,-111.31058369452178,-89.70731341024131,-99.73261704412731,-74.33635045063507,285.6998193412203,164.2549425379106
687,18.377409928549753,-262.82381480919156,-111.4398450060675,-83.40348059231607,-97.94839330252915,-69.81075335670826,286.0683939952565,160.4072797453887
688,17.729344445713956,-263.0928598781658,-111.56858031718937,-75.96248553296687,-95.5364403868356,-65.50722570615294,286.3200475527348,156.089429383148
689,17.10085655110637,-263.2104005684084,-111.6951002374514,-67.4423443207872,-92.54021191517474,-61.48147972620332,286.43681595819936,151.3582199657774
690,16.48832389138657,-263.1585735163557,-111.81752036663721,-57.92385777689097,-89.0190308902375,-57.78441186084422,286.40135865182344,146.28051670837883
691,15.887928582910272,-262.9207403606439,-111.93377192450153,-47.51035868953516,-85.04700425676445,-54.460972232394035,286.1973376298032,140.9321932203365
692,15.295925228941002,-262.48189170917055,-112.04163039669473,-36.32704742115489,-80.71137614259341,-51.54915137241047,285.80981717982377,135.39686076626887
693,14.70892690707605,-261.829056424666,-112.13876273726027,-24.519912274021724,-76.11034875957485,-49.0791142155512,285.22567742432426,129.76440001035493
694,14.124198064075749,-260.95170735148406,-112.22279254845598,-12.254236631457358,-71.35042574613968,-47.07250650047285,284.4340326762985,124.12935259387937
695,13.539941844496406,-259.8421527437377,-112.29138160200519,0.28729960004574784,-66.54335669261783,-45.54195255961687,283.4266434210591,118.58923914819316
696,12.955568549237324,-258.49590108025785,-112.34232516081141,12.906911115853795,-61.802782164440394,-44.49075631186094,282.1983088971104,113.24287518168568
697,12.371931830097694,-256.9119858523042,-112.37365771799958,25.394371837877316,-57.24069440073423,-43.912809504847814,280.74722590388063,108.18875567657587
698,11.791519825449813,-255.09323627778733,-112.38376495752676,37.530027481753365,-52.96383902796403,-43.79270339315474,279.0752985897816,103.52357257818787
699,11.218589576466403,-253.04647978487648,-112.37149708694373,49.088123267190475,-49.07018705825818,-44.106032647326685,277.1883836632148,99.34091672748593
700,10.659234700117524,-250.78266265471368,-112.33627836370383,59.840405848176296,-45.645604153715624,-44.819873895091185,275.096455912273,95.73019818666089
701,10.121378539466265,-248.31687644825658,-112.2782077361102,69.55994946218223,-42.76083618423375,-45.89341631518414,272.8136801939873,92.77579832279963
702,9.614687900039174,-245.66827967492517,-112.19814604755896,78.02514624807961,-40.46891743689336,-47.27871840119877,270.3583780797619,90.55644602595473
703,9.150405877256931,-242.85990655735273,-112.09778602062718,85.0237898208684,-38.8030915815175,-48.92156351313885,267.7528800044462,89.1447915416484
704,8.741105984001003,-239.91835782270857,-111.97970190827793,90.35717001785326,-37.77531679708173,-50.7623871842409,265.0232570185376,88.60713646901853
705,8.400373584553105,-236.87337234317363,-111.84737600608945,93.84408611695385,-37.375406365605734,-52.737251351207426,262.1989300902587,89.00326864626142
706,8.142424201123385,-233.75728310295202,-111.70519914786304,95.32467690190653,-37.57083548341605,-54.7788446033139,259.3121592729062,90.38634645063934
707,7.981671153382343,-230.60436609820962,-111.55844209562748,94.66395989311083,-38.30722489869535,-56.81749280609161,256.3974197513467,92.80277854609939
708,7.932256904364371,-227.45009602084542,-111.4131947494163,91.75496987744515,-39.50949308955655,-58.78217031314332,253.49067661752366,96.29205194346893
709,8.007563344650434,-224.33032762178073,-111.27627067109178,86.52138927271153,-41.08365168717937,-60.601507443878,250.62857505449193,100.8864726835521
710,8.219716175621118,-221.28042615701895,-111.15507571404667,78.91957039307465,-42.919203891801104,-62.20479397691335,247.84756722240112,106.61079870119546
711,8.579097833207136,-218.3343739119954,-111.05744157384146,68.9398627737445,-44.89209230276627,-63.52298039842638,245.1830012243255,113.48176270928474
712,9.09388240230167,-215.5238821885883,-110.99142765951109,56.60717747332441,-46.86813011249211,-64.48967834874857,242.66820078106684,121.50750331551728
713,9.769605006735445,-212.87753919844903,-110.96509749246258,41.98074413226267,-48.70683729890868,-65.04215934248404,240.33356641678347,130.6869435288332
714,10.608777341751242,-210.42002399551478,-110.98627839249328,25.1530441533798,-50.26559094801252,-65.12234683288176,238.20572980778093,141.00917502223194
715,11.610560370082496,-208.17141486728534,-111.06231507121387,6.247932752867388,-51.40398618206714,-64.67779157897185,236.3067922482421,152.45292115331
716,12.770504712684996,-206.1466175108998,-111.19982869377935,-14.582008213934769,-51.988291714085335,-63.662614653202255,234.65367585229046,164.9861590201202
717,14.080368811034013,-204.35493404342014,-111.40449293865389,-37.1588175451434,-51.89587248538667,-62.03839695275443,233.25761228445037,178.56597870021594
718,15.528024285663713,-202.79978880373204,-111.68083758799243,-61.28310908001582,-51.019442233071985,-59.77498939622199,232.12378880293187,193.13874558209417
719,17.097456861124694,-201.47862135500256,-112.03208829338477,-86.73852052075912,-49.27100255721279,-56.851214684210156,231.25116554990058,208.64061051733165
720,18.768869724364826,-200.38295132589676,-112.46004862236047,-113.29652933643771,-46.585323630961156,-53.2554300901319,230.63247164329155,224.99838557523304
721,20.518894248781713,-199.49861390327254,-112.96502769480608,-140.72149897662464,-42.92282654004403,-48.98592162757998,230.25438104906326,242.13077492294528
722,22.32091055964085,-198.80615907657915,-113.54581406562026,-168.77581444217952,-38.271739435717116,-44.051103313832535,230.09786277391905,259.94992504658404
723,24.14547731571651,-198.28140231072317,-114.19969422158316,-197.22496691751786,-32.64941974275517,-38.46950104116411,230.13869386823336,278.3632389363922
724,25.960866419018924,-197.89610937476547,-114.92251210819306,-225.84245194107757,-26.10276228035279,-32.26950840263368,230.34811821308074,297.27538581030393
725,27.73369443766836,-197.61879374220467,-115.70876434581064,-254.41435365791338,-18.707647123470423,-25.488911025583707,230.69362916622472,316.5904307657643
726,29.42963862838913,-197.4156014182356,-116.55172422645086,-282.74349844390264,-10.567419339748055,-18.174185653354737,231.13984996708692,336.2140060484702
727,31.014221739285638,-197.2512553610799,-117.44358643207924,-310.653074366036,-1.8104328085449621,-10.379589457992129,231.6494825800351,356.055446056757
728,32.45364635732698,-197.09003001771313,-118.37562398064333,-337.98962856936606,7.413270611577331,-2.1660631382462077,232.18429369549796,376.0298108550024
729,33.71565654594475,-196.89672601411078,-119.33834929780129,-364.62537279436344,16.936039848543977,6.40002212264028,232.70610608704717,396.0597274710203
730,34.77040205488686,-196.63761574031642,-120.32167240492923,-390.45974766234406,26.57731487174537,15.248238864058806,233.17776440960898,416.07698461095214
731,35.59127868204931,-196.28133242937284,-121.31505080837637,-415.4202186657364,36.14878947360622,24.30556035421908,233.56404672828543,436.0238248043454
732,36.15571761201148,-195.79967830386676,-122.30762758991885,-439.4623002388959,45.45986310356841,33.497859952184896,233.83249649009542,455.8538884909562
733,36.44589686736386,-195.1683312644146,-123.28835621948294,-462.5688279639052,54.32320192439053,42.751411367866126,233.95415404720492,475.5327770859649
734,36.44934946352189,-194.36743405619967,-124.24611251892804,-484.748521935036,62.56023059609868,51.99434819137043,233.90417181197975,495.03821628948685
735,36.159445496550454,-193.38205447683373,-125.16979590212863,-506.033905643313,70.00638429887579,61.15804166980543,233.66230230323836,514.3598162755717
736,35.57572914216518,-192.202509666545,-126.04842351097876,-526.4786635528087,76.51596372965706,70.17835719871115,233.21325346084444,533.4984410799087
737,34.704096175642185,-190.82455164861915,-126.87122212254708,-546.154535949989,81.96645258556835,78.99675254614499,232.54691043311888,552.4652144590278
738,33.5568028556109,-189.2494150084437,-127.62772358825127,-565.1478609062956,86.26217581273438,87.56118460179609,231.65842740689249,571.28020264623
739,32.15230260460738,-187.48373096479057,-128.3078699633979,-583.5558798894435,89.33719649403103,95.82679655493196,230.54819687909148,589.9708250119904
740,30.514912638578203,-185.53931511526247,-128.90213437190172,-601.4829258284066,91.15736913077627,103.75636390541963,229.22170700824233,608.570051477773
741,28.674318335907643,-183.43283876348588,-129.40166300910968,-619.036610977139,91.72148732405715,111.32048557656876,227.68930021561482,627.1144510980859
742,26.664928552691137,-181.18539593085018,-129.7984423665512,-636.3241276967594,91.06148502021225,118.49751550523854,225.96584788844996,645.6421603137613
743,24.52510015737121,-178.82198002113762,-130.0854935945095,-653.4487691153638,89.24167324437603,125.27324015618534,224.07035683616422,664.1908426574016
744,22.296254517290606,-176.37088579169438,-130.25709300431143,-670.5067689664162,86.35701911212149,131.64031794363643,222.02552320145088,682.7957143575612
745,20.021912152499276,-173.86305382571868,-130.30901447759211,-687.5845507046511,82.5305009397473,137.59750684528447,219.85724903898924,701.487711928588
746,17.746674018064876,-171.33137590999885,-130.23878644348275,-704.7564647508693,77.90960198171399,143.1487157987189,217.59413581543168,720.2918774630593
747,15.5151788728398,-168.8099802843486,-130.04595334185365,-722.0830786562765,72.66203477177383,148.30192309919872,215.26696756279026,739.2260336561086
748,13.371066065618008,-166.33351552497055,-129.73232919409733,-739.6100673723411,66.97081700713454,153.0680104850053,212.9081943552983,758.2998123300404
749,11.355971959250436,-163.93645112931554,-129.3022291528226,-757.367729241078,61.02884694703875,157.459564657512,210.55142453114092,777.5140865079143
750,9.508586315660864,-161.65241204204898,-128.76266387451457,-775.3711278749907,55.03314973997531,161.48969860356277,208.2309321046383,796.860836624871
751,7.863792516868526,-159.51356338169677,-128.12348143693094,-793.6208315338782,49.178984201061475,165.17094336218477,205.98118427354805,816.3234567837624
752,6.451912606728474,-157.55006013118884,-127.39744241950412,-812.1041914059513,43.654010772862314,168.5142569601245,203.83639266256455,835.8774784895387
753,5.2980747487986335,-155.7895742365272,-126.60021570846479,-830.7970705074341,38.632724532927845,171.52819133539833,201.8300907838762,855.4916593623428
754,4.421716789916696,-154.25690838149055,-125.75028548945681,-849.6659083476388,34.27135127973936,174.21825046739505,199.9947390896228,875.129355935914
755,3.8362353723050355,-152.9737018600766,-124.8687635161698,-868.669985750522,30.703389302193834,176.58646402567135,198.36135794865234,894.7500759818414
756,3.5487857491265564,-151.95822980366952,-123.97910479003076,-887.7637414898712,28.03595428677186,178.63119106444734,196.95918796290633,914.3110895838494
757,3.5602333963647377,-151.22529300440317,-123.10672897730883,-906.8989890314195,26.34705069866696,180.3471580470133,195.81537639447498,933.7689711843577
758,3.865254843280065,-150.78619215802397,-122.27855401389503,-926.0268880519269,25.683851676449784,181.72572522945944,194.95468827083903,953.0809476522459
759,4.452581919137069,-150.64877775245685,-121.52245226689526,-945.0995409730549,26.062023683940964,182.75536564515343,194.3992410270076,972.2059395705132
760,5.305380732810881,-150.81756493940836,-120.86664327212374,-964.0711082183927,27.466085132242895,183.42233204106873,194.16826218985668,991.1052030093448
761,6.401753946508756,-151.293901286006,-120.33904041257252,-982.8983655702298,29.850743313921956,183.71147942467712,194.27787038981495,1009.7425051447376
762,7.715352152063439,-152.07617423020903,-119.9665718484743,-1001.5406610636163,33.1431142686289,183.607204544768,194.74088077163717,1028.0837972654576
763,9.2160774686289,-153.16004447472022,-119.7744983036631,-1019.9592655289072,37.245697815584805,183.09445869963835,195.56663659432888,1046.0963811932709
764,10.870859929679318,-154.53869156186255,-119.78575156611737,-1038.1161484130132,42.039956242897155,182.15978673453188,196.7608693060039,1063.7475982846786
765,12.644484832311958,-156.20305853968262,-120.02031744083432,-1055.972247136201,47.39033055023109,180.79234297882397,198.32558951776429,1081.0031024811717
766,14.500447139508157,-158.14208400064325,-120.49468536772322,-1073.485332312122,53.14852257169927,178.98483430378982,200.25901113304712,1097.8248089539259
767,16.40180769020101,-160.34291181839015,-121.22138429866602,-1090.607601079972,59.157874149014056,176.7343416969525,202.55551063313825,1114.1686364547897
