time,ax,ay,az,gx,gy,gz,accmagnitude,gccmagnitude
0,8.103183044969267,-240.13310551487874,-64.90906119493225,63.46548486088061,15.02894019252474,-11.151245137962858,248.8839670010452,66.1669673994312
1,8.268329793585371,-240.14151360682604,-64.91004611702598,63.08847179843035,14.384895107000574,-11.135794310985522,248.899849907509,65.68916306072072
2,8.423603782076635,-240.14383722627164,-64.91247513540588,62.72030934999951,13.73890486301697,-11.120288525213928,248.90986599901862,65.22025674293754
3,8.567614953595454,-240.14102579925716,-64.9157782188638,62.365821148355074,13.094939879053495,-11.105526620322602,248.91470976350112,64.7657922957903
4,8.699164393481416,-240.1340074852274,-64.9194436581067,62.02922493061476,12.45708225067113,-11.092184184783099,248.91507854328702,64.33070467692276
5,8.817276162835473,-240.12365121276306,-64.92303931013078,61.714014108839905,11.829496819923625,-11.080785621660867,248.91164324187068,63.919192799452276
6,8.921223025552576,-240.11073614620489,-64.92622868494959,61.42285879780348,11.216395597743077,-11.07168156389192,248.90502452081265,63.534611584868834
7,9.010544866001794,-240.09592982906906,-64.92878145491619,61.1575301172152,10.621995100294974,-11.065032883674142,248.8957755174598,63.17938717940516
8,9.085059067650507,-240.07977572992925,-64.93057831664474,60.91885173452588,10.050466826108256,-11.060802569927668,248.88437173259362,62.85495954414822
9,9.14486263864463,-240.06269037774575,-64.93161048554468,60.70668250424788,9.505881732136128,-11.058756578143614,248.8712083391092,62.56175658214087
10,9.19032629556077,-240.04496954231502,-64.93197442390637,60.51993355520722,8.99215010387528,-11.058474312490505,248.85660456604592,62.299203465136046
11,9.222081009545866,-240.02680209096144,-64.93186257041104,60.35662214821111,8.512958638461035,-11.059368722615528,248.84081407610122,62.06576974686617
12,9.240997694161925,-240.00828948999245,-64.93155083887531,60.213962964974115,8.07170685432469,-11.060715221738171,248.8240396223609,61.85905511454739
13,9.248160784258072,-239.98946855165025,-64.93138359026332,60.08849517779953,7.671445062602252,-11.061687897461777,248.80644989878803,61.67591223770844
14,9.244836453371516,-239.9703349604854,-64.9317567886649,59.97624085878433,7.314816043041905,-11.06140089170873,248.78819643283174,61.51260230328127
15,9.232436210407993,-239.95086534892104,-64.93310021603493,59.872887400191516,7.004002272786188,-11.058952426856717,248.7694286348027,61.364975867068935
16,9.21247668891047,-239.9310361965758,-64.93585987436126,59.773984135853716,6.740680137195892,-11.053468755799125,248.75030567071295,61.22866910846859
17,9.186536658800168,-239.91083848110173,-64.94048182230314,59.675141722617596,6.525982125013409,-11.044145292357353,248.73100449125627,61.09930389589908
18,9.156212612279479,-239.89028766575566,-64.94739846994072,59.57222229302881,6.360467691834517,-11.030282346020256,248.7117239366254,60.97267949866439
19,9.123074541151606,-239.86942915744666,-64.95701779414063,59.461508903255066,6.244103334364983,-11.011313290752554,248.69268523138288,60.84494431284962
20,9.088623587773696,-239.84833973660037,-64.96971526578245,59.3398441747195,6.176252454725081,-10.98682365154951,248.67412936853268,60.712737412332324
21,9.05425312288128,-239.8271256631735,-64.9858277614754,59.204730010788865,6.155675766002143,-10.956560394367967,248.65631193907598,60.573291820016244
22,9.021214586767226,-239.80591831057842,-65.00564849362134,59.05438266380991,6.180543212793427,-10.920431485957117,248.63949603402105,60.42449388536772
23,8.990589197504445,-239.78486834336636,-65.02942204157507,58.88774013987027,6.248458502865353,-10.878496447310578,248.6239440057199,60.2648959274796
24,8.963266383074545,-239.76413956911065,-65.05733885055383,58.70442191713435,6.35649719420643,-10.830949196782141,248.60990904851343,60.09368230887782
25,8.939929503989557,-239.7439035408439,-65.08952897072123,58.504644133490025,6.501258768899374,-10.778095049420662,248.59762759991239,59.91059226962665
26,8.921049079697124,-239.72433572535374,-65.12605520266966,58.28909659791537,6.67893230070564,-10.720324276085828,248.58731340037622,59.71580600432599
27,8.906883345813116,-239.70561364050155,-65.16690610167805,58.05879094721759,6.885374332926518,-10.658084969636807,248.57915371219772,59.50980334381926
28,8.897485601849151,-239.68791689851457,-65.21198942151992,57.814891718769104,7.116196622517368,-10.591857973768624,248.57330776866198,59.29320671625978
29,8.892717484195396,-239.67142867917724,-65.26112655501342,57.55854376546473,7.366860669436305,-10.522136288683793,248.56990710951715,59.06662155133035
30,8.89226707837201,-239.65633788653986,-65.31404841757039,57.290710055482144,7.632775549638805,-10.449410750681778,248.56905716265234,58.830487740777095
31,8.895670791385616,-239.64284114429475,-65.37039308046184,57.012033286287405,7.909395493764219,-10.374162969606992,248.57083930123326,58.5849550099236
32,8.902338155357782,-239.63114382704003,-65.42970531289002,56.72273286213175,8.192313802484131,-10.296865585783582,248.5753126155639,58.32979306299399
33,8.911579040293905,-239.62145947442562,-65.49143809215113,56.42254583019302,8.477349950263633,-10.217989011840032,248.58251476652043,58.06434434443535
34,8.92263287544586,-239.614007171513,-65.55495618494096,56.11071670610673,8.76062703287074,-10.138013120673959,248.5924615294511,57.78752358987201
35,8.934699307810234,-239.6090067376897,-65.61954207864089,55.7860371406688,9.038637075405951,-10.057441948902696,248.60514492569672,57.49786444079404
36,8.946969358847431,-239.60667175916524,-65.68440467298407,55.446932433100386,9.308292224240889,-9.976819407732641,248.62053004471335,57.19360962458616
37,8.95865581989481,-239.6072006271512,-65.74869105233857,55.09158828993368,9.566960573679335,-9.89674411310037,248.63855074634438,56.87283784618901
38,8.969021578980842,-239.6107659325031,-65.81150135808645,54.71810825976204,9.812486297473889,-9.817881620351653,248.65910453436865,56.53361785080063
39,8.977404852380557,-239.6175029244069,-65.87190648080315,54.324690208295046,10.043194715299668,-9.740972515492942,248.68204716920079,56.17417830958509
40,8.98324079133755,-239.62749816748166,-65.9289681961872,53.90980921310219,10.257883736536582,-9.666835016385475,248.70718799333983,55.79308139211531
41,8.986079468546096,-239.64077975507675,-65.98176142714685,53.47239440930791,10.455803687702836,-9.59636104063059,248.73428719389153,55.38938816805089
42,8.985600641138868,-239.6573102714502,-66.02939827599369,53.01198852185687,10.636627869521496,-9.53050512979746,248.76305607092723,54.96280525730149
43,8.981625805302597,-239.6769832408372,-66.07105320376198,52.52888084576542,10.800416372115212,-9.470266162172399,248.79316087466114,54.513804211296375
44,8.974127860478381,-239.69962331499696,-66.10598836463232,52.02420695387081,10.947575731628461,-9.416662387247056,248.82423019927108,54.043707637167124
45,8.963238240991833,-239.72499007864022,-66.1335778237556,51.5000110902419,11.078816925697772,-9.370700911488969,248.85586547053114,53.55473873695403
46,8.949250795342513,-239.752785069435,-66.15332928373678,50.959269803318804,11.195113948127807,-9.333343301808664,248.88765374318223,53.050033474568075
47,8.932621212945648,-239.78266136928158,-66.1649020238136,50.40587775735895,11.297664741432802,-9.305469407216876,248.91918179584283,52.53361686637262
48,8.913960601587492,-239.8142349398627,-66.16811995849424,49.844598757775636,11.387855598360494,-9.287841785273503,248.95005038034805,52.010346835022425
49,8.894021998702982,-239.84709679567757,-66.16297894142879,49.28098675415917,11.467229356981232,-9.281073205160556,248.9798874700382,51.485830597504645
50,8.873679159861485,-239.88082519425296,-66.1496476578709,48.721282874997705,11.537456987627033,-9.285599540612274,249.00835951478834,50.96631963539057
51,8.853897787325112,-239.914997295827,-66.12846179631502,48.172295360650914,11.60031169299712,-9.301659968808469,249.0351800991065,50.45858991786044
52,8.835700199548363,-239.94920008661197,-66.09991174491842,47.64126957510374,11.657644509490815,-9.329285823999173,249.06011591077285,49.969814229259384
53,8.820125097807122,-239.98304057157964,-66.0646246917542,47.13575510925091,11.711360571099902,-9.368298805782313,249.08299032557062,49.507433220565105
54,8.808184500022245,-240.01615523887543,-66.02334251527931,46.66347640201554,11.763395547928999,-9.41831857070927,249.1036850594383,49.07903120501616
55,8.800820100236926,-240.0482186960417,-65.97689712662248,46.232212358102615,11.81569213309615,-9.478779077717713,249.122140319737,48.69222177789634
56,8.798861311312068,-240.07895137689866,-65.92618495493599,45.8496891492975,11.870176671909457,-9.548952462966353,249.13835389263255,48.354547047945346
57,8.802987120532988,-240.10812637766503,-65.87214206390863,45.523488777058965,11.928736035047999,-9.627978757350647,249.15237969828527,48.0733926443179
58,8.81369368756228,-240.13557561355995,-65.81572099946044,45.26097418089522,11.99319468367135,-9.714899485108939,249.16432636282025,47.85591885929403
59,8.831269348676296,-240.16119532226526,-65.75787000500127,45.06922996975929,12.065291689846932,-9.808693111217305,249.17435606400028,47.70900659793005
60,8.855778324652182,-240.18495044486875,-65.69951483107997,44.9550165291261,12.146657381774803,-9.908310415973514,249.18268330681767,47.63921554060829
61,8.887053920063101,-240.206876880256,-65.64154310475809,44.92473445675393,12.238789328537433,-10.012708115414908,249.18957268103722,47.652751219715526
62,8.92470137759812,-240.22708038335895,-65.58479115860675,44.98439591231605,12.343027546598128,-10.120879365950598,249.19533439442665,47.75543746510549
63,8.968109945258348,-240.24573107520294,-65.53003331065628,45.13959929456023,12.460529073628898,-10.231880158798315,249.2003165670133,47.95269065044122
64,9.016473259778582,-240.26305302594295,-65.47797366733234,45.395503489013834,12.59224240955226,-10.344850975204231,249.2048937509691,48.24949218019092
65,9.068816867469103,-240.2793089762486,-65.42924043377488,45.75679773832259,12.73888274680025,-10.459033360109732,249.20945168939815,48.65035565258961
66,9.124031540028735,-240.294780873613,-65.38438249631582,46.2276631366459,12.900909304506294,-10.573781247557713,249.21436885323817,49.15928523306046
67,9.180910942661997,-240.30974748807307,-65.34386783969587,46.81172208589914,13.078506307262874,-10.688566993480938,249.21999580614414,49.77972218116069
68,9.238192105528968,-240.32446086922147,-65.308083236189,47.511972980126394,13.271569139642034,-10.802982214872305,249.2266338900549,50.514477383929574
69,9.294596995976141,-240.3391236458624,-65.27733456156896,48.33070896694884,13.479697001514129,-10.916733696731802,249.23451492744599,51.365649231489954
70,9.348873401901056,-240.3538690116838,-65.25184704795103,49.26942174542078,13.702193061572103,-11.02963475784444,249.24378346898197,52.334528118826356
71,9.399833506731662,-240.3687447660397,-65.23176484501785,50.328693691855605,13.938072709018343,-11.1415925633091,249.25448268147977,53.421490993971936
72,9.446388965179407,-240.38370223722143,-65.21714952143964,51.50808373894304,14.186080071594095,-11.252591997726007,249.26654453492276,54.625891317940734
73,9.487581749803805,-240.39859046397953,-65.20797757642437,52.80601396528445,14.44471253178724,-11.362676890349057,249.27978464579178,55.945951182418895
74,9.522610317389134,-240.41315563776888,-65.20413743926802,54.21966454317351,14.712252537138818,-11.471929547841357,249.29390189216517,57.378662908049364
75,9.550850704124489,-240.42704550143338,-65.2054265956174,55.744884526440494,14.986805548365552,-11.580449632686005,249.30848266366712,58.919707187366534
76,9.57187210865569,-240.43981823195773,-65.21154940118495,57.37612508397143,15.266342500462358,-11.688333433497952,249.3230094227141,60.563393884341835
77,9.585446520223092,-240.45095533793486,-65.22211601913561,59.10640040265611,15.548744705806714,-11.795654548999643,249.33687322141057,62.30263017050555
78,9.591552090298718,-240.45987817512963,-65.23664288121141,60.92727980018222,15.831848782219044,-11.902446925547949,249.34938988284554,64.12891897501214
79,9.590370188718442,-240.46596769524882,-65.25455507292817,62.82891281198087,16.11348905073888,-12.008690974043958,249.3598195752048,66.03238896371579
80,9.582276328883129,-240.4685869794876,-65.27519095002995,64.80008736737949,16.391535011383855,-12.1143031637308,249.36738943025608,68.00185567510728
81,9.567825364468208,-240.46710602618438,-65.29780908751947,66.82831982722392,16.663921997270737,-12.21912919667476,249.37131873299154,70.02491223315332
82,9.547731577050946,-240.46092815593565,-65.32159746470425,68.89997469272838,16.92867388377549,-12.322940728544605,249.37084606430986,72.0880473091165
83,9.522844463374708,-240.4495172306125,-65.34568472367609,71.00041118318133,17.18391769181556,-12.425435592389757,249.36525760891422,74.17678765677766
84,9.494121125978639,-240.43242467825777,-65.36915341083764,73.11415355437988,17.42789092699501,-12.526241493814576,249.35391566736297,76.27586247902585
85,9.462596160718645,-240.40931512835047,-65.39105522216875,75.22508194566474,17.658943366207623,-12.62492309467982,249.33628625995883,78.36938699730335
86,9.429349889073535,-240.37998933141895,-65.41042833268138,77.31664064104062,17.875535581276228,-12.720992275396092,249.31196459798048,80.44106279184338
87,9.395475767125623,-240.34440299631038,-65.42631687088672,79.37206075578665,18.07623667730097,-12.81392121651749,249.28069715166626,82.47439260268624
88,9.362047807841366,-240.30268024293287,-65.43779246059196,81.37459427244124,18.259723531686763,-12.90315782528818,249.2423990692416,84.45290711361436
89,9.330088841524315,-240.25512054754975,-65.4439774381514,83.30775583982899,18.42478336501125,-12.988142933725388,249.19716579048682,86.36040060980882
90,9.300540404353958,-240.2021983760874,-65.4440689129383,85.15556777469014,18.57032089632768,-13.068328539144586,249.14527788809704,88.1811712873165
91,9.274234995835108,-240.1445551533556,-65.43736245609612,86.90280243415788,18.695370708297986,-13.143196129275543,249.08719850418396,89.90026057376112
92,9.251871404692448,-240.0829837665513,-65.42327403523433,88.53521486417978,18.79911478257934,-13.212273916101188,249.02356323533172,91.50368440575122
93,9.23399381877448,-240.0184064240907,-65.40135885673156,90.03975770757047,18.880904471512896,-13.275151699903871,248.95516293334995,92.97864833993118
94,9.220975512900381,-239.9518472905056,-65.37132595694823,91.40477005486525,18.94028549984943,-13.331492146623841,248.88292051841307,94.31373794003892
95,9.213007936256908,-239.88440169345137,-65.33304770439096,92.62013243212702,18.977024028609993,-13.381037488037004,248.8078633496818,95.49907628416098
96,9.210095858145737,-239.81720373937353,-65.28656385857745,93.67738152489922,18.991131451138152,-13.42361102258018,248.73109286007394,96.52644176869879
97,9.21205886124924,-239.75139398419662,-65.23208035727524,94.56978046945234,18.982885487197,-13.45911325274205,248.65375310442033,97.38934158684823
98,9.218539002280307,-239.6880885294944,-65.16996336003618,95.29234335307713,18.95284530295919,-13.487512962805045,248.57699968106334,98.08303907863464
99,9.229014024489318,-239.62835057684683,-65.10072916547453,95.84181556569584,18.901858763968924,-13.508833941416936,248.501970167777,98.60453618894255
100,9.242815228292528,-239.57316506455695,-65.02503053388506,96.21661441165027,18.8310604462073,-13.5231383469043,248.4297567837339,98.95251509738694
101,9.25914907621889,-239.52341662822164,-64.9436398401263,96.41673657251563,18.74185962640645,-13.530507910884607,248.36138158792792,99.12724534863926
102,9.277121807143201,-239.47987092050437,-64.85742944827977,96.4436404031768,18.635918112153306,-13.531024319985764,248.29777432083515,99.13046431281369
103,9.295766607856075,-239.44315932985327,-64.76734977445128,96.30011161016738,18.51511841725833,-13.524750231073183,248.23975302711366,98.96523950537046
104,9.314073034560831,-239.41376721428202,-64.67440568518043,95.99012071426553,18.38152337505077,-13.511712450232405,248.1880077226072,98.63582128780105
105,9.331018274216701,-239.3920257331116,-64.57963208595194,95.51868000539586,18.237328727283664,-13.49188881303558,248.14308738934466,98.14749389504806
106,9.345599560242103,-239.37810717325706,-64.48406964038224,94.89170658506164,18.084810463292143,-13.46520020618072,248.10539041861185,97.50643169865191
107,9.356866811834221,-239.37202347484427,-64.38874146393665,94.11589664568032,17.92626871700811,-13.43150891065826,248.07515840518988,96.71956619220072
108,9.363954442440331,-239.3736276508336,-64.29463146650012,93.19861448293751,17.763969926455204,-13.39062397669232,248.0524731364588,95.79446750756549
109,9.366111192924562,-239.38261799793855,-64.20266489569066,92.14779808281807,17.600088796045377,-13.342313682536055,248.0372567769708,94.73924255519007
110,9.362726733650627,-239.39854527757188,-64.11369151655776,90.9718816865917,17.43665143101519,-13.286324389883344,248.02927548234697,93.56245036484134
111,9.353353745407913,-239.4208232469177,-64.0284716501441,89.67973462942695,17.27548088947494,-13.222404423319622,248.02814681105093,92.27303402307327
112,9.33772433640918,-239.448742943005,-63.94766501230755,88.28061492595415,17.11814638406567,-13.15033106827064,248.03335125567986,90.88026774055815
113,9.31575994207585,-239.48149093173564,-63.87182210191406,86.78413538894537,16.96591750104895,-13.069938470359386,248.04424799185986,89.39371690838169
114,9.287574173221921,-239.5181713825683,-63.80137791097889,85.20023940775201,16.81972504848833,-12.981144195131497,248.06009462277612,87.82320841600375
115,9.253468414020746,-239.55783147311948,-63.736647945100046,83.53918292635831,16.68013036379045,-12.883972489926299,248.08007042484684,86.17880802720308
116,9.213920418806223,-239.59948940700548,-63.67782676351316,81.81151880626568,16.547304941017824,-12.778572802823447,248.10330246633572,84.47080135688913
117,9.169566724524255,-239.64216422630133,-63.62498927818703,80.02807977945537,16.421021981122426,-12.665232726246305,248.12889390775587,82.70967506146586
118,9.12118020768849,-239.68490649488237,-63.578094916548245,78.19995662273253,16.300660956767924,-12.544385118553317,248.15595368013368,80.90609526567063
119,9.069644383298375,-239.72682876801426,-63.5369946625165,76.33846892215952,16.18522566844354,-12.416609599685453,248.18362656950455,79.07088091657302
120,9.015926049732789,-239.767134603515,-63.50144102873535,74.45512666691192,16.07337571110089,-12.282628843172382,248.21112258979656,77.21497052462149
121,8.961047737346057,-239.8051447705825,-63.471101029798184,72.5615817217632,15.963470837426321,-12.143300136267598,248.23774442677646,75.34938145183114
122,8.906061219459442,-239.84031928421615,-63.445572073978454,70.66956883283976,15.853627363565819,-11.999602680567525,248.26291165954768,73.48516141346089
123,8.85202311736562,-239.8722739451707,-63.42440039677002,68.79083618768875,15.741785446212932,-11.852621140682345,248.28618043007606,71.63333213886928
124,8.79997334279407,-239.90079022903404,-63.407101333231594,66.93706576720282,15.625785707808971,-11.703525988273695,248.3072572927824,69.80482526052553
125,8.75091674595372,-239.92581766474575,-63.39318044230811,65.11978393277626,15.503453283827849,-11.553551165847614,248.32600617443512,68.01041058918503
126,8.70580793368937,-239.9474682780876,-63.38215432824382,63.35026298231846,15.372686953979539,-11.403969506281316,248.34244773581824,66.26061708829572
127,8.66553895201598,-239.96600324023692,-63.37357004594903,61.63941480788207,15.231550660275165,-11.256066260553728,248.35675097231092,64.56564712976585
128,8.630929508815957,-239.98181248742847,-63.36702222286335,59.99767825100352,15.078364440262378,-11.111111096627747,248.3692175578284,62.93528497509116
129,8.602719528410956,-239.99538861918873,-63.362167301570715,58.43490216860788,14.911791606888936,-10.970329087258214,248.38026003431824,61.3788007825746
130,8.581563809232764,-240.00729668615892,-63.358734414190224,56.960226489266795,14.730918881669552,-10.83487147408325,248.3903752695782,59.90485168919979
131,8.568028294088782,-240.01814150117713,-63.356532352229266,55.58196366570116,14.535326161006022,-10.705787277511456,248.40011460649154,58.52138165292236
132,8.562587134069897,-240.02853397514454,-63.3554520994152,54.307483024279875,14.325142719627431,-10.583997002214803,248.4100519875457,57.23552186683941
133,8.565619575406798,-240.0390578814736,-63.35546462450865,53.143100667095254,14.101086974802783,-10.47026969722524,248.42075129622125,56.05349375881759
134,8.577405841615057,-240.0502384505671,-63.35661404299421,52.09397780384711,13.864487446605732,-10.365204464272265,248.4327342639693,54.98051687548613
135,8.598121599108119,-240.0625141905862,-63.35900665900599,51.1640306447413,13.617283196602967,-10.26921722608271,248.44645040349766,54.02072428157131
136,8.627831137314132,-240.0762132081103,-63.3627966810312,50.355855244968616,13.362002745994092,-10.182533266760549,248.46225040155372,53.17708845939426
137,8.666479824078914,-240.0915350209279,-63.368169614978335,49.67067091355333,13.101721245901798,-10.10518583324332,248.48036420116273,52.451361040925796
138,8.713886545663255,-240.10853844729436,-63.37532453452238,49.108285879665516,12.839996520830304,-10.037020960546913,248.50088466455176,51.84402995847047
139,8.769736787051414,-240.12713573009344,-63.384456534222736,48.66708869454683,12.580785536526518,-9.977708563871664,248.52375732173022,51.3542976012087
140,8.83357698473593,-240.14709274831733,-63.39574052036183,48.34406821951567,12.328343802500564,-9.926759600577368,248.54877637489207,50.98008316398378
141,8.904810896230543,-240.16803504927918,-63.40931705920587,48.134864006963774,12.087111126570088,-9.883548720488568,248.5755869071092,50.71805153973692
142,8.98269886906254,-240.18945946414397,-63.42528054229749,48.03384752180856,11.861587925203384,-9.847341405376506,248.603693160899,50.563669931024464
143,9.066360903646586,-240.21075112252694,-63.44366977536043,48.034233101122034,11.656206896273067,-9.817324274029664,248.63247276748777,50.51129196198844
144,9.154784237715011,-240.23120558344567,-63.46446126829367,48.12821590983645,11.475205220072604,-9.792637034711005,248.6611967524227,50.554267545504054
145,9.246835876298192,-240.25005543763763,-63.48756570627695,48.307132489980546,11.322502526105723,-9.772404471166187,248.689054834622,50.68507515360882
146,9.341280130583852,-240.26650019981344,-63.51282808129298,48.561637888413756,11.2015896060146,-9.75576683436476,248.7151850036362,50.8954715135414
147,9.436800878387794,-240.279737860888,-63.540031720233735,48.88189193112912,11.115432234527974,-9.741907124611076,248.73870585112726,51.1766522597751
148,9.532027922578845,-240.28899635428334,-63.568905994644204,49.25774626503744,11.066393511157658,-9.730074062088937,248.75874989385926,51.51941600738318
149,9.625566488513535,-240.2935634650525,-63.59913695055364,49.67892361751128,11.056176955439065,-9.719600059563556,248.77449624042356,51.91432399643716
150,9.716028656264184,-240.29281421188873,-63.630379652665376,50.13518150468152,11.085791288181195,-9.709914093544894,248.78520131633553,52.35184805820979
151,9.80206551055467,-240.28623520220475,-63.66227079332739,50.616454315109664,11.155536518286782,-9.700549824358498,248.7902267526696,52.82250111797801
152,9.882398985948766,-240.27344573748763,-63.694440021056394,51.11297010259259,11.26500976561511,-9.69114953008789,248.78906379218043,53.316946579685506
153,9.955852572705298,-240.25421553179643,-63.726518508686254,51.61534125405089,11.413128335569708,-9.681464418720676,248.78135367207182,53.82608548743495
154,10.021380088194322,-240.22847889525906,-63.758143652799916,52.11463112302674,11.598167036854383,-9.671351772688466,248.76690352850736,54.341123047643066
155,10.078091673319083,-240.19634519806817,-63.78895952819937,52.60240136318528,11.81780664564182,-9.66076928823065,248.74569751982037,54.853618597363734
156,10.125276146680731,-240.15810533131668,-63.81861362232298,53.070746689934,12.0691907127832,-9.649766991335738,248.71790300091678,55.355525071902804
157,10.162418861462688,-240.11423364046234,-63.84675112095025,53.51232485098547,12.348988428561125,-9.638477226298157,248.6838715412898,55.83922514862141
158,10.189214278846409,-240.0653844938925,-63.87300837585367,53.9203895330422,12.653461795345985,-9.627103301602643,248.6441343702294,56.29757130470873
159,10.205572665217842,-240.01238251405996,-63.89700714726474,54.28883273617768,12.97853574791776,-9.615907336551157,248.59939169813887,56.72393593941148
160,10.211620671438592,-239.95620575616553,-63.918350931161,54.61224090092972,13.319870058524574,-9.605197695625103,248.55049555039707,57.11227555812969
161,10.207695989677072,-239.89796173316032,-63.93662432034945,54.88596601655517,13.67293193936631,-9.595316227669908,248.4984262654977,57.45721006410452
162,10.194336678072112,-239.83885690898967,-63.95139601875165,55.10620948653062,14.03306830886446,-9.58662543339426,248.4442634364062,57.75411488816214
163,10.172265998126441,-239.78016086285265,-63.96222585018032,55.27011322081956,14.395576763661575,-9.579495712936534,248.38915257080768,57.99922054052668
164,10.142373675018574,-239.72316665213967,-63.968675799232585,55.37584980580551,14.755774372068291,-9.574293005473253,248.33426898088362,58.189711700527496
165,10.105694332393014,-239.66914901554145,-63.97032471733594,55.42270207908766,15.10906344430355,-9.571367361418229,248.28078040999011,58.323816537535016
166,10.063383494732236,-239.61932211396865,-63.96678584928555,55.41112220397709,15.45099346714528,-9.571043138518121,248.2298098193446,58.40087674936989
167,10.016691176391333,-239.57479864799305,-63.95772589226553,55.342761369784384,15.777318494105462,-9.573611469225154,248.1823997659972,58.42138978788667
168,9.966932967866528,-239.5365523982244,-63.94288400827402,55.220463314553264,16.0840495004888,-9.579325422119197,248.1394799279615,58.38701671582768
169,9.915458807134396,-239.50538630809234,-63.92208917395693,55.048217626134026,16.367501493776885,-9.588397966739171,248.1018394096013,58.300551772190026
170,9.863620112400758,-239.48190797108512,-63.895274528435785,54.831071836320156,16.624335408984184,-9.601002515706448,248.0701053090526,58.16585262801196
171,9.812736359586438,-239.46651380790192,-63.86248791002519,54.575004319453384,16.851594951091993,-9.617275499145439,248.04472863284477,57.987733133791764
172,9.764062354059012,-239.45938251813627,-63.82389834991307,54.286762658127046,17.046738587010235,-9.63732017888982,248.0259781275831,57.77182283392778
173,9.718757394219512,-239.46047776507822,-63.77979870076003,53.97367427293876,17.207666886127452,-9.661210795846946,248.01394210031387,57.52439951097145
174,9.677857353336245,-239.46955958060528,-63.7306047567531,53.643437653032926,17.33274536980098,-9.688996197186155,248.00853788234105,57.25220245867369
175,9.64225051670859,-239.48620360839277,-63.676851231476725,53.303903439655485,17.420822909696657,-9.720702300517457,248.009528228167,56.962235028840034
176,9.612657867807735,-239.5098269405782,-63.6191848885493,52.962854906249746,17.471245481961066,-9.756333059650382,248.01654356466642,56.66156523845364
177,9.589618402064556,-239.53971894253598,-63.55835503705404,52.62779708588628,17.48386479273028,-9.795869905228335,248.02910863001426,56.35713290068174
178,9.573479902920756,-239.5750752188419,-63.49520154215315,52.30576299856833,17.459041046502392,-9.8392698611096,248.04667178495123,56.05557094908081
179,9.564395427921086,-239.61503283488074,-63.43064045964612,52.003144214612476,17.397638996226465,-9.886462654377318,248.0686352204195,55.76304745624561
180,9.562325534050155,-239.658705017305,-63.36564739188498,51.72555143013824,17.301016385980084,-9.937347169803258,248.0943843750633,55.48513338077867
181,9.567046014393648,-239.70521371469093,-63.301238726704725,51.477708909997965,17.171003955493962,-9.991787614707816,248.12331503106202,55.2266993963674
182,9.578160662687434,-239.75371861257935,-63.23845109703959,51.26338470445336,17.009876328566946,-10.049609817825505,248.1548567938401,54.991843401357535
183,9.595118459764235,-239.80344154680805,-63.1783196489138,51.08535665729246,16.820313357893333,-10.110598177224112,248.1884920551993,54.78384864846335
184,9.617234666167445,-239.8536857442356,-63.121855919275816,50.94541259625902,16.605351827709388,-10.174493822564688,248.22377006354355,54.60517103425035
185,9.643715467423911,-239.90384978352543,-63.07002620825923,50.84438185766538,16.36832782212605,-10.240994502884075,248.2603161975079,54.45745304899073
186,9.673685789777313,-239.95343640375867,-63.023731282291834,50.78219442478696,16.112810584700934,-10.309756545485191,248.29783675022077,54.3415611999692
187,9.706219574981766,-240.00205621972722,-62.983788127335465,50.75796331861818,15.842529332824427,-10.380398973862492,248.33611941922513,54.25764326744394
188,9.740371299192377,-240.04942618854983,-62.95091432379861,50.770085336590114,15.561295180300958,-10.452509551228848,248.37502942980538,54.20520139160512
189,9.77520704457101,-240.0953626041833,-62.925715444903304,50.81635473584099,15.272920930022568,-10.525652199358012,248.4145010887993,54.18317664042387
190,9.809833140619196,-240.13976865126693,-62.90867572766579,50.894084023587396,14.981141872331571,-10.59937503377904,248.4545247593089,54.19004036454176
191,9.84342043168555,-240.1826170866602,-62.90015216902303,51.00022573411975,14.689540743974675,-10.6732182184497,248.49512974225146,54.2238873669075
192,9.87522272059682,-240.2239293083837,-62.900372093091605,51.13148910751008,14.401479640679291,-10.746720951800437,248.5363642171604,54.28252585494281
193,9.904588820894531,-240.2637527693053,-62.909433998484495,51.284446150314395,14.120041014062542,-10.81942708780517,248.57827405740022,54.36355952133411
194,9.930968595020802,-240.30213914715645,-62.92731114608599,51.45562276529639,13.847979079645894,-10.89088911582475,248.6208827396401,54.46445806107157
195,9.953914010096296,-240.3391256348336,-62.95385706704849,51.641572380680174,13.587682217383888,-10.960670421294601,248.6641744875847,54.58261391963771
196,9.973076507220155,-240.37472115276327,-62.98881210785666,51.83893151825052,13.341146415586007,-11.02834589952282,248.7080822440992,54.715384852711544
197,9.98820196282414,-240.4088984385511,-63.03181029848223,52.044458703869,13.109959493986434,-11.093501136966594,248.7524812874765,54.86012367244594
198,9.999124306515721,-240.44159205511698,-63.08238614228043,52.25505975271706,12.89529560760324,-11.155730573591143,248.79718849143396,55.014198063158084
199,10.005758467966887,-240.4727015129863,-63.13998123047335,52.46780351665973,12.697919274079547,-11.214635312500048,248.84196646992243,55.17500431877705
200,10.008092846922137,-240.50209812312872,-63.203950741284025,52.679932553698904,12.51819791223491,-11.269821464378932,248.88653130647054,55.339979173391605
201,10.006181138446244,-240.52963407855216,-63.27356988514725,52.88887291940991,12.356121731865933,-11.320900002330843,248.93056243713872,55.50661361690848
202,10.000133275345483,-240.55515253568893,-63.34804033110696,53.09224652685593,12.211329825751703,-11.367488995210083,248.97371350771857,55.67247184165201
203,9.990105472863394,-240.57849780871803,-63.426496723899476,53.287888428428744,12.083141438235625,-11.409218802023082,249.0156233811809,55.83521738952665
204,9.976289724321669,-240.59952496356212,-63.508013588665804,53.473870096551046,11.97059153173428,-11.445740431656473,249.05592669764823,55.992647306050735
205,9.958903440020201,-240.6181081511824,-63.59161313031829,53.648528496477915,11.872469868841936,-11.476736876252698,249.09426350327217,56.14273382214512
206,9.938180155712217,-240.63414715143458,-63.67627455217171,53.81049963513766,11.78736282722294,-11.501936842634565,249.13028762680395,56.28367194592771
207,9.914362290694465,-240.64757191004608,-63.76094548465186,53.958754471821116,11.713697058119852,-11.521129968486383,249.1636737737395,56.41393049100578
208,9.887696727990946,-240.65834523712198,-63.84455597273929,54.092634662280666,11.649783932768102,-11.534182383771581,249.19412363409006,56.53230358814753
209,9.85843350393803,-240.66646410996353,-63.92603528428656,54.21188560072417,11.593863581666852,-11.541051413741858,249.22137149691352,56.63795967560081
210,9.826827269837635,-240.67196011619106,-64.00433151855863,54.31668457006375,11.54414729561981,-11.541798302369232,249.24518985772315,56.730485301273845
211,9.79314070063965,-240.67489954357234,-64.07843351078749,54.40766233947953,11.49885715137149,-11.536597997166174,249.2653953347015,56.809921626990004
212,9.757648918777008,-240.67538351718866,-64.14739392997281,54.485917028176765,11.456261936044339,-11.525745245104838,249.28185495300298,56.87679207052034
213,9.720644271867679,-240.6735483977203,-64.21035206201833,54.5530193109308,11.414708749823717,-11.509656545264379,249.2944925871286,56.932119892695454
214,9.682441178127284,-240.6695664023944,-64.26655477170495,54.61100803574841,11.372650041021346,-11.488867903908778,249.30329512744942,56.97743469599968
215,9.64338093793427,-240.66364614350985,-64.31537443024318,54.662375142712136,11.32866622887603,-11.464028738147338,249.30831776528757,57.01476679768317
216,9.6038363340803,-240.6560325538011,-64.3563229466237,54.7100385543753,11.281484415225355,-11.435892522692837,249.30968766183022,57.0466283557558
217,9.564215628077644,-240.6470055517979,-64.38906139256919,54.757301586964346,11.229993883343358,-11.405304815033363,249.30760523658964,57.075980057901
218,9.524965336921966,-240.63687686227988,-64.41340509599218,54.80779753502444,11.173259091188735,-11.373189191120645,249.3023424619533,57.10618226001231
219,9.486571038434878,-240.625984646161,-64.42932441237103,54.865418516855705,11.110530727457542,-11.34053146477909,249.2942378625082,57.14092981448048
220,9.449555481914707,-240.6146859273931,-64.436941551057,54.93422847364997,11.041255192809388,-11.308362391875882,249.2836882830366,57.1841705232864
221,9.414473462545965,-240.60334713660313,-64.43652385933386,55.018361328391784,10.965082649982394,-11.277738881645977,249.27113782132292,57.240008139963265
222,9.381903130537546,-240.592333354871,-64.42847396014953,55.1219065681101,10.881873557135842,-11.24972358242654,249.25706458008804,57.31259197764682
223,9.352433581234251,-240.58199699832733,-64.41331716181787,55.248785697317544,10.791703350542129,-11.225362667395688,249.2419660538744,57.40599626419914
224,9.3266488203357,-240.57266676321805,-64.39168662155505,55.40262393028197,10.694864701631932,-11.205661810265362,249.22634406688235,57.52409325796675
225,9.30510865353765,-240.56463772535525,-64.36430684508561,55.58662203782485,10.59186658458277,-11.191560698888189,249.21069029235346,57.67042470152329
226,9.288327630479444,-240.55816354556018,-64.33197621659232,55.80343341424762,10.483429293499233,-11.18390685148587,249.19547349149144,57.84807640159805
227,9.276753625979936,-240.5534516587473,-64.29554934430466,56.05505122017036,10.370474573270496,-11.183429813895032,249.18112957954187,58.05956059280992
228,9.270747823020857,-240.55066206534838,-64.25592004410127,56.34270999086261,10.254110174894988,-11.190716935339871,249.16805539223378,58.306710352707256
229,9.270567820253335,-240.54990997589033,-64.21400570254788,56.66680551602631,10.135608363687952,-11.206191851535324,249.15660664660535,58.59058981174052
230,9.276355377594756,-240.55127216311055,-64.17073350624267,57.02683618981498,10.01637814632112,-11.23009662302447,249.1471001327262,58.9114233397651
231,9.288129906854245,-240.5547964385911,-64.1270286507144,57.42136838925124,9.89793125349334,-11.262478273637138,249.13981963851353,59.26854630120596
232,9.30578821410329,-240.56051315648756,-64.08380426983267,57.84802770035559,9.781842270464034,-11.303180304833983,249.135024495133,59.66037931240327
233,9.329110328179373,-240.5684471357226,-64.0419524992876,58.30351696229882,9.669703757284113,-11.351839626398274,249.13295902844334,60.084427197069814
234,9.357770659091065,-240.5786280936956,-64.0023358189363,58.7836612011405,9.563077690108194,-11.407889201083428,249.13386082424708,60.53730305887245
235,9.391353292566535,-240.59109779408485,-63.9657777369179,59.283478628329284,9.463445004667955,-11.47056651491871,249.1379657854464,61.01477710201416
236,9.429369955098819,-240.60591268085005,-63.9330521157025,59.79727599690684,9.372155361283966,-11.538927764635034,249.14550856205705,61.51184903129298
237,9.471279124067733,-240.62314166235814,-63.9048709107883,60.31876576506383,9.29037942617179,-11.611867435916405,249.1567179165431,62.02284207507488
238,9.516504937319892,-240.64285961223794,-63.88187056762544,60.84120176811797,9.219065960963793,-11.688142750276372,249.1718075880681,62.54151595384504
239,9.564454859330356,-240.6651377380202,-63.8645976679224,61.35752948754479,9.158905868475973,-11.766402280401332,249.19096388346128,63.06119550920564
240,9.614535321722368,-240.6900321088427,-63.85349461516909,61.860546536119735,9.11030511801305,-11.845217882015458,249.21433141832122,63.57491123089083
241,9.666164768616284,-240.7175714551658,-63.8488861993069,62.34306864879789,9.073368195332607,-11.92311899394073,249.24199828063777,64.0755475795346
242,9.718783794972314,-240.7477450852278,-63.85096782128409,62.798096289727,9.047893383990074,-11.99862832466508,249.2739816266713,64.55599481018598
243,9.7718623442084,-240.7804915775972,-63.859796095083546,63.21897696500371,9.03338078353584,-12.070297925572618,249.31021453664653,65.00929995360092
244,9.824904115772496,-240.81568886160557,-63.87528254459636,63.59955842635095,9.029053506105962,-12.136744587491346,249.35053492023255,65.42881265605942
245,9.877448408717378,-240.8531463204537,-63.89719113035684,63.93432806007846,9.033891950282191,-12.196683406385466,249.39467729063017,65.80832161418527
246,9.929069699257736,-240.89259949721222,-63.92514027114987,64.21853380482193,9.04668042548709,-12.24895835567067,249.44226815568504,66.14217731554935
247,9.97937541574259,-240.93370775222422,-63.95860978440989,64.44828198600273,9.066064739113529,-12.292568853250756,249.49282549227797,66.42539678040262
248,10.028002608429627,-240.9760548636516,-63.99695275028213,64.62060765243037,9.090618742214247,-12.326691552243135,249.54576232493747,66.65374614262694
249,10.074614358057072,-241.01915221420347,-64.03941179463024,64.73351349159947,9.118917314862077,-12.350696780998684,249.60039396619484,66.82379732516941
250,10.118896676676126,-241.0624439731713,-64.0851388296418,64.78597424937351,9.149612876896818,-12.364159176460683,249.65594812792608,66.93295581328134
251,10.160556337321207,-241.10531365148606,-64.13321700272253,64.77790480707377,9.181512241544405,-12.366862173412835,249.7115769937492,66.97945764174571
252,10.199319686913581,-241.14709162526887,-64.18268351125117,64.71009165898285,9.213650498154461,-12.358796200475346,249.76637051048166,66.96233518872509
253,10.23493223258077,-241.18706358256432,-64.2325520056488,64.58408939167882,9.245358607253634,-12.340150699972709,249.819370506306,66.88135311798206
254,10.26715872715276,-241.2244801071857,-64.28183349692608,64.40208572451877,9.27632149174352,-12.311300408945753,249.8695855383075,66.7369176619684
255,10.29578352469033,-241.25856760377314,-64.32955500065454,64.16674053558019,9.306623611844449,-12.27278666065962,249.9160064443957,66.52996419545846
256,10.320610972159757,-241.2885405250253,-64.37477556457104,63.88100587088873,9.336779350481422,-12.225294710054609,249.9576224471992,66.26182951208064
257,10.34146556174671,-241.31361455263058,-64.41659977538283,63.54793503832619,9.367746030862822,-12.16962820215602,249.9934374762145,65.93411620765262
258,10.35819166475093,-241.3330201646797,-64.45418921014638,63.17048944500494,9.400918025901543,-12.106681916835202,250.02248626940704,65.54855702782474
259,10.370652915646952,-241.346015977981,-64.48677247903211,62.75135189901547,9.438101177883157,-12.037413900431751,250.04384983698026,65.10688701582019
260,10.37873149437571,-241.3519013999835,-64.51365448556534,62.292754742596756,9.481467599793689,-11.962818067382255,250.0566700176294,64.6107308828036
261,10.382327545570398,-241.35002839902384,-64.53422540742532,61.796330428873276,9.533491823525093,-11.883898323256423,250.060163090137,64.06151222960028
262,10.381358890101096,-241.33981245975633,-64.54796976547418,61.26299097395611,9.596870129033748,-11.801645221308668,250.05363261146076,63.46039004458246
263,10.375761144924912,-241.32074291019555,-64.55447577918169,60.6928411218813,9.674425691048416,-11.717016108405051,250.0364817192206,62.808226296746746
264,10.365488348374349,-241.2923927801491,-64.55344494625211,60.0851281211052,9.769002891589448,-11.630919609660554,250.00822503991427,62.10558649812232
265,10.350514120738376,-241.2544282250039,-64.54470148395993,59.43822884564595,9.883354725757826,-11.544205082662556,249.96850014103183,61.352772926668074
266,10.330833281888811,-241.20661734021382,-64.528201071824,58.74967278198522,10.02002762797179,-11.457657279740275,249.9170782093783,60.54988794056987
267,10.30646379471693,-241.14883793757994,-64.50403832196135,58.01619739274059,10.18124826808049,-11.371995901582705,249.85387339025172,59.69692272538512
268,10.277448976204363,-241.08108370074717,-64.47245254075891,57.23383081133776,10.368816967008705,-11.287879131822123,249.7789501158981,58.79386517812129
269,10.243860079080878,-241.0034682630062,-64.43383154056869,56.39799586600203,10.58401238184809,-11.205909773621912,249.69252793164458,57.840819630173435
270,10.20579951408701,-240.91622715620858,-64.38871339072904,55.50362906584804,10.827511931667134,-11.126642365885608,249.59498375997904,56.83813074611466
271,10.163405082552746,-240.8197180350629,-64.33778598227869,54.54530830464172,11.099331956810614,-11.050589649902337,249.48685198196134,55.786504097583254
272,10.116855534751387,-240.71441982357908,-64.28188419659556,53.5173835822196,11.39879077809695,-10.978226949704055,249.36882292528514,54.6871165266044
273,10.066377527676702,-240.60093135619377,-64.2219844528671,52.41410601960239,11.72449670856302,-10.909993383544169,249.24174026272897,53.541710494976904
274,10.012253744471778,-240.47996977820162,-64.15919643573763,51.22975184722864,12.0743617736384,-10.846289300444214,249.10659752097186,52.35266816865327
275,9.954831733481015,-240.35236861891255,-64.09475173204179,49.95873975345553,12.44564049964325,-10.787469843713692,248.96453353233792,51.12306287907294
276,9.894532960259307,-240.21907520985118,-64.02998894487524,48.595741759741465,12.834991725233964,-10.733834954769703,248.81682638334848,49.856687593169916
277,9.831861514260149,-240.08114700265835,-63.96633480453348,47.13578938846559,13.238560123728535,-10.685616383579939,248.66488528386117,48.5580618707619
278,9.767411768710597,-239.9397462836801,-63.90528099699686,45.574378090901526,13.652073156537133,-10.642962417923187,248.51023976985485,47.23242031423162
279,9.701874077715374,-239.79613276345034,-63.84835677773427,43.90757350055961,14.070948598499974,-10.605921180674756,248.35452571577812,45.885686564313886
280,9.636037404168363,-239.65165355767755,-63.797097735966716,42.13212286996787,14.490407595838548,-10.574423538259076,248.19946773978955,44.5244373070943
281,9.570787710951102,-239.5077301707037,-63.75301129523909,40.24557392025831,14.905588388771658,-10.548266921090237,248.04685773249747,43.15586042562182
282,9.507101074202753,-239.36584222632018,-63.717539798423935,38.24640136041725,15.31165624549974,-10.527101626140446,247.89852944270066,41.78771039143706
283,9.446030745899057,-239.22750784008048,-63.692022349644546,36.13413879464617,15.703905683690936,-10.510421341746175,247.7563292913944,40.428262433854364
284,9.38868770356797,-239.09426064945796,-63.6776568227441,33.90951099199593,16.07785161278124,-10.497559572345562,247.62208377481423,39.086265200665395
285,9.336214543589529,-238.96762359546628,-63.675463465111314,31.574558882588093,16.429306587494022,-10.487693291093077,247.49756390714586,37.77088979090044
286,9.289752952075542,-238.84907961181656,-63.68625139434476,29.132747495431822,16.75444195723121,-10.47985459918086,247.38444719287077,36.49167149297894
287,9.250405480197895,-238.74003945636693,-63.710589191043795,26.589045716816855,17.04983142230012,-10.472950576599324,247.2842776882458,35.258439650365546
288,9.219192972335943,-238.64180705677208,-63.7487808048853,23.949966576453097,17.31247643492196,-10.465790958396658,247.1984248706703,34.081231114123355
289,9.197009696609436,-238.55554304283353,-63.800848009957555,21.223558006564872,17.539813954200056,-10.4571227607004,247.12804235649318,32.97018386347672
290,9.18457885440009,-238.48222768296102,-63.866520561242886,18.419336708208636,17.729708104018037,-10.445670496407727,247.07402803660338,31.935409480271026
291,9.182411446944425,-238.42262512039446,-63.945235004803294,15.548161692652013,17.88042809176199,-10.430180183296029,247.03698781520288,30.98684593375407
292,9.190771261584363,-238.37725133125588,-64.03614278775926,12.62204876982575,17.990615194690406,-10.409465000155649,247.01720556013316,30.13409506316223
293,9.20964807215853,-238.3463483847091,-64.13812787336425,9.653932022642651,18.05924169930735,-10.382450237078901,247.01462188920306,29.38625160831497
294,9.238740326918581,-238.3298673913086,-64.24983349223585,6.657382391452538,18.08556449391326,-10.348215166810311,247.0288240521343,28.751732083851024
295,9.277447907974834,-238.32746210788605,-64.36969704838923,3.6462964008234287,18.06907573919978,-10.306029667478308,247.05904858081786,28.238111994327866
296,9.324875056871532,-238.33849458261432,-64.49599170407005,0.6345696761535901,18.009452832769277,-10.255383822633755,247.10419766863313,27.851978979957885
297,9.37984316163426,-238.3620534491929,-64.62687288650487,-2.3642295815681433,17.906509799034513,-10.196009216016204,247.16286940153125,27.59880778239371
298,9.4409126950535,-238.3969845105686,-64.76042783306121,-5.33717223087434,17.760152212458813,-10.127891124000442,247.233400977641,27.482860739253386
299,9.506413227128231,-238.44193217482766,-64.8947261996439,-8.272250733255419,17.570337684596424,-10.051271247001438,247.3139229719855,27.507115121499623
300,9.574480229893519,-238.49538929936608,-65.02786974811492,-11.1586195877944,17.3370437550209,-9.966641016805152,247.40242172111016,27.673216299816314
301,9.643097390236425,-238.5557522729554,-65.15803940941485,-13.986782441883198,17.06024474074685,-9.874725843602858,247.49680627662354,27.981453790805464
302,9.710143252295643,-238.6213778544936,-65.28353863009679,-16.748717292078407,16.73989873155081,-9.776460867289863,247.59497624354773,28.430756007564376
303,9.773441091575382,-238.69063838834202,-65.40283255207552,-19.437934703487876,16.37594542422757,-9.672958873118922,247.69488708982004,29.01869922809461
304,9.830810885815932,-238.7619723832619,-65.51458289128269,-22.04946813584616,15.968314817427085,-9.565471166306436,247.79460994810168,29.74152689209874
305,9.880122076593103,-238.83392788702878,-65.61767830838686,-24.579799740538782,15.516945984667167,-9.455342508812066,247.89238333234545,30.594176577713682
306,9.919345595076493,-238.9051965436027,-65.7112598203821,-27.026728776749867,15.02181436559547,-9.343961665363818,247.98665455458834,31.570313474068453
307,9.9466034892449,-238.97463676823602,-65.7947406101856,-29.38919268220808,14.482965434089778,-9.232709496929871,248.07610909758608,32.66237049083217
308,9.96021451100186,-239.04128520266042,-65.86781953024077,-31.667052757753986,13.900552274004403,-9.122906742827665,248.15968688103905,33.861596186159026
309,9.958734201581848,-239.1043564730678,-65.93048765541525,-33.86085755949905,13.274874473939478,-9.015763682342106,248.23658520849884,35.15811250705516
310,9.940988341414132,-239.16323212982542,-65.98302740897861,-35.97159765709651,12.606415794501071,-8.912333856301897,248.30624906329265,36.54098503891119
311,9.906099050304604,-239.21744039144474,-66.0260040329875,-38.000465541694446,11.895878246240171,-8.813473962925093,248.36835022120349,37.99830908974548
312,9.85350321240629,-239.2666289472503,-66.06024942385439,-39.94863416497912,11.144210498348855,-8.719811866899583,248.42275734013094,39.517315402413324
313,9.782963203215008,-239.31053364037692,-66.08683855163939,-41.81706678392624,10.35262884811618,-8.631724369279478,248.46949979975906,41.08449943356883
314,9.694570202663671,-239.34894627426425,-66.10705886230451,-43.60636935113359,9.522629314536951,-8.549326012353548,248.50872853158933,42.68577779676528
315,9.588740755986018,-239.38168481762838,-66.12237330290327,-45.31669451598869,8.655989862737131,-8.472469749786768,248.5406771904684,44.30667451650237
316,9.466207590009354,-239.40856876050407,-66.1343779607457,-46.94770333990197,7.754762393304047,-8.400759784409994,248.5656266248055,45.932538110943206
317,9.328005844287912,-239.42940143769718,-66.14475574529207,-48.49858713313084,6.821254901191905,-8.33357624878566,248.5838748263781,47.54878820293845
318,9.175455769958678,-239.4439601146803,-66.15522792692076,-49.96814758469133,5.8580049765490285,-8.270110667702836,248.59571365869576,49.141187447798025
319,9.010142627638682,-239.45199375929766,-66.16750549612799,-51.35492892247695,4.867746426076873,-8.209410334797685,248.6014128538607,50.69613131689259
320,8.833894085355261,-239.4532277587658,-66.1832421683787,-52.65739163544164,3.8533711571191596,-8.150428999943585,248.60121107736555,52.20094508451657
321,8.648755022562673,-239.44737438470423,-66.20399056533185,-53.87411375454272,2.817888598198133,-8.092080810224349,248.59531332735062,53.64417469798601
322,8.456959412751118,-239.43414756904141,-66.23116283205046,-55.00400325222164,1.7643848712073116,-8.033294416619139,248.5838936213557,55.01585653321556
323,8.260898933872124,-239.4132805095302,-66.26599678825634,-56.046504135087694,0.695983709716414,-7.973064520544167,248.56710183467274,56.307750712565145
324,8.063088110029573,-239.3845447130812,-66.3095286142813,-57.001779419165615,-0.38418923550622297,-7.910498725102181,248.54507361732198,57.513523820149565
325,7.866126043415884,-239.34776925638602,-66.36257292981526,-57.870856273625314,-1.4730374965149151,-7.844858211663353,248.51794244980977,58.628869359836514
326,7.672655078219207,-239.30285925497554,-66.42571088345822,-58.655721900147896,-2.5675195440755174,-7.77559139359666,248.48585304477197,59.65155786641881
327,7.485316995291716,-239.24981271320743,-66.49928657037717,-59.359362804476575,-3.664668894483383,-7.702360253103588,248.44897540215433,60.58141283179265
328,7.306707533053817,-239.18873501835543,-66.58341177059381,-59.98574458021504,-4.761608681006922,-7.625059497898915,248.40751882981425,61.42021311883462
329,7.13933016607888,-239.1198503729495,-66.6779786436749,-60.53973370602963,-5.855561198784684,-7.543828963891193,248.36174517671424,62.171526860677844
330,6.9855501938429105,-239.04350952948883,-66.78267964375172,-61.02696677090615,-6.943853311784426,-7.45905985110022,248.31198049326557,62.840485612425695
331,6.847550332737253,-238.96019335369354,-66.89703360160938,-61.45367573859383,-8.023918964992918,-7.371395434823652,248.25862440404512,63.43351050098585
332,6.727289101028319,-238.87051196275834,-67.02041669390573,-61.82648020870957,-9.09330033023099,-7.28172687046585,248.20215662794308,63.95800418526504
333,6.626463205300626,-238.77519941058543,-67.15209682361237,-62.15215905066653,-10.149649267675164,-7.191184640765414,248.14314024019114,64.42202352631072
334,6.546474858263827,-238.67510409455645,-67.29126969758539,-62.43741423191458,-11.190730740229352,-7.101126085530168,248.08222139376616,64.83394793455162
335,6.488404665652064,-238.57117521119622,-67.43709466942067,-62.688639165430715,-12.21442949937668,-7.013119277970191,248.02012530068285,65.20215743740586
336,6.452990579918936,-238.46444565958532,-67.58872841818615,-62.911702621584865,-13.218760730352185,-6.928923274863944,247.95764834373205,65.53473275611546
337,6.440613367389101,-238.35601178072633,-67.74535487973465,-63.11175744854737,-14.20188447692988,-6.850464571903658,247.89564627560378,65.8391873839749
338,6.451288952401756,-238.24701029626428,-67.9062104283007,-63.29308130358496,-15.162122744145485,-6.7798095493022865,247.83501859640805,66.12223914091709
339,6.484667927213437,-238.13859289752227,-68.07060390604485,-63.458954526632084,-16.097977382533436,-6.719132792316974,247.7766894459112,66.38962618552254
340,6.540042521096261,-238.0318992059558,-68.23793157657472,-63.611578295445945,-17.00814629580213,-6.6706813475483075,247.7215857350737,66.64597012298533
341,6.616361324034715,-237.92802917202897,-68.40768736269172,-63.75203434013428,-17.89153523739152,-6.6367352044182395,247.6706136491404,66.89468672991873
342,6.712251934861126,-237.82801618059895,-68.5794687743825,-63.880285834604685,-18.747262503629628,-6.619564579435142,247.62463485480433,67.13794301562876
343,6.826051439212343,-237.7328020530076,-68.75297881262237,-63.99521771364278,-19.574654199872313,-6.621384898441454,247.58444362782075,67.37665795119642
344,6.955844256806738,-237.64321485512266,-68.92802406752546,-64.09471363203262,-20.37322842534909,-6.644310654042064,247.55074582013333,67.61054326045335
345,7.099506457784586,-237.55995016806273,-69.1045093884922,-64.17576605753446,-21.14266763033723,-6.690309506324419,247.52414037856153,67.83818013473321
346,7.254755234407424,-237.48355641918553,-69.28242980751199,-64.2346154966785,-21.882779426566984,-6.761158069369459,247.50510414762294,68.05712749590907
347,7.419201954560605,-237.41442490620784,-69.46186059376825,-64.26691449652165,-22.593447119762335,-6.858400785629551,247.49398077337278,68.2640573481191
348,7.590407115715075,-237.35278504684302,-69.6429462559458,-64.26791174839212,-23.274572061744873,-6.983313159499353,247.49097440837667,68.45491269489335
349,7.765935490878067,-237.29870511243803,-69.82588902879196,-64.2326512674901,-23.92601055976456,-7.136870450580981,247.4961485739696,68.62508337613654
350,7.943409817574882,-237.25209840878148,-70.0109370159043,-64.15618122299955,-24.547508577547138,-7.319722776147884,247.5094301495682,68.76959500219563
351,8.12056153391158,-237.21273458907598,-70.19837185211507,-64.03376660876712,-25.13863787709614,-7.532177454847788,247.53061810748662,68.88330600342083
352,8.295277208163586,-237.18025541133724,-70.38849559124169,-63.861099685105515,-25.698737592235005,-7.774189270564803,247.55939621204973,68.96110776586195
353,8.465639344266787,-237.15419379418609,-70.58161651765809,-63.6345020913252,-26.226865423023643,-8.045359054959002,247.59534845903218,68.99812294212263
354,8.629960243460593,-237.13399467707734,-70.77803367079049,-63.35111275488338,-26.721762583714032,-8.34494058038283,247.63797572090846,68.98989729122363
355,8.78680773000531,-237.11903611857431,-70.97802006523511,-63.00905614128968,-27.181836237262484,-8.671855343084834,247.6867120509732,68.93258072544096
356,8.935021883751858,-237.10864928002422,-71.18180494064913,-62.60758590596052,-27.605162377175528,-9.024714540451107,247.7409394141925,68.82309353612163
357,9.073722370263008,-237.10213636446872,-71.38955585284661,-62.14719958326595,-27.989511012761167,-9.401847452049882,247.80000016777143,68.65927400875081
358,9.202306360446105,-237.09878609925605,-71.6013618295312,-61.629720591263975,-28.332394162926594,-9.801335452978266,247.86320724118113,68.44000384867321
359,9.320437338928514,-237.0978868091057,-71.81721891662919,-61.058344561808305,-28.631135662175804,-10.221050890056333,247.92985244287559,68.16530805372074
360,9.428025424285039,-237.0987373680529,-72.03701915188836,-60.43764783352254,-28.88296022974351,-10.658699927014322,247.99921348120128,67.83642611380961
361,9.52520028005616,-237.10065630404546,-72.26054352293411,-59.77355688243121,-29.085097778443526,-11.111868188729009,248.07056015387838,67.4558517429386
362,9.612278241361217,-237.10298918584155,-72.48745910934221,-59.07327852105067,-29.234897721409798,-11.57806769411265,248.1431599412549,67.02733884191645
363,9.689725739145265,-237.10511431513373,-72.71732048140149,-58.3451918500529,-29.32994725398502,-12.054783328564975,248.2162831158521,66.55587212614903
364,9.758121308798007,-237.10644672540312,-72.94957541290337,-57.59870414023664,-29.368187332891345,-12.539517106025796,248.28920746028083,66.0476018404374
365,9.818118384689463,-237.1064405112675,-73.18357497477922,-56.84407398109083,-29.348020292053604,-13.029828710624496,248.36122270316378,65.50974314272489
366,9.870410793253173,-237.10458957344247,-73.4185881330245,-56.09220607765666,-29.268403583234658,-13.52337117342193,248.43163484542623,64.95044193649142
367,9.915702499197966,-237.10042698996966,-73.65382099607771,-55.354422946188805,-29.128924878879104,-14.01792089728619,248.49977066316112,64.37861004293924
368,9.954682825410563,-237.0935233702143,-73.88844063084338,-54.6422194269894,-28.92985466894074,-14.511401521787207,248.5649827371323,63.803733579480856
369,9.988008049969212,-237.08348461469166,-74.12160286868587,-53.967006420232366,-28.67217353007511,-15.001901338606492,248.62665526820948,63.23565928147716
370,10.016289914199286,-237.0699494652392,-74.35248301019539,-53.33985058879469,-28.357572426834963,-15.487684188365641,248.6842107383918,62.684364304414515
371,10.040091128542313,-237.05258717851814,-74.58030798395083,-52.77121696452642,-27.98842562791046,-15.967194004792908,248.7371173064375,62.159715736780825
372,10.0599274817823,-237.03109568358371,-74.80438823327296,-52.27072141964224,-27.567736984558746,-16.439053364710173,248.78489675137797,61.67122656160385
373,10.076275688708966,-237.00520066892847,-75.02414734362635,-51.84689980330629,-27.099061405249916,-16.902056504917987,248.8271327617888,61.22781509251888
374,10.089585669705068,-236.97465605775002,-75.23914731078649,-51.507000185958354,-26.586404426736788,-17.355157285810773,248.8634793288527,60.837575000555084
375,10.100295571223468,-236.93924614855467,-75.44910745054896,-51.2568041008383,-26.03410385344147,-17.797452539370685,248.89366883869317,60.50756295947436
376,10.108847577883806,-236.8987893496122,-75.6539151923963,-51.100481940919025,-25.446698421595446,-18.22816116390816,248.91751918490903,60.24361064877459
377,10.11570252018977,-236.85314310586435,-75.85362743230299,-51.04048680377017,-24.828789155294746,-18.646599277276867,248.9349390367132,60.05016732995956
378,10.121351478704762,-236.802209447226,-76.04846192652857,-51.077490147231075,-24.184899362776218,-19.0521517812596,248.94593049618427,59.93017846229213
379,10.126322984220037,-236.74594055901787,-76.23877934355795,-51.21036169353167,-23.51933904937902,-19.444240854391538,248.95058872316292,59.88500491279196
380,10.131184948576811,-236.68434382713085,-76.42505767743098,-51.43619510661992,-22.83607900034462,-19.82229217268449,248.9490985153421,59.91438630227959
381,10.13654105350949,-236.6174859252464,-76.60786140233743,-51.75037999008871,-22.138639060236287,-20.18570003122938,248.9417281715016,60.01645091465413
382,10.143021841660758,-236.54549565125856,-76.78780793931402,-52.14671959882993,-21.429994313338483,-20.53379295780924,248.9288211749471,60.18777332089206
383,10.15127105813678,-236.468565308942,-76.9655338482387,-52.61759226295276,-20.71250197393734,-20.86580179509857,248.91078627909823,60.423479365765466
384,10.161927907672954,-236.38695045909395,-77.14166286551573,-53.1541529326744,-19.987850829307114,-21.180832483025835,248.8880865163306,60.7173964395369
385,10.175606040782151,-236.3009679280109,-77.31677765485281,-53.746569601450275,-19.257034111841858,-21.477845820551252,248.86122763885834,61.06224511981273
386,10.192870423637327,-236.21099212985516,-77.49139690139857,-54.38428778892511,-18.52034581167293,-21.755646301358976,248.83074660166355,61.449866465380595
387,10.21421366101197,-236.11744995852575,-77.66595895742492,-55.056314868726226,-17.777399717680368,-22.01288171424734,248.79720077353502,61.871477584736475
388,10.240033570888333,-236.02081459745293,-77.840812575089,-55.75151492118858,-17.027169881277374,-22.24805459160506,248.7611584511938,62.3179466906892
389,10.27061373888979,-235.92159854417739,-78.01621458038544,-56.45890411892509,-16.268050721586558,-22.45954577188474,248.7231909860968,62.78007781320701
390,10.30610847246681,-235.82034601689332,-78.19233395415435,-57.16793654990841,-15.497934607134331,-22.64564932466814,248.68386657308815,63.248894800138366
391,10.34653311410522,-235.71762473456937,-78.36926172779592,-57.86877096211693,-14.714304404630346,-22.804616996785203,248.64374554159056,63.71591432425092
392,10.39176010371478,-235.61401679927866,-78.5470261184451,-58.55251024062655,-13.914338141520247,-22.934709439465486,248.60337671790734,64.17339847168411
393,10.441520559925157,-235.51010807759303,-78.72561214094978,-59.21140743866967,-13.095022592282339,-23.0342510141226,248.56329402463075,64.61457913473137
394,10.49541058244044,-235.40647522085413,-78.9049845212225,-59.83903465549863,-12.253272293784686,-23.101684998893393,248.52401208411743,65.03384869050267
395,10.552901086187951,-235.3036694383997,-79.08511231790328,-60.430413691300636,-11.38605024676907,-23.13562640280953,248.4860194202072,65.42691401106676
396,10.613349880207792,-235.2021964335084,-79.26599342929254,-60.98210994221321,-10.490486416121504,-23.134910179587948,248.44976805659311,65.79091342616873
397,10.676014958755717,-235.10249257467999,-79.44767715374381,-61.49229319269323,-9.563990182937523,-23.09863329159827,248.41565894768252,66.12449859917915
398,10.740068449370447,-235.00489835033676,-79.63028315587916,-61.96077059678113,-8.604353204108369,-23.02618968322079,248.3840236820093,66.4278851421356
399,10.80461104344678,-234.90963116904942,-79.81401554867742,-62.38899799175617,-7.609839727439739,-22.917297686638545,248.35510398991767,66.70287694680503
400,10.86868679729789,-234.81676021030225,-79.99917127498098,-62.780075559698936,-6.579262243867999,-22.772019712128813,248.32903135078848,66.95286945192629
401,10.931298048316503,-234.72618606647893,-80.18614245202181,-63.13873266686321,-5.512041318090772,-22.59077435895983,248.30580917677656,67.18283633448773
402,10.991420111985095,-234.63762745776702,-80.37541278170423,-63.47130461066128,-4.4082493826434845,-22.37434138266399,248.285299752772,67.39930252542288
403,11.048015516952681,-234.55061664012158,-80.56754859043244,-63.7857013558116,-3.268639069463976,-22.123860265692024,248.26721763776203,67.6103043148825
404,11.100047723787355,-234.46450445869232,-80.76318555349515,-64.0913656380065,-2.0946571652425994,-21.840823427730673,248.2511307667475,67.82533505416635
405,11.146494492657247,-234.37847534206685,-80.96301254134261,-64.39921554971828,-0.8884454434937273,-21.527065313224757,248.23647000320992,68.05527301269271
406,11.186361258155186,-234.2915718223362,-81.16775416514703,-64.72156528157096,0.3471705273928481,-21.184748599313064,248.22254727386976,68.31228664444511
407,11.218694864882426,-234.20272738710827,-81.37815347069868,-65.07201727756727,1.6087038571151855,-20.816348509209092,248.20858163995555,68.60971205213309
408,11.242597659467068,-234.11080574848916,-81.59495585958221,-65.46531969966418,2.8920397213026434,-20.424635775350207,248.1937318432694,68.96189788102316
409,11.257241363864097,-234.014644178883,-81.81889478112039,-65.91718468530115,4.192479501192242,-20.012658390917633,248.1771332568542,69.38401421042053
410,11.261879766522934,-233.91309851321083,-82.05067919486761,-66.44406523499006,5.5047954260585605,-19.58372211663949,248.15793693031435,69.89182412484539
411,11.255859327127697,-233.80508758478646,-82.29098243186625,-67.06289142768286,6.823295125848418,-19.141369809812712,248.1353484610957,70.50141930279763
412,11.238627198705837,-233.68963502210565,-82.5404320120319,-67.7907696949119,8.141895041228373,-18.68935988454001,248.108664570133,71.22892380222778
413,11.209736634100464,-233.56590644511328,-82.79960023902728,-68.64465172536039,9.454201185986843,-18.231644402165962,248.0773054730486,72.09017284591289
414,11.168850048007133,-233.4332402612622,-83.06899587948516,-69.6409819320736,10.753595324332851,-17.772347292340207,248.0408414635462,73.10037550344325
415,11.115740099034483,-233.2911705601588,-83.34905769880837,-70.79533414839659,12.033324153513083,-17.315743000931242,247.9990125630486,74.27377158427201
416,11.05028910750746,-233.13944106416346,-83.6401508703549,-72.12204928341711,13.286588589540873,-16.866235516546592,247.95174059896377,75.62329378676283
417,10.97248709436384,-232.97800967134876,-83.942567267001,-73.63388608215416,14.506629908001532,-16.428337322779107,247.89913361383432,77.16024626019099
418,10.88242886763802,-232.8070437210912,-84.25653042125252,-75.34169697172547,15.686809483241325,-16.00664743115622,247.84148300032558,78.8940103512467
419,10.780310848729696,-232.62690659080485,-84.58220547617235,-77.25414033213407,16.820679250818465,-15.605827333818372,247.7792540688513,80.83178755318562
420,10.66642845911766,-232.43813653224595,-84.91971374322551,-79.37743950668819,17.90204070712265,-15.230573522524034,247.7130708121488,82.9783886580647
421,10.541174704445469,-232.24141883693653,-85.26915069679403,-81.71519755086089,18.924991139503742,-14.885585178174383,247.64369553347103,85.33607690972318
422,10.40504022813796,-232.03755259353585,-85.63060561741364,-84.26827518377067,19.883956742873703,-14.575525740955968,247.5720039444639,87.90447161911628
423,10.258614797969367,-231.82741349090296,-86.00418081455105,-87.03473769939099,20.773713215334524,-14.304977305763556,247.49895640762924,90.68051724718526
424,10.102589993679093,-231.61191423519605,-86.39000845026023,-90.00987472344602,21.58939523050376,-14.078387148513249,247.4255661257299,93.6585213614237
425,9.937762685979575,-231.3919640816769,-86.78826337071901,-93.18629464139455,22.32649678701746,-13.900006189920596,247.35286513927278,96.83026308694846
426,9.765038669062259,-231.16842872870777,-87.1991708743698,-96.55409325173065,22.980864813066688,-13.773819828226332,247.28186892388902,100.18517166764293
427,9.585435566203223,-230.94209151609274,-87.6230088366865,-100.10109377308218,23.548688543443884,-13.703472260739405,247.21354025097244,103.71057256352721
428,9.400083991155359,-230.7136167146233,-88.06010398834992,-103.81315293321845,24.02648704703725,-13.692186081737836,247.14875295162534,107.39199628257859
429,9.210226022997022,-230.48351579168926,-88.51082241438263,-107.67452574787892,24.41109683756073,-13.74267949514866,247.08825640884373,111.21354310082401
430,9.017210306596107,-230.25211776685703,-88.97555455477153,-111.66827996275717,24.69966082180192,-13.857083840521252,247.03264189734458,115.1582951666554
431,8.822483377261376,-230.01954487786284,-89.45469521688571,-115.77675005163825,24.889619075103397,-14.036864307198439,246.98231207945722,119.20876631595458
432,8.627577019694682,-229.7856946107733,-89.94861943252123,-119.9820200863003,24.9787011890882,-14.282746777885043,246.9374549320937,123.34737923140173
433,8.434091606743342,-229.55022875149885,-90.45765537015039,-124.2664246090728,24.964919246795752,-14.594653746606017,246.89802314976941,127.55695927258061
434,8.243675465047271,-229.31256960625154,-90.9820558022836,-128.61305671338678,24.846559903566927,-14.971652179392342,246.86371969903593,131.8212342641731
435,8.058000415475375,-229.0719030091693,-91.52196978360327,-133.00627273686723,24.622173728283062,-15.411915988384786,246.8339897621094,136.1253296498873
436,7.878733759842665,-228.82718729714804,-92.07741629163169,-137.43218318975667,24.290560035747678,-15.912705439438035,246.8080189337945,140.45624862182837
437,7.707507172453187,-228.57716721809572,-92.6482615904035,-141.87911973684206,23.850745945453742,-16.470365288126104,246.78473734203928,144.80332707986582
438,7.545883275009782,-228.32039180177958,-93.23420187837135,-146.33806827325867,23.30195921799091,-17.080342757786962,246.76282935631488,149.15865358786166
439,7.395321148135613,-228.05523550010986,-93.83475240558143,-150.80305850665422,22.64359537876641,-17.73722574340017,246.74074868343212,153.51744496890828
440,7.2571425111033605,-227.77992229171525,-94.44924386136917,-155.27150110836203,21.875180587042586,-18.434801025850234,246.71673888563743,157.87836893439925
441,7.1325004962890945,-227.49255281951082,-95.07682648086622,-159.74446448324653,20.99633248263688,-19.166131934169353,246.68885957870464,162.24380621586755
442,7.0223526894008605,-227.19113484653133,-95.71648184660773,-164.22688446720284,20.006721664674266,-19.9236547321836,246.6550185864419,166.6200459691845
443,6.9274395378608356,-226.8736173071661,-96.36704171353605,-168.7277016098074,18.906036433826376,-20.699292815999065,246.61301006676143,171.017409536458
444,6.84826864939315,-226.53792805788927,-97.02721260379973,-173.2599219388951,17.693953035330214,-21.48458740710164,246.56055823917717,175.4502987836411
445,6.785105085428952,-226.18201517474913,-97.6956046988136,-177.8405981497762,16.370113066475398,-22.27084277499817,246.49536602236842,179.93716612567283
446,6.737967458680444,-225.8038913213496,-98.37076368675012,-182.4907290696933,14.93410914957063,-23.049283212236016,246.41516763904298,184.5004040969967
447,6.706629387493171,-225.40168033867585,-99.05120444822123,-187.23507611988583,13.385479521851588,-23.811218177356746,246.31778398094883,189.1661530549458
448,6.690625660541513,-224.97366486879133,-99.73544558939587,-192.10189639206297,11.723711852259937,-24.548211408605475,246.20117925433652,193.96402639577195
449,6.689262378493974,-224.51833360082293,-100.42204383503116,-197.12259289465297,9.948256294715303,-25.25224953841377,246.0635172150591,198.92675354968625
450,6.701630355551737,-224.03442663397473,-101.10962728025305,-202.33128354262485,8.058547486803443,-25.915905845509837,245.90321520919943,204.089742038306
451,6.726621143538719,-223.5209774740281,-101.79692661902014,-207.76429161446168,6.054034942698848,-26.532495197570803,245.71899430530647,209.4905610698068
452,6.762945149364334,-222.97735031771768,-102.48280371759482,-213.45956171464405,3.934221150540451,-27.09621683055689,245.50992403502124,215.16835053478
453,6.809151409486358,-222.40327150102937,-103.16627707605038,-219.4560067802611,1.6987066837338378,-27.60228226392818,245.27546053313483,221.16316085465775
454,6.863648639709036,-221.7988542078331,-103.84654366637696,-225.7927933801238,-0.652758328437987,-28.047026299298164,245.01547704549165,227.51523093500427
455,6.924727218538389,-221.1646157256096,-104.52299645814544,-232.50857446541946,-3.1202171304957638,-28.427999639005566,244.73028587247848,234.26421346692803
456,6.990581830272909,-220.5014867831238,-105.19523684701694,-239.64068077572827,-5.703444825620043,-28.74404211298488,244.42065100206662,241.4483589231224
457,7.059334618744214,-219.81081287653637,-105.86308125913536,-247.22428421517435,-8.401884268539966,-28.995335767840146,244.087791049178,249.10367173804872
458,7.129058850149429,-219.09434790122833,-106.52656138142129,-255.29154865970867,-11.214582082167395,-29.183437176770173,243.73337256688836,257.26305431871583
459,7.197803143843976,-218.35424069689083,-107.18591773297612,-263.87078576931117,-14.140128350630189,-29.31128835685026,243.3594941704042,265.9554566446574
460,7.26361622939525,-217.59301516440615,-107.84158658589216,-272.985635280116,-17.176604169060337,-29.38320574047736,242.96866208250202,275.20505111349655
461,7.324572000626854,-216.8135443878429,-108.49418045446276,-282.65429071471635,-20.321541433481745,-29.404846824762785,242.56375759164038,285.03045374505353
462,7.378794502281555,-216.01901878697612,-109.14446246192033,-292.88879231546906,-23.571898793776448,-29.383154401331822,242.14799658402933,295.4440136975459
463,7.42448244682463,-215.21290796467045,-109.79331497821634,-303.69440920798087,-26.92405644864582,-29.326278519946985,241.72488102623814,306.45119318086455
464,7.4599328894551284,-214.3989158484511,-110.44170315686812,-315.06913228310736,-30.373830561397355,-29.243476422749314,241.29814232506058,318.05005920166184
465,7.483563816896084,-213.58092906347096,-111.09063442437427,-327.0032979262071,-33.91650586425633,-29.144990599567237,240.8716769894293,330.2309070366994
466,7.493935691380236,-212.76295908649556,-111.74111548994068,-339.4793603776272,-37.54688289731062,-29.041905024683096,240.44947580659868,342.97603279992757
467,7.489772390042274,-211.9490793553367,-112.39410885984056,-352.47182712493833,-41.25933458917117,-28.94597973555836,240.03554850245814,356.2596689342793
468,7.469982310026711,-211.14335898783352,-113.05049099496334,-365.94736739839306,-45.04786566118099,-28.869464263744792,239.6338463624806,370.04809203762267
469,7.4336804811338135,-210.34979510930134,-113.71101415503087,-379.86509875159123,-48.90616766135821,-28.824890933057752,239.24818555467178,384.2999073130293
470,7.380212286813677,-209.5722460149741,-114.37627381640924,-394.17705106442133,-52.827662341562835,-28.824849572015292,238.88217401937885,398.9665083236296
471,7.309178940388236,-208.8143674468865,-115.04668342276221,-408.8288013225365,-56.8055266538781,-28.881745700988798,238.5391447655939,413.99270486389076
472,7.220464337756029,-208.0795540897833,-115.72245797172779,-423.76026647811494,-60.83269394615426,-29.00754477295889,238.22209812217497,429.3175059253992
473,7.114262399075078,-207.37088800555836,-116.40360738263946,-438.90663593015637,-64.90182798238537,-29.213505567000954,237.93365487180594,444.8750392907572
474,6.991103570553393,-206.691095230429,-117.08993976808252,-454.19942008343526,-69.00526899190335,-29.509906297716576,237.67602135283857,460.5955846031439
475,6.851878822397871,-206.0425113184383,-117.78107383377838,-469.5675874618336,-73.1349536290079,-29.90576737283089,237.45096678434584,476.4066931673131
476,6.697859275860801,-205.4270563337112,-118.47645886398881,-484.9387603035181,-77.2823129959403,-30.408575051518365,237.25981244571167,492.2343654997259
477,6.5307095879888735,-204.84621959327086,-119.17540027328307,-500.2404376111471,-81.43815438400111,-31.02401062739132,237.1034319361588,508.0042568670255
478,6.352493526408425,-204.30105420630446,-119.87708856238885,-515.4012151627911,-85.59253302343812,-31.755690229835867,236.98226145767802,523.6428816145614
479,6.165670760633835,-203.79218115061306,-120.58062961736397,-530.3519736626924,-89.73462004587103,-32.604920830340454,236.89631886790033,539.0787886655991
480,5.97308454647415,-203.31980234269145,-121.28507450640866,-545.0270085591769,-93.8525723311231,-33.570478406622435,236.84523012725074,554.2436827402389
481,5.777940421579935,-202.8837218653861,-121.98944719269673,-559.3650776479878,-97.93340925577164,-34.64841435618058,236.8282616541969,569.0734682190388
482,5.583776184614444,-202.48337417365903,-122.69276895840079,-573.3103451826686,-101.96290088171304,-35.831896182742405,236.84435699966173,583.5091949826493
483,5.394423393779026,-202.11785779857067,-123.39407892255973,-586.8132038910551,-105.92547199973103,-37.11108830336431,236.8921762918198,597.4978880938378
484,5.2139605210902635,-201.78597295018528,-124.09245074494225,-599.8309593037479,-109.80412665848507,-38.47307863769749,236.97013716088748,610.9932461099888
485,5.046657814273729,-201.48626146521914,-124.78700615849863,-612.3283643439945,-113.58039818366602,-39.90185649414743,237.07645617090546,623.9561963035287
486,4.8969138538149855,-201.21704760025264,-125.47692618518366,-624.2779961748319,-117.23433002289383,-41.378347145234216,237.20918993633506,636.3552990601953
487,4.769183706947033,-200.97647814813607,-126.161460867655,-635.6604715697083,-120.7444929325356,-42.88050829997725,237.36627506377124,648.1669979267189
488,4.667898480037127,-200.76256033545866,-126.83993832183198,-646.4645011966248,-124.08804404984663,-44.38349329856758,237.54556602203692,659.3757158210651
489,4.597376064293761,-200.57319608660356,-127.5117739752157,-656.6867868876044,-127.24083329945667,-45.85988512040683,237.74487017910027,669.9738015094698
490,4.561723087195541,-200.4062115624233,-128.1764808930769,-666.3317690536797,-130.17756235500948,-47.28000406144616,237.9619795358878,679.9613334386636
491,4.564728584441495,-200.25938132491535,-128.8336819757029,-675.4112338625058,-132.87200089867807,-48.61229010076831,238.19469900386122,689.345790327489
492,4.6097506581226995,-200.13044693630653,-129.48312452533034,-683.9437916609838,-135.29726398134065,-49.82375856224668,238.4408713189888,698.1415995734781
493,4.699598252540789,-200.01713018296272,-130.12469726749765,-691.954239568125,-137.4261526976685,-50.88052485765709,238.69839879966273,706.3695756602123
494,4.8364109994436,-199.917141368962,-130.7584493753889,-699.4728225325048,-139.2315581319665,-51.748391131686006,238.96526209451156,714.0562617143023
495,5.021540806739307,-199.82818328021574,-131.38461044896596,-706.5344088385892,-140.68692574537263,-52.393484755086725,239.23953588432556,721.2331885834437
496,5.255439555788643,-199.74795156369134,-132.00360990365974,-713.1775982371515,-141.76677425428244,-52.78293599191726,239.51940136210365,727.9360675093958
497,5.537557936128075,-199.67413241377778,-132.6160939703187,-719.44378340397,-142.44725977589943,-52.88557992204322,239.80315530976577,734.2039345305245
498,5.866260900693739,-199.60439852611393,-133.2229384915709,-725.3761878707791,-142.70677280844328,-52.672665963774996,240.08921564186355,740.0782667937133
499,6.238765242420585,-199.53640422437527,-133.82525579005906,-731.018905396158,-142.52655276857757,-52.118557241348086,240.37612328307978,745.6020925267171
500,6.651104302022781,-199.46778055200835,-134.42439401901225,-736.4159664959807,-141.89130267104494,-51.20140164713618,240.6625402074474,750.8191171351143
501,7.098123887369441,-199.3961310140121,-135.0219276686442,-741.6104572698307,-140.78978540214328,-49.90375674842151,240.9472434980987,755.7728875320629
502,7.5735122133649835,-199.319028537337,-135.6196383361691,-746.6437136857816,-139.21538305090172,-48.21315159490352,241.22911540094012,760.5060153400209
503,8.069865165201069,-199.2340140357303,-136.2194853434183,-751.554611253893,-137.1666018264289,-46.12256982720198,241.50712942616488,765.0594771074583
504,8.5787866004946,-199.13859669112358,-136.82356620368344,-756.3789658659111,-134.64750688376103,-43.63084006207029,241.78033252286926,769.4720063954288
505,9.091021892321931,-199.03025575454794,-137.43406742413694,-761.1490570058642,-131.66807348147734,-40.742921204616344,242.04782333320634,773.7795888879829
506,9.5966215623647,-198.9064434404741,-138.05320684818497,-765.8932800541027,-128.2444429723109,-37.47007211625653,242.30872671412956,778.0150679844027
507,10.085130672901785,-198.76458842335566,-138.6831696365992,-770.6359303795474,-124.39907404906141,-33.82989703022201,242.56216513455266,782.2078649599933
508,10.545798629382368,-198.6020995626555,-139.32604082895676,-775.3971184857825,-120.16078146454147,-29.84626033387522,242.80722810038415,786.3838148746945
509,10.967803246738201,-198.4163697846906,-139.9837380019394,-780.1928125576745,-115.56465622833215,-25.549066893383163,243.0429413118993,790.5651168911725
510,11.340482499371399,-198.2047805141153,-140.65794770091483,-785.0350020441729,-110.65186317858289,-20.973907029900456,243.26823772263458,794.7703952544691
511,11.65356743413064,-197.964707569717,-141.35006903099853,-789.9319729895655,-105.46931394487339,-16.161568584187542,243.48193294719485,799.0148644822934
512,11.897410243923977,-197.69352984810732,-142.06116722234978,-794.8886823737338,-100.06921576128005,-11.157422186419893,243.682707513759,803.3105890171238
513,12.063202282410778,-197.38864225876392,-142.79193939123354,-799.9072147833245,-94.50849943535911,-6.010689736807493,243.8690982879713,807.6668237443794
514,12.143177598024522,-197.04747417792427,-143.5426941738005,-804.9873007783522,-88.84813302819664,-0.773609950085631,244.03950098187815,812.0904178417605
515,12.130798178370732,-196.6675142310698,-144.31334630394528,-810.1268730458667,-83.15233133627957,4.499481670600494,244.1921849918122,816.5862610734195
516,12.020917461283297,-196.24634166926475,-145.10342651679272,-815.3226344804468,-77.48767487943361,9.75313813450336,244.32532100832813,821.1577494934985
517,11.809918892065618,-195.78166412594305,-145.9121064501875,-820.5706120371564,-71.92215556686511,14.931829030336422,244.43702107441464,825.8072469070341
518,11.495826560866915,-195.27136119155773,-146.73823745561907,-825.8666715113039,-66.5241693495192,19.980987370341253,244.52539007442425,830.5365193113481
519,11.078385319656121,-194.71353303252175,-147.58040140111336,-831.2069709401185,-61.36147877793222,24.84805042010102,244.58858701652653,835.3471215616412
520,10.559108214483883,-194.10655318675123,-148.4369708535889,-836.5883336406271,-56.50017019773051,29.483469559898666,244.62489402562292,840.2407182389958
521,9.941289552808005,-193.44912461300456,-149.3061756911992,-842.0085256875122,-52.00363102305075,33.84166471564541,244.63279075879325,845.2193238602326
522,9.229982526710478,-192.74033794267433,-150.18617315044884,-847.4664267541508,-47.93157192282726,37.881900100220726,244.61103186239234,850.2854510474128
523,8.431941086798693,-191.9797306323018,-151.07511831984988,-852.9620875929999,-44.339116815783235,41.56905995751671,244.5587249294438,855.442159016976
524,7.555526669627084,-191.1673453995124,-151.97123212266115,-858.496671930077,-41.27598048626185,44.8743056504825,244.47540621611708,860.6929987127273
525,6.610581351152048,-190.30378601763664,-152.87286411364136,-864.0722851965611,-38.78574975144616,47.775598589289224,244.36111133298462,866.0418551329038
526,5.608269949826393,-189.39026823473029,-153.77854808893338,-869.6916974363705,-36.90527978208774,50.25807686932084,244.21643831617789,871.4926920235565
527,4.560894398263917,-188.42866322708792,-154.6870494383117,-875.3579729767979,-35.66421260906082,52.31427685406823,244.04260078136372,877.0492091928295
528,3.4816842340524947,-187.42153066499372,-155.59740413742804,-881.0740247617262,-35.08462010760926,53.94419424665401,243.8414691830664,882.7144279689084
529,2.384567406581109,-186.37213833739398,-156.50895013357083,-886.8421159073046,-35.1807689196102,55.15518253629533,243.61559858889834,888.490225057593
530,1.2839259407702899,-185.2844654681265,-157.4213524391603,-892.6633341602775,-35.9590000734057,55.961690177221584,243.36824181384725,894.376838361648
531,0.19434138348375504,-184.16318732565227,-158.33462330550483,-898.5370659778325,-37.41771191353493,56.384841451856175,243.10334709001785,900.3723696540837
532,-0.8696647513022523,-183.01363934913053,-159.24913835144852,-904.4604960468058,-39.54743194727229,56.45186959657547,242.82553953399733,906.4723084841207
533,-1.8938902394312214,-181.84175964138726,-160.16564858903675,-910.4281559169968,-42.33096194445187,56.19541436001926,242.5400854798556,912.6691000312125
534,-2.8647058940510504,-180.65400926913446,-161.08528712388713,-916.4315428224539,-45.743581449911346,55.652699716113204,242.25283836577574,918.9517775913005
535,-3.7692987588205074,-179.4572704796266,-162.0095682143164,-922.4588271815079,-49.753297727797914,54.86461092485623,241.9701645839912,925.3056784403899
536,-4.59589990879875,-178.25872386018224,-162.9403757104465,-928.4946647922055,-54.32113455967994,53.87469334953992,241.698847892836,931.7122600218696
537,-5.333992247294254,-177.06570668650053,-163.8799378396954,-934.5201271986881,-59.40145745075131,52.72809810745237,241.4459718048778,938.1490315008093
538,-5.97449390550704,-175.88555611554023,-164.83078577450405,-940.5127607878799,-64.9423377284225,51.47050143045148,241.21878067164667,944.5896133327547
539,-6.509913112182407,-174.7254422834739,-165.7956943246052,-946.4467815648707,-70.88596189882271,50.14702530383377,241.02452178946126,951.0039342164234
540,-6.93447086556596,-173.59219760171337,-166.77760449294834,-952.2934079901237,-77.16909485104141,48.80118647965303,240.87027267637407,957.3585703363401
541,-7.244188542610174,-172.49214946083933,-167.77952948134742,-958.0213285456863,-83.7236057828469,47.47389948151243,240.76275959443245,963.6172259470231
542,-7.436938628755927,-171.4309639485012,-168.80444769938939,-963.5972937311947,-90.47706408809223,46.20255704472249,240.70817504241603,969.7413470238886
543,-7.512457771142221,-170.41350786273753,-169.85518797415082,-968.9868141351981,-97.35340909269969,45.020208891324536,240.71200286653288,975.6908510988987
544,-7.472322174988415,-169.44373524235797,-170.9343131853688,-974.1549377278825,-104.27369273903837,43.954857008377125,240.7788596116627,981.424947184861
545,-7.319886053578828,-168.52460301126933,-172.04400885622852,-979.0670717417281,-111.15688858283745,43.028882699434185,240.91235981344875,986.9030110740697
546,-7.060184595852279,-167.65801834006172,-173.18598280820086,-983.6898088131907,-117.92075462147412,42.25861757029995,241.11501125071825,992.0854747124292
547,-6.699803832947658,-166.84481816896198,-174.36138089010606,-987.991714547495,-124.4827326203799,41.654067304904586,241.38814391668353,996.9346850058503
548,-6.2467207913438845,-166.08477931027463,-175.57072213870643,-991.944034920842,-130.76086377468204,41.21879369659529,241.73187391525238,1001.4156880198545
549,-5.710118248138026,-165.3766559490112,-176.81385477865814,-995.5212870384178,-136.6747003804275,40.9499570786123,242.14510102530014,1005.4968992866625
550,-5.100179171199895,-164.71824026383067,-178.08993266349253,-998.7017053525046,-142.14619583311173,40.83851815355853,242.62553666292257,1009.1506295355808
551,-4.427866559065924,-164.10644120336076,-179.39741054920594,-1001.4675266744365,-147.1005603506118,40.869595277664786,243.16975766674398,1012.3534467789644
552,-3.704694865149198,-163.53737614843422,-180.73405610088543,-1003.8051099870364,-151.46707649003534,41.02297047522694,243.77328079979003,1015.0863690462293
553,-2.942499373222248,-163.00647033934018,-182.09697645668018,-1005.7048998265135,-155.17987559922048,41.27373479312349,244.43065292707138,1017.3348956690036
554,-2.153209714898994,-162.5085595672537,-183.48265711750474,-1007.1612534998284,-158.17868250576115,41.59306101240196,245.1355522154038,1019.0888973523976
555,-1.348633233319088,-162.03799263117904,-184.8870107864075,-1008.1721613769474,-160.40953984309485,41.94908914123617,245.8808962738451,1020.3423948957405
556,-0.5402531621487283,-161.58873125944152,-186.30543374093685,-1008.7388949722103,-161.82552457927937,42.30790735901931,246.65895392825595,1021.0932622424374
557,0.26095436378509085,-161.15444631478317,-187.7328676050294,-1008.865619109424,-162.38746700488835,42.634607947221745,247.4614582829519,1021.3428910532753
558,1.0446815306802322,-160.7286099261442,-189.16386500618046,-1008.5590024671203,-162.06467656832015,42.894394123248034,248.27971973058655,1021.0958514957804
559,1.8014263988156436,-160.30458374194473,-190.5926583298341,-1007.8278559599266,-160.83567015823263,43.05370973035632,249.10473847380962,1020.3595782330443
560,2.5226057383344527,-159.87570398756574,-192.01323127680635,-1006.6828214032421,-158.688888131826,43.081359792627055,249.92731680319685,1019.1441025370676
561,3.2006427893251708,-159.43536454594954,-193.41939299947427,-1005.1361241803502,-155.62337340158368,42.94958651676484,250.73817176780267,1017.4618417416505
562,3.829030184445832,-158.9770997071076,-194.8048544108915,-1003.2013936817492,-151.6493809161872,42.63506297269995,251.5280490094359,1015.3274466233461
563,4.4023687342765685,-158.4946682665656,-196.16330621889514,-1000.8935450331626,-146.78888000527917,42.11976591019837,252.28783852390924,1012.7576968275196
564,4.916382970102906,-157.98214018138893,-197.4884985350482,-998.2287064866617,-141.07591062379038,41.39169028078604,253.00869303914084,1009.7714255874735
565,5.367914236153138,-157.43398614185287,-198.77432241596722,-995.2241703632784,-134.55675617249625,40.44537119322312,253.6821495418057,1006.3894491834891
566,5.754891885976854,-156.84516934826212,-200.01489419482846,-991.8983426651772,-127.28989952575277,39.28218436523109,254.3002541819989,1002.6344747738026
567,6.076283002347061,-156.21123757258295,-201.20464382395082,-988.2706675565971,-119.34573433023859,37.91040372200602,254.85569029379434,998.5309623894124
568,6.332021197391296,-155.528412327041,-202.33840853030887,-984.3615070742397,-110.80600995258717,36.34500447107094,255.34190853697686,994.1049221351177
569,6.522915547507339,-154.79367085829887,-203.4115326565217,-980.1919624444877,-101.7629954713517,34.6072112029539,255.7532571390535,989.383634689657
570,6.650541598460502,-154.00481598686073,-204.41997347973523,-975.7836301808305,-92.31835608059576,32.72380246811811,256.0851089418877,984.3952909490829
571,6.717117552380725,-153.16052869855858,-205.3604111860045,-971.1582931185131,-82.58174472770463,30.726194959822863,256.3339806341696,979.1685545264717
572,6.725370014975821,-152.26039895272646,-206.23035936417637,-966.3375534554856,-72.66912319097257,28.649341183640495,256.497638487455,973.7320585581925
573,6.678394790000549,-151.30493143982812,-207.02827076146048,-961.3424213773516,-62.70083997399801,26.530483851686178,256.5751844311846,968.1138554979578
574,6.579518908698345,-150.29552492425657,-207.75363188276108,-956.1928783429098,-52.79950635861791,24.40781787221862,256.567116557638,962.3408445757404
575,6.4321701883691995,-149.23442598510618,-208.40703939866785,-950.907437899275,-43.08772507658199,22.319116400135616,256.4753589787593,956.4382054985012
576,6.23976018210366,-148.12465990091627,-208.99025125984187,-945.5027285283658,-33.68573662201392,20.300380617339105,256.3032570556744,950.4288681981883
577,6.005585712910634,-146.96994284720188,-209.50620598401775,-939.9931224613616,-24.709055062789734,18.384573337629483,256.0555353084875,944.333046939917
578,5.732753504063671,-145.7745805330542,-209.95900494389215,-934.3904319508616,-16.266168042378574,16.600493841765907,255.73821696289215,938.1678633168727
579,5.424131631373659,-144.54335888642936,-210.3538547047336,-928.7036906554024,-8.456375047985127,14.971845388211594,255.35850616812704,931.9470772574117
580,5.082330381402003,-143.28143225576335,-210.69696934632438,-922.9390330329875,-1.3678349066900004,13.516537756427287,254.92463619152122,925.6809388106693
581,4.709713494523808,-141.99421384791398,-210.99543581168794,-917.0996792323695,4.924111443759999,12.246255449130615,254.4456890073301,919.3761665847538
582,4.308438838582102,-140.68727203890697,-211.2570481396382,-911.1860269770883,10.358283708801265,11.166308556244193,253.9313933809516,913.0360514627531
583,3.880525542305587,-139.36623502637093,-211.4901185364652,-905.1958453786763,14.888621106160258,10.275768587132562,253.3919095963348,906.6606767391003
584,3.4279427083826506,-138.03670516127656,-211.70327438857694,-899.1245587123118,18.484721907148902,9.567876583669383,252.83760925472154,900.247238427057
585,2.9527131505853212,-136.70418328765552,-211.90525053509964,-892.9656015305135,21.131946772779486,9.030696346039777,252.2788581510012,893.7904428431915
586,2.4570243200701993,-135.37400257068305,-212.10468564029918,-886.7108210168168,22.83109111230748,8.647972613070921,251.7258093249695,887.2829535728702
587,1.94333791170741,-134.05127055378065,-212.30993058519766,-880.3508992076407,23.597654894822035,8.40014362699035,251.1882121739481,880.7158574046205
588,1.4144896828375977,-132.7408175295033,-212.52887555818558,-873.8757673097692,23.460759625496763,8.26545063489433,250.67524208909037,874.0791192288295
589,0.8737716826143043,-131.4471488529133,-212.76880096708305,-867.2749868319609,22.461778968044953,8.22108408103713,250.1953535020763,867.3619990633081
590,0.3249901919015244,-130.17439879431547,-213.03625545783498,-860.5380770034049,20.65276025832811,8.244307497796175,249.7561576522326,860.5534096033169
591,-0.22750589512816582,-128.92628409896702,-213.33696241041233,-853.6547740154601,18.094718587543795,8.313504883404091,249.36432507130525,853.6421990861215
592,-0.7788297696007296,-127.70605651070254,-213.67575458586376,-846.615214168539,14.855883759735232,8.409104921362982,249.02551193565313,846.6173510704904
593,-1.3235960034730871,-126.51645475458261,-214.05653533001845,-839.4100396315761,11.009974188015484,8.514345060829234,248.74430902725865,839.4680996411018
594,-1.8559938749630218,-125.3596574997132,-214.48226392876333,-832.0304321710375,6.634561699653835,8.61584963338377,248.52421190088265,832.1839655534603
595,-2.369892221478858,-124.23723951778898,-214.95496222420908,-824.4680867523759,1.8095781903402148,8.704008149064506,248.3676107958084,824.7547258250211
596,-2.8589716784722987,-123.1501336451166,-215.47573925715005,-816.7151428012066,-3.3840000454474333,8.773151840437219,248.27579872053371,817.1703356760738
597,-3.31687884141119,-122.09860128017023,-216.04483042908853,-808.7640952191454,-8.865270741275019,8.8215375021449,248.24899594343722,809.4208265700553
598,-3.737395843943576,-121.0822140562811,-216.66164759113963,-800.6077091670332,-14.554323520461953,8.851156970351887,248.2863889741697,801.4962065242628
599,-4.114618089754383,-120.09984909693209,-217.32483674429744,-792.238961909893,-20.372968752388275,8.867397749074295,248.38618221861222,793.3863885479292
600,-4.443132509220629,-119.14969989098776,-218.0323407213237,-783.6510321177776,-26.24530122677892,8.878585104962294,248.54566088379508,785.081170416122
601,-4.718188796487748,-118.2293041846671,-218.78146516455482,-774.837352824659,-32.09813124343777,8.895438400085837,248.7612642104364,776.5702848652271
602,-4.9358565024633805,-117.33558927633649,-219.568947033578,-765.7917396225126,-37.861320602585565,8.930474721129533,249.02866842672287,767.8435345540224
603,-5.093161408330794,-116.46493390835036,-220.39102547218775,-756.508601034134,-43.46806199878759,8.99739140919828,249.34287877199898,758.8910212112661
604,-5.188195231449016,-115.61324500244842,-221.24351502023185,-746.9832331864667,-48.855137866214555,9.110456363297244,249.69832963282636,749.7034731274202
605,-5.220193627696861,-114.7760470679689,-222.1218810487646,-737.2121952938683,-53.96318954269908,9.28393133144855,250.08899156214852,740.2726689652103
606,-5.189578918505501,-113.94858215221873,-223.02131713874465,-727.193755547356,-58.737020645103826,9.531549043074847,250.50848387462872,730.5919482744597
607,-5.097965985806356,-113.12591838067142,-223.93682387645444,-716.9283889130019,-63.12595062690273,9.866060200929695,250.95019144236147,720.6567902449069
608,-4.948131975414985,-112.30306509981939,-224.86328805907578,-706.4193000250667,-67.08422620676116,10.29886135279405,251.40738394983015,710.4654330899351
609,-4.743952368037731,-111.47509220992234,-225.79556064507418,-695.6729373795,-70.57149000624705,10.839709855144397,251.87333515302058,700.0194985994201
610,-4.490307409188994,-110.63725057713219,-226.7285311915239,-684.699461024539,-73.55329739273829,11.496527754503896,252.3414388889589,689.3245814720437
611,-4.192963911853881,-109.78508975331593,-227.65719621195703,-673.5131259869635,-76.0016642287748,12.275292425273157,252.80531803615202,678.3907621250246
612,-3.858438170036534,-108.91456888999268,-228.57671892880717,-662.1325479057662,-77.89562019622902,13.180008033354664,253.25892252454733,667.2330049467015
613,-3.493846133647839,-108.02215683711951,-229.48247824210065,-650.5808250186268,-79.22173511681702,14.212748291026365,253.69661285662744,655.8714107070723
614,-3.1067470593549706,-107.1049178818254,-230.37010535362467,-638.8855004964367,-79.9745800638236,15.37375780376429,254.11322635847455,644.3313009046282
615,-2.704986610718367,-106.16058015868313,-231.23550735138187,-627.0783598378084,-80.15708207608529,16.661597096688492,254.5041244046176,632.6431220375957
616,-2.2965448523801486,-105.1875842803538,-232.07487806864683,-615.195068545416,-79.7807318936366,18.07331564192448,254.86521998586605,620.8421682405886
617,-1.8893937003941144,-104.18511027264557,-232.88469752266508,-603.2746647402964,-78.86560887269975,19.604638119062784,255.1929861008798,608.9681307044527
618,-1.4913671697326703,-103.15308160601843,-233.66172214164646,-591.3589289777585,-77.44019603027827,21.2501515753851,255.4844465539662,597.0644911207423
619,-1.110046400331451,-102.0921459900969,-234.40296881199853,-579.4916588098306,-75.5409703705696,23.0034846556729,255.73715183666877,585.1777835287338
620,-0.752660173926726,-101.00363355072874,-235.10569641855764,-567.7178785142086,-73.2117681644389,24.857474080413677,255.94914372788398,573.3567541556524
621,-0.4260005683024916,-99.88949406168362,-235.76738878296942,-556.0830150945309,-70.5029401817871,26.80431747094959,256.1189128688159,561.6514520630049
622,-0.13635256831737,-98.75221611171655,-236.38574256644614,-544.6320703609443,-67.47032616995618,28.835714800021087,256.2453537307764,550.11228447775
623,0.1105640992534885,-97.59473232617918,-236.9586628416057,-533.4088157312032,-64.17408929895763,30.943002607208857,256.32772108963314,538.7890693427759
624,0.3096428850926148,-96.4203157258256,-237.4842679112615,-522.4550315510818,-60.677458548406086,33.117285405446985,256.3655914617643,527.7301138474711
625,0.45643004022611533,-95.23247275463426,-237.9609038725878,-511.80980672433327,-57.0454295746522,35.34956755889571,256.3588321321758,516.9813419752995
626,0.5471577000581852,-94.03483841511024,-238.38716855646862,-501.5089081355464,-53.343472619561204,37.63088669087798,256.3075795575803,506.5854874146724
627,0.5787719338500189,-92.83107840944056,-238.7619437736843,-491.58422387328125,-49.63629006797689,39.952446768390814,256.21222806286875,496.5813618242356
628,0.5489569578642919,-91.62480232062111,-239.08443416011545,-482.0632806913145,-45.98665722676872,42.30574583797729,256.07342881881976,487.0032036846371
629,0.45615630332758983,-90.4194908167351,-239.35421029035425,-472.9688350329502,-42.454369098190405,44.68269056458798,255.8920981086651,477.88011054762626
630,0.29959121371738845,-89.21843875419933,-239.57125319192767,-464.3185380087414,-39.09530503068962,47.075688016444964,255.66943297531847,469.23555732742443
631,0.0792759784508698,-88.0247149958916,-239.73599707484203,-456.12467699870547,-35.960613802489114,49.47770517131703,255.40693165291972,461.0870045791848
632,-0.20397062495186752,-86.84113883399566,-239.8493670909213,-448.39399891264213,-33.09601504881184,51.882288495718136,255.1064158475942,453.4456024455087
633,-0.5485190372532472,-85.6702721634237,-239.91280925059726,-441.12762179919474,-30.54120934603036,54.283539166177796,254.77005195608373,446.31599734531426
634,-0.9519293083071523,-84.51442597356201,-239.92831019752128,-434.32104215831663,-28.3293884442416,56.67604331576252,254.40036864044342,439.69624917816475
635,-1.410959827774265,-83.37567927141914,-239.89840534749607,-427.96424495273385,-26.486838457862053,59.054760540941906,254.0002687720493,433.57786670291125
636,-1.921586010261164,-82.25590819812285,-239.82617492603137,-422.04192185066705,-25.03263153760216,61.41487747753775,253.57303459976708,427.94596765148117
637,-2.4790303471451307,-81.15682282338963,-239.7152286097691,-416.53380044455025,-23.97840499330945,63.751636231550975,253.1223260011415,422.7795677383417
638,-3.0778049122699898,-80.08000883610529,-239.5696805764102,-411.4150828472142,-23.3282305181045,66.06014939272345,252.65217261847417,418.0519986836419
639,-3.711767029920871,-79.0269710989111,-239.39411747544557,-406.65698615062706,-23.07857970656398,68.33521387346465,252.1669612618476,413.73144957063784
640,-4.374188404532773,-77.99917593343068,-239.1935618943454,-402.2273701682278,-23.21839508586054,70.5711347586431,251.6714199793107,409.7816186677722
641,-5.057837525646212,-76.9980891516676,-238.97343328213722,-398.09143062998027,-23.72927791706047,72.76156787727491,251.17059965170031,406.16245519369454
642,-5.755074562758238,-76.02520715736738,-238.7395071807438,-394.21242990824453,-24.585804556836862,74.89938635588851,250.66985300106185,402.83096375161114
643,-6.457957323786003,-75.08207870848054,-238.4978722830825,-390.5524338420878,-25.755981783170135,76.97657267515648,250.17480970792911,399.7420397941014
644,-7.158356319234434,-74.17031505899132,-238.25488358351032,-387.0730234025101,-27.201848032288364,78.98413451546507,249.69134516654967,396.84930371499485
645,-7.848076632305897,-73.2915863062122,-238.01710894169466,-383.7359542094227,-28.880222191566233,80.91204059525052,249.22553952620052,394.1059045270108
646,-8.518984121910112,-72.44760211101001,-237.7912658697097,-380.5037447866731,-30.743595009826496,82.74917211625433,248.7836232683536,391.4652711783812
647,-9.163133527341406,-71.64007567369529,-237.5841453313617,-377.3401846920894,-32.741151051375994,84.48328632022223,248.3719057558327,388.8817992058622
648,-9.772896413110608,-70.87067085498414,-237.40251982905662,-374.2107646630091,-34.819902133402174,86.10099074069021,247.99668395635507,386.31147100091846
649,-10.341087496906875,-70.14093348460234,-237.25303400959928,-371.08304097900526,-36.92590690674381,87.58772953870925,247.66412980507846,383.71241776486573
650,-10.861088381967463,-69.45220912924928,-237.14207735773152,-367.9269538918736,-39.00554603325848,88.9277863091359,247.38015631101533,381.04543873901304
651,-11.326967765174818,-68.80555081535243,-237.07564013576896,-364.71512428552586,-41.00681846184318,90.10431041144793,247.15026437439352,378.27449754588207
652,-11.733596842961711,-68.2016212411523,-237.059155408221,-361.42315347082223,-42.880621686827766,91.0993757642101,246.9793741633397,375.36721618241995
653,-12.076758138066838,-67.64059468008287,-237.0973316084631,-358.02994848394906,-44.58197763543523,91.8940818109312,246.87164660890454,372.2953846194432
654,-12.353245492321124,-67.12206400335084,-237.19398155475594,-354.51809001805003,-46.07116602288421,92.4687058417323,246.83030200438304,369.0354986511794
655,-12.560952494309959,-66.64495808312827,-237.35185503267047,-350.87425291755557,-47.314728711514455,92.80291405048528,246.8574437836944,365.56933138113976
656,-12.698946088753381,-66.20747436450037,-237.5724829690576,-347.0896808312005,-48.286311962094054,92.87603580148165,246.9538962697134,361.8845354375253
657,-12.767521648320272,-65.80703067189894,-237.85604178969024,-343.16070792871614,-48.96731860930018,92.66740187571855,247.1190655111047,357.97526456611166
658,-12.768235585567908,-65.4402393784815,-238.2012467069376,-339.08931213421425,-49.347349014043935,92.15674334501242,247.35083221624214,353.84279532424415
659,-12.703911790417898,-65.10290600248291,-238.60528223783544,-334.88367654409495,-49.42441760865923,91.32464359394815,247.64548509612143,349.4961226213873
660,-12.578618821380564,-64.79005327526014,-239.06377703489358,-330.5587289450003,-49.204940133713365,90.15303225611318,247.99770152724764,344.9524971062615
661,-12.39761579693784,-64.49597088068684,-239.57082820915892,-326.1366239760279,-48.70349447443629,88.62570675980699,248.40058045538225,340.23786813318975
662,-12.167266194695793,-64.21429036174823,-240.11907802975296,-321.6471287671169,-47.94236483700064,86.72886500596687,248.84573014583697,335.3871934590305
663,-11.894920086627703,-63.93808401673912,-240.6998434220141,-317.1278710421784,-46.950884707671854,84.4516315200504,249.32341092124454,330.4445761083315
664,-11.588766604591783,-63.65998590391471,-241.30329614793922,-312.6244089847966,-45.76459870074651,81.78655917036191,249.8227304768087,325.4631902578422
665,-11.257659676622566,-63.372332335897276,-241.91868904665955,-308.19008510445093,-44.424267223250716,78.73008906213859,250.33188683203184,320.50496196843466
666,-10.91092137100418,-63.067318517711286,-242.53462147439873,-303.8856324748318,-42.97474110945752,75.28295232572046,250.83845170958435,315.63997765213315
667,-10.55812845756403,-62.73716735435998,-243.13933538056617,-299.7785113956285,-41.46373623071042,71.45049908217646,251.3296854036009,310.94560362906185
668,-10.208888813607745,-62.37430596740391,-243.72103236797915,-295.9419676403245,-39.940540657871395,67.2429417720614,251.79287308542058,306.50531386646566
669,-9.872614846537086,-61.971545042170106,-244.26820143715463,-292.45381930243246,-38.454689124838374,62.67550215346949,252.21567179772964,302.40723927805885
670,-9.55830113073138,-61.522255694755046,-244.76994669072658,-289.39499661376675,-37.05464102825846,57.768453505070084,252.58645687708375,298.74246954021714
671,-9.274313073919405,-61.02053815443573,-245.21630404030316,-286.8478764176889,-35.786498708395015,52.54705183536173,252.89465620766615,295.60315567732073
672,-9.02819275303538,-60.461376379503214,-245.59853607611677,-284.8944686328101,-34.692802084581025,47.041352210904336,253.13106075419898,293.0804770949091
673,-8.826487158832412,-59.840772924894665,-245.90939492199055,-283.6145246401527,-33.81143367845394,41.28590879131158,253.2881004797201,291.26254893616516
674,-8.674603085277138,-59.155859010906845,-246.1433441609545,-283.08364597820673,-33.17466439109553,35.31935994254437,253.36007609499717,290.23235354415846
675,-8.576691960948358,-58.40497573336752,-246.2967326711824,-283.37147524395454,-32.808364884236,29.183902932661923,253.34333899048255,290.06578264231183
676,-8.535567094703772,-57.58772352800856,-246.36791525472015,-284.54004921834854,-32.73140012371344,22.924666105342588,253.23641392882809,290.8298741331252
677,-8.552655031880255,-56.704978133824035,-246.35731704877668,-286.6423869937881,-32.95521612304407,16.588989952396936,253.04006135353495,292.58131919018103
678,-8.62798195428742,-55.75887225672639,-246.26744069600113,-289.7213739216868,-33.48361914328669,10.225632084943454,252.75727828398217,295.3653022420178
679,-8.760195290347639,-54.752742949051274,-246.10281701920172,-293.8089866673463,-34.31273967149284,3.883914646323628,252.393238630924,299.2147197040485
680,-8.946619877667032,-53.691045552353415,-245.8699014996085,-298.925886863806,-35.431167304131925,-2.387163997978923,251.95517541668562,304.1498042651177
681,-9.183347139757851,-52.57923608218243,-245.5769202466924,-305.0813919272921,-36.820238613061754,-8.539828801032206,251.45220891189982,310.1781613687689
682,-9.465354889062036,-51.42362523318199,-245.2336703787629,-312.27381242443704,-38.45445806092221,-14.528412712369155,250.89512613107613,317.29520420047385
683,-9.78665459514258,-50.231208575886086,-244.85128075062661,-320.49112681582795,-40.30203162154159,-20.310200136625856,250.2961183689261,325.4849539201669
684,-10.140462213452913,-49.009478651171506,-244.4419397601888,-329.71194746958304,-42.325493454188106,-25.846203955644736,249.66848442018494,334.7211541577516
685,-10.519387915848409,-47.76622530544937,-244.01859765479387,-339.9067177419934,-44.48240738889063,-31.101853301141848,249.02630786616635,344.9686341632336
686,-10.91563932936754,-46.509330771478034,-243.59465144120009,-351.0390697772072,-46.72612679574309,-36.04757264787974,248.38411743926721,356.1848445979087
687,-11.321232267722461,-45.24656581905933,-243.18362108285626,-363.0672672012876,-49.00659833357504,-40.659236799464914,247.7565399339225,368.3214844506287
688,-11.728202553790261,-43.98539286284079,-242.79882590719043,-375.94565623108116,-51.271196840974724,-44.918490625989975,247.1579552144992,381.32613706348553
689,-12.12881245724225,-42.73278127763514,-242.45306991951077,-389.6260525634392,-53.46558011720388,-48.81292673381531,246.602162473396,395.1438373903984
690,-12.515745480754928,-41.49503942563496,-242.15834412913335,-404.0589991966551,-55.53455357096294,-52.33611841731671,246.10206613360677,409.7185008074306
691,-12.88228366744191,-40.27766715736313,-241.92555323581036,-419.1948414389427,-57.42293581525542,-55.48750912066518,245.66938888620234,424.99415540780524
692,-13.222462289762914,-39.08523190294226,-241.76427323940703,-434.9845790983997,-59.07641738260863,-58.27216316240502,245.3144184625023,440.915934061021
693,-13.531197740522659,-37.92127097671243,-241.68254573367952,-451.3804714598345,-60.44240586666131,-60.70038566865132,245.0457938854009,457.4307988209536
694,-13.8043856139497,-36.78822234605285,-241.6867137188023,-468.33638732275494,-61.47085189165419,-62.78722256563187,244.87033600966598,474.4879876992752
695,-14.03896723625644,-35.68738572172829,-241.78130257786245,-485.8079092582049,-62.11505123084223,-64.55185411929565,244.79292598052368,492.0391915034825
696,-14.232964216537455,-34.618915248625704,-241.96894832757556,-503.7522173631088,-62.332418964159146,-66.01689790463904,244.8164337029021,510.03848536502215
697,-14.38548188855576,-33.581844263782195,-242.25037339515552,-522.1277919430423,-62.08523159465894,-67.20763927859294,244.94169653222363,528.4420545192792
698,-14.496683703037817,-32.57414165113142,-242.62440818068634,-540.8939854223465,-61.34133241981936,-68.15120938000987,245.16754636857013,547.2077655048755
699,-14.567739569616329,-31.592798427270836,-243.0880548912371,-560.0105202391535,-60.07479426649803,-68.87573221570563,245.4908815240356,566.2946410779851
700,-14.600751762628194,-30.63394240748113,-243.6365889055899,-579.4369708663786,-58.26653222982404,-69.40946329188847,245.90677846492295,585.6622991105818
701,-14.598662343209648,-29.692978064732856,-244.2636923299413,-599.1322843394464,-55.90485763850484,-69.77994236662481,246.40863788250738,605.2704124868732
702,-14.565146170879649,-28.764747938388922,-244.96161428774178,-619.0543853089654,-52.985963363288846,-70.01318218564707,246.98835936678557,625.0782390656127
703,-14.504493489956817,-27.84371115384135,-245.72135264709416,-639.1598997084678,-49.51432996393198,-70.13291359446396,247.63653904298917,645.0442591691295
704,-14.42148584966699,-26.924133768259264,-246.53285216004238,-659.4040169463353,-45.50304212098247,-70.15990542844571,248.34268471743366,665.1259441097548
705,-14.321268883841569,-26.00028478093372,-247.38521424195906,-679.7404954651323,-40.97400529650411,-70.11137540812396,249.095443249327,685.2796643476295
706,-14.209225264483157,-25.06663084659184,-248.26691382251235,-700.1218018814384,-35.95805345285743,-70.00050616799166,249.88283499694418,705.4607313056447
707,-14.09085086313666,-24.118022184920374,-249.16601893101836,-720.4993609971965,-30.494939661949605,-69.83607854393651,250.6924903704639,725.6235538895357
708,-13.971636755833778,-23.149862068406524,-250.07040899277504,-740.8238839265946,-24.633202245294484,-69.62223210253309,251.51188382792256,745.7218804957197
709,-13.856959221321732,-22.158252690679973,-250.9679881631548,-761.0457352976434,-18.429899449442466,-69.35836025319402,252.3285610392523,765.7090905870444
710,-13.75197930098074,-21.140111137052063,-251.8468903842423,-781.115298410559,-11.950205536775302,-69.03914387828031,253.13035538221772,785.538497221565
711,-13.661552727824239,-20.093250495878138,-252.69567326261523,-800.9832993262709,-5.2668608044664325,-68.65472325388743,253.9055904539573,805.1636232352563
712,-13.590150078372767,-19.016422798702887,-253.50349833595052,-820.601056622813,1.540532062209543,-68.19100339018271,254.64326587305916,824.5384186829984
713,-13.541786090339722,-17.90932242620711,-254.26029572288968,-839.9206321049377,8.386372132159988,-67.63008325557003,255.33322421957018,843.6173948214902
714,-13.519956626608353,-16.77255075619992,-254.9569114874361,-858.8948679274627,15.180089511685324,-66.95079523662864,255.96629747473767,862.3556592894156
715,-13.527581958525179,-15.60754493720915,-255.58523636313782,-877.477306179032,21.827340419459947,-66.12933814936078,256.53443183258275,880.7088470427674
716,-13.566955642171113,-14.416475513223508,-256.13831480476966,-895.6219969014008,28.23136278458871,-65.1399854015062,257.0307902566363,898.632950993241
717,-13.639698819946965,-13.202119062771668,-256.6104335820197,-913.2832090425235,34.294479586249075,-63.955849399726155,257.4498325278434,916.0840644196782
718,-13.746720124835045,-11.967712984588722,-256.99718923625375,-930.4150656759209,39.919728842623094,-62.549683648969584,257.787372699878,933.0180537644802
719,-13.888181672139522,-10.716799990560393,-257.2955337322112,-946.9711301674122,45.012591007823055,-60.89470475521409,258.04061390342275,949.3901855613901
720,-14.063472042089591,-9.453069691922364,-257.503797622049,-962.903974299915,49.48277731441771,-58.965417290582906,258.2081604051624,965.1547354172657
721,-14.271187593152016,-8.180203939585276,-257.62169004864666,-978.1647630129726,53.24603676826135,-56.7384249406817,258.29000678473454,980.2646105283939
722,-14.509123769856645,-6.901731504211829,-257.6502750125552,-992.7028932621131,56.225935313988494,-54.19321147447856,258.28750411588925,994.6710200625744
723,-14.774278342769364,-5.620896508259598,-257.59192356876144,-1006.4657259162573,58.35555830597402,-51.31287498134465,258.20330320104995,1008.3232292800678
724,-15.062868892880864,-4.340543924719303,-257.4502420419198,-1019.3984486440625,59.57908698628465,-48.08479875332946,258.0412752652656,1021.1684325942801
725,-15.370367279401732,-3.063024502512342,-257.22997701632613,-1031.444103604127,59.85320131471577,-44.50124243078156,257.80641113136744,1033.1517771313247
726,-15.69155399299628,-1.7901206937028522,-256.9368987910637,-1042.5438062837857,59.148265248967775,-40.55983773433907,257.5047007775846,1044.2165615795502
727,-16.020594897396048,-0.5229945306194463,-256.5776660265027,-1052.6371716229708,57.449256290899314,-36.263974253585666,257.14299614031506,1054.304625795079
728,-16.351141907275043,0.7378421669446976,-256.1596751454789,-1061.662951727537,54.756408445497954,-31.623062250418517,256.728860766535,1063.356935802148
729,-16.676457864933,1.9925354781343958,-255.69089848326882,-1069.5598772680885,51.08554616547112,-26.65266120988278,256.27041024455946,1071.3143576654245
730,-16.989564413810367,3.241875798034406,-255.17971523643752,-1076.2676831568288,46.46809579909044,-21.374465003760303,255.77614728775941,1078.1186032129694
731,-17.28341003804258,4.487264358671447,-254.6347391371519,-1081.7282890731685,40.95077001962905,-15.816137220103954,255.25479511096415,1083.7133214583275
732,-17.551053732040284,5.730661652237025,-254.06464664279227,-1085.8870973505368,34.594929378584375,-10.010993655023535,254.71513249523173,1088.0453022377244
733,-17.78585825975813,6.974519870062839,-253.47800932908058,-1088.6943648814922,27.475633385032353,-3.9975332140378876,254.16583374573028,1091.065753247534
734,-17.98168593975478,8.221701650506184,-252.88313408904378,-1090.1066020265134,19.680401342601087,2.1811765778217116,253.61531660342024,1092.7316082922432
735,-18.13308937717283,9.475387419663903,-252.2879146134667,-1090.0879497137187,11.307710471604265,8.478247803529857,253.071601017539,1093.0068228012149
736,-18.235489386095068,10.73897342012837,-251.69969738226212,-1088.6114854874163,2.4652654039833926,14.843836792828812,252.54218143542488,1091.863612021696
737,-18.28533243659619,12.0159623222956,-251.1251650205277,-1085.6604097132474,-6.73192127074421,21.226102378443493,252.0339149121462,1089.2835872525511
738,-18.28022044502617,13.309848345939407,-250.57023945512992,-1081.2290642106263,-16.16359333122461,27.572230265346676,251.55292698880027,1085.258745798668
739,-18.219006687754238,14.62399918296179,-250.0400068978315,-1075.3237373755146,-25.706413017042003,33.82949256920338,251.1045369941131,1079.7922711548722
740,-18.101852952214887,15.961537586841704,-249.5386662238811,-1067.9632129429478,-35.23617218511223,39.94630966785552,250.6932041217121,1072.8991018917638
741,-17.930244580017128,17.3252261133785,-249.0695017615828,-1059.179024807694,-44.63000352733148,45.873281067202115,250.32249525738737,1064.6062317679273
742,-17.70696171053936,18.717359039736337,-248.63488087807525,-1049.0153886662647,-53.76854360035242,51.56415279700068,249.99507508145936,1054.952710690918
743,-17.436006746892996,20.139665807169347,-248.23627604807,-1037.5287932002452,-62.538001014430975,56.97669073817956,249.7127184434901,1043.9893268895064
744,-17.122489821714986,21.59323026833388,-247.87431030624037,-1024.7872490016828,-70.83208551421282,62.073432166735,249.47634436652564,1031.7779650157281
745,-16.772475910967227,23.07842956015199,-247.5488241176755,-1010.8692115780001,-78.55375698508598,66.82229171964288,249.28607029738083,1018.390652071885
746,-16.392799266458635,24.594895704460004,-247.25896076077083,-995.8622139004904,-85.6167578726734,71.19700302407718,249.1412843962349,1003.9083214733394
747,-15.990852760359779,26.141502129510325,-247.00326632371053,-979.8612618525053,-91.94689830532307,75.1773833502817,249.0407327548683,988.4193430685301
748,-15.574361131667679,27.716376156009765,-246.77979951770956,-962.9670603148872,-97.48307030170902,78.74941561442552,248.98261755227014,972.0178813146119
749,-15.151147829295914,29.31693715930929,-246.5862459250194,-945.2841466908429,-102.17797539780314,81.90514950799336,248.96470150113694,954.8021532410703
750,-14.728905307066256,30.939958828610212,-246.42003113632958,-926.9190113706896,-105.9985581382446,84.64243111476581,248.98441364532908,936.8726612247098
751,-14.314978353661845,32.581652866054505,-246.27842749117568,-907.9782807891364,-108.92614545369264,86.96447776315767,249.03895166536196,918.330472687394
752,-13.916169298326452,34.2377706194282,-246.15864977043185,-888.5670290768518,-110.95629858148996,88.87932163994961,249.12537629922934,899.2756102638878
753,-13.53857269095886,35.903718472747194,-246.05793608036308,-868.7872703559386,-112.09838987562702,90.39915138600415,249.2406941709367,879.8056031932953
754,-13.187445307130163,37.5746822679726,-245.97361117032514,-848.7366673104257,-112.3749219058741,91.53958510028043,249.38192609897246,860.0142354489304
755,-12.867115037658756,39.245755532778105,-245.90313052736406,-828.5074745571085,-111.82061106390353,92.31891061875547,249.54615881676762,839.9905101850889
756,-12.580929486309758,40.912065822168415,-245.8441048913729,-808.185719109553,-110.48126267824746,92.75732940540341,249.73057908382995,819.8178349534668
757,-12.331242365071905,42.568893149651,-245.7943063371965,-787.8506061735205,-108.41246925315006,92.87623871986425,249.9324904372713,799.5734190384007
758,-12.119433663170282,44.21177455556526,-245.75165857757293,-767.5741276800886,-105.67816753033794,92.69758280110634,250.14931419897727,779.3278641111697
759,-11.945958381655727,45.83658963922826,-245.71421539756847,-747.4208441073488,-102.34909327990066,92.24329771502319,250.37857762533687,759.1449228794804
760,-11.81041819714021,47.439623441625564,-245.68013196061708,-727.4478075975095,-98.50117484853824,91.53486674657975,250.61789310459483,739.0813978270465
761,-11.711650404402228,49.01760514205703,-245.6476340115478,-707.7045959083833,-94.21390743856718,90.59299470207338,250.8649329080788,719.1871533179888
762,-11.647828697613981,50.56772319930606,-245.61498968734384,-688.2334315265715,-89.5687497925087,89.43740128283245,251.1174040542114,699.50521854695
763,-11.616570765302313,52.08761947894488,-245.5804878343301,-669.0693670518551,-84.64758331121364,88.08672658667615,251.37302738587675,680.0719648591004
764,-11.615048308805777,53.575366357936424,-245.54242568026456,-650.2405252852601,-79.53127051306194,86.55853615604266,251.6295242059831,660.9173474382173
765,-11.640095873977199,55.029431634580895,-245.4991076504046,-631.7683890011771,-74.29834507269396,84.86940889545465,251.88461295007457,642.0652069846777
766,-11.688315640754306,56.448636181302255,-245.44885610107798,-613.6681402592192,-69.02385952548761,83.0350885920493,252.13601741445416,623.5336309231122
767,-11.756175922487511,57.83210870338492,-245.39003372472217,-595.9490519022775,-63.77840938430111,81.07067861355077,252.38148695489664,605.335375535692
768,-11.840101643203456,59.17924096779636,-245.3210763301419,-578.6149345329725,-58.6273444067504,78.99085945711197,252.61882785065478,587.4783502085626
769,-11.936555627976196,60.48964576579368,-245.24053363020332,-561.6646408928111,-53.630169661363205,76.8101099082043,252.84594377121576,569.9661628792311
770,-12.042110182976655,61.76311887989042,-245.14711466135577,-545.0926264581286,-48.840131381214924,74.54291437084923,253.06088211587053,552.7987220791549
771,-12.153509022138305,62.999605528385,-245.03973373923054,-528.8895606953508,-44.303975814339886,72.20394126264094,253.2618821499375,535.9728861815217
772,-12.267719972289711,64.19917121090256,-244.9175526687488,-513.0429785575709,-40.061863830716085,69.80818009272586,253.4474205826156,519.4831453809878
773,-12.381979035639358,65.36197660918096,-244.78001533002478,-497.5379574011174,-36.147420332460385,67.37102783725396,253.61625058038132,503.32231750982913
