time,ax,ay,az,gx,gy,gz,accmagnitude,gccmagnitude
0,9.953235055909296,-237.0350784384945,-71.91855619549223,54.18150240343551,29.266739149261525,-7.971038588129389,247.9047594256898,62.10523684330477
1,9.764916093277318,-236.97726422551995,-72.0926169614051,54.30092373687219,30.11153006325256,-7.632672261748269,247.89532858815042,62.60296602843571
2,9.584496615502632,-236.92145715701818,-72.26984879597128,54.414138843743594,30.95452523281764,-7.295567072327622,247.8889993777546,63.09431175548356
3,9.412078853713917,-236.868020995532,-72.44697631128003,54.521797924013306,31.786875363856193,-6.962488546210923,247.88515776147986,63.5756236127817
4,9.247681101959452,-236.8172867670639,-72.62080372624015,54.62449600729048,32.59957735567798,-6.636157199318264,247.88317930057835,64.0431384349398
5,9.091250354297607,-236.7695501760817,-72.78829372354889,54.7227303802261,33.383610678411934,-6.319200434765466,247.88245028526302,64.49301008221485
6,8.942676452756942,-236.72507061780738,-72.9466381097896,54.816867746898886,34.13007389532244,-6.014109125541325,247.8823880256395,64.92134777276733
7,8.801807495763226,-236.68407183766814,-73.09331822781587,54.90712297915676,34.83031862659367,-5.723199893488887,247.88245973348975,65.324263187372
8,8.668466158838111,-236.6467442539515,-73.22615359261866,54.99355036787709,35.47607837453919,-5.44858363477953,247.88219954869444,65.69792576529979
9,8.542466415454342,-236.61324887752184,-73.34333781432176,55.07604726174365,36.05958994869399,-5.192140495092539,247.88122335735432,66.03862487230788
10,8.423629961512601,-236.5837226042206,-73.44346153814595,55.15436901000726,36.573705806954784,-4.955501255995955,247.87924109082482,66.34283699310956
11,8.3118015288763,-236.55828452007177,-73.52552272526248,55.22815332907152,37.01199632563313,-4.740034877233711,247.87606623797691,66.60729579440384
12,8.206862289580311,-236.53704280856692,-73.58892497978177,55.2969516338108,37.36884158237707,-4.546841700493269,247.8716223662512,66.82906271579368
13,8.108740729386248,-236.5201018286894,-73.63346483971402,55.36026450157028,37.63951251622486,-4.376751600574944,247.8659464936857,67.00559557635529
14,8.01742066337025,-236.50756890219546,-73.6593091926853,55.41757827437706,37.820241303244536,-4.23032625065735,247.85918920484008,67.13481253633904
15,7.9329463744571225,-236.49956035309296,-73.66696439256623,55.468399878300595,37.90828054584561,-4.10786471526976,247.85161153941914,67.21514870298607
16,7.855425071140357,-236.4962063781956,-73.65723913598983,55.5122872456202,37.901950540533655,-4.009411811428443,247.84357886569018,67.2456027818579
17,7.785026895092356,-236.49765428159682,-73.63120340881834,55.548873223404534,37.800673547714545,-3.934768998555893,247.83555198152507,67.22577145493537
18,7.721982542725211,-236.50406943944225,-73.59014563576416,55.57788147730056,37.60499367312045,-3.8835077931943656,247.82807546825734,67.15586956630585
19,7.666578319516939,-236.5156332405661,-73.53552966987627,55.5991335820738,37.31658071952263,-3.854985721104023,247.82176305044675,67.0367346660802
20,7.619148307828838,-236.53253736886856,-73.46895270944627,55.61254718769461,36.93821626627714,-3.848364667021496,247.81727965918316,66.8698150151536
21,7.580063368894254,-236.55497416765232,-73.39210479456507,55.618125865716905,36.473760397756614,-3.862631339190448,247.81532012185798,66.65714086228202
22,7.549716866293872,-236.58312332457294,-73.30673023144183,55.61594198846976,35.92809799444095,-3.896619542254353,247.81658478803897,66.40127972168119
23,7.528507231248035,-236.61713562900107,-73.21459109677416,55.60611475251462,35.307064284776466,-3.9490340147064584,247.82175283751442,66.10527746205689
24,7.51681774374966,-236.65711501761413,-73.1174329002344,55.5887861837346,34.617350318168036,-4.018475649626346,247.83145444476523,65.77258815942142
25,7.5149941247357015,-236.70310044706468,-73.01695259323743,55.564098586593296,33.86639002831951,-4.103467917623907,247.84624332219153,65.40699673071701
26,7.523320674228185,-236.75504923740579,-72.91476946130065,55.532177286136665,33.062231479921216,-4.202484208995782,247.86657137211932,65.01253916036222
27,7.541995740815229,-236.81282341587055,-72.8123999264937,55.49312245207489,32.21339560245915,-4.313975598228491,247.89276721627044,64.59342541245462
28,7.571107366975227,-236.8761802494934,-72.71123759968457,55.44701312186069,31.32872614261817,-4.436398253285748,247.9250201476981,64.15396970957781
29,7.610610157236201,-236.94476757291358,-72.61253975464987,55.393925230359706,30.41723474305025,-4.568239445595099,247.96337046786533,63.69853175571676
30,7.660304693452136,-237.0181238321369,-72.51742076450057,55.333963644162154,29.487945061865705,-4.70804093850699,248.00770636026684,63.23147084961033
31,7.719820916547194,-237.09568223000048,-72.42685225301894,55.26730614467052,28.54973973023191,-4.854418506713778,248.0577667279775,62.757112924312004
32,7.788606711787656,-237.17677812118419,-72.34166907221203,55.19425531904106,27.6112137065943,-5.006076524375743,248.11314900702604,62.279728635332106
33,7.8659226433425795,-237.2606588236404,-72.26257984100762,55.115292692962164,26.68053723831327,-5.161816953408992,248.1733208639014,61.80351896583424
34,7.950843519639766,-237.34649514768995,-72.19018059660533,55.0311283812745,25.765331234381872,-5.320542562431416,248.2376347458035,61.332603627985996
35,8.042267172777057,-237.43339408328205,-72.12496996333542,54.94273914413934,24.872557436919596,-5.481254673313965,248.30534432629972,60.871006930393825
36,8.138930418633604,-237.52041224199488,-72.06736409077817,54.85138803490355,24.00842536343683,-5.6430461052444665,248.37562197436444,60.42263578258124
37,8.239431683599697,-237.60656987080577,-72.01770958945895,54.75861981313629,23.178317528052453,-5.8050903023734755,248.44757655813302,59.991245122414306
38,8.342259359845482,-237.69086549903855,-71.97629292569965,54.66622802148479,22.386733863161133,-5.966627937887113,248.5202711773545,59.58038731888046
39,8.445824652038002,-237.7722914801061,-71.94334518475956,54.5761921263001,21.63725554237209,-6.126952560407872,248.59274072438646,59.193344061305815
40,8.548497514244835,-237.84985080299668,-71.91904164970263,54.49058627973759,20.932527655200683,-6.28539699626751,248.66400942599117,58.83304182046601
41,8.648644218531784,-237.92257549133598,-71.90349620475016,54.41146471360179,20.27425954898933,-6.44132214616174,248.7331086169895,58.50195486361866
42,8.744665105882945,-237.98954661329364,-71.89675113105501,54.34073199102477,19.663241227139768,-6.594109477414483,248.79909486986364,58.2020025544608
43,8.835031157056326,-238.0499154844491,-71.89876337548581,54.28000880211713,19.099374016842837,-6.743157972867136,248.86106832666235,57.93444980084508
44,8.9183182200281,-238.10292525667128,-71.90938876525128,54.230505331740886,18.58171379671764,-6.887885697735738,248.91819082116962,57.699820699964796
45,8.993237979421636,-238.1479318789538,-71.92836584940859,54.19291425632095,18.108525336441236,-7.027735633303235,248.96970324345227,57.49783548055415
46,9.058664934069602,-238.18442337987565,-71.95530111335573,54.167334083150074,17.677346621645263,-7.162185081692206,249.0149415817129,57.32737966790277
47,9.113658753407153,-238.2120364509348,-71.98965740325663,54.153230948497,17.28506231084196,-7.290757791202611,249.05335112552834,57.1865120798607
48,9.157481507086809,-238.23056928599198,-72.03074762706626,54.14944347008039,16.927985629761125,-7.413037978114465,249.0844983531694,57.072515082675594
49,9.189609461121112,-238.2399895294644,-72.07773598474346,54.154231265966644,16.601947996006356,-7.5286855713961645,249.10807998375964,56.98198689017217
50,9.20973939089884,-238.24043615800898,-72.12964866902031,54.16536377239652,16.302395454541706,-7.637452161276298,249.12392857598124,56.91097198047205
51,9.217789643643355,-238.2322143898304,-72.18539487998143,54.1802424181178,16.024490641048974,-7.739197168211634,249.1320140316603,56.855122302285515
52,9.213896448788347,-238.2157833270069,-72.24379743008082,54.196046344975485,15.763218596506228,-7.833903629489925,249.13244053887593,56.80987916777367
53,9.19840616684198,-238.19173679254632,-72.30363087953418,54.20988989796904,15.513494451876753,-7.921692790827062,249.12543885880325,56.770663815263305
54,9.17186424587709,-238.16077848719266,-72.3636644102581,54.21897915086371,15.270270838509784,-8.002836491022084,249.1113542935814,56.733063709703934
55,9.135001609573555,-238.12369305706272,-72.42270638874734,54.22075484770104,15.028642840818863,-8.077766219629929,249.09063103687987,56.69300180026661
56,9.088719034699274,-238.0813149321032,-72.47964760393369,54.21301037149723,14.783948349982099,-8.147077739794671,249.06379386234042,56.64687721074698
57,9.034069818365396,-238.03449687142137,-72.53350051227865,54.19397569386528,14.531861775830139,-8.211530275439943,249.03142826304216,56.59166818613141
58,8.972240750771316,-237.98408002114067,-72.58343248491829,54.162361539799804,14.268479243911884,-8.272039439888708,248.99416020903004,56.52499139206555
59,8.904531173413101,-237.93086696027052,-72.62879187197754,54.11736181239519,13.990393676173099,-8.329663356040149,248.95263660147614,56.445115480646
60,8.832329804726584,-237.87559875132501,-72.66912645864294,54.05861614668163,13.694758516003551,-8.385581803242241,248.90750727790368,56.35093069804953
61,8.757089155120434,-237.818936566583,-72.70419444161409,53.98613788465136,13.379339242109925,-8.441068668805972,248.85940915998577,56.2418797925994
62,8.680297747235011,-237.76144815737538,-72.73396838689531,53.900215537781484,13.042552136512308,-8.497458409078165,248.80895295371008,56.11785831795876
63,8.603450854146667,-237.7035992898818,-72.75863283197127,53.801297764553254,12.683489992587528,-8.556107609201081,248.7567127484883,55.9790944447799
64,8.528020853426213,-237.64575020499748,-72.77857634117369,53.68987289647596,12.301934603842613,-8.61835305508376,248.70321885199172,55.82601946401861
65,8.455428443004438,-237.5881570753054,-72.79437885404526,53.56635402695189,11.898356021723531,-8.685467942845117,248.64895412736533,55.6591402240378
66,8.387015843897418,-237.53097825875955,-72.80679497868407,53.43097969390701,11.473898721990249,-8.758617917332677,248.59435387157433,55.478923846591044
67,8.324022766241812,-237.47428485708866,-72.81673352141159,53.283738398887024,11.030354948301124,-8.838818613248964,248.53980887558583,55.285703369608754
68,8.26756549723425,-237.41807471694406,-72.82523321253286,53.12432280394883,10.570125625697232,-8.92689637751811,248.4856708409057,55.0796106722925
69,8.218619175707627,-237.36228868555048,-72.83343445621117,52.95211665415025,10.096169419637828,-9.023453901553918,248.4322589654029,54.86054038019721
70,8.178003186414777,-237.3068278118527,-72.84254704299191,52.76621456313848,9.611940783399378,-9.12884248179764,248.3798664227477,54.62814567488323
71,8.146369544373812,-237.25157036734927,-72.85381407595409,52.5654720682723,9.121318139044812,-9.243142441829889,248.32876572350943,54.381864294587274
72,8.124194133146254,-237.19638799628763,-72.8684727865622,52.34858105008425,8.62852360433774,-9.366152888113549,248.2792124859504,54.12097072313059
73,8.11177078001939,-237.14116079970228,-72.88771333931717,52.11416386050703,8.138035866332888,-9.497391513317144,248.23144774482034,53.84464876847232
74,8.109208339683878,-237.08579147187808,-72.91263705953634,51.86087837338694,7.654497911215515,-9.636104653018004,248.18569933039288,53.552077500378225
75,8.116431030304696,-237.0302185910093,-72.9442157269519,51.5875256679824,7.182621391310671,-9.781287237194878,248.1421828964042,53.242522869669024
76,8.133182138900441,-236.9744288681129,-72.98325364038216,51.29315215659638,6.727089484501012,-9.931711670303347,248.1011029041225,52.91542725912575
77,8.159031018480805,-236.9184678166249,-73.03035407527817,50.97713861451739,6.292460159986248,-10.08596409347931,248.06265351156603,52.570489675496
78,8.193383232502327,-236.86244818159417,-73.08589157148808,50.639269675429006,5.883071742924948,-10.242486028372737,248.02701914253433,52.20773020704625
79,8.235493784290936,-236.8065556385902,-73.14999127720506,50.27977879486485,5.502952535199039,-10.399619160234074,247.99437461597864,51.827533634782476
80,8.284483405276339,-236.7510515750352,-73.22251636936149,49.89936531432946,5.155736047209048,-10.555651027465967,247.96488494940513,51.430668573688784
81,8.339357700914185,-236.6962729887494,-73.30306433536808,49.49918197846018,4.844583218538019,-10.708859609199903,247.93870509101913,51.01828014188863
82,8.399028652202226,-236.64262961970724,-73.39097258735755,49.08079306336705,4.572112914769596,-10.857555146542932,247.9159798136913,50.59185589876824
83,8.462337764579491,-236.5905984375012,-73.48533347012955,48.64610520199694,4.340341983133311,-11.000117921687638,247.89684388440938,50.153166680829855
84,8.528080143743646,-236.5407156004411,-73.58501823828239,48.197274992340134,4.150636190790957,-11.135031136317785,247.8814224739747,49.704185942350904
85,8.59502889258617,-236.49356599994792,-73.68870909752809,47.736599365427345,4.0036734121765205,-11.260908465949166,247.86983163149534,49.2469930944733
86,8.661959379349357,-236.44977051136,-73.79493804498819,47.26639621709339,3.8994204512050854,-11.376516274595154,247.86217855307714,48.78366787157996
87,8.727673090518639,-236.40997109030263,-73.90213102750421,46.78888373212638,3.837124866753102,-11.480790806667763,247.8585613314579,48.31618369552263
88,8.791020904869548,-236.3748138712507,-74.00865576364438,46.306067017127866,3.8153230955750317,-11.572850896354737,247.85906784153553,47.84630821638613
89,8.850925623138032,-236.3449304452044,-74.11287136321185,45.81964010333136,3.8318660081445723,-11.652006821289678,247.86377337234626,47.37551866863334
90,8.906403437422936,-236.32091754025672,-74.21317766206803,45.33091014232303,3.883962737171007,-11.717765885377103,247.87273659065713,46.90493845170042
91,8.956583830603776,-236.30331539780394,-74.30806207266669,44.84074877839232,3.9682430995482423,-11.769835203809759,247.88599344467784,46.43529951607228
92,9.000727302402742,-236.29258520736116,-74.39614186310453,44.349573399244974,4.080838134030616,-11.808122037667912,247.90354871338187,45.96693287453564
93,9.038240366240302,-236.28908607804624,-74.47620021184264,43.857358514364044,4.217477249549306,-11.832731892280073,247.92536514892652,45.49978712951023
94,9.068687385119844,-236.29305225472123,-74.54721507233121,43.36367519605851,4.373599374456011,-11.843964448893507,247.951350590155,45.03347261263923
95,9.091798942309618,-236.30457158792964,-74.60838061014921,42.867754569569314,4.544474495981888,-11.842307301221844,247.98134393557106,44.56732681399901
96,9.107476530161478,-236.32356650559362,-74.65912155022107,42.36856986055799,4.725331225857605,-11.828427498762997,248.01510126647227,44.10049536704036
97,9.115793369848717,-236.34977885527354,-74.69910109900088,41.86493052939007,4.911485607603355,-11.803161025696946,248.05228362326835,43.63202197902913
98,9.11699116196688,-236.38276001973432,-74.72822318365903,41.35558156312868,5.09846632887208,-11.767500415158434,248.09244799042074,43.16094034093098
99,9.111472543487777,-236.42186763516494,-74.74662965743117,40.839301098752806,5.282131811399435,-11.722580625795102,248.13504294405394,42.686361233105465
100,9.099789030022139,-236.4662699887303,-74.7546929833996,40.314990236707196,5.458775266270799,-11.669663173319124,248.17941013222767,42.207548803218835
101,9.082624347697758,-236.51495873754982,-74.7530048085752,39.7817501182475,5.625214609420693,-11.610118450941053,248.224792316768,41.723981301994606
102,9.060773404492409,-236.5667700561146,-74.74236075963071,39.23894294253308,5.7788649794954,-11.545406251876837,248.27034818399116,41.23539328218276
103,9.03511764839937,-236.62041377847652,-74.72374169374005,38.6862354056786,5.917792370772268,-11.47705470884986,248.31517360592557,40.741798198749834
104,9.006597967289053,-236.6745096313551,-74.6982915692057,38.1236248685563,6.040747559280252,-11.40663811168849,248.35832858041363,40.24349229122358
105,8.976186439936171,-236.72762928837085,-74.66729215428849,37.551450220854306,6.147180078947034,-11.335754232099728,248.39886875151512,39.741042378040724
106,8.944858218848207,-236.77834267453753,-74.63213498397157,36.970390710532065,6.237232504028865,-11.266001799864679,248.43588018065208,39.2352615416829
107,8.91356474419483,-236.82526663378118,-74.59429120909333,36.38145675821814,6.311715729855503,-11.198958681090502,248.4685158044431,38.72717746188903
108,8.883209353894646,-236.86711372132265,-74.55528014367266,35.785976844932826,6.372066365958845,-11.136161191432441,248.49603172399787,38.21799826749691
109,8.854626103714201,-236.90273860359952,-74.51663735485681,35.18558392429778,6.420287811129911,-11.079084851735221,248.51782120695913,37.70908021435185
110,8.828562280225276,-236.93117949056693,-74.47988309555521,34.58220355571125,6.458877080675058,-11.029126727535198,248.53344420356754,37.201900335770794
111,8.80566481112451,-236.95169223277765,-74.4464918447303,33.97804428878666,6.490739987145405,-10.98758928336408,248.5426503555368,36.69803564404871
112,8.786470619122849,-236.96377512422856,-74.417863747923,33.3755890616499,6.519097793634868,-10.955665467437456,248.54539386829927,36.199148776945044
113,8.771400851659523,-236.9671829990852,-74.3952987701095,32.77758483938081,6.547388879454922,-10.934424581789411,248.54183913985398,35.70697848994507
114,8.760758749558343,-236.96192985599944,-74.3799742512563,32.18702665195952,6.579169165852317,-10.924798462591346,248.53235661168947,35.22333231605249
115,8.75473070846116,-236.94827994067222,-74.37292625392226,31.607131686456302,6.618014927633358,-10.927567673090374,248.5175088736613,34.750078145563094
116,8.753389928821042,-236.92672793039648,-74.37503471322763,31.041299139257845,6.667431111874369,-10.943347815823016,248.49802761563035,34.28913141611711
117,8.756701977231007,-236.89796955403082,-74.38701209330387,30.4930520919825,6.730767470907317,-10.972576603328838,248.4747825824489,33.842434985245134
118,8.764531546649877,-236.86286456794997,-74.40939509776362,29.96595867322429,6.811143867303163,-11.015502808033064,248.44874420038485,33.4119294900102
119,8.776649678946987,-236.822394397455,-74.44253892609711,29.463531137061516,6.911385203510253,-11.072178475771127,248.42094189523615,32.99951299122651
120,8.792740757271392,-236.77761686438024,-74.4866135568349,28.98910314060287,7.033965696684671,-11.142455731611674,248.3924202248294,32.606989865049194
121,8.812408774656825,-236.72962025344594,-74.54160162262401,28.545687296140347,7.1809617299801465,-11.225989114425914,248.3641948184491,32.23601012466425
122,8.835182768243259,-236.67947867033917,-74.60729767118043,28.13581682268933,7.3540122838578865,-11.322243750409923,248.33720991049105,31.888001495983723
123,8.860521803296441,-236.62821040100485,-74.6833089297914,27.761376652747774,7.554285973061731,-11.430509014978362,248.31229913744278,31.564097536400627
124,8.887820310913845,-236.5767408017014,-74.76905808057657,27.42343054217916,7.782453959378354,-11.549916810159111,248.290151229405,31.265065820573184
125,8.916414695514378,-236.52587097379552,-74.86378900061985,27.12205151972738,8.038668421029438,-11.679463244476366,248.27128210808593,30.99124067886136
126,8.945591855237902,-236.47625302739226,-74.96657673298846,26.85616339277005,8.322546750344118,-11.818032302790161,248.2560145655984,30.742465143141523
127,8.974599800934644,-236.4283722510571,-75.07634285691898,26.623401056590787,8.633162148873405,-11.96442002136467,248.24446619476396,30.518046683455417
128,9.00266022293889,-236.38253619610944,-75.19187695568061,26.419997123881405,8.969041752108323,-12.117357775631353,248.2365457967271,30.316731109048636
129,9.028982759520428,-236.33887061489438,-75.31186437256432,26.240701953730593,9.328173784038764,-12.275533560052262,248.2319582688385,30.136698711936067
130,9.05278074147576,-236.29732221253298,-75.43492006979677,26.07874349329315,9.708025407576487,-12.437610533347572,248.2302178797519,29.97558629004841
131,9.073288150150333,-236.25766808750438,-75.55962802394467,25.925832353336997,10.105572799236437,-12.602242516592009,248.23066963883662,29.83053795689458
132,9.089777393365596,-236.2195314987515,-75.68458509350471,25.772216117695024,10.517344493726183,-12.76808648878992,248.23251808221664,29.698286503316414
133,9.1015773627546,-236.18240329780383,-75.80844778713511,25.60678503662035,10.939478256238884,-12.933812393106836,248.23486235104863,29.575265529567613
134,9.108091179087543,-236.14566809860878,-75.92997998747344,25.417229097242544,11.367790788317063,-13.098110726365695,248.2367360658028,29.457750749587078
135,9.10881307229428,-236.10863404825935,-76.04809948187403,25.190244152431557,11.797858659658768,-13.259698410195266,248.23715023670178,29.342026959752616
136,9.103343909435194,-236.07056490218162,-76.16192109401834,24.91178245416322,12.225108133979791,-13.417323347131822,248.2351372799011,29.22457532223869
137,9.091404884373278,-236.0307130046252,-76.2707942480602,24.567340731030242,12.644911068284449,-13.569767928541886,248.22979412042807,29.1022740144906
138,9.072848804597864,-235.98835172347486,-76.37433288937247,24.14227705646903,13.0526838196973,-13.715851684069875,248.2203223391653,28.972604140931505
139,9.047668361662163,-235.94280585669063,-76.47243588873502,23.62214632142228,13.4439861153134,-13.854433279282842,248.20606335420405,28.833852230176316
140,9.016000851454601,-235.89347851501026,-76.56529647303691,22.993043183870245,13.814617123530075,-13.98441211894661,248.18652674973615,28.68530063476659
141,8.978128971372744,-235.83987303967717,-76.65339986144146,22.241940842762066,14.160706445110995,-14.104729818907785,248.16141012261306,28.527397570468096
142,8.934477481951912,-235.78160868438533,-76.73750903446567,21.357013793803382,14.47879834674503,-14.214371763425323,248.1306092183864,28.361899258824955
143,8.885605725745418,-235.7184291123855,-76.81863927489036,20.327932863713112,14.765928234867605,-14.31236892279265,248.09421766333514,28.191977640185893
144,8.83219629427795,-235.65020324446994,-76.8980226529384,19.146121340458535,15.0196909999816,-14.397800118542794,248.05251623530785,28.02228838338193
145,8.775040398929264,-235.57691857961444,-76.97706393538228,17.80496197102161,15.238301254677445,-14.469795010249058,248.00595227582411,27.858995351697452
146,8.715020551794153,-235.49866769462295,-77.0572895894977,16.29994602206106,15.420645499297173,-14.527538225265296,247.95511045948246,27.70974920668062
147,8.653091010130868,-235.41562918896915,-77.1402918145677,14.628757525472,15.566325931856698,-14.57027519588376,247.90067674199014,27.583619416611274
148,8.59025632012431,-235.32804490451448,-77.22766993867779,12.791288267082384,15.675695185950705,-14.597320309008923,247.84339796486304,27.49098059107473
149,8.527548421265418,-235.23619572162588,-77.3209719226656,10.789581977317301,15.749880927422351,-14.608067854775262,247.78404017606465,27.443355757326838
150,8.466003069142518,-235.14037840919735,-77.42163887296842,8.62770947753508,15.79079902219501,-14.602006020303715,247.7233489578865,27.453220853959195
151,8.406636531728235,-235.040885812907,-77.530955267835,6.311580148328869,15.8011538584938,-14.578733908408738,247.662014818956,27.533776248658008
152,8.350423463997904,-234.93799224524489,-77.650007160113,3.848698857464959,15.78442434332536,-14.537981342124038,247.60064616887578,27.69869235522955
153,8.298276653251769,-234.83194544857753,-77.77965015023453,1.2478810790161694,15.744834142350465,-14.479631051987177,247.539751770049,27.961837223566864
154,8.251029090760069,-234.72296592848775,-77.92048855043726,-1.4810581332854527,15.68730497265062,-14.403742682999837,247.4797338867556,28.336994091819133
155,8.209418620905113,-234.61125370309514,-78.07286684422317,-4.327623860228595,15.617392246211995,-14.310577846677361,247.42089252577063,28.83757626463347
156,8.174075269242476,-234.4970016245798,-78.23687414457294,-7.280951886804083,15.54120308018892,-14.200625184203712,247.36344018185238,29.47634550010804
157,8.145511261701623,-234.38041361190463,-78.41236176798957,-10.330093357649428,15.465297515521007,-14.074624147192644,247.3075255337045,30.2651386850667
158,8.124113643089693,-234.26172556208383,-78.5989733090727,-13.464259048736206,15.396574549631426,-13.9335859538709,247.25326375582088,31.21460627372244
159,8.110139192282183,-234.14122640585643,-78.79618586790386,-16.673012041298882,15.342145191686273,-13.778809904384099,247.20077058400864,32.33396499794165
160,8.103711079370283,-234.01927673294432,-79.00336043112821,-19.946401501468966,15.309195193914336,-13.611892954444007,247.15019701568386,33.630766892493426
161,8.10481661572664,-233.8963226316006,-79.21979879914721,-23.27503454150805,15.304840428978077,-13.434730273910791,247.10176153511776,35.11068677906984
162,8.11330560888606,-233.77290278376105,-79.44480391159644,-26.65008746146697,15.335978065621426,-13.249504595635457,247.05577696215502,36.77733095570213
163,8.128889148952107,-233.64964732547745,-79.67774014308354,-30.063261806249866,15.409136738857121,-13.058662543613915,247.012669387734,38.632070816410874
164,8.151138976369657,-233.5272675465048,-79.91809026151402,-33.50669446982032,15.530328861716878,-12.864876805025965,246.9729872419625,40.67390636548397
165,8.179487846269328,-233.40653624128691,-80.16550614688445,-36.972834396878916,15.704908151861314,-12.670993936175924,246.93739937520724,42.899365962411785
166,8.21323147119347,-233.2882593788769,-80.41985082189272,-40.45430107109945,15.93743537611084,-12.479968652906654,246.906681989138,45.30244989781388
167,8.251532637718269,-233.17324055923913,-80.68122971454595,-43.94374165994401,16.231555205607965,-12.294786459469897,246.88169512669086,47.87462618776616
168,8.293427961136022,-233.0622403395017,-80.9500093778324,-47.43370411212365,16.5898868559599,-12.11837725376963,246.86335010363035,50.604886895018254
169,8.337837553493703,-232.9559328953848,-81.22682226219335,-50.9165424720225,17.01393085229342,-11.953523046586495,246.8525697379198,53.47987209202981
170,8.38357770845351,-232.85486259691896,-81.51255672777522,-54.384368184487,17.503993879919047,-11.802763146752783,246.85024352978164,56.48406625221775
171,8.429376566168724,-232.75940292983404,-81.8083323307833,-57.829057438468176,18.05913334628748,-11.668300152918434,246.85718008445895,59.60006859459349
172,8.473892601039918,-232.6697198714769,-82.11546138781269,-61.24232003931619,18.67712303305829,-11.551909995051915,246.87405908845642,62.80893507835758
173,8.515735669507926,-232.58574143117258,-82.43539874876944,-64.61583040291113,19.354441038491586,-11.454859210418809,246.90138508498427,66.09058577824602
174,8.553490279673337,-232.50713462888172,-82.76968251882057,-67.94141652614559,20.086281035868176,-11.377832608403427,246.93944515702938,69.42426765643707
175,8.58574070392689,-232.43329071667702,-83.11986911618342,-71.21129862109372,20.86658763651782,-11.320874359812672,246.98827240449722,72.78905958275834
176,8.611097482725848,-232.36331894876525,-83.48746641193348,-74.41836581514639,21.688116306900852,-11.283345245766162,247.04761675525606,76.16440408050362
177,8.628224680749321,-232.29604870931686,-83.87386860360743,-77.55647713449622,22.542517833530095,-11.263898314806301,247.11692415079565,79.53064888311954
178,8.635867001607378,-232.23003940256942,-84.28029587075206,-80.62077201425447,23.420446757868035,-11.260474595160206,247.19532456374134,82.86958108918917
179,8.632875709507694,-232.16359728169726,-84.70774094044732,-83.60797580205285,24.311692530251463,-11.27031989523662,247.28162878724555,86.16493749886503
180,8.618232366127463,-232.09479830510233,-85.15692382744177,-86.51668701345491,25.205331383475894,-11.290023183644736,247.37433357856085,89.40287648841972
181,8.591069653805382,-232.0215160321163,-85.62825548393279,-89.34763522479452,26.089896142416478,-11.315576584336519,247.47163450974017,92.57239930866928
182,8.550688938751692,-231.9414534453522,-86.12181089957382,-92.10390115999374,26.95356042071935,-11.342456579414312,247.57144571787754,95.66571169072115
183,8.496574637087512,-231.85217748205784,-86.63731215296578,-94.79109346615573,27.7843329677071,-11.365725469508694,247.67142565541454,98.67851983601895
184,8.42840574520104,-231.751155089053,-87.17412185287841,-97.4174796583106,28.570257379324488,-11.380151422330634,247.76900796305605,101.61025804698355
185,8.34606491953556,-231.63578985463107,-87.7312472345167,-99.99407155425254,29.299612050408427,-11.380344534665019,247.86143675445584,104.46424825122703
186,8.249645192898509,-231.5034586510757,-88.30735489536079,-102.53466800910905,29.961105193028423,-11.360905317890868,247.94580585114667,107.24779431566469
187,8.139453966126855,-231.35154805829188,-88.90079580690018,-105.05585967388427,30.544060007151987,-11.316581065766622,248.01910168372726,109.97221615267587
188,8.016013588563805,-231.17749048532505,-89.50963986510195,-107.5770016364599,31.038585627796312,-11.242424866025809,248.0782495661115,112.65283000527346
189,7.880057790744574,-230.97879986912562,-90.13171888327173,-110.12016000292483,31.435730178761684,-11.133951653248657,248.1201628791951,115.30888179940487
190,7.732523410191875,-230.7531067300095,-90.76467663350819,-112.71003768350735,31.727612985718444,-10.987285632694316,248.14179449786414,117.96343997504798
191,7.5745371318675945,-230.49819232597596,-91.40602436261054,-115.37388294949635,31.90753360675854,-10.79929358515466,248.14018969367964,120.64325280177431
192,7.407397291710287,-230.2120217258435,-92.05320015702144,-118.14138197458479,31.97005576676585,-10.56769898188578,248.1125397959072,123.37857307347946
193,7.232551159145368,-229.892775782078,-92.70363054538164,-121.04453392767458,31.911064560567926,-10.291172478080902,248.0562360431653,126.20295061583873
194,7.051568459071629,-229.5388821191135,-93.35479276716337,-124.11750463938648,31.727795516902887,-9.969395144856984,247.96892319081667,129.15299062948762
195,6.866112109086977,-229.1490452021002,-94.0042762603225,-127.3964527869983,31.41883444140277,-9.603091673219916,247.84855242664852,132.26807391888102
196,6.677907214933333,-228.7222752245038,-94.64984216604037,-130.91932123531427,30.98408753766441,-9.19403173294815,247.69343291875035,135.5900338568969
197,6.488709367183248,-228.25791504855303,-95.28947994252113,-134.72558585147382,30.42472221576985,-8.744998712817557,247.50228094104995,139.16278474352623
198,6.300273255605305,-227.75566395302064,-95.92146044266826,-138.85595488300075,29.743080177678475,-8.259726160924185,247.2742651538092,143.03189711738244
199,6.114322516050096,-227.21559662823393,-96.54438499722589,-143.35201381488056,28.942565649243445,-7.742803291043357,247.00904637019426,147.24411749088137
200,5.932521535870823,-226.6381757709078,-97.1572300922634,-148.25581333852915,28.027512792663266,-7.199551862188862,246.70681004871935,151.84683269548438
201,5.756449769766354,-226.02425678688044,-97.75938712511643,-153.60940142464116,27.00303718167917,-6.635877559075146,246.36828982725294,156.88748226717158
202,5.5875790568506245,-225.37508341185318,-98.35069657775213,-159.4543042087272,25.874876650314153,-6.058099689353481,245.9947806146627,162.41292578814236
203,5.4272544351676455,-224.69227333449436,-98.93147585847598,-165.83096420223544,24.64922690388616,-5.472763558864948,245.58813995706177,168.46877558903253
204,5.276678895143947,-223.97779309604275,-99.50253995904451,-172.77814803572033,23.332577252928353,-4.886440296960806,245.15077651288306,175.09870856746954
205,5.136902361156171,-223.23392175953228,-100.06521379213015,-180.33233941316507,21.93155197742855,-4.305519184782447,244.68562454455693,182.343774041122
206,5.008815004059328,-222.46320320171705,-100.62133458081168,-188.52713611335506,20.452763267362805,-3.7359976807807804,244.1961034559265,190.24171745652575
207,4.893144827294617,-221.66838739425148,-101.17324216393598,-197.39267253159255,18.902682278785605,-3.18327436313415,243.6860616648387,198.82634222012783
208,4.790459357952157,-220.85236169152324,-101.72375485371474,-206.9550910958924,17.28753528698299,-2.651949999489176,243.15970460345937,208.1269335533272
209,4.701171206422179,-220.01807391375678,-102.27612870113462,-217.23608650742503,15.613231887937713,-2.145641980834075,242.62150743748276,218.16776866111425
210,4.625547197302678,-219.16844982144573,-102.83399864290838,-228.2525457389705,13.885331456594269,-1.666817395113799,242.07611409528297,228.96773622648257
211,4.56372068451388,-218.30630826059212,-103.40130087499705,-240.01630379094811,12.109052486076926,-1.2166499715949441,241.52822519595452,240.54008501963185
212,4.515706550568502,-217.43427769018723,-103.9821768445462,-252.53403030174616,10.289326999827773,-0.7949059073932926,240.98247831625855,252.89231621042296
213,4.481418291352592,-216.55471797750704,-104.58086051477116,-265.80725547201257,8.430899076985675,-0.3998631236446895,240.4433247556162,266.02622705381987
214,4.460686536754968,-215.66965130425655,-105.20155207640032,-279.83253586817324,6.538462933702478,-0.028267737973643223,239.91490760302315,279.9381054806502
215,4.453278359192456,-214.7807057603964,-105.84828291128514,-294.60175218106986,4.616832388476002,0.32466951041632847,239.4009464123164,294.61906644671126
216,4.458916759571804,-213.8890747135032,-106.52477799442248,-310.10252273384714,2.671130461643554,0.6652354069105282,238.90463399172788,310.0555124806448
217,4.477299760400536,-212.9954943739262,-107.23432267229816,-326.3187092816427,0.7069858741753142,1.001134902874413,238.42855057976465,326.22969354885026
218,4.50811852936761,-212.10024114233565,-107.97964072715119,-343.230986074307,-1.2692773033726468,1.341371715631638,237.974599953007,343.1203357725492
219,4.551073892869203,-211.2031493487359,-108.76278992327977,-360.8174396267985,-3.2504695908730157,1.6960920208555186,237.5439708519037,360.7033050453363
220,4.60589056989319,-210.30364901165422,-109.58508002935014,-379.0541652596748,-5.2283961267587875,2.0763960296742723,237.13712573110578,378.95227029208047
221,4.672328584180377,-209.4008224302392,-110.44701679156704,-397.9158271277628,-7.193754314587317,2.494123615306259,236.75381746737932,397.8393318524111
222,4.750191589018464,-208.49347780211625,-111.34827361723003,-417.3761508932226,-9.136073391836977,2.961620985375356,236.39313337057237,417.3355829895082
223,4.839332137647971,-207.58023758831922,-112.28769097339617,-437.40832208852856,-11.04369703343202,3.4914955891386414,236.05356466465207,437.4115764773193
224,4.93965419706994,-206.6596390480379,-113.2633019395053,-457.98526822553487,-12.903807118778245,4.096366083557525,235.73309865798032,458.0376732770469
225,5.051113495882813,-205.7302442887391,-114.27238113495615,-479.0798085904154,-14.702484220316494,4.788613428154293,235.42933021987832,479.1842562337248
226,5.173716613317524,-204.79075720251768,-115.31151338914948,-500.6646622926556,-16.424798481936445,5.580138203996782,235.13958882809965,500.82179838564593
227,5.3075199024849855,-203.84014450695827,-116.37667803013832,-522.7123124162345,-18.054923541587005,6.4821282174216766,234.86107710172718,522.9207827990117
228,5.4526292504655345,-202.87775760300693,-117.46334458279313,-545.1947318401001,-19.576266008835823,7.504839532135407,234.5910162540063,545.4514786120134
229,5.609201318814888,-201.90345120229443,-118.56657600980049,-568.0829840519698,-20.971603546543285,8.657393420946299,234.32679339184705,568.3835857983828
230,5.7774464115311535,-200.91769391152965,-119.68113634067137,-591.3467195541539,-22.22322556978985,9.947591372619822,234.0661052505929,591.6857685181393
231,5.957632641190355,-199.92166541240587,-120.80160043193746,-614.9535947486249,-23.313071751006635,11.381750140363597,233.8070928901301,615.3251033049165
232,6.15009072717242,-198.9173346889562,-121.92246438353699,-638.868645102277,-24.22286477103565,12.964558741392393,233.54846206827128,639.2664733524113
233,6.355218618673336,-197.9075140230298,-123.03825555157222,-663.0536476783026,-24.93423498500704,14.698959206062067,233.28958440254272,663.4719435498092
234,6.573485174808739,-196.89588425369016,-124.1436411242986,-687.4665096528007,-25.42883581011277,16.58605267594275,233.03057506389965,687.9001525520084
235,6.8054322617234195,-195.88698807849232,-125.2335340172629,-712.0607192433505,-25.68844970646277,18.625032151976033,232.7723436900695,712.5057580827947
236,7.051674697752289,-194.88618984147953,-126.30319455227274,-736.7848937216403,-25.695085759593574,20.813142813293517,232.51661643328126,737.23897002837
237,7.312897394801787,-193.89960200878173,-127.34832613884996,-761.582456084452,-25.431071283728976,23.14567040066315,232.26592837481726,762.0452029137102
238,7.589848850831129,-192.9339800588564,-128.3651630828564,-786.3914676985784,-24.879141627255457,25.615957743862616,232.0235867294968,786.864875252281
239,7.883329991031847,-191.99658870043598,-129.35054872109382,-811.1446389212836,-24.02253432608607,28.215449172276756,231.7936062450228,811.6333781214689
240,8.194177333123264,-191.0950432694778,-130.30200222582235,-835.769533393537,-22.845095607079884,30.933762305230086,231.58061900740785,836.2812291940095
241,8.523239534410875,-190.23713095165002,-131.21777255710444,-860.1889745299858,-21.33140867332922,33.758786528138835,231.38976154392853,860.7344214573827
242,8.871346483882482,-189.43061718580572,-132.09687818292423,-884.3216549471574,-19.46695394183304,36.67680724628057,231.22654272892717,884.9149682279202
243,9.239270219514916,-188.6830432819652,-132.9391313605336,-908.0829415514802,-17.238311220520522,39.67265474096845,231.0966966057952,908.7416381811688
244,9.627677156482493,-188.00152191361377,-133.74514591782156,-931.3858611208744,-14.633412506983031,42.729876181785215,231.0060247959207,932.1308663458708
245,10.037071493442228,-187.3925375137978,-134.51632756705817,-954.1422437326014,-11.641851525559721,45.83092913817465,230.96023349865442,954.9978196267368
246,10.46773021878296,-186.86175847455624,-135.2548459637525,-976.2639944942227,-8.255252213871245,48.95739479523796,230.96477007819726,977.2575886171464
247,10.919630784173838,-186.41386743146174,-135.96358817197046,-997.6644578823762,-4.467693152297577,52.090208964059514,231.0246639945536,998.8264714014775
248,11.392373213310524,-186.05241507183365,-136.64609393794314,-1018.2598338235332,-0.2761786782744615,55.20990880322603,231.14437659346046,1019.6233099672637
249,11.8850991895792,-185.77970202880178,-137.3064740644521,-1037.9706008341873,4.31885922918974,58.29689283237566,231.32766410190433,1039.5708361160368
250,12.396411440362051,-185.59669248327725,-137.94931404294388,-1056.722899546154,9.313050401556515,61.33169123769055,231.57745795108693,1058.5969818372312
251,12.924297317517945,-185.50296201705686,-138.57956580238957,-1074.4498302334969,14.69759425343712,64.2952426512872,231.89576611598494,1076.6361094365946
252,13.466060743645452,-185.4966810827704,-139.2024308699043,-1091.0926208283538,20.45881576662899,67.16917264979088,232.28359848239407,1093.6301195779708
253,14.018266688900832,-185.57463426645862,-139.8232383603055,-1106.6016273518817,26.57780005402046,69.93606831852469,232.74091836995177,1109.5294007879781
254,14.57670213169482,-185.73227433153303,-140.44732112667486,-1120.9371362941893,33.030133646971066,72.57974248776983,233.2666213327104,1124.293591481983
255,15.136357035483291,-185.9638088156038,-141.07989338266225,-1134.069947553506,39.78577573734798,75.08548075486922,233.8585413636941,1137.8921344909156
256,15.69142824550471,-186.26231574385406,-141.72593335852568,-1145.9817262836805,46.80907542479234,77.44026424694616,234.51348380347832,1150.304613591256
257,16.235348456898365,-186.6198840035251,-142.3900749715402,-1156.6651216110706,54.058942380255125,79.63296132447637,235.2272836777059,1161.5208708745133
258,16.760841596290103,-187.0277733099045,-143.07651272593085,-1166.1236589365674,61.489169305627314,81.65448208938078,235.99488782558444,1171.5409122121025
259,17.260005064526368,-187.4765885267291,-143.7889238251223,-1174.3714198443702,69.04889624997344,83.49789058953571,236.8104588879976,1180.3746149996052
260,17.724418290178214,-187.95646318311307,-144.53041073810635,-1181.432529154427,76.68320009336009,85.1584709224426,237.66749881195545,1188.0412574843185
261,18.145276025671087,-188.4572471048981,-145.30346634086342,-1187.3404723517685,84.33378775977512,86.63374497682248,238.55898888124025,1194.568892296013
262,18.513543893574763,-188.96869307605394,-146.1099624464758,-1192.1372687621645,91.93976903593227,87.92344130808847,239.4775424664705,1199.9935886081446
263,18.820132891902126,-189.4806374738251,-146.9511612094163,-1195.8725268220455,99.4384841511113,89.0294166205793,240.41556589037023,1204.358568091504
264,19.05608883827257,-189.98317000354186,-147.82774759452354,-1198.6024079755996,106.76636234350829,89.95553341017677,241.3654221537526,1207.7132598666867
265,19.21279203405973,-190.46678803023292,-148.73987986009746,-1200.388525366282,113.85979019837936,90.70749924183362,242.3195918025107,1210.1122992493404
266,19.28216184870512,-190.92253155887627,-149.68725394188104,-1201.2968026936721,120.65597208750516,91.29267460906799,243.27082501270684,1211.6144942971353
267,19.25686064339056,-191.34209566626504,-150.66917686004092,-1201.3963173827174,127.0937688980247,91.71985714575875,244.21227912529395,1212.2817829598955
268,19.130491572305782,-191.71791813697695,-151.6846437488027,-1200.758150518226,133.11450471785287,91.99905000886466,245.13763634966872,1212.1782019015575
269,18.897785180687354,-192.04324113861577,-152.7324127619241,-1199.4542638985188,138.66273371749725,92.14122148154473,246.041197074998,1211.3688858222988
270,18.55477003807447,-192.31214686660803,-153.81107211491414,-1197.556422304074,143.68696089961674,92.15806141314135,246.91794516895268,1209.9191135950355
271,18.098922692340814,-192.5195681096548,-154.91909416683362,-1195.1351769829762,148.14031070036978,92.06173839260546,247.76358289075733,1207.8934150921186
272,17.529292145711295,-192.6612756187293,-156.054872755192,-1192.2589246716539,151.98113678967408,91.86465996709623,248.5745346187143,1205.354750507259
273,16.84659417064489,-192.73384496953165,-157.21674171603442,-1188.9930552711025,155.17356512671878,91.57923702215102,249.34792032874608,1202.3637723981801
274,16.053271289370702,-192.73460617903606,-158.40297432710102,-1185.3992004697557,157.68796082690164,91.21765268104082,250.0815013899353,1198.978179526486
275,15.15351511316798,-192.66157959248403,-159.6117651216992,-1181.534594914095,159.50130819726945,90.79163574384755,250.77360258930324,1195.2521706844868
276,14.15324888743536,-192.51340155473588,-160.84119710361284,-1177.4515607197513,160.59749282686343,90.31223885354208,251.423015379111,1191.2360058800712
277,13.060069435992215,-192.2892432789982,-162.0891988215198,-1173.1971248944335,160.96747512692133,89.78962238036641,252.02888825346514,1186.975681252988
278,11.883149170591034,-191.98872630500284,-163.35349686540957,-1168.8127772372247,160.60934626090776,89.23284641240576,252.59061092602855,1182.5127225563695
279,10.633100342169893,-191.61183808563945,-164.63156988784976,-1164.3343731180316,159.52825988679456,88.64967490212733,253.10769950018576,1177.8840995516482
280,9.321805112200208,-191.15885145149113,-165.92061011741714,-1159.7921810602677,157.73623636813258,88.04639752474641,253.57968993215226,1173.1222600060346
281,7.962216145416923,-190.6302517534509,-167.21749759716423,-1155.2110694365851,155.2518399050383,87.42767589159817,254.0060466529202,1168.2552772790075
282,6.5681332075435535,-190.02667522809313,-168.51879123734892,-1150.6108203533674,152.09973328323034,86.79642137589516,254.386092243647,1163.307100213029
283,5.153961779298866,-189.3488615679647,-169.8207394418669,-1146.0065526417075,148.31011964359163,86.15371198632769,254.71896270233287,1158.2978888837947
284,3.734460065795551,-188.59762289691466,-171.11931174805622,-1141.4092305688828,143.91808582071207,85.49875546379924,255.0035913018027,1153.244415470636
285,2.324480965081806,-187.77383045249528,-172.41025172175833,-1136.8262311918486,138.96286710637472,84.82890497573581,255.23872247793292,1148.1605067675368
286,0.9387154869640172,-186.87841931952119,-173.68915026628468,-1132.261941697963,133.4870581073048,84.13973230202849,255.42295564368922,1143.0575040592812
287,-0.40855620329255005,-185.91241056606134,-174.9515374247193,-1127.7183586373171,127.53579785844032,83.42516121497947,255.55481724959935,1137.944717137928
288,-1.7037004119724897,-184.87694912869094,-176.19298959429662,-1123.1956632351832,121.15595892175115,82.67766098892577,255.63285777451978,1132.8298516626924
289,-2.9339470625053696,-183.77335472263118,-177.40924795600048,-1118.6927504628288,114.39536970980771,81.88849689147987,255.65576868740013,1127.719392372056
290,-4.087583800845715,-182.60318184131813,-178.59634313772244,-1114.207693867586,107.30209692838886,81.04803143042686,255.62251291559406,1122.6189285385944
291,-5.154123122487644,-181.36828373565342,-179.75072079483175,-1109.7381331157776,99.92381108697589,80.14606737451649,255.53246119609958,1117.5334123871944
292,-6.124439292949209,-180.07087453007455,-180.86936276112428,-1105.281576643539,92.30725267351109,79.1722213604354,255.38552606568473,1112.4673458935642
293,-6.990872723174116,-178.71358358553658,-181.94989854478095,-1100.8356175584645,84.4978100987804,78.1163153700342,255.18228524103986,1107.4248963133393
294,-7.747300523622959,-177.29949678782148,-182.99070218927125,-1096.3980667104963,76.53921333404273,76.96877257069619,254.9240866813875,1102.4099457426892
295,-8.389173103062111,-175.83218045472165,-183.99096985605382,-1091.967012259205,68.47333980998583,75.72100395578644,254.61312856769686,1097.4260846394006
296,-8.913517829939904,-174.3156848996849,-184.95077388793783,-1087.540819643904,60.340122043077024,74.3657728401061,254.25250867029968,1092.476563112654
297,-9.318911897797792,-172.75452623029722,-185.8710896917707,-1083.1180891893603,52.17754000399713,72.89752541715436,253.84623909518172,1087.564216515351
298,-9.60542755303834,-171.1536465274028,-186.75379270739603,-1078.6975902775355,44.0216760067849,71.31267702821525,253.39922419546897,1082.6913830817168
299,-9.774553619511073,-169.5183540468399,-187.60162400827863,-1074.278190626006,35.90680658889704,69.60984526189006,252.9172014336256,1077.859830599674
300,-9.829097681882116,-167.8542465172917,-188.41812452844727,-1069.8587962650165,27.865505027586522,67.79002234521008,252.40664705318312,1073.0707059300414
301,-9.773073358425327,-166.16712191327446,-189.2075393860373,-1065.4383123093805,19.92872993811902,65.85668050746752,251.87465042471436,1068.3245155885872
302,-9.611576862692713,-164.4628819896254,-189.97469527338686,-1061.0156275374693,12.125879573783394,63.81580520916141,251.32876269121255,1063.6211385274119
303,-9.350656603025266,-162.747434032617,-190.72485539517257,-1056.589618825726,4.484797560645563,61.67585249670639,250.776826620091,1058.959865366026
304,-8.997179012423954,-161.02659557366457,-191.46355778554957,-1052.159166312643,-2.968276618598084,59.447628403210395,250.2267951543533,1054.3394532677014
305,-8.558693292033297,-159.3060054009382,-192.1964437927597,-1047.7231677012508,-10.208810579969999,57.14409029381192,249.6865459939934,1049.7581833221202
306,-8.043297415621426,-157.59104254299405,-192.92908400362984,-1043.2805403856614,-17.214124995072066,54.780072257907605,249.16369886636988,1045.213907680424
307,-7.459507572969474,-155.88675354154265,-193.66680896039543,-1038.8302025882308,-23.963564413927703,52.37193890754747,248.66544136849066,1040.7040762518434
308,-6.816133077642477,-154.1977876344974,-194.414551755615,-1034.3710287631693,-30.438669215338024,49.93717408950057,248.19836864742607,1036.2257368565079
309,-6.122158497648683,-152.5283394134156,-195.17670894448568,-1029.9017795203085,-36.6233224419739,47.49391301944464,247.76834167768584,1031.775507736289
310,-5.386634420713436,-150.8820988432574,-195.95702515542402,-1025.4210114995783,-42.50384639970325,45.06042830652794,247.38036830193545,1027.3495265727015
311,-4.618577966516881,-149.26220901974446,-196.7585053914736,-1020.9269769978582,-48.06902846986734,42.65458239650979,247.03851044742234,1022.9433847266564
312,-3.826883924240531,-147.67123262749882,-197.5833574596835,-1016.4175256927207,-53.31006275544407,40.29326116840014,246.74582009758706,1018.5520583030664
313,-3.020247070493898,-146.11112870955816,-198.43296535710476,-1011.8900209137321,-58.22040278526615,37.99180567752699,246.5043057449199,1014.1698482250456
314,-2.2070956418307386,-144.5832418732752,-199.3078928460306,-1007.3412806845167,-62.79552941935503,35.76346116122244,246.3149301084063,1009.7903398282823
315,-1.3955351143333257,-143.08830615700708,-200.20791502914682,-1002.7675499122954,-67.03264647505584,33.6188642442974,246.17763882690204,1005.4063892095326
316,-0.5933005951867708,-141.6264653247147,-201.1320747585193,-998.1645056208893,-70.93032383692335,31.565590703019364,246.091418778302,1001.010139614593
317,0.19228450540134392,-140.1973104376701,-202.07876033812587,-993.5272929469232,-74.48811355545716,29.60778704066872,246.05438381805627,996.5930674252968
318,0.9543461544163456,-138.79993440338768,-203.04580107652595,-988.8505864354078,-77.7061684973891,27.74590918575197,246.0638851188376,992.1460544548016
319,1.6864962690290453,-137.43300202435032,-204.03057750480906,-984.1286693002003,-80.58489535550108,25.97659036331113,246.11664280121767,987.6594815743521
320,2.3828702197769913,-136.09483298477244,-205.030143234626,-979.3555226961896,-83.12467398166253,24.29265714903657,246.20889503387625,983.1233380786396
321,3.0381665017463386,-134.78349434434003,-206.04135536585736,-974.5249173490745,-85.32567261200816,22.683307649985405,246.33656021197055,978.527341284414
322,3.647688934757563,-133.49689857277298,-207.06101002342774,-969.6305006419902,-87.18778321184625,21.13445869319468,246.4954072188308,973.8610611684234
323,4.20739091806102,-132.23290293652536,-208.08597901755965,-964.6658729797545,-88.71069285919232,19.629260108213696,246.68122812899685,969.1140449115093
324,4.713920429670959,-130.98940600753244,-209.1133428774429,-959.6246475822436,-89.89409632611832,18.148764125285215,246.8900070252135,964.2759357072002
325,5.164663571280321,-129.764437149426,-210.1405148065662,-954.5004877980032,-90.73804285847358,16.672727236588536,247.1180780174521,959.3365791786717
326,5.557783555784577,-128.55623507656213,-211.16534968405685,-949.287116037393,-91.24339803322624,15.180511436140561,247.36226528260272,954.2861097691645
327,5.892251246175044,-127.363311971427,-212.18623230017283,-943.9782892401977,-91.41239100888406,13.652042558670455,247.6199981673928,949.1150093613194
328,6.167862878324429,-126.18450017284428,-213.2021397279422,-938.567738111311,-91.24920970839777,12.068776494635605,247.8893952492593,943.8141319326296
329,6.385240631862802,-125.01897913181372,-214.21267411000255,-933.0490715216353,-90.76060213720763,10.414620269728179,248.16931275900905,938.3746916917033
330,6.545812318497055,-123.86628115850996,-215.2180639421988,-927.415653186566,-89.95644117894125,8.676754988884403,248.45935473022504,932.7882176261792
331,6.651767486814728,-122.7262753926328,-216.219133745235,-921.660463956977,-88.85021245915866,6.846311683465597,248.75984426393956,927.0464837096375
332,6.705988425797745,-121.59913043508482,-217.21724345748487,-915.7759682700944,-87.4593896823821,4.918858914842709,249.07175706203608,921.1414296398766
333,6.711955725082282,-120.48525725473125,-218.21419985765175,-909.754006120192,-85.80566863409068,2.8946719853921103,249.3966198371676,915.0650904879373
334,6.673629301377608,-119.38523526152423,-219.2121430504765,-903.585731605561,-83.91503920551219,0.7787670315223908,249.73637750450598,908.8095542432679
335,6.5953073111007505,-118.29972559970493,-220.21341177670817,-897.2616158451647,-81.81768380519905,-1.4193017462223347,250.09323431623358,902.3669640110554
336,6.48146715699464,-117.22937661000923,-221.22039204103484,-890.7715266147945,-79.54769992860285,-3.6858679574716438,250.4694752356215,895.7295772299351
337,6.336594624643941,-116.17472698121789,-222.2353541005263,-884.1048902678868,-77.14265416080532,-6.003773455688486,250.86727466446303,888.8898884777484
338,6.1650087137544505,-115.13611226544788,-223.26028312231108,-877.2509339097821,-74.64298423740205,-8.35314206128205,251.28849999572608,881.8408156762459
339,5.970690708884315,-114.1135800730306,-224.29670889709323,-870.1989978115387,-72.09127458235068,-10.712255839270123,251.73451739644364,874.5759421637072
340,5.7571263665260775,-113.10681842720513,-225.34554006659732,-862.9389004584709,-69.53143830131916,-13.058477832361087,252.20600691488346,867.0897999171677
341,5.527169780017973,-112.11510061548464,-226.40690852208658,-855.461332658764,-67.00784407343342,-15.369164332187779,252.7027936561439,859.3781733904356
342,5.282936557395782,-111.13724862503315,-227.48002994974058,-847.7582540809977,-64.56442894921445,-17.622513551498802,253.22370147410297,851.438400306698
343,5.025732468776287,-110.17161604086384,-228.56308674586717,-839.8232662300703,-62.243837246587034,-19.798305509699258,253.76643528622213,843.2696461460888
344,4.756021801179407,-109.2160902080259,-229.65313941514992,-831.6519400617448,-60.0866215533318,-21.87849910254592,254.3274975181144,834.8731329218103
345,4.473437493227626,-108.26811258027664,-230.7460719556573,-823.2420830705096,-58.13053479784489,-23.847665351525563,254.90214322934617,826.2523090943239
346,4.176832942257194,-107.32471551800825,-231.83657577419586,-814.5939381627135,-56.409933308681,-25.693249275984684,255.48437730256816,817.4129545616124
347,3.864373372691801,-106.3825733161897,-232.9181756293329,-805.7103135646979,-54.95530083051442,-27.405665396334065,256.0669959133922,808.3632212116997
348,3.5336629395333046,-105.43806493809086,-233.9833000472716,-796.5966486926073,-53.79289377571988,-28.978242539343956,256.6416734082563,799.1136148160667
349,3.18190233878905,-104.48734588673132,-235.02339745873766,-787.2610251345446,-52.94449971536314,-30.40704171094696,257.19909461042903,789.6769279070369
350,2.806070545412011,-103.52642688529386,-236.0290978378931,-777.7141345509842,-52.427295182252706,-31.690575989382992,257.72913134444894,780.0681356389332
351,2.4031233241060805,-102.55125742291756,-236.99041792023206,-767.9692160909354,-52.25378571190818,-32.82946357239111,258.2210605857948,770.3042672207309
352,1.970200385304473,-101.55781259534758,-237.8970062067705,-758.0419745537147,-52.431810448352095,-33.8260444058595,258.6638201009741,760.4042640390854
353,1.5048326282467464,-100.54218199352155,-238.73842193045684,-747.9504871070301,-52.9645947983421,-34.68398761526587,259.0462957313778,750.3888321474954
354,1.0051409551313852,-99.50065966971,-239.50444005586186,-737.7151016585823,-53.85083659009163,-35.407911886302124,259.3576326767383,740.2802920958518
355,0.4700186502352206,-98.4298343602921,-240.18537250283373,-727.3583252276303,-55.08481333335207,-36.003034776773404,259.58756149289735,730.1024243423411
356,-0.10070983301198247,-97.32667910430041,-240.77239443513335,-716.904697137936,-56.65650037977213,-36.47486056262232,259.72672828733016,719.8803049968429
357,-0.7061597956315052,-96.18863928765676,-241.25786370177448,-706.3806402878673,-58.5516924347872,-36.82891052790729,259.76701787880086,709.6401251753687
358,-1.3442919102112205,-95.01371815081667,-241.63562126057107,-695.8142840961183,-60.75212449103093,-37.070495346756346,259.70185846423465,699.4089878133504
359,-2.011856313766892,-93.80055889791201,-241.90126062015182,-685.2352542903562,-63.235592938610274,-37.20452677492248,259.5264965734189,689.2146777383578
360,-2.7043777302086887,-92.54852247961111,-242.05235511403896,-674.6744266685179,-65.97608274520387,-37.23536530572763,259.2382317953731,679.085403262853
361,-3.4161829957812455,-91.25775964221172,-242.08863328548796,-664.1636438424214,-68.9439111146854,-37.16670153382746,258.836601950483,669.0495099459482
362,-4.140471267889608,-89.92927492027822,-242.01209479718523,-653.7353957832928,-72.10590098610601,-37.00147129070979,258.3235110392929,659.135169390654
363,-4.869426124264765,-88.56497914318074,-241.82706187099546,-643.4224668772627,-75.42559873316343,-36.741807505325866,257.70329431071644,649.3700480562347
364,-5.594367599358429,-87.16772612276239,-241.54016397823898,-633.2575539996989,-78.86354960777182,-36.38903436068873,256.98271698776125,639.7809628630756
365,-6.305940913071146,-85.74132883255193,-241.16025605170785,-623.2728612961483,-82.37764222226032,-35.94371087912028,256.17090541403263,630.3935312998055
366,-6.994337226443606,-84.29055069977596,-240.69827269912628,-613.4996774212797,-85.92353002032185,-35.4057310804198,255.27921151171952,621.2318233163949
367,-7.649540242193202,-82.82106851560071,-240.16702268777343,-603.967939956911,-89.4551334184138,-34.77448620431108,254.32101336503428,612.318020531421
368,-8.261590975941221,-81.3394047590386,-239.58092939525292,-594.705790270123,-92.92522119872757,-34.049091400755024,253.31145645458403,603.6720858779046
369,-8.820861784109153,-79.85282866273563,-238.9557241280542,-585.7391211880513,-96.28606403181172,-33.228675203085366,252.26714165229126,595.3114448072251
370,-9.318329992547682,-78.36922693455377,-238.30810028228785,-577.0911204170869,-99.49014720969176,-32.312725453713696,251.2057675645642,587.2506785016133
371,-9.745841351818083,-76.89694650728322,-237.65533722936064,-568.7818150177997,-102.49092448382798,-31.30148047849838,250.14573610007352,579.5012307158324
372,-10.096353946113911,-75.4446129595122,-237.01490351762942,-560.8276263665964,-105.2435910460509,-30.19634943206067,249.10573118448949,572.0711329063698
373,-10.36415383426285,-74.02092937795346,-236.4040495463032,-553.2409503743969,-107.70585179454142,-29.000341095253884,248.10428141196252,564.9647568361988
374,-10.545034459724755,-72.63446143763684,-235.83940040719494,-546.0297834086504,-109.83866154120106,-27.71847633068033,247.15931822997317,558.1826091270633
375,-10.636432902191219,-71.29341531868887,-235.33656012141896,-539.1974191991668,-111.60691681880823,-26.358156360802877,246.28774201573904,551.7211871976345
376,-10.637517599707653,-70.00541569198658,-234.90973882734997,-532.7422446126811,-112.98008396793982,-24.929457584580913,245.50500892805957,545.572919307351
377,-10.549224174753103,-68.77729133000653,-234.57141432578058,-526.6576611605187,-113.93275425259847,-23.44532430894222,244.8247514238474,539.726211538944
378,-10.374238076325272,-67.61487590655776,-234.33203862493062,-520.9321535471848,-114.44512262216324,-21.921633853376534,244.25844465863923,534.1656203986057
379,-10.116924616461947,-66.52283126116059,-234.1997987834632,-515.5495166227424,-114.50339114156809,-20.377114031319145,243.81512966576628,528.872161181109
380,-9.783208661269459,-65.50449983624681,-234.18043950487157,-510.4892391148067,-114.10010003861561,-18.833100827647073,243.5012023150155,523.8237504168246
381,-9.380407912166419,-64.56179211561806,-234.27715271641873,-505.7270285730836,-113.2343883434709,-17.313133760191157,243.32027471271863,518.9957674889952
382,-8.917025473602148,-63.69511367049987,-234.4905369531072,-501.2354491996306,-111.91218263600156,-15.842397246439436,243.27311309622615,514.3617079877358
383,-8.402509210235328,-62.90333492029997,-234.8186268976298,-496.984634382532,-110.14630759129614,-14.447027338848041,243.357653543068,509.89389137480714
384,-7.846987145259648,-62.183805114702125,-235.25699094763058,-492.943029976116,-107.95650717576702,-13.1533133399457,243.5690940446607,505.5641794040375
385,-7.260989663237054,-61.53241049952181,-235.7988922447952,-489.0781233697113,-105.36936165358249,-11.986832032040189,243.90005877178268,501.34466031982424
386,-6.655170227612306,-60.943675145124566,-236.43550633696606,-485.35711737906234,-102.41808381368904,-10.971557836299635,244.34082780404793,497.2082574971991
387,-6.0400362957298315,-60.41090138896831,-237.15618678758304,-481.7475165630356,-99.14217849947646,-10.128994832408964,244.87962340072366,493.12922961214923
388,-5.425700930722791,-59.92634523305122,-237.94876887646208,-478.21760547339727,-95.5869528322538,-9.477376198106597,245.50294231730396,489.0835415320706
389,-4.8216635361659055,-59.48142047946968,-238.79990115972865,-474.73681166470584,-91.80287035286348,-9.03097339844577,246.1959228688759,485.04909905141704
390,-4.236625689726723,-59.06692413205891,-239.69539485709657,-471.2759589730844,-87.84475010897748,-8.799551610336923,246.94273526975942,481.0058542896286
391,-3.6783456155021326,-58.673274808378764,-240.62058145670585,-467.80742700700023,-83.7708205316318,-8.787999799763515,247.72698394341077,476.9358002611066
392,-3.1535325510424053,-58.290755586569105,-241.56066938873568,-464.3052400018538,-79.64164662264537,-8.996154182141643,248.53211082032524,472.82288161383514
393,-2.6677801527369254,-57.909752786668996,-242.5010911355156,-460.7451117199323,-75.51895643509243,-9.418823321641378,249.3417891241237,468.6528531201368
394,-2.225536191386555,-57.5209826519096,-243.42783271016083,-457.10447292739303,-71.46439828698638,-10.04601276839956,250.14029777803958,464.4131180056957
395,-1.830104245609588,-57.115698765052855,-244.3277379322178,-453.36250466195384,-67.53826324326388,-10.863337620521605,250.91286723546222,460.0925750512025
396,-1.4836720907306258,-56.68587423612129,-245.1887803105094,-449.50019505536096,-63.79820822701202,-11.852603147170708,251.64598818659812,455.68149765757215
397,-1.1873612055883913,-56.22435409179651,-246.0002957763109,-445.50043121875177,-60.298014190409276,-12.99252679105072,252.32767534927856,451.17146116817196
398,-0.9412923251218805,-55.724974746255555,-246.75317028601722,-441.348131813003,-57.08641189697852,-14.259569537296608,252.947679667463,446.5553280267994
399,-0.7446629498876826,-55.182648808806924,-247.43997765764416,-437.03042111578134,-54.20600585312465,-15.628840831357307,253.49764389941092,441.8272946819017
400,-0.5958336766240843,-54.59341468538566,-248.05506494721743,-432.53684189679205,-51.69232521915967,-17.075039065348353,253.97119877187993,436.9829998638012
401,-0.4924208296102876,-53.95445148359056,-248.59458501253806,-427.8596021279565,-49.57302899839834,-18.57338931896992,254.36399941560055,432.01969089687174
402,-0.4313932029374024,-53.26406078818999,-249.05647832854447,-422.99384911426307,-47.86729086115479,-20.10054163722381,254.6737044018919,426.93644266529077
403,-0.40917097285167775,-52.52161805468072,-249.44040831241114,-417.93796341817085,-46.585385857937865,-21.63539650259262,254.89990211123413,421.73442206899205
404,-0.421725126203471,-51.72749762062892,-249.7476561828976,-412.6938632964992,-45.7284964360242,-23.15982894929733,255.04399117261883,416.4171885854669
405,-0.4646760750591174,-50.88297645421691,-249.98098255375152,-407.26730786489816,-45.28874848429945,-24.659288512927205,255.1090231133305,410.9910184814148
406,-0.5333904655835444,-49.99012250953608,-250.1444633853794,-401.6681839299262,-45.249480034933995,-26.123258389180076,255.0995159449825,405.4652363887537
407,-0.6230755225109396,-49.05167382547265,-250.2433075329891,-395.91075791934196,-45.58573655193136,-27.545563256778557,255.02124710067744,399.8525339214665
408,-0.7288705329297815,-48.070914341047114,-250.2836621217553,-390.01387134105516,-46.26497825936214,-28.92452082469265,254.88103312690518,394.1692515147048
409,-0.8459352018435802,-47.051551866167436,-250.2724107838599,-384.0010563912499,-47.24797730146268,-30.26293717834647,254.6865022636112,388.4355974070393
410,-0.9695346430108571,-45.99760275059813,-250.21696887303142,-377.9005481997692,-48.48987605597463,-31.56795046618465,254.44586497741128,382.6757771635256
411,-1.0951207691075089,-44.91328665553758,-250.12507934038067,-371.7451720261321,-49.94137291900517,-32.85073144206359,254.1676868765681,376.9180086513568
412,-1.218409787136006,-43.80293371900901,-250.0046128648711,-365.57208758571215,-51.54999855756382,-34.12605293542484,253.86066813797612,371.19440104173594
413,-1.335455313292881,-42.67090549316916,-249.86337580606988,-359.4223784741441,-53.26144409173556,-35.411743603291754,253.53343337683262,365.54068213850303
414,-1.4427163275198227,-41.52153026387038,-249.70892947437153,-353.3404820337604,-55.0209029057739,-36.72804447819242,253.19433567081606,359.99576582479597
415,-1.53711895865147,-40.35905261489093,-249.54842416281195,-347.3734634050085,-56.774389621304,-38.096889933007034,252.85127825824932,354.6011601209818
416,-1.6161110684746205,-39.187596358892044,-249.3884514260405,-341.57014620350765,-58.47000282576248,-39.54113766554479,252.51155733167946,349.40022550426573
417,-1.6777087275106162,-38.011139325276844,-249.23491817649705,-335.9801205828698,-60.05910193885826,-41.08377490440527,252.18172931148158,344.4373019983205
418,-1.7205337502609461,-36.83349809455854,-249.09294610914114,-330.65265695039756,-61.497372629822806,-42.74712983349535,251.86750584307035,339.7567315571721
419,-1.7438414037678713,-35.658320657563976,-248.9667995414891,-325.63556006788775,-62.74575906376571,-44.552117766690436,251.57367930462107,335.4018090999928
420,-1.7475373292628393,-34.48908506650982,-248.8598438578416,-320.974003500063,-63.77124469455546,-46.517550503666456,251.30408072004332,331.4137009259195
421,-1.7321827244053636,-33.3291022207434,-248.77453544394334,-316.7093881897679,-64.54746630512103,-48.659534359734174,251.06157067865942,327.8303729466348
422,-1.6989869049683373,-32.18152085341656,-248.71244249146145,-312.8782712848309,-65.05514874217056,-50.99097761226651,250.8480623438988,324.68557320302307
423,-1.6497864657004433,-31.049332623402325,-248.6742945822503,-309.5114122711933,-65.28235062939532,-53.5212217961158,250.6645741363592,322.0079136165841
424,-1.5870104226589703,-29.93537511290966,-248.66005770747586,-306.6329829642599,-65.22451456473065,-56.25580383506841,250.51130839928214,319.82009494570565
425,-1.513630975514874,-28.842330545367098,-248.66903039913228,-304.25998572022775,-64.88431916636533,-59.19634800405794,250.38775136894026,318.138316338035
426,-1.4330998493493932,-27.77271818475276,-248.69995594285527,-302.40191986640366,-64.27133507603847,-62.34057896854349,250.29278907173148,316.97190638171963
427,-1.3492705435471586,-26.728878714195616,-248.75114518512947,-301.06072927083096,-63.40149282148819,-65.68244057937477,250.2248333445506,316.3232058291273
428,-1.2663072958044352,-25.712949501335444,-248.82060422151798,-300.23105379830776,-62.29637721815647,-69.21230055505633,250.18195201258354,316.1877230024821
429,-1.1885822158735295,-24.72683059019306,-248.906161205663,-299.9007941328308,-60.98237034060214,-72.91721912997734,250.16199731558027,316.55457134998426
430,-1.1205627883504197,-23.772142475969382,-249.00558663751818,-300.0519836377202,-59.48967225000485,-76.78126019250698,250.16272692965586,317.40718511604723
431,-1.0666926670152126,-22.85017805019328,-249.11670185436844,-300.66194367590305,-57.851234723868295,-80.78582601483515,250.18191244451683,318.7242944194016
432,-1.03126930654103,-21.961852289799662,-249.23747116177762,-301.7046815102033,-56.10164749842614,-84.91000077581349,250.2174309962581,320.48112623386334
433,-1.0183224266653617,-21.10765406135681,-249.36607411971016,-303.15247388733167,-54.27601864198257,-89.13089293336819,250.26733691455752,322.65078386446464
434,-1.0314975048707167,-20.287604642733683,-249.50095583931665,-304.9775658599447,-52.40889050196486,-93.4239713208903,250.32991160520976,325.20574543071916
435,-1.0739484498033585,-19.50122716235553,-249.6408545583398,-307.1539043892707,-50.533230262655614,-97.76339396975472,250.4036912650263,328.1194125095238
436,-1.148243381397878,-18.74753024815329,-249.7848070909951,-309.65882070548076,-48.679529790116526,-102.1223316943129,250.48747327581165,331.3676343138692
437,-1.2562870516676918,-18.025008031341756,-249.93213398404708,-312.4745748336808,-46.875043554922264,-106.4732902686613,250.58030326558054,334.9301312071889
438,-1.3992628388544848,-17.33165746942073,-250.0824073992638,-315.5896801642452,-45.143186421199545,-110.78843563192363,250.68144592155153,338.79174415500495
439,-1.5775964056840135,-16.66501281851442,-250.23540576667875,-318.99993502628166,-43.50310531771819,-115.03992613876783,250.7903435809593,342.94344361437624
440,-1.7909420637282176,-16.02219607500978,-250.39105984214135,-322.709101146397,-41.96943065521089,-119.20025456596264,250.9065671463767,347.3830417259316
441,-2.038191751817783,-15.399981397175322,-250.54939480499016,-326.72918470088547,-40.552205301137555,-123.24260050160213,251.0297638245633,352.11556467985076
442,-2.3175054984935093,-14.794870845230689,-250.7104725815701,-331.08029346559124,-39.25698142722379,-127.14119106689623,251.1596057004864,357.1532569685683
443,-2.626361414591227,-14.203178117005544,-250.87433791214858,-335.79006258693835,-38.08506895313351,-130.87166500028317,251.29574245541627,362.51520531867766
444,-2.961622617236945,-13.621116380922789,-251.0409709136993,-340.89266119303863,-37.033913849602996,-134.4114324295332,251.4377607431849,368.2265870344734
445,-3.3196179376339705,-13.044886077314827,-251.2102480942258,-346.42741186777846,-36.09758037215979,-137.7400205888695,251.58515193093956,374.31756488029015
446,-3.696232838493648,-12.470758809430825,-251.381913027185,-352.43707407756466,-35.267308483802694,-140.8393945145915,251.73728917931322,380.82186775685864
447,-4.087006793195086,-11.895154061508453,-251.55555723291775,-358.9658598153534,-34.53211646748983,-143.69424129856688,251.8934142123386,387.7751122052697
448,-4.487233570173365,-11.314706251806301,-251.7306112588673,-366.05726374556565,-33.879419230007244,-146.29220655623595,252.0526336206768,395.2129329780878
449,-4.892061408342628,-10.726320427661827,-251.90634556705973,-373.7517998491977,-33.29563509357476,-148.62407222495946,252.21392421136716,403.1690004631096
450,-5.296590793767051,-10.127215751326291,-252.08188060290615,-382.0847411096095,-32.766757691644564,-150.6838657747301,252.3761467386043,411.6730078762196
451,-5.695968237105321,-9.51495684386333,-252.2562051330046,-391.0839576888049,-32.27887443778579,-152.46889276303628,252.53806712068948,420.74871155773184
452,-6.085475000506327,-8.887473911677311,-252.42820144183375,-400.76794236820285,-31.818618368103103,-153.97968778017926,252.69838380063734,430.4121035695673
453,-6.460610184369754,-8.243073096534387,-252.59667539589515,-411.1441003129143,-31.37354541704699,-155.2198832919955,252.85575935762193,440.6697875814662
454,-6.817168054473424,-7.580438510200024,-252.7603890340804,-422.2073645085979,-30.93243383197726,-156.1960013431488,253.0088541340871,451.5176174912466
455,-7.151309936447511,-6.898627043950153,-252.91809341665498,-433.93918010295437,-30.485506013591728,-156.91717884491615,253.15635970591458,462.93964442637576
456,-7.459631245624907,-6.197056522315933,-253.06855989987795,-446.306882350563,-30.024575352856065,-157.39484238067388,253.29703043477664,474.9074031258716
457,-7.73922412286488,-5.475487308847721,-253.21060861185663,-459.26347581315406,-29.54312165982629,-157.64235224217865,253.42971192056066,487.37955458741703
458,-7.987735769412043,-4.733997186554424,-253.34313352030233,-472.7478081814845,-29.03629884692361,-157.67463700506693,253.5533657552558,500.30188923035684
459,-8.203422058439163,-3.9729493017872057,-253.46512398007783,-486.6851210240087,-28.500878145260668,-157.50783892956133,253.66709044878417,513.607684064341
460,-8.385195449902001,-3.1929532644905962,-253.57568293632306,-500.9879517472994,-27.935129887995508,-157.15898688346547,253.77013866470597,527.2183984566454
461,-8.532665738805118,-2.3948201606030426,-253.67404199502653,-515.5573554625956,-27.33864729842866,-156.64570786272918,253.86193092951692,541.0446857873337
462,-8.646171817375997,-1.5795130861985978,-253.75957340341313,-530.2844114431683,-26.71211706716301,-155.9859814144586,253.9420658077356,554.9876921270192
463,-8.726802448452718,-0.7480955544318483,-253.83179875414493,-545.0519755662634,-26.0570437993909,-155.19793444586617,254.0103263064631,568.9406076069913
464,-8.776403954811464,0.0983194906201122,-253.8903940841691,-559.7366369273204,-25.375438360627495,-154.299668174615,254.06668212556445,582.7904310910527
465,-8.797572660365304,0.9586173701801639,-253.9351910165493,-574.2108334402313,-24.66948321943974,-153.30910523032716,254.11128733801172,596.4199040786068
466,-8.793629930828386,1.8317237991345188,-253.96617368478644,-588.3450778320874,-23.941190545348988,-152.2438434796457,254.14447316835674,609.7095656570963
467,-8.768577889302279,2.716639733335557,-253.98347141689246,-602.0102424283791,-23.192070773527583,-151.12100376037023,254.16673577633776,622.5398770972668
468,-8.727034368624984,3.6124677087650507,-253.98734752383137,-615.0798490646911,-22.42283055947187,-149.95706081342416,254.17871933225763,634.7933627323441
469,-8.674146327886303,4.518428724117683,-253.97818489477376,-627.4323098751535,-21.633119521337026,-148.76764974090557,254.1811950491441,646.3567134424933
470,-8.615481795329694,5.433868877395617,-253.95646931378462,-638.9530659185206,-20.821344788555532,-147.56734391336818,254.1750370796868,657.1228005954555
471,-8.55690152499068,6.358255200744958,-253.9227714768207,-649.5365736603985,-19.98457096688856,-146.36940421270936,254.16119629907806,666.9925516823034
472,-8.50441299501717,7.291160525756764,-253.87772867697228,-659.088094061474,-19.11852056326375,-145.1855037207787,254.14067305134932,675.8766439543625
473,-8.464010931205063,8.232237683700173,-253.82202705345398,-667.5252451010347,-18.217686114377447,-144.02543624463974,254.11448993856945,683.6969787683017
474,-8.441509960239857,9.18118386271246,-253.75638509850185,-674.7792855284297,-17.275560207508732,-142.89682102481808,254.0836656009819,690.3879065603733
475,-8.442376128828908,10.137696563778062,-253.68153873610365,-680.796104908635,-16.284983347922953,-141.80481911242342,254.0491901185658,695.8971797471529
476,-8.471564723749317,11.10142330142847,-253.5982277919755,-685.5369020760863,-15.238602448366223,-140.75187877859258,254.01200222002979,700.1866177873551
477,-8.533371905351416,12.071907836148005,-253.50718323131522,-688.978540643178,-14.12942499892973,-139.73752765922444,253.9729680692848,703.2324748125051
478,-8.631307022432503,13.048536216615334,-253.4091143064235,-691.1135762795269,-12.951446265660065,-138.75822807848647,253.93286116437352,705.0255056969886
479,-8.767991201103472,14.030486274809213,-253.30469478379797,-691.9499564103189,-11.700319772250156,-137.8073092748968,253.8923428887155,705.5707315462561
480,-8.945086082589983,15.016684391161176,-253.19454766292526,-691.5103992223035,-10.374035435880351,-136.87498637821957,253.85194345602048,704.8869108380126
481,-9.163254607130463,16.00577316006564,-253.0792281786863,-689.8314658155107,-8.973565601592478,-135.94847136740742,253.81204330704108,703.0057283322229
482,-9.422153737249133,16.99609301973099,-252.9592053265917,-686.9623471853262,-7.503437347244498,-135.01217632362736,253.7728553808243,699.9707206452248
483,-9.720457285904574,17.985680140759186,-252.83484258643387,-682.963396328788,-5.972190229845015,-134.04800450268638,253.73440902754572,695.8359650155937
484,-10.055905758967382,18.97228200387217,-252.706378853367,-677.9044447024263,-4.39268231626563,-133.03572047798005,253.696536569082,690.6645659214914
485,-10.425379295568343,19.953391111389003,-252.57391075606208,-671.8629508779675,-2.782213736978936,-131.95338717108822,253.6588635847001,684.5269822708707
486,-10.824989236328184,20.926296188181226,-252.4373775630255,-664.9220368150131,-1.162445644887592,-130.77785520302163,253.62080391466375,677.4992451851414
487,-11.250183500844063,21.888149134893702,-252.29654982127227,-657.1684729469466,0.440897294311433,-129.48528874977399,253.58156021081254,669.6611221931558
488,-11.695860873458068,22.836044969611326,-252.15102281002962,-648.690676562223,1.998541610182682,-128.05171194144856,253.54013070284321,661.0942872316526
489,-12.156489544273864,23.76711107870725,-252.0002158673263,-639.5767882266446,3.478386310251882,-126.45356068446335,253.49532274184682,651.880556640022
490,-12.626225795962474,24.678601383307697,-251.84337866814457,-629.9128879613784,4.846409133516957,-124.66822642725725,253.44577364618246,642.1002490182623
491,-13.099029469832033,25.567990638059296,-251.67960556858338,-619.7814065642875,6.0677259871250016,-122.67458058276792,253.38997938795612,631.8307213243103
492,-13.568773723441652,26.433064076336695,-251.50785907411776,-609.2597781174927,7.107762737489026,-120.45347073454731,253.326331621248,621.1451251222954
493,-14.029347589425718,27.271997923077397,-251.32700316843753,-598.4193679806478,7.933491054723601,-117.9881819960382,253.25316328954642,610.11141598177
494,-14.47475090628897,28.083426746688954,-251.135846559166,-587.3246973408369,8.514674641094384,-115.26485860296934,253.1688024509881,598.7916364952428
495,-14.89918216106482,28.86649412895207,-250.93319500931992,-576.0329716770777,8.825069418696208,-112.27288179219042,253.07163316119954,587.2414801839889
496,-15.297120473646567,29.620883780625107,-250.71791114669634,-564.5939071824095,8.843521472369165,-109.00520026628901,252.9601615702869,575.5101306026625
497,-15.663403268101538,30.346829167104534,-250.4889796545958,-553.0498369602434,8.554909958995282,-105.45860921476746,252.83308501081626,563.640357988784
498,-15.993301124476591,31.045100975568726,-250.245575428129,-541.4360682156309,7.950888850288405,-101.63397315550796,252.6893616673841,551.6688454505351
499,-16.282590925677663,31.716973227602033,-249.98713193935336,-529.7814531619522,7.030391016938754,-97.5363870026692,252.52827822447577,539.6267084699922
500,-16.527627751657988,32.364170266496835,-249.71340671255444,-518.1091303678344,5.799870140184966,-93.17526902780101,252.34951267919234,527.5401658548483
501,-16.72541507594106,32.98879797037131,-249.42454062626777,-506.4373900614354,4.273269292740486,-88.56437899293137,252.15318940451814,515.4313174647046
502,-16.873671776020622,33.59326326812812,-249.12110775267786,-494.78061652414044,2.471718683998198,-83.72175481999183,251.9399235701425,503.31898404255946
503,-16.97089347113053,34.18018642788229,-248.8041525335935,-483.1502628266223,0.4229780094561146,-78.66956179346487,251.7108521067885,491.2195669184707
504,-17.01640500166629,34.75231064565746,-248.47521133830216,-471.5558171332493,-1.8393497098269123,-73.43384961144756,251.4676486145609,479.14788954347574
505,-17.010400611227677,35.3124130868325,-248.1363160314731,-460.0057247706078,-4.276796495128957,-68.04421479850731,251.21252013986344,467.1179879247018
506,-16.953968532560037,35.86322080071139,-247.7899781292497,-448.50823533770694,-6.847156595639232,-62.533369186967754,250.94818461309504,455.14382222053854
507,-16.84909706519683,36.40733415240281,-247.43915326702842,-437.07214860030734,-9.505714471589819,-56.936619265441344,250.67782880746728,443.2398863087746
508,-16.698659777059643,36.947159814918244,-247.08718683113236,-425.70743642869627,-12.206523396535491,-51.29126581961364,250.40504775871176,431.42169571393623
509,-16.506378169012365,37.48485489105998,-246.73774256179,-414.42572089370907,-14.903684776135936,-45.635937856745535,250.1337675167596,419.70613711164725
510,-16.276761048193023,38.02228328537491,-246.3947166440954,-403.2405916826866,-17.552580881121973,-40.00987863557939,249.86815380392437,408.1116655160559
511,-16.015020941040802,38.56098502231771,-246.0621403067742,-392.1677502200409,-20.11101835169151,-34.45220418667968,249.61250966889503,396.6583391600746
512,-15.726968983467781,39.102158825697536,-245.7440743165665,-381.2249738698152,-22.54024610807575,-29.001155844430208,249.37116561201847,385.3676876173375
513,-15.41889065122993,39.64665791825166,-245.44449898047526,-370.4319013575256,-24.805818669940077,-23.693368293834553,249.14836588805701,374.2624159577648
514,-15.097405384329333,40.19499870287221,-245.167203308273,-359.8096496248836,-26.87828383452157,-18.563173964158878,248.94815472898657,363.36595630326576
515,-14.76931371983903,40.74738181154618,-244.91567684839663,-349.38028204186924,-28.733681735572702,-13.641963656644629,248.77426609408252,352.7018874219383
516,-14.441436090653125,41.30372488594379,-244.69300743041353,-339.16615741626185,-30.353850106330594,-8.95762210902018,248.6300202836585,342.293252143498
517,-14.120448013131076,41.86370617614408,-244.50178772862566,-329.18919757985617,-31.72653777698414,-4.534055514698495,248.51823041793588,332.161810397574
518,-13.812716895513876,42.42681745092419,-244.34403336802973,-319.4701174246616,-32.845334828283754,-0.3908255044913225,248.44112151654298,322.32727149210507
519,-13.524145943344156,42.99242385298759,-244.22111525741647,-310.02766414961224,-33.70943328779133,3.4570994273731017,248.4002647445809,312.80655191286655
520,-13.260030472179286,43.55982747341672,-244.13370873812298,-300.8779115611316,-34.32323678309046,6.999468602324675,248.39652913869318,303.6131038694722
521,-13.024931472500768,44.1283308943236,-244.08176173076689,-292.0336505339917,-34.69584120104269,10.230748794274488,248.43005260480263,294.7563550464328
522,-12.822570722854369,44.697296922328405,-244.0644833087981,-283.5039088158892,-34.84041117858626,13.150003279120323,248.50023319245688,286.24129216668797
523,-12.655751146180213,45.26620112183467,-244.0803531715293,-275.2936233581618,-34.77347917581379,15.760660019374551,248.60574073299026,278.0682111048992
524,-12.52630531254283,45.83467434493536,-244.12715147336007,-267.40347750494647,-34.51419497657067,18.07018304301452,248.74454798120166,270.23264556861494
525,-12.435073954271262,46.40253306417048,-244.20200743892147,-259.8299046993693,-34.08355378551065,20.089664109778976,248.91397943810668,262.7254757724304
526,-12.381915185569284,46.96979588470103,-244.30146420045756,-252.56525056059365,-33.503630711900996,21.833353390766998,249.11077509401963,255.53320872431902
527,-12.365743912675603,47.53668522615872,-244.4215564732916,-245.5980766828993,-32.79684837520935,23.318148200727475,249.3311655743087,248.63841313764098
528,-12.384599689537074,48.10361394815175,-244.55789718084577,-238.91358263141657,-31.985302591132374,24.56305797753911,249.57095475952903,242.02028488405807
529,-12.435740037524358,48.67115765025553,-244.70576900974007,-232.49411763980063,-31.09016848824399,25.588661940646624,249.82560594401505,235.6553135809048
530,-12.515755137690968,49.240014374973725,-244.86021716484112,-226.31975063680846,-30.131205822255293,26.416573544558624,250.0903280173337,229.5180175477941
531,-12.62069899671576,49.81095435999619,-245.0161403314792,-220.3688664527638,-29.126377605072747,27.068923419047678,250.36015901234774,223.5817130062632
532,-12.746231745134718,50.38476322541562,-245.16837791364412,-214.6187572086347,-28.091590531908682,27.56787034742824,250.63004552450278,217.81928390148192
533,-12.887767539700567,50.96218233311004,-245.3117927512836,-209.04618066041726,-27.040559403916237,27.93514819735101,250.8949176771872,212.20392083843083
534,-13.040622482277954,51.54384979353526,-245.44134949923568,-203.62786131189281,-25.984791316621703,28.191655591528196,251.1497602143558,206.7098010433906
535,-13.200157051364346,52.130244783671124,-245.55218953152956,-198.34091513563445,-24.93367934606562,28.357094364956872,251.38968081621897,201.31268573363448
536,-13.361907867432324,52.721636875173864,-245.63970354262347,-193.16318456071951,-23.894690256927372,28.449662349486104,251.60997686448047,195.9904166333757
537,-13.521704210622742,53.31804137501016,-245.69960295932157,-188.07347679955532,-22.873626685725775,28.48580555567913,251.80620172237522,190.72329942797086
538,-13.675765546634004,53.91918145209503,-245.72799097947077,-183.051705284129,-21.87494146721709,28.480034086559126,251.974231305337,185.49436838537662
539,-13.820777382538171,54.52445803894264,-245.72143370408313,-178.0789405328637,-20.902080303222412,28.444804839358483,252.11033148281396,180.28953275882458
540,-13.95394403980117,55.13292898012526,-245.67703149139155,-173.13738272830773,-19.95782879280982,28.39047216078153,252.211226696512,175.0976114916524
541,-14.07301824303688,55.743299384173405,-245.5924901931757,-168.21027329865777,-19.04464089326803,28.325305274462124,252.27416990201058,169.9102678615585
542,-14.176308544998786,56.35392535730907,-245.4661912220821,-163.2817666202295,-18.164928088348695,28.25556874536478,252.29701335605864,164.72185983531244
543,-14.262666414700089,56.96283306772343,-245.297258577269,-158.33678543325962,-17.32129181780752,28.185659742528816,252.2782789616967,159.52922494534297
544,-14.331455379792006,57.56775436423346,-245.08562023432216,-153.36088460263701,-16.516685928692183,28.118293675815377,252.21722604711698,154.33142039972734
545,-14.382505099015377,58.16617912028686,-244.83206071654917,-148.3401474392853,-15.75450080870086,28.054728176596342,252.1139136701311,149.1294399007509
546,-14.416053720596388,58.755423383417686,-244.53826115768464,-143.261136927192,-15.038566157048312,27.995014539779344,251.96925382604886,143.92592827181218
547,-14.432682271344035,59.33271142638726,-244.20682281389372,-138.11092085496975,-14.373074708456738,27.93826562822506,251.78505138898052,138.72491341296157
548,-14.433244960520101,59.89526882235118,-243.84126995165033,-132.87718503931555,-13.762434272720936,27.882929652533054,251.5640263646588,133.53157223413928
549,-14.418799094925747,60.44042261667079,-243.44602846521695,-127.54844272794473,-13.211059786953657,27.82705993403879,251.309814187458,128.35204310679038
550,-14.390537853895628,60.96570368870365,-243.0263775367544,-122.11434133305744,-12.723120392582318,27.76857164873698,251.02694046438864,123.19329239364754
551,-14.349728599336956,61.46894574719901,-242.5883730867358,-116.56606051939976,-12.302258712027923,27.705477719228494,250.7207677664622,118.06303738214073
552,-14.29765876144929,61.94837523549369,-242.13874341696038,-110.89678894985198,-11.951300529827348,27.63609750856652,250.39741358605718,112.96972303840334
553,-14.235590622948576,62.402686754333835,-241.68475900128786,-105.10226105010807,-11.671973076748912,27.55923357707656,250.06364011235408,107.92254572490286
554,-14.164725565469677,62.83109941877734,-241.23407966104878,-99.18133016250934,-11.464649202571087,27.474313156208527,249.72671786328408,102.93151345412721
555,-14.0861777035463,63.2333908152622,-240.79458335457895,-93.13655048179918,-11.328133045000007,27.381491967808323,249.39426643823688,98.00752937339279
556,-14.000956414089135,63.60990677569596,-240.37418147938266,-86.97473724121154,-11.259500478479694,27.281718644241238,249.07407666129387,93.16248301870552
557,-13.90995700279732,63.96154676694336,-239.9806258869243,-80.70747282429625,-11.254004728058074,27.17675854767301,248.77391905566404,88.40933254398394
558,-13.813958548478135,64.28972606569445,-239.6213128824769,-74.3515259757895,-11.305054108530117,27.06917650291909,248.501343992471,83.76216079839551
559,-13.713627847995523,64.5963169878946,-239.3030896248088,-67.92915228946866,-11.404264990970988,26.96227896951516,248.26347926252916,79.23618897254681
560,-13.60952836726658,64.8835723120693,-239.03206865454686,-61.46824683706695,-11.541588993074068,26.86001747852831,248.0668313380059,74.84773366818858
561,-13.502133130721688,65.15403468027662,-238.81345649236746,-55.002324207764914,-11.705509310636085,26.766856659992342,247.9170969566194,70.61409661308339
562,-13.391840504819504,65.41043614946848,-238.65140203841665,-48.57030724258898,-11.88329736708826,26.687611726520206,247.8189915560196,66.55338062819456
563,-13.278991875783575,65.65559222539595,-238.5488698779447,-42.21611315524525,-12.061317837420923,26.627261651060568,247.77610052399928,62.6842305371675
564,-13.163890302403608,65.8922946995456,-238.50754281432592,-35.98803419556307,-12.225367807683572,26.590745315138513,247.79075847736652,59.02550308598665
565,-13.04681929863452,66.12320743467328,-238.52775717552686,-29.93791905239305,-12.361034488776358,26.582748553177645,247.86396099806936,55.59587513496833
566,-12.928060970415384,66.35076888802593,-238.60847357921804,-24.120170253216703,-12.454055585131801,26.607490323384326,247.9953123424163,52.41340391522585
567,-12.80791285941493,66.57710466876854,-238.74728471418953,-18.590581382685365,-12.490667164981716,26.66851627150605,248.1830114371092,49.495056631363965
568,-12.686703040034043,66.80395289783944,-238.9404602907379,-13.405045569988125,-12.457925698972254,26.76850778673619,248.42387699958152,46.85622890668225
569,-12.56480323154519,67.03260463558372,-239.18302783718403,-8.618173009730706,-12.343993753200385,26.90911432890251,248.7134110829283,44.5102723907859
570,-12.442639897388416,67.26386115466474,-239.46888675457555,-4.281859996123706,-12.138382395187671,27.090816316346558,249.04589901399044,42.46805124091049
571,-12.320703463257322,67.49800934292676,-239.7909521480424,-0.4438548776437319,-11.832147260077413,27.312825077890963,249.4145427141159,40.73754514901808
572,-12.199555837676943,67.73481602452382,-240.14132435672815,2.8536326222394925,-11.418038887014072,27.573025131459513,249.81162369116373,39.32351322012528
573,-12.079836360594433,67.97354146369157,-240.5114795951788,5.575233135491635,-10.89061084301492,27.86796229723561,250.22869136036417,38.227228638461106
574,-11.962266159226704,68.21297171171499,-240.8924765888603,7.693587527429704,-10.246290903437082,28.192878963906168,250.6567716739589,37.44628926878843
575,-11.8476506367899,68.45146876715137,-241.27517359093648,9.190346325693618,-9.483421001788297,28.541795380662723,251.08659036685208,36.97450485703791
576,-11.736879437841264,68.68703679879492,-241.65044975501164,10.056965750176253,-8.602270938659236,28.907633378603062,251.50880451901673,36.8018579791777
577,-11.630922808595196,68.91740199590407,-242.0094244680772,10.29527402068675,-7.605029290758661,29.28237668091412,251.91423557711863,36.914533732320365
578,-11.530823012841987,69.14010302403871,-242.3436679669022,9.917788849940472,-6.495772988877104,29.657260170794984,252.29409653974992,37.29501241797431
579,-11.43767957597486,69.35258865449411,-242.6453966338668,8.947774519284676,-5.280415051479299,30.02297934692705,252.64020597649426,37.92221994515286
580,-11.352627649381562,69.55231895055066,-242.9076470609275,7.4190344003147635,-3.9666283877085964,30.369910867240826,252.94518219174807,38.771732111133076
581,-11.276809574883103,69.73686639981608,-243.1244242374832,5.37544198308019,-2.563742779368127,30.68833563917114,253.20261210013118,39.81603099768966
582,-11.211340559522677,69.90401347429433,-243.29082073139924,2.8702201535233,-1.082612298743006,30.968657236516723,253.40719089708804,41.02481401750964
583,-11.157270040540855,70.0518431954756,-243.40310519077644,-0.03501556512863192,0.46454855606944145,31.201610089097702,253.55483006363565,42.36535802059782
584,-11.115540713904597,70.17881940902026,-243.4587797777978,-3.271428823493991,2.0643601337732664,31.37845330527857,253.6427325261154,43.80294163455869
585,-11.086947302044408,70.283853758843,-243.45660723949598,-6.7643235083085145,3.702502689372887,31.491146732946103,253.66943492027252,45.301328254373324
586,-11.07209702310276,70.36635688393307,-243.39660923179838,-10.434663573962178,5.363968051299807,31.53250596476705,253.63481792158535,46.823309861765885
587,-11.071373557076203,70.42627209133622,-243.28003824499203,-14.200716532081234,7.0333335006732485,31.49633281646065,253.54008649688672,48.33130850440425
588,-11.084906227808613,70.46409056648032,-243.10932599279295,-17.97978119190661,8.695052577855236,31.37751779130236,253.3877226439956,49.788028262125444
589,-11.112546112793645,70.48084800488407,-242.88801135504272,-21.689956822334835,10.333756894471296,31.172111536322436,253.18141363262168,51.15714638691638
590,-11.153850723493864,70.47810333960493,-242.62065089463792,-25.251908933158035,11.934562578397301,30.877363503229148,252.92595891067265,52.40402862363939
591,-11.208078669425444,70.45790090772239,-242.31271472211645,-28.590586768843163,13.48337464127885,30.49172796553266,252.6271587799466,53.49645106276554
592,-11.27419525661596,70.42271792981697,-241.970470229441,-31.636849500393016,14.967182253340146,30.014839991687698,252.29168783246783,54.40530955433067
593,-11.350889270012386,70.3753996619048,-241.60085601194274,-34.328961731828684,16.37433762643778,29.44746650379137,251.9269560517145,55.10529764331174
594,-11.43660045838204,70.31908502237323,-241.21134805368123,-36.61392371718975,17.694811048762364,28.79143962459202,251.5409603441121,55.57553474748486
595,-11.529556757051774,70.25712571073569,-240.8098198947853,-38.44860693409496,18.920414745245218,28.049580649459013,251.1421289644836,55.80012736826997
596,-11.627820073531028,70.19300167438654,-240.40439809091487,-39.80067090244866,20.044988758581628,27.22562292000353,250.73916085202492,55.76864717916073
597,-11.72933933136814,70.13023536325971,-240.0033139632896,-40.64924219878896,21.064542943901518,26.32414065150595,250.34086146828759,55.4765108556473
598,-11.832009288595597,70.07230682334531,-239.6147525625894,-40.98534154474753,21.97735035236538,25.35048863837038,249.95597653445938,54.92524767983066
599,-11.933733401441627,70.02257149857297,-239.24669998149966,-40.81204978421185,22.78398861989266,24.310755155481473,249.59302520073317,54.12264252367457
600,-12.032488695551942,69.98418258002692,-238.90679055745696,-40.14440865323477,23.487327338944233,23.211727759291993,249.26013454346383,53.08274399372934
601,-12.126390308163991,69.96001966850068,-238.60215594866355,-39.0090575702901,24.092460655015252,22.060869429339306,248.9648776728346,51.82573038806643
602,-12.213753220785858,69.95262530358184,-238.3392784865243,-37.44361322937753,24.606585444826365,20.866300773385063,248.7141180712109,50.377629633095054
603,-12.293148751550655,69.9641506362486,-238.12385168556276,-35.49580450345516,25.038826439278502,19.63678292217352,248.51386316770154,48.76989343272198
604,-12.363453510220724,69.99631124736467,-237.96065135691933,-33.22238094975805,25.40001066863418,18.381695224649754,248.36913062607235,47.03883033016534
605,-12.423888676739395,70.05035378325535,-237.85342128556618,-30.687818870626028,25.702394789963595,17.111001802294734,248.2838312286332,45.22490705415305
606,-12.474047704571325,70.12703366937274,-237.80477770821216,-27.962854175556064,25.9593503133419,15.835201365823766,248.26067239725987,43.37193215506516
607,-12.513910919880406,70.22660378469502,-237.81613675972665,-25.122875946778464,26.18501340226437,14.565255494480436,248.30108623461354,41.52614026119263
608,-12.543845973973434,70.34881371661109,-237.887668569973,-22.2462183997584,26.393907533313953,13.31249190171949,248.40518544963706,39.735199003320915
609,-12.564593682059119,70.49291902228678,-238.0182807430485,-19.41239166510058,26.60054858763599,12.088481019790555,248.5717495925589,38.04716348232201
610,-12.577239414638575,70.65769974980934,-238.2056326184857,-16.70029335302443,26.819042778948287,10.904886338547183,248.79824272912413,36.50940487893948
611,-12.583170883356445,70.84148737267347,-238.4461802476578,-14.18644311447781,27.0626882304236,9.773291060489399,249.08086228377783,35.16754035619759
612,-12.584023894806592,71.04219934584381,-238.7352507347845,-11.943281420999014,27.343591127258353,8.705005538123695,249.4146176037909,34.064390898442305
613,-12.581618391308615,71.25738071912693,-239.06714369984033,-10.037571735829486,27.672307342748994,7.710861450756871,249.793436044017,33.23899243055852
614,-12.577887703972186,71.48425257446925,-239.4352570670158,-8.52894243213057,28.057520332666137,6.800999608163655,250.2102939657599,32.72568373732956
615,-12.574804261279253,71.71976733534237,-239.83223391646368,-7.468601486992055,28.505765835964503,5.984658592200091,250.65736969154298,32.55329251385732
616,-12.574305001290874,71.96067103688875,-240.25012659231763,-6.898253227818014,29.021213322252237,5.269971293777062,251.12621494567074,32.7444383763611
617,-12.578219494846028,72.20357230717937,-240.68057370744293,-6.8492421311704925,29.605513023460325,4.663776001563918,251.6079406721812,33.314968892465345
618,-12.588203382202526,72.44501709730552,-241.11498529862823,-7.34194369291429,30.25771573623715,4.171448202927737,252.09341253029086,34.273541752174786
619,-12.605679222478766,72.6815673066153,-241.54473124261554,-8.385416559247725,30.974270459963872,3.7967586718455903,252.57345095591904,35.621363231372925
620,-12.63178630457172,72.9098807025172,-241.96132809160767,-9.977323409126848,31.749102459861536,3.5417626888463527,253.03903048911414,37.35209017368425
621,-12.6673404610808,73.12678917256821,-242.35661966611127,-12.104120669129523,32.57377158760949,3.4067243417750723,253.4814731140186,39.45189973703098
622,-12.712804614034953,73.32937238530286,-242.72294707229855,-14.741509360778249,33.43770768453172,3.3900788025374453,253.89263066987317,41.89972785262109
623,-12.76827071317143,73.51502425508527,-243.05330431281325,-17.855131648549275,34.328516723287514,3.4884342879961934,254.26505195866247,44.667673465773895
624,-12.83345373763809,73.68151008752254,-243.34147626533942,-21.401490366415988,35.23234821577345,3.6966141323213386,254.59213089056277,47.72156110474195
625,-12.907698300492173,73.82701284450123,-243.58215642300138,-25.329062306232977,36.134311577501656,4.00773805536361,254.86823275348362,51.021649330506136
626,-12.989998042112946,73.95016756399052,-243.7710423986346,-29.57957072766178,37.018926803145064,4.413340314612614,255.08879642579873,54.52346752494823
627,-13.079027470049054,74.05008355412376,-243.90490777793255,-34.08937877848429,37.870593139804576,4.903521002059884,255.2504110492241,58.178758788393594
628,-13.173185277785892,74.12635444303751,-243.98164944024316,-38.790963556949514,38.674058574749026,5.467125399726456,255.35086629082974,61.93650298666243
629,-13.270647520809996,74.1790563719529,-244.00030995463618,-43.61443041179967,39.41487293976141,6.0919452551740445,255.38917581821534,65.74399159893154
630,-13.369428442337993,74.2087346022925,-243.96107512043307,-48.48902851162228,40.07980822691678,6.764935349142997,255.36557402152022,69.54792507456072
631,-13.467446390000283,74.216378816731,-243.86524719218343,-53.34463135904705,40.657231197794594,7.472438973269052,255.28148645513062,73.29550379580728
632,-13.56259223508779,74.2033876408266,-243.71519486550991,-58.11314943779863,41.137415426354515,8.200416849612507,255.13947505891454,76.93548525792025
633,-13.652797843423023,74.17152336082444,-243.51428164577524,-62.72984624824893,41.512782416530065,8.934675307493375,254.94315987968812,80.41918244420852
634,-13.736102240564291,74.12285829035655,-243.26677459148365,-67.13453326510646,41.77806425688487,9.661090821579656,254.69711951010652,83.70138124948612
635,-13.810713165663445,74.059714619767,-242.9777355689899,-71.27262349974694,41.93038335008257,10.365829039354663,254.4067727113951,86.74115787498499
636,-13.875061844050679,73.98459982278918,-242.6528972652507,-75.09602712869788,41.969248059937456,11.035557042924212,254.07824386542333,89.50258017176282
637,-13.927849061245535,73.90013981653654,-242.2985264558613,-78.56387595990456,41.89646657432462,11.657647722157126,253.718215186061,91.9552798214357
638,-13.968080962219805,73.80901215354304,-241.92127739988203,-81.64306640240225,41.715984716875994,12.220374756792648,253.3337690163256,94.07488496050301
639,-13.995093457580202,73.71388161697352,-241.5280386521698,-84.30861329720732,41.43365664857267,12.713095897442004,252.93222398706766,95.84330545617776
640,-14.00856471432568,73.61734060532908,-241.12577702752958,-86.54380980752721,41.05696018845771,13.12642124042793,252.52096927136418,97.24886575733173
641,-14.008515829458577,73.52185648436537,-240.72138285637254,-88.34019196550811,40.59467067269817,13.452362369705936,252.107301527658,98.28628339844121
642,-13.995300231478671,73.42972759369435,-240.32152083235633,-89.69731077280956,40.056508716062766,13.68445792763965,251.69826915862208,98.95649512565205
643,-13.969582567755797,73.3430488840593,-239.93249048480294,-90.62232005015501,39.452777862514196,13.817871511459884,251.30052805998608,99.26633734160569
644,-13.932307998032385,73.2636873733843,-239.56009969251542,-91.12939426772098,38.794007925038805,13.8494586310047,250.92021222309415,99.22809290668089
645,-13.884663130998886,73.19326693493653,-239.20955394646083,-91.2389968034504,38.09061889068733,13.777800479031336,250.562821697816,98.85892177234733
646,-13.828030272701424,73.13316149322577,-238.8853634078606,-90.9770247702617,37.35261868349252,13.603203164533786,250.23312968719722,98.1801977960864
647,-13.763936995137282,73.08449549621513,-238.59126917985282,-90.37386105425387,36.58934590276466,13.327661763835916,249.93510990299987,97.21677776836393
648,-13.694003173171481,73.04815051362239,-238.33018961490936,-89.46336698655251,35.80926596248005,12.954789179795489,249.67188474318993,95.99623069702486
649,-13.619887624385905,73.02477694636768,-238.10418698664017,-88.28184979635957,35.01982596023199,12.489710526673202,249.44569441782858,94.54805546459352
650,-13.54323636861186,73.01481001621629,-237.9144545097858,-86.86703756635713,34.22737026051189,11.938924657934171,249.25788686473567,92.90291305170398
651,-13.46563428681124,73.01848930068691,-237.76132345119981,-85.25709104208454,33.43711537928625,11.310135552112884,249.10892807704465,91.09189584980263
652,-13.388561622509245,73.03588105676693,-237.64428983702626,-83.48967682593596,32.65317952653712,10.612057559839748,248.99843220810234,89.1458516856333
653,-13.313356459832798,73.06690251404412,-237.56205995530706,-81.60112087197037,31.878659369511475,9.854199908205263,248.92521048643982,87.09477472441915
654,-13.241184134383062,73.11134727331296,-237.51261350237482,-79.62565551925901,31.115744494259538,9.046637191438668,248.8873376119881,84.96727013722285
655,-13.17301439139226,73.16891089191645,-237.49328294310376,-77.59476827593413,30.365858820758877,8.1997736605768,248.88223401590957,82.79009498733379
656,-13.10960682016786,73.23921564338008,-237.50084749645484,-75.5366567419367,29.629817844911628,7.3241097806149575,248.9067621794286,80.58777468249448
657,-13.051504678789975,73.32183342924775,-237.53163992781757,-73.47579167934524,28.907990913591508,6.430019588420303,248.95733497504898,78.38229272606841
658,-12.999036842181583,73.41630607587693,-237.58166381465847,-71.43258922553161,28.200458653092227,5.527546743113083,249.03003356936446,76.19285127050317
659,-12.95232729538241,73.52216273099462,-237.64671826443745,-69.42319322387954,27.507157048773866,4.626225808317869,249.12073190387457,74.03570077149162
660,-12.911311260627336,73.63893453935923,-237.72252649393934,-67.4593690158143,26.828001400451537,3.734933387494642,249.22522434739224,71.9240382980581
661,-12.875756710346064,73.76616703677375,-237.80486430236235,-65.54851013516031,26.16298534290019,2.8617715038181535,249.3393528099221,69.8679751559299
662,-12.845289833907009,73.90343072305475,-237.88968417797264,-63.693758667336105,25.51225220656908,2.0139833548438224,249.45912932057627,67.87457494484087
663,-12.819423074151196,74.05033012373879,-237.97323057160304,-61.89423833500998,24.87613805944464,1.1978995295088588,249.58084982907693,65.94796272396744
664,-12.797584535689795,74.20651146154232,-238.05214192524096,-60.14539665363764,24.25518767325875,0.41891115638435605,249.7011949950147,64.08950455096264
665,-12.779147739906836,74.37166890299902,-238.123535555123,-58.43944898338974,23.650146286026825,-0.31853457825620296,249.81731418061912,62.29805443832624
666,-12.763460769957375,74.54554911350978,-238.18507249924517,-56.76591334109458,23.0619312915088,-1.0109214551869559,249.92688976523254,60.57026300725132
667,-12.749873811079366,74.72795345329844,-238.23500075063438,-55.11222082260084,22.491588755698103,-1.6556384478980397,250.0281800351286,58.90093910983588
668,-12.737764060554287,74.91873676235498,-238.27217657167907,-53.464382826945915,21.94023984087126,-2.2509451976092385,250.1200400059088,57.28345274908771
669,-12.726557127123757,75.11780163330832,-238.29606457957652,-51.807693371756244,21.409021808904875,-2.7959320764662237,250.20192047753727,55.71016511580687
670,-12.715744423851193,75.32508746585926,-238.3067179811117,-50.12744299505424,20.899027406512847,-3.2904774658425158,250.2738464144292,54.172869862128955
671,-12.704896540679353,75.54055426389519,-238.30474083401808,-48.40962027476998,20.41124533304245,-3.735204166819332,250.336376440766,52.66322914513144
672,-12.69367289629102,75.76416183213699,-238.2912346488325,-46.64157788536737,19.946503426044696,-4.131436204286358,250.39054587926623,51.1731886195266
673,-12.681827942228661,75.99584561606193,-238.26773200803842,-44.81264212923324,19.50541541070959,-4.481156751935115,250.43779627934973,49.69535730100401
674,-12.66921393136703,76.23549088907961,-238.23612000538208,-42.91464761650658,19.08833168418888,-4.786967454025521,250.47989462326282,48.223340701214504
675,-12.655780047398475,76.48290733320411,-238.19855614324277,-40.94238177232269,18.695294654170493,-5.052048934289625,250.51884533189477,46.7520184114143
676,-12.641567704604055,76.73780622919115,-238.15737911394297,-38.893926784064654,18.325999525905722,-5.280121702708921,250.55679804067697,45.27776001204428
677,-12.626702048907452,76.99978233380033,-238.11501692401478,-36.770889280571886,17.979761965444972,-5.47540603064619,250.59595411615723,43.798575563372985
678,-12.611379973636941,77.26830196802312,-238.07389509724436,-34.57851043964864,17.655494580913906,-5.642578737660085,250.63847499446902,42.314198888538506
679,-12.595855133145902,77.54269796062555,-238.03634794265903,-32.32565149856931,17.35169454482498,-5.786724322737155,250.68639540459608,40.82610348023563
680,-12.580420427019977,77.8221711763168,-238.00453582212975,-30.024652086928846,17.06644488012418,-5.9132776189807705,250.74154421243014,39.33745239481601
681,-12.565388324089964,78.10579767253736,-237.98037092872175,-27.691061742093947,16.79743189528152,-6.027955276574117,250.80547500287477,37.852985227493605
682,-12.551069327078313,78.39254012677512,-237.96545345134396,-25.34324862080063,16.54198088722502,-6.136673915131575,250.8794077823677,36.37884735270722
683,-12.53774893822439,78.68126197876408,-237.96101936576378,-23.00189377375928,16.29711144383616,-6.245453662433955,250.96418251793278,34.92236900996907
684,-12.525663738381207,78.97074273261464,-237.9679005429094,-20.689384142230477,16.05961244703633,-6.360306908141444,251.06022471741005,33.49180425517769
685,-12.514977599906217,79.25969314671389,-237.9864974101185,-18.429122227261846,15.82613533557093,-6.487113396863737,251.16752293146777,32.096041917410695
686,-12.505759435880375,79.54676960886918,-238.01676413634448,-16.244774679162276,15.593302625763142,-6.631484264204217,251.28561800435455,30.74430216267263
687,-12.497964073686633,79.83058771157758,-238.0582063890528,-14.159485450473564,15.357827405124109,-6.798619227606439,251.4136042060822,29.445832825496858
688,-12.4914178087169,80.10973570263542,-238.10989203915236,-12.195081447593969,15.116638644871973,-6.993162690378552,251.55014289354594,28.209619213496584
689,-12.485809997922825,80.3827888704677,-238.17047536032769,-10.37129980219359,14.867006702487993,-7.219065722510674,251.69348961827006,27.04411964394158
690,-12.480691719063945,80.64832588950222,-238.23823496576736,-8.705066032376147,14.606663232024053,-7.479461503867283,251.8415352831762,25.957036664029385
691,-12.475482081729426,80.90494777641716,-238.3111250504486,-7.209851494284325,14.33390983737061,-7.776561735271072,251.9918611716047,24.955130943940045
692,-12.469482291916012,81.1512996318896,-238.38683873679352,-5.895136585387957,14.047710179403795,-8.111580747018843,252.14180676687337,24.044081520735016
693,-12.461897079629248,81.38609493759752,-238.4628816128773,-4.766003065243805,13.747760884864032,-8.484692652532733,252.28854845499632,23.228392813414168
694,-12.451862616164377,81.60814187400047,-238.53665297939864,-3.822874552938835,13.434537475890478,-8.895025043157903,252.42918653803855,22.511346023167626
695,-12.438479623067588,81.81637089916045,-238.6055319075053,-3.0614187960495567,13.109312576652892,-9.340690570568936,252.5608374994944,21.894990463082994
696,-12.42085007778889,82.00986268199554,-238.66696490620396,-2.4726188793873423,12.774144798988559,-9.818855538913548,252.6807281139582,21.38016916503688
697,-12.398115802381772,82.18787541625782,-238.71855182894424,-2.043013458716998,12.431837948122988,-10.325842585094057,252.78628780563946,20.966572781511303
698,-12.369497254251428,82.34987049271737,-238.7581267473808,-1.755098733863578,12.085871524191385,-10.857262866655448,252.8752357382907,20.652816188478468
699,-12.334330889222688,82.49553536685926,-238.78383089104793,-1.587877627337371,11.740304894288107,-11.408171991211889,252.94565942586655,20.436533028928846
700,-12.292103448891096,82.62480221715528,-238.7941751943584,-1.5175349473161006,11.399658882422745,-11.973243195797272,252.9960819925336,20.314484359066373
701,-12.242481550092693,82.73786081820886,-238.78809034573177,-1.5182116191813433,11.068779721889412,-12.54695093183647,253.02551549219856,20.28267819853164
702,-12.18533517227073,82.83516416285923,-238.76496251542707,-1.5628467499276775,10.752691165113431,-13.123757885717675,253.03349801249104,20.33649685681546
703,-12.120753968516121,82.91742579905828,-238.72465324809113,-1.624053650526602,10.456440934898119,-13.698298433891654,253.02011273862948,20.47082835729656
704,-12.049055579362328,82.98560847314094,-238.66750244738301,-1.6749951604124107,10.184947636481821,-14.265551597128635,252.9859877864261,20.68019739329445
705,-11.9707853106786,83.04090433215637,-238.5943140329127,-1.690224656104908,9.94285384004866,-14.820996872325951,252.93227645520324,20.958890540904644
706,-11.886706808473305,83.08470753260386,-238.50632467769918,-1.6464617100456695,9.734390403427666,-15.36074703539645,252.86061854149696,21.301070352265935
707,-11.797783760661487,83.1185805808698,-238.40515685236102,-1.5232751274708123,9.56325630083103,-15.881653158386815,252.77308430373395,21.70087361558292
708,-11.705153057826971,83.14421602940074,-238.29275804573513,-1.3036507316630654,9.432517293497272,-16.381378605874072,252.67210339459712,22.15249044814228
709,-11.610090187879614,83.16339517686663,-238.17132854473013,-0.974426571314961,9.344525793519757,-16.858440548972283,252.56038158909354,22.65022283181018
710,-11.51396800192527,83.17794515098552,-238.0432406930497,-0.526583920675221,9.300863370613188,-17.312219359525983,252.44080857539961,23.18852342410019
711,-11.418210441569244,83.18969534900718,-237.91095310351463,0.04461180419886604,9.302306666458291,-17.742937887682743,252.31636049175953,23.762017606727962
712,-11.324243299318205,83.20043393079722,-237.77692367602847,0.7396205467564966,9.348817028522465,-18.15161392436523,252.19000118095656,24.365513453853293
713,-11.23344446214204,83.21186507323357,-237.6435253127311,1.554782615977006,9.439553852220083,-18.539990048187082,252.0645861926071,24.994005450257966
714,-11.14709626684156,83.22556798041781,-237.51296794812242,2.482609330820885,9.572911304571742,-18.910445540458205,251.94277340521498,25.64267829336368
715,-11.066342533289921,83.24295901468412,-237.38723004866307,3.512194859678709,9.746577709748264,-19.265895156990204,251.82694381842114,26.306916927144915
716,-10.9921525416338,83.26525852316672,-237.26800213283153,4.629730834749295,9.957616366810178,-19.60967941194637,251.71913554747218,26.98232810563134
717,-10.925293716321313,83.29346382458452,-237.15664408480254,5.819102195676408,10.202565961522279,-19.945450858682253,251.62099325486844,27.66477741312526
718,-10.866314127673409,83.32832942544967,-237.0541571377615,7.062540577655426,10.477558085133502,-20.277060753504372,251.53373424583916,28.350443968556974
719,-10.815535224565814,83.37035502499853,-236.96117059367864,8.34131040318011,10.77844870383391,-20.6084503894924,251.45813149218546,29.03589313705297
720,-10.773054626204647,83.41978138331287,-236.87794281709287,9.63640261074992,11.10095969579647,-20.943551106333246,251.3945131666924,29.71816551801201
721,-10.738758425839004,83.47659374763664,-236.8043757867972,10.929211622919352,11.440825778599033,-21.286196350708792,251.3427778929835,30.39487835033675
722,-10.712342216607432,83.54053235694515,-236.74004231819487,12.202172655877026,11.793941371384134,-21.640048118405048,251.30242468865762,31.064333410888402
723,-10.693339756985367,83.61110961447096,-236.68422477541984,13.43933863406653,12.156501299055623,-22.008538717344738,251.2725963132885,31.72562363344984
724,-10.681157775316777,83.68763368666997,-236.63596363574396,14.626878547045738,12.5251288435399,-22.394827196013118,251.25213433778296,32.3787291467038
725,-10.67511497558161,83.76923833301794,-236.5941137856385,15.753481872127333,12.896984545179434,-22.80176818605911,251.2396437880917,33.02459232473188
726,-10.674483008869107,83.85491860020693,-236.55740607812714,16.810656670152234,13.269849437414422,-23.23188958231471,251.23356481217942,33.665160987671925
727,-10.678527084899818,83.94357165671718,-236.52451151315742,17.792912332349264,13.642177159359221,-23.687374724406546,251.2322485343148,34.30338944174259
728,-10.686543946594508,84.03404154724215,-236.49410536527944,18.697821950703503,14.013110707746536,-24.17004474806112,251.2340340602562,34.94318891565773
729,-10.697894995136014,84.1251661210428,-236.46492860587475,19.525963958360894,14.38246145760454,-24.681337551133034,251.23732344525013,35.58932217025441
730,-10.71203243559037,84.21582403562147,-236.4358440250657,20.280747804861306,14.750650369795663,-25.222281204689033,251.24065137671911,36.24724130741044
731,-10.72851662118019,84.30497966789991,-236.40588460574367,20.968133540674863,15.118613764380703,-25.793461341138624,251.24274645448995,36.922872484857834
732,-10.747023510807836,84.39172389330695,-236.37429202918062,21.596259783295363,15.487678404074009,-26.39498370459195,251.24258134099327,37.62235567107325
733,-10.767342200368338,84.47530890229024,-236.34054371706125,22.17499821521692,15.859412715267556,-27.02643432920708,251.23940967317608,38.35175119121956
734,-10.789363430555966,84.55517551243437,-236.30436745743685,22.71545527835253,16.23546266066456,-27.68684057284336,251.23278837634552,39.116727317627024
735,-10.813060521366296,84.63097186346145,-236.26574332222722,23.22944298815243,16.617381958499035,-28.37463651764052,251.22258480901633,39.92224446877897
736,-10.838464423837221,84.70256295717425,-236.22489320607377,23.728940812585872,17.006466894484074,-29.087636162708797,251.2089689529802,40.772251733733164
737,-10.865634774032657,84.77003110530285,-236.1822588909986,24.225569458610796,17.403605795850144,-29.82301746301956,251.1923916092143,41.66941053012565
738,-10.894629101402396,84.83366779993105,-236.1384700839851,24.730095393164866,17.809152326097685,-30.57731968162356,251.1735502293219,42.6148584104134
739,-10.925472603316539,84.89395777070285,-236.094304375799,25.251982296937324,18.222830227085936,-31.34645578741519,251.1533445736391,43.60802361332847
740,-10.958131013706014,84.95155613457405,-236.05064145774995,25.79900274987683,18.64367515588852,-32.125740844523584,251.1328248000575,44.64649823297473
741,-10.992488947926622,85.00725964960573,-236.00841413712988,26.376920579215884,19.07001699947897,-32.9099366395659,251.1131348049432,45.72597516299664
742,-11.028335582720326,85.06197315115199,-235.96855873421654,26.989251631992826,19.499503649434338,-33.69331227852479,251.09545367623025,46.84025147594937
743,-11.065358631742706,85.1166723118233,-235.93196740947218,27.6371082498824,19.929164837615208,-34.46972013288195,251.08093807241931,47.98129863731446
744,-11.103146566372567,85.1723640106697,-235.89944487487793,28.319130242198273,20.35551239928108,-35.23268620054009,251.0706682632244,49.13939777575415
745,-11.14119825076133,85.2300458434039,-235.87167171261592,29.031502431313612,20.774671312633572,-35.97551351183885,251.0656004051514,50.3033359110724
746,-11.178938700049363,85.29066656031921,-235.8491761257572,29.768055781600488,21.18253413451152,-36.69139652408216,251.06652731838068,51.460656452399654
747,-11.215739385250194,85.35508932729859,-235.83231545457468,30.52044588983394,21.574930136126483,-37.373543491585416,251.0740495928072,52.59795454231798
748,-11.250941289778941,85.42405955425107,-235.82126826007374,31.278399572268402,21.947799666826118,-38.01530272171358,251.0885582882331,53.70120528484851
749,-11.28387881064704,85.49817862960865,-235.81603711621892,32.03001778721163,22.297364078968865,-38.61028770033754,251.11022972963886,54.75611096101953
750,-11.313902675995598,85.577884354371,-235.8164613797822,32.762121437059555,22.620281888794377,-39.15249554706655,251.13903189671308,55.74845231700651
751,-11.34040032761963,85.66343834070145,-235.82223828159454,33.460625862961535,22.91378267064728,-39.636413252794284,251.1747408698016,56.66442906550573
752,-11.362812629758816,85.7549202472879,-235.8329500328247,34.11093013300002,23.175771461401503,-40.05710663343094,251.21696506732056,57.4909758855545
753,-11.380646308657443,85.8522284676532,-235.84809439213387,34.6983084293545,23.404898166148882,-40.4102878730946,251.26517471454434,58.21604235754578
754,-11.393482244995782,85.95508665736983,-235.8671161051516,35.2082927276796,23.600588538450346,-40.69235896486772,251.3187339095371,58.82882829489081
755,-11.400980510938322,86.06305521333466,-235.88943660453816,35.627038246923654,23.763035653257074,-40.90043029893526,251.3769325785047,59.31996963066126
756,-11.402883545875856,86.17554658020515,-235.91447939074396,35.941665521499694,23.893153274177525,-41.03231592138799,251.43901558856402,59.681674035511264
757,-11.399018864682898,86.29184318318525,-235.94168881074583,36.14057508928994,23.992494976036102,-41.08650917875941,251.50420653923808,59.90780924375133
758,-11.389302235479319,86.41111692059027,-235.9705406691013,36.213732434444495,24.0631451013416,-41.062144076007534,251.57172445037202,59.99395006145912
759,-11.373741586485291,86.53244942591095,-236.00054420899556,36.152921835133135,24.107589380644868,-40.95894838205142,251.6407926615935,59.937391824138295
760,-11.352441263246998,86.65485256681829,-236.03123627021125,35.95196812909225,24.128574168605752,-40.77719428670316,251.7106405072663,59.737138563161444
761,-11.32560586207517,86.77728872587586,-236.06216954443704,35.6069252067351,24.128963665939725,-40.51765146039251,251.78049938252218,59.393873495253494
762,-11.293542796103123,86.89869027118473,-236.0928975139812,35.11622944899152,24.111604203801235,-40.181546033406256,251.84959538817213,58.909918005255086
763,-11.256662904597617,87.01797741974676,-236.12295877871242,34.480815590388225,24.079203691966942,-39.770527616862275,251.91714078710675,58.289183436276744
764,-11.215478581274882,87.13407365563714,-236.15186319483445,33.704191835770324,24.03423276662697,-39.28664522904318,251.98232623120077,57.53711804779209
765,-11.170598944435094,87.2459181363162,-236.1790817930218,32.792470625853014,23.978852199123413,-38.73233195162507,252.04431538288398,56.66064966327165
766,-11.122721558594156,87.35247505687656,-236.20404195388335,31.75435128789793,23.914868966696265,-38.11039735091212,252.10224327948438,55.66812294242011
767,-11.072620317949317,87.45274057818911,-236.22612885923104,30.601050957663393,23.84372120492437,-37.42402612862896,252.1552195816192,54.56922893599289
768,-11.021129447576437,87.5457485074283,-236.24469380719225,29.346180646065697,23.766490138998023,-36.67678103499127,252.20233766089328,53.37492360017966
769,-10.969124131812503,87.63057630420057,-236.2590695254771,28.00556417509688,23.683935115179725,-35.87260773794484,252.24269021591562,52.09733127545036
770,-10.917498843224172,87.70635300959978,-236.26859211888578,26.59699898093418,23.596546204802905,-35.01583911461222,252.27539167335556,50.74962888468795
771,-10.867144782272543,87.77227029067495,-236.27262873079107,25.139959552735558,23.504607742762992,-34.1111963367805,252.29960698498718,49.34590692044036
772,-10.818927793216869,87.82759707507279,-236.2706092983467,23.655246517499396,23.408265713777162,-33.16378415652964,252.31458552625887,47.90100420673769
