time,ax,ay,az,gx,gy,gz,accmagnitude,gccmagnitude
0,-5.062793735342945,-211.14534911744136,-141.07513447716323,-22.82667796234743,68.53319159350166,0.9591119502630177,253.98797754268077,72.01358808528227
1,-4.962080216098884,-211.67754068459064,-141.1669765154311,-22.264325068876868,67.68479777455316,0.9401952821725411,254.48211923447033,71.07808453140294
2,-4.858013274283196,-212.20643979003296,-141.25578148246902,-21.668051491095095,66.85981053574098,0.9229878176768627,254.97185589610243,70.16284626757371
3,-4.750377360332684,-212.72588338358017,-141.34132281281137,-21.032148496552193,66.06707550220011,0.9070334205725372,255.45190315750486,69.2754818936543
4,-4.639067989888192,-213.22989052115207,-141.42337390965594,-20.351647072701525,65.31512238158463,0.8918679102028739,255.91712963695431,68.42340764609851
5,-4.524115216674752,-213.71279733705865,-141.5017023290304,-19.62256099396622,64.61200768373557,0.8770345732337412,256.3626670299516,67.61373920113734
6,-4.40570423303363,-214.169378841397,-141.5760681382802,-18.84210607604615,63.96516503407245,0.8620975976677165,256.78401143661716,66.85318505354626
7,-4.284191865634657,-214.5949544263773,-141.64622648692307,-18.008887047739538,63.38126658929076,0.8466528633774726,257.17711332342327,66.14794318736756
8,-4.160117609253063,-214.98547512598174,-141.71193377671105,-17.12304434971052,62.866098966635114,0.8303357421534396,257.5384541274271,65.50360293727118
9,-4.03420790139387,-215.33759167160795,-141.77295645356583,-16.186354408432354,62.424457017054365,0.8128258053332041,257.8651081476141,64.92505422028952
10,-3.907372606834444,-215.6487032731828,-141.82908139048172,-15.202278516960835,62.060058589867914,0.7938486173696431,258.1547890842361,64.41640657823284
11,-3.780693171123287,-215.91698774348154,-141.8801269360319,-14.175957378002257,61.77548300662855,0.7731751093783179,258.40588122780696,63.980920569543315
12,-3.6554025621571036,-216.14141392998457,-141.92595381783457,-13.114150596639732,61.572135248827344,0.75061932805061,258.6174556623804,63.62095393580774
13,-3.5328577599091715,-216.32173746864697,-141.966475186559,-12.025122821413555,61.45023698341971,0.7260355588626213,258.7892719524261,63.33792470078087
14,-3.4145059704219256,-216.4584808501408,-142.00166520387754,-10.918480602001472,61.408844648332845,0.699315878742971,258.921765833498,63.13229299812726
15,-3.301845897337224,-216.55289882946516,-142.03156570879443,-9.80496612607997,61.44589394698721,0.670389114683375,259.01602353335113,63.00356294419843
16,-3.1963854211724274,-216.6069302510537,-142.0562905811331,-8.696215629703344,61.55826922773438,0.6392220101472558,259.07374342785226,62.95030520806526
17,-3.0995969872572244,-216.6231372992803,-142.0760274532582,-7.604491319056975,61.74189533838913,0.6058231577972252,259.0971856963869,62.9702000653871
18,-3.012871871407479,-216.60463306121252,-142.09103646367637,-6.542396064670709,61.99184869139285,0.5702499413971102,259.0891105552832,63.06009972271643
19,-2.937474350946445,-216.55499830721055,-142.1016458156878,-5.522580012383267,62.30248353134325,0.5326183145994398,259.0527056963224,63.21610769225627
20,-2.874496884504909,-216.4781887706754,-142.10824396145676,-4.557447740745272,62.66756884014188,0.49311473789239346,258.99150390446704,63.43367211543676
21,-2.824817813125635,-216.3784349623236,-142.11126830802647,-3.6588738345575345,63.08043098407916,0.4520090937456343,258.90929251249355,63.70768925893138
22,-2.7890635968466118,-216.2601374156335,-142.11119053876286,-2.8379338895874775,63.534097107983825,0.4096670475317949,258.810017193894,64.0326129747245
23,-2.767577818551788,-216.1277608427538,-142.10849897636024,-2.104657110213627,64.02143443415031,0.366560218946592,258.6976832750233,64.40256576619417
24,-2.7603990128256393,-215.9857308015103,-142.103678786223,-1.4678057923522894,64.53528107842214,0.32327269374220446,258.5762580538197,64.81144729524144
25,-2.76724895851596,-215.83833624285563,-142.09719116243986,-0.9346860384154199,65.0685647847084,0.2805027832619948,258.449577601707,65.25303673568776
26,-2.7875325120036876,-215.68964091807783,-142.08945291705405,-0.5109930489442256,65.61440705464763,0.23905942838644628,258.32126134396754,65.72108627684477
27,-2.8203493588395627,-215.54340614197832,-142.08081800338823,-0.20069336803875293,66.16621137479702,0.19985314964439432,258.1946373611667,66.20940417031571
28,-2.8645172971716635,-215.40302677097412,-142.0715623509436,-0.005945591058128376,66.71773544474233,0.16388191639203717,258.0726807274895,66.71192681520553
29,-2.918606002825396,-215.27148145253264,-142.06187304121192,0.07293972397251004,67.26314832689764,0.13221272132872766,257.9579663306031,67.22278032914244
30,-2.98097977581058,-215.15129737493857,-142.0518424641866,0.037500883752055875,67.79707415432215,0.10595996192492438,257.85263670451974,67.73633273167454
31,-3.0498474914758114,-215.04452906848493,-142.041467728091,-0.1089128210954134,68.31462438978753,0.08626189372085279,257.75838463219003,68.24723821024688
32,-3.123317744269631,-214.9527503493751,-142.03065525012838,-0.36121659119810456,68.8114206510837,0.07425641300727191,257.6764496944194,68.75047496543684
33,-3.199456921451626,-214.8770582262611,-142.01923016794638,-0.7127014936406334,69.2836098975468,0.07105729505578011,257.60762754952657,69.24137793088167
34,-3.276347778092221,-214.81808743462017,-142.00695000077198,-1.1551793589423875,69.72787344469857,0.07773183478529663,257.5522904765445,69.71566736464288
35,-3.352146103929824,-214.77603416968813,-141.99352183095237,-1.6791580137381938,70.14143096732106,0.0952806335578659,257.5104175443638,70.16947403767033
36,-3.4251332003337454,-214.75068757251083,-141.9786221976191,-2.2740427980340043,70.52204042686444,0.1246199942851668,257.4816327093298,70.59936155550936
37,-3.493762004460598,-214.74146761380345,-141.9619189593986,-2.928359487798156,70.86799468465775,0.16656698415519958,257.4652492530023,71.00234620166037
38,-3.5566949221874484,-214.74746813552457,-141.94309451190793,-3.6299930114097476,71.17811536585701,0.22182676848317712,257.46031914128304,71.37591450674329
39,-3.6128320195014947,-214.76750383081523,-141.92186970608674,-4.366435737754077,71.45174426702765,0.29098145357389665,257.4656858935927,71.71803847091455
40,-3.661329186494386,-214.8001598645421,-141.8980275027501,-5.125038662905403,71.68873224432501,0.3744795070403849,257.4800393354701,72.02718799277089
41,-3.701606871374673,-214.84384273852973,-141.87143501353836,-5.893258619606803,71.88942513642556,0.4726248902032574,257.5019703359114,72.30233965432296
42,-3.733350557714496,-214.89683094533356,-141.84206242415146,-6.65889479393343,72.05464597417678,0.5855653384426519,257.5300235089737,72.54298070204501
43,-3.7565041817637974,-214.95732397399036,-141.8099975057392,-7.410308406837754,72.1856725842273,0.7132796991011312,257.5627459933536,72.74910693708566
44,-3.7712573669408997,-215.0234883759388,-141.77545487041942,-8.136620333043865,72.28420969821208,0.8555647405064464,257.5987307875439,72.9212132756626
45,-3.778027035489146,-215.0934998739597,-141.73877954728528,-8.827882546819305,72.3523547914373,1.0120222301928623,257.6366535732801,73.06027591541834
46,-3.777433856373791,-215.16558085096298,-141.70044466443042,-9.47522047474611,72.39255708361041,1.1820472737030234,257.67530236771836,73.16772532461242
47,-3.770274109870256,-215.23803291969864,-141.6610430979738,-10.070944491479565,72.40756943258053,1.3648189210852997,257.71359969036456,73.24540964255738
48,-3.7574877930127375,-215.30926458503293,-141.62127309480738,-10.608629818759562,72.40039321559446,1.5592939545413602,257.7506172715152,73.29554850649112
49,-3.7401240413124675,-215.3778142157983,-141.5819181588126,-11.083164924253492,72.3742167104715,1.7642046462600416,257.78558365723103,73.32067778463473
50,-3.719305079988272,-215.44236862786744,-141.5438218361083,-11.490769188629654,72.33234796441637,1.9780611402870982,257.8178853267692,73.32358620407815
51,-3.696189849126463,-215.50177757327788,-141.5078583908822,-11.828981212099883,72.27814363763575,2.1991589189217917,257.84706212690025,73.30724539633073
52,-3.6719382341290823,-215.55506436032005,-141.47490069429915,-12.096619748727386,72.21493575395012,2.4255915376682227,257.87279794865645,73.27473537740515
53,-3.6476767038861673,-215.60143269451044,-141.44578685607794,-12.293719861324394,72.145958600002,2.6552685052841944,257.89490757210723,73.22916784788951
54,-3.6244662554360136,-215.64026966118467,-141.42128713014878,-12.421447362245875,72.0742781325287,2.885937924626096,257.9133204662018,73.17360986632859
55,-3.6032737626838425,-215.6711446852167,-141.4020724642219,-12.48199485815376,72.00272615324084,3.1152133387600545,257.92806217384594,73.11101037575519
56,-3.5849479047481565,-215.69380442944674,-141.3886858621101,-12.478462761298978,71.93384120833102,3.3406041476715354,257.9392339090722,73.04413176502018
57,-3.570200694860181,-215.70816393479498,-141.3815176109375,-12.41472853047053,71.86981773594552,3.5595489535609426,257.9469912130841,72.97548820407007
58,-3.5595952489814873,-215.7142947011395,-141.38078544127734,-12.295307232875265,71.81246453305413,3.769451234759637,257.951522851048,72.90729202764713
59,-3.5535398914181333,-215.71241063216678,-141.38652072445848,-12.125206354743586,71.76317323583929,3.967716829999977,257.9530313315255,72.84140905886107
60,-3.552288127080134,-215.7028527004263,-141.39856164631274,-11.909777717606,71.72289721736634,4.151792827311466,257.95171627651865,72.77932348747223
61,-3.5559435890517404,-215.68607290151343,-141.41655381047522,-11.654569439667009,71.69214105851792,4.319207566725141,257.9477613579863,72.72211271160133
62,-3.564468885554461,-215.66261773392435,-141.43995803239022,-11.365181128011088,71.67096052148698,4.467611542499609,257.9413248570164,72.6704323934677
63,-3.577697257253187,-215.6331112256095,-141.46806445735123,-11.047125834051167,71.65897277019911,4.5948189948347045,257.93253337679363,72.62451187603718
64,-3.5953459946715243,-215.59823753400516,-141.5000117862761,-10.70570262296219,71.6553764518389,4.698849888890931,257.92147805309685,72.58416004664113
65,-3.617030638258436,-215.55872338339594,-141.53481032520085,-10.345883749420404,71.65898115563037,4.777971783369491,257.9082127666793,72.5487816691544
66,-3.642279175439155,-215.5153209433365,-141.5713676409784,-9.972220269874532,71.6682456648179,4.830740821108713,257.89275418357425,72.51740408863691
67,-3.6705457889700965,-215.46879200251325,-141.60851570605666,-9.58876939162227,71.68132430326888,4.856040788071306,257.87508371730013,72.48871402674202
68,-3.7012240767784284,-215.41989436607574,-141.64503857016632,-9.199045996573942,71.69612056539384,4.853118936057675,257.85515165741066,72.46110396006627
69,-3.7336598991667618,-215.3693713440619,-141.6796998302558,-8.80599968698634,71.71034712370404,4.821617078367053,257.83288378846737,72.43272734272227
70,-3.7671641002400706,-215.31794503645708,-141.71126941373046,-8.412017476827785,71.72159122145109,4.761596373909946,257.8081908214594,72.40156170508553
71,-3.80102539858297,-215.2663138077923,-141.73854934810686,-8.0189509600262,71.72738434322112,4.673554246244603,257.7809807843473,72.36547840907865
72,-3.8345237731839754,-215.2151538406952,-141.76039826282386,-7.628165495935098,71.72527487818589,4.558432041321993,257.7511741376801,72.32231753746224
73,-3.86694458510419,-215.16512404649487,-141.77575445106248,-7.2406077585888395,71.71290224037557,4.41761226311476,257.7187209159864,72.26996603589104
74,-3.897593437701446,-215.11687309385252,-141.78365746221039,-6.85688701065084,71.68807063754828,4.252904504730471,257.683618841269,72.2064368677375
75,-3.9258115133260434,-215.07104706426264,-141.78326834178483,-6.477364786782311,71.64882049890181,4.066519553898436,257.6459312223391,72.1299467076239
76,-3.9509909560735457,-215.02829627363812,-141.77388869743385,-6.10224735087088,71.59349559533626,3.8610316500682185,257.60580351020525,72.038989710716
77,-3.972589803227671,-214.98928002626423,-141.7549786802966,-5.7316753039898,71.52080412834232,3.6393294696618623,257.56347751795386,71.93240515981887
78,-3.9901459633655625,-214.95466838012157,-141.7261736979592,-5.365805031375091,71.42987241612946,3.404557002966171,257.5193024232353,71.80943719137606
79,-4.0032897490532955,-214.92514028227157,-141.6872992863263,-5.004877288530458,71.32029011173373,3.160045977511918,257.47374168983873,71.66978517341276
80,-4.011754428573144,-214.9013776328776,-141.63838323259185,-4.6492691371644455,71.19214603425465,2.9092418753415075,257.42737502492463,71.51364354078865
81,-4.015384183177781,-214.88405505370906,-141.57966388877117,-4.299526603685734,71.04605365654204,2.655625910464303,257.3808945835734,71.34172995860507
82,-4.014138869087124,-214.87382550392016,-141.51159362799888,-3.9563767710354893,70.88316513616216,2.4026355696477704,257.335094946652,71.15530063992591
83,-4.008095107589621,-214.87130237999025,-141.4348364923565,-3.6207194487995347,70.70517262885389,2.1535864383790964,257.2908568679878,70.9561516048004
84,-3.997443344680579,-214.87703913942153,-141.35025924593634,-3.2936000093832853,70.51429561390323,1.9115980146357925,257.2491252189078,70.74660475154029
85,-3.9824806457477115,-214.8915075714942,-141.25891530587057,-2.9761663419042304,70.31325314699632,1.6795260585726517,257.2108817765022,70.52947786844283
86,-3.9635992860707727,-214.91507561220195,-141.16202134968836,-2.6696140856913066,70.10522030454399,1.4599037273446638,257.1771135012955,70.30803810754591
87,-3.941271660216315,-214.9479853161799,-141.0609267589549,-2.375125286879803,69.89376852021788,1.2548932804945185,257.1487769222878,70.08593889653208
88,-3.9160324333912833,-214.9903315046103,-140.95707650225788,-2.0938062874030052,69.68278999412281,1.066249540986357,257.1267594204605,69.8671407352817
89,-3.8884590587024195,-215.04204176330987,-140.8519686156912,-1.8266309284468136,69.47640689014715,0.8952956756704852,257.111838639475,69.65581682519509
90,-3.859151868452619,-215.10285875569843,-140.74710800064022,-1.574394984843421,69.2788666668627,0.7429113475771324,257.10464180367643,69.45624505864915
91,-3.8287150120381024,-215.17232607574883,-140.6439586385705,-1.3376871163388264,69.09442561600547,0.6095329194603134,257.10560714925793,69.27268856739337
92,-3.7977395190317815,-215.24977899421197,-140.54389642453697,-1.1168804932966447,68.92722345827612,0.4951650841483956,257.1149498362454,69.10926775285157
93,-3.7667895982405275,-215.33434142333454,-140.4481647252187,-0.9121476052702245,68.78115261124704,0.3994030250963794,257.1326346289891,68.96982745204431
94,-3.7363928925147634,-215.42493023464004,-140.35783460730576,-0.7234986472515021,68.65972647608375,0.32146401917609413,257.1583573784605,68.85780361312118
95,-3.7070348939141913,-215.5202677388516,-140.27377150156642,-0.5508414814443992,68.56595175130754,0.2602273262282328,257.191536958914,68.77609452173667
96,-3.6791572436693705,-215.6189027753291,-140.19660983635225,-0.3940587481887414,68.50221025320765,0.21428123125835083,257.23131887213646,68.72694210053352
97,-3.653159277182424,-215.71924052263475,-140.12673686359375,-0.2530954997586713,68.47015584138722,0.18197614081157384,257.2765912728532,68.71182892227608
98,-3.6294019450227055,-215.8195807577049,-140.06428653356372,-0.12804899642936174,68.4706317168875,0.1614826210149592,257.326013640572,68.73139622625264
99,-3.6082131652540017,-215.9181637567876,-140.00914392168573,-0.019251287009327475,68.50361260157531,0.15085316099425358,257.37805767987714,68.78538742957862
100,-3.589893710498888,-216.01322236621104,-139.96096036746096,0.07266490102521106,68.56817523800858,0.14808624618059332,257.4310592862173,68.87262050845564
101,-3.574722808536859,-216.1030381026354,-139.91917900675142,0.14672555925257158,68.66249941319452,0.15119106020309414,257.48327959331095,68.99099135299528
102,-3.5629626870698354,-216.18599861203217,-139.8830696540418,0.2016069415316635,68.78390041628721,0.15825085608413017,257.53297227959683,69.13750889871164
103,-3.5548613677143885,-216.26065351467184,-139.85177113304297,0.23566371604129344,68.92889253776575,0.16748282310054222,257.57845359272784,69.30836156196831
104,-3.5506531470185574,-216.32576561180935,-139.82433843332535,0.24699538109255992,69.09328189295601,0.1772921896861917,257.6181711186878,69.4990132328921
105,-3.550556353903882,-216.3803546186883,-139.79979172220274,0.23354961230921809,69.27228545821613,0.1863183620237695,257.6507672931207,69.70432574093482
106,-3.5547681156268305,-216.42373100575153,-139.77716431425537,0.19325822341537963,69.46067175292846,0.19347109802291448,257.67513404267174,69.91870329755885
107,-3.5634560526965195,-216.45551812560126,-139.75554703199617,0.12419856079655703,69.65291723055103,0.19795507103811172,257.69045562409707,70.13625307284643
108,-3.5767471278393965,-216.47566148513266,-139.73412676685194,0.02477054840631583,69.84337138284569,0.19928169694229952,257.6962375071078,70.35095499427155
109,-3.594714274391045,-216.48442473534718,-139.71221743343403,-0.10612254336807053,70.02642299755314,0.1972677572134777,257.6923199575236,70.55683324090482
110,-3.617361806057911,-216.482372693859,-139.6892820146031,-0.26890297539125496,70.19666005554863,0.1920211000644425,257.6788758783794,70.7481218573404
111,-3.644610836046523,-216.47034245449157,-139.66494504469338,-0.46317094242769136,70.34901646341356,0.18391448042285918,257.65639344249604,70.91941749905256
112,-3.67628596912179,-216.44940429204541,-139.63899557177683,-0.6875937173314768,70.47890013318127,0.17354933376064602,257.62564497556804,71.06581352316519
113,-3.7121044544466124,-216.4208145630024,-139.61138131826615,-0.939842739451111,70.58229864677368,0.16171187532830128,257.58764432999925,71.18301130993376
114,-3.751668907259311,-216.38596311209267,-139.58219540073077,-1.2165864854761361,70.65586063134644,0.1493242586404289,257.5435955979094,71.2674066329617
115,-3.7944646086184517,-216.3463178828378,-139.55165743369574,-1.513542547958716,70.69695280918438,0.13739351598782812,257.4948364243155,71.31615087285692
116,-3.8398621566799847,-216.30336957133585,-139.52009094791777,-1.8255874511844687,70.70369428001284,0.12696065629191206,257.4427793616191,71.3271886436832
117,-3.8871258245940417,-216.2585791829638,-139.48789884444372,-2.146918012590861,70.67497075417178,0.11905178595493722,257.3888546130106,71.29927470625469
118,-3.935427467535143,-216.21333107999055,-139.45553834419505,-2.471254087468094,70.6104320325778,0.11463266156474938,257.33445714116334,71.23197366762537
119,-3.9838653414885075,-216.16889350784712,-139.4234967648137,-2.792069714159988,70.51047597685391,0.11456777192886251,257.2809005396721,71.12564585116627
120,-4.031486842466192,-216.12638779712833,-139.39226942266887,-3.1028381923205024,70.37622163287928,0.1195848347520553,257.2293793751321,70.98142200458162
121,-4.077314009441707,-216.08676661257485,-139.36234088600523,-3.3972764746520654,70.20947330746442,0.13024540286745237,257.18094096912216,70.80116850213528
122,-4.120370679184976,-216.05080086990796,-139.33417060547842,-3.669575290612312,70.0126765246289,0.14692205201793243,257.1364668475732,70.58744372605939
123,-4.159710367139908,-216.0190743883823,-139.30818355882943,-3.9146034028766463,69.78886607414414,0.16978233131936107,257.0966634092984,70.3434455825248
124,-4.1944441095086935,-215.99198510541953,-139.28476591979458,-4.1280770067108215,69.5416058733129,0.1987793218883897,257.0620608254537,70.0729496806028
125,-4.223767492749038,-215.96975173395356,-139.2642649794741,-4.306688183341985,69.2749201480783,0.2336483711328392,257.03301880705305,69.78023760453968
126,-4.2469859335046225,-215.95242492258234,-139.24699187852408,-4.448189218745818,68.99321556704882,0.2739094433638357,257.00973766773797,69.4700149688079
127,-4.263537098726656,-215.9399021183708,-139.23322541040903,-4.551432291114988,68.70119442126747,0.3188745509177012,256.9922730644377,69.14731952220757
128,-4.273009303635112,-215.93194538929595,-139.22321526392324,-4.616366395642668,68.40375961562279,0.36765983246256423,256.98055290250596,68.81742032924464
129,-4.275154858028863,-215.9282014360973,-139.21718344193422,-4.643995362124501,68.10591298615998,0.4192019391083768,256.97439506681144,68.48570986179492
130,-4.269897642704183,-215.9282228819412,-139.21532308619697,-4.636302400143276,67.81264918518768,0.4722784002632265,256.9735247891594,68.15759158590203
131,-4.257334601524268,-215.9314897181605,-139.21779449495372,-4.596147740744653,67.52884798524535,0.525531553465391,256.97759059011497,67.83836622983189
132,-4.237731230573022,-215.93742970242755,-139.22471869677875,-4.527146603897096,67.25916821028666,0.5774954946443166,256.9861779791644,67.53312023849283
133,-4.211511504139951,-215.94543674772785,-139.23616945830912,-4.433534921346084,67.00794651674676,0.6266254012081252,256.99882057987685,67.24661987118151
134,-4.179243021350908,-215.9548868785485,-139.2521649387565,-4.320030031556764,66.77910396832839,0.6713284980208597,257.0150089805954,66.9832140432155
135,-4.141618491243661,-215.96515191482374,-139.27266027196248,-4.191692987508219,66.57606294509165,0.7099958447837933,257.0341981392881,66.74674852433596
136,-4.099434929931153,-215.97561142464653,-139.29754215410907,-4.053798228061689,66.40167655646904,0.7410340451652853,257.05581438222623,66.54049365140378
137,-4.053571963203211,-215.9856635921415,-139.32662608449803,-3.9117152053632407,66.25817243092614,0.7628959879128281,257.0792628928201,66.36708733787263
138,-4.00497029155536,-215.99473555172193,-139.35965631850218,-3.770805166645633,66.14711246796874,0.7741098769034662,257.10393618963235,66.22849480847259
139,-3.9546108240091926,-216.0022935219233,-139.396308056148,-3.636334712943548,66.06936977206983,0.7733060693631232,257.12922362036056,66.12598606772696
140,-3.9034945727253842,-216.00785276341708,-139.436191199563,-3.513406138607447,66.02512350137991,0.7592415426873512,257.15452153757485,66.06013158322848
141,-3.852623320903477,-216.01098705157054,-139.47885522061702,-3.406903094377227,66.01387177631445,0.7308220449358466,257.17924365568894,66.03081604655863
142,-3.802981206246766,-216.01133712096376,-139.52379501862916,-3.3214489761279027,66.03446214383018,0.6871220619243132,257.2028310773954,66.03726940587819
143,-3.7555174517806527,-216.0086174949996,-139.57045785219765,-3.2613747086438787,66.08513841279607,0.6274026387744518,257.2247615492679,66.07811367899725
144,-3.711130398751443,-216.00262122207837,-139.61825146545982,-3.230692307332252,66.16360201084511,0.5511268940378716,257.2445576110176,66.15142340695316
145,-3.6706528026579623,-215.9932221956715,-139.66655348469,-3.233070748668944,66.26708544399699,0.4579728640444349,257.26179340195216,66.25479708046235
146,-3.6348381560653844,-215.9803749017687,-139.714722061749,-3.271811182440281,66.39243503046255,0.34784320058122836,257.27609996751147,66.38543652719524
147,-3.6043476720396646,-215.96411169861653,-139.76210754613274,-3.3498192630216788,66.53619982118981,0.22087125325496854,257.2871690206909,66.54023107330724
148,-3.5797375649220644,-215.94453813135712,-139.80806473275004,-3.469573288787855,66.69472347951424,0.07742317564843144,257.294755324066,66.71584325125639
149,-3.561446486134075,-215.92182712507977,-139.85196516690775,-3.6330878927101318,66.86423591149416,-0.08190416272426199,257.29867811919195,66.90879295579673
150,-3.5497833938506873,-215.896212906998,-139.8932092120491,-3.8418741685014743,67.04094171352149,-0.25628956296826905,257.2988221708365,67.11553734117615
151,-3.5449165722242886,-215.86798515378194,-139.93123790999437,-4.096898204102589,67.22110305570361,-0.44469822486133037,257.2951388817598,67.33254441265741
152,-3.546864757203659,-215.83748339789918,-139.96554477773773,-4.398540848928889,67.40111533829167,-0.6458968163932728,257.28764761156486,67.55635906955226
153,-3.5554912885867216,-215.80509142176825,-139.99568751348818,-4.746562037899926,67.57757468687798,-0.8584727938100862,257.27643698209846,67.78366113907775
154,-3.5705019776400637,-215.7712312893934,-140.02129930815818,-5.140073105221773,67.74733697707846,-1.0808576969290635,257.2616657306315,68.0113155866137
155,-3.5914471408370527,-215.73635671721308,-140.04209926649625,-5.577520294692636,67.9075685377851,-1.3113538838213163,257.24356260702564,68.23641553897538
156,-3.6177281035314497,-215.70094554931163,-140.05790141097293,-6.056682189292134,68.05578893258635,-1.548163906598887,257.22242484421645,68.45631897637047
157,-3.6486083319242493,-215.66549110989868,-140.06862185965642,-6.5746831076595535,68.18990626138175,-1.7894215544955132,257.19861479872543,68.66867993923306
158,-3.683229091815398,-215.63049217478982,-140.07428393971372,-7.128023720187182,68.30824533750469,-2.0332235569204817,257.1725544197614,68.8714749410942
159,-3.720629226828911,-215.59644134723138,-140.07502109457073,-7.712629319880436,68.40956898925084,-2.277661044674941,257.1447172894912,69.06302509204843
160,-3.7597684614231124,-215.56381183767314,-140.07107743020606,-8.323915403930833,68.49309263504612,-2.52085005229285,257.11561814614447,69.24201424654532
161,-3.7995535986850086,-215.5330429510619,-140.06280567940263,-8.956869438743071,68.55849212014229,-2.7609605229452447,257.08580001744724,69.407503220014
162,-3.8388669981997663,-215.5045248153639,-140.05066230130532,-9.606146816088946,68.60590453690877,-2.9962433882230024,257.0558192482272,69.55893972215486
163,-3.876596701739571,-215.4785830321386,-140.0351994380236,-10.266178078975477,68.63592144414194,-3.2250553307817786,257.02622882790064,69.69616319707771
164,-3.91166750288881,-215.4554641068956,-140.0170535793991,-10.931283637062771,68.64957367909433,-3.445880837012593,256.9975606383584,69.81940338258433
165,-3.9430721322519977,-215.4353227332905,-139.9969310224181,-11.59579157310588,68.64830693324033,-3.6573511784290664,256.97030754864846,69.92927124073034
166,-3.9699015733589924,-215.41821213943652,-139.9755904544212,-12.254153891798355,68.63394750020937,-3.8582600864643344,256.94490652414623,70.0267410547272
167,-3.9913733687531527,-215.4040786542244,-139.95382317276108,-12.901056719237165,68.60865808761557,-4.0475760905751645,256.9217239725489,70.11312293159082
168,-4.006856652908062,-215.39276139638937,-139.93243160389002,-13.531520473050122,68.57488423433746,-4.22445166504909,256.90104441509766,70.1900256130976
169,-4.015892599652879,-215.38399754866558,-139.91220694101787,-14.140986796007137,68.53529257593743,-4.388229368775562,256.8830632875687,70.25931025480864
170,-4.018209021922038,-215.3774331011912,-139.8939068318694,-14.725389981816106,68.49270281833601,-4.5384450698603045,256.86788425448975,70.32303654212741
171,-4.013728018731772,-215.37263834315505,-139.87823402706064,-15.28121162047324,68.45001569983539,-4.67482824538308,256.85552090526033,70.3834030538103
172,-4.00256588056032,-215.3691269059744,-139.86581675684414,-15.805518152058427,68.41013941485109,-4.797299361133827,256.8459022307453,70.44268411648726
173,-3.985024977455762,-215.36637692600075,-139.85719145087864,-16.295981860182394,68.37591698408076,-4.905964471673366,256.8388810077024,70.50316554454268
174,-3.9615779533402042,-215.36385291672417,-139.8527883133754,-16.750886515656365,68.35005692615498,-5.00110732189595,256.8342441910928,70.56708165019316
175,-3.9328450477377976,-215.36102717635964,-139.85292017817088,-17.169119400558603,68.33506932394096,-5.083179260396056,256.8317245715897,70.63655574008096
176,-3.899565681077839,-215.3573999162934,-139.85777498789685,-17.55015181730834,68.33320900565113,-5.152787169567821,256.83101321715645,70.71354600870167
177,-3.8625656183099917,-215.3525176228458,-139.86741223330827,-17.894010380577562,68.34642713648076,-5.210679435615538,256.83177248874034,70.7997983472723
178,-3.822721175962463,-215.34598930305805,-139.88176372935982,-18.201241331150502,68.37633209793479,-5.25772980656996,256.8336495588675,70.89680715170927
179,-3.780922181145833,-215.33750020747894,-139.90063902139627,-18.472869803475596,68.42416011971589,-5.29491890969551,256.83629027094884,71.00578474122536
180,-3.738035718732962,-215.32682253876845,-139.9237353986574,-18.710355542429564,68.49075569023493,-5.323313299575659,256.83935294074973,71.1276394907506
181,-3.694872857360694,-215.31382270669877,-139.95065204594528,-18.915546146009905,68.57656133918694,-5.344042172854379,256.8425215090229,71.26296230006177
182,-3.6521602474107833,-215.29846488577826,-139.9809074597128,-19.090628597977496,68.68161609583387,-5.358272192554282,256.84551740089086,71.41202071259562
183,-3.610517804658746,-215.28081090424354,-140.01395896982459,-19.238079671440442,68.80556190404089,-5.367181085300884,256.84810951751126,71.57475997210268
184,-3.570442992871607,-215.26101680214126,-140.0492230545081,-19.360615686319413,68.94765748189323,-5.371930767791595,256.8501219536796,71.75081051396945
185,-3.5323017491158435,-215.23932668508553,-140.08609512244826,-19.46114197307867,69.1067993588053,-5.373640765600832,256.8514392617056,71.93950161904125
186,-3.4963258435279476,-215.21606466538216,-140.12396755987558,-19.542702110812574,69.28154991974587,-5.373362691307302,256.8520092803326,72.13988100649995
187,-3.462616328883945,-215.19162565225946,-140.1622450905158,-19.608426569762226,69.4701721775265,-5.372056616739801,256.85184365251473,72.35073995860446
188,-3.4311526653667817,-215.1664655552092,-140.2003568568609,-19.661479958993997,69.67067074103598,-5.370570270649763,256.8510161823557,72.57064325128347
189,-3.4018070782427494,-215.14109119086007,-140.23776503849584,-19.705005873605963,69.88083813775503,-5.369621985561684,256.84965917127454,72.79796284094385
190,-3.374363668436667,-215.1160499100097,-140.27397018258714,-19.74206848760723,70.09830534626207,-5.369788113980865,256.8479578371331,73.03091402060117
191,-3.3485416679498394,-215.0919187158191,-140.30851370792763,-19.77559057951538,70.32059516131763,-5.371495280609399,256.8461428666213,73.26759268193094
192,-3.3240219378223297,-215.06929245935808,-140.3409782807356,-19.808288549230564,70.54517691086072,-5.375017456018141,256.8444811202974,73.50601245614602
193,-3.300475353967657,-215.04877064686863,-140.3709868964621,-19.842606027112495,70.7695210510897,-5.380477523867083,256.84326453397534,73.74414079759259
194,-3.277591279861747,-215.03094252860967,-140.3982014654823,-19.880648671115676,70.99115216669033,-5.387852812051365,256.84279734744115,73.97993334726776
195,-3.2551041152377134,-215.0163704439482,-140.42232156888565,-19.924123521586214,71.20769881546225,-5.396983977854574,256.84338197089147,74.21136604011318
196,-3.232816030337349,-215.0055717987798,-140.443083998084,-19.974286734743988,71.41693854250993,-5.407586658552904,256.8453041062328,74.43646443194238
197,-3.2106143586845666,-214.9990004440995,-140.46026376222247,-20.031903563529543,71.61683640047882,-5.419265371213443,256.84881810950776,74.65332974366595
198,-3.188482623005782,-214.99702849426652,-140.47367726334744,-20.09722403972804,71.80557554863226,-5.43152920764946,256.85413381978503,74.8601612334906
199,-3.166504776271536,-214.99992972484395,-140.48318805777532,-20.16997696459527,71.98157894613256,-5.443808898470236,256.8614060188202,75.05527470471189
200,-3.1448628880034852,-215.00786569357334,-140.48871500315522,-20.249383660847908,72.14352171513906,-5.455474844289334,256.8707273608558,75.23711718854807
201,-3.1238290374219195,-215.0208757105107,-140.4902419167903,-20.334191616997416,72.29033434239258,-5.465855764444968,256.88212523795943,75.40427806428697
202,-3.103752461584134,-215.0388716707871,-140.48782753627214,-20.422726777702202,72.42119745758725,-5.47425767912945,256.89556277521325,75.55549706443247
203,-3.0850430747830173,-215.0616384083504,-140.4816147329123,-20.51296192211142,72.5355294512491,-5.479982979897337,256.91094394458923,75.68966976486884
204,-3.0681524662790407,-215.08883966634448,-140.47183834927543,-20.602597478293077,72.63296868660854,-5.482349329876939,256.92812255077274,75.80585132610173
205,-3.053553489398356,-215.12002924900875,-140.45883128896028,-20.689150370481986,72.7133525129032,-5.480708069139999,256.94691454378795,75.9032594575331
206,-3.0417195257177503,-215.1546666047606,-140.44302835295107,-20.770046116685947,72.77669560898403,-5.474461718661924,256.9671127791152,75.98127774689543
207,-3.0331043590457436,-215.19213597251385,-140.42496697775354,-20.8427093468718,72.8231702276186,-5.463080132120529,256.98850306094806,76.03946048826919
208,-3.028123350998813,-215.23176816918792,-140.4052838701346,-20.904648177676247,72.85309059488668,-5.4461148514630535,257.0108801672488,76.07753988326829
209,-3.0271363782742835,-215.27286398949835,-140.38470675737133,-20.953528487512134,72.86690310930395,-5.423211229694323,257.03406258396717,76.095436052562
210,-3.0304328511558376,-215.3147180252786,-140.36404098288418,-20.987235086729847,72.86518321768021,-5.394117844369361,257.05790481485224,76.09326980894613
211,-3.0382191042334057,-215.3566415824424,-140.34415123882164,-21.003917966770103,72.8486390359089,-5.358692661794328,257.08230633024016,76.07137769182803
212,-3.050608498574392,-215.39798335940938,-140.32593918266534,-21.002023043816283,72.81812102003744,-5.316905410916666,257.10721645333865,76.0303283752693
213,-3.067614630462431,-215.43814669498934,-140.31031800657868,-20.980307896872702,72.77463633656137,-5.268835771943238,257.13263477663014,75.97093924265064
214,-3.0891480419209563,-215.4766025284421,-140.29818519984835,-20.937843856239034,72.71936604113799,-5.21466730223412,257.15860707243075,75.89429165817303
215,-3.1150167149731023,-215.51289769550615,-140.2903947233763,-20.874006452931372,72.65368272497575,-5.154677438257613,257.1852170500511,75.80174323804671
216,-3.144930344384192,-215.54665867787503,-140.28772964134797,-20.788456726096218,72.5791659258726,-5.089224294302378,257.2125746266711,75.69493523194306
217,-3.1785079281463786,-215.5775913375882,-140.29087605748367,-20.681116171485534,72.49761239288698,-5.018731252015895,257.24080161204563,75.57579301746476
218,-3.2152877411330643,-215.60547750123766,-140.3003990525001,-20.552138144023065,72.4110383443882,-4.943670524016235,257.2700158975536,75.44651777422243
219,-3.2547384902465226,-215.63016950666636,-140.31672118599192,-20.401878300509697,72.32167123146843,-4.864546987857239,257.3003153699766,75.30956770345581
220,-3.296270511153525,-215.65158393783494,-140.3401039888594,-20.23086623682918,72.23192918474658,-4.7818835563713495,257.3317627887593,75.16762768105473
221,-3.3392462089001147,-215.6696956998051,-140.37063280016378,-20.039779886960872,72.14438717463253,-4.696209146368625,257.364372766418,75.02356688576866
222,-3.3829894424994946,-215.6845332896602,-140.40820540734413,-19.829423557973197,72.06172982396495,-4.608050009553399,257.3981018067836,74.88038462366798
223,-3.4267940735424496,-215.69617561066195,-140.4525252315205,-19.600709784000973,71.98669170350439,-4.517924891583805,257.4328420930001,74.74114523574916
224,-3.4699322827303685,-215.70475007057848,-140.50310003823242,-19.35464464942511,71.92198681366726,-4.426344202022126,257.4684193484284,74.60890366648971
225,-3.5116633759217435,-215.71043121114192,-140.55924707497115,-19.092315966150235,71.87022981661664,-4.333813081202987,257.5045946414656,74.48662401881191
226,-3.5512436731424826,-215.7134389103727,-140.62010513326013,-18.814883705121503,71.8338523750648,-4.24083792747332,257.54106961258805,74.37709417380373
227,-3.5879378619305102,-215.7140352798141,-140.68465355404373,-18.523572334874142,71.81501855727733,-4.147935602048157,257.5774944048457,74.28284018548136
228,-3.621032015428678,-215.7125195881994,-140.7517378018532,-18.219665135520952,71.81554357196941,-4.055644184451438,257.61347753761044,74.20604454851082
229,-3.649848277765888,-215.70922076210516,-140.8201008500017,-17.904501007313915,71.836820076634,-3.9645338816509703,257.648596936501,74.14847252522839
230,-3.673760950821995,-215.704487249605,-140.8884191455872,-17.57947460927834,71.8797559982737,-3.8752165752521575,257.6824112700601,74.11141050486455
231,-3.6922134845122083,-215.69867432252468,-140.95534143601995,-17.246040707846056,71.94472725714354,-3.78835254111364,257.7144707194132,74.09561985748134
232,-3.7047357992884926,-215.69212922856212,-141.01952844328744,-16.905723351420523,72.03154803338457,-3.7046530721688486,257.7443264263821,74.10130896925045
233,-3.710961392940011,-215.68517494572544,-141.0796914178987,-16.560129977486014,72.13946033223903,-3.624878068789316,257.7715381751163,74.12812518877618
234,-3.710643643896492,-215.6780935652092,-141.1346279605287,-16.2109699006474,72.26714365298918,-3.5498281221836367,257.79568028277106,74.17516736608057
235,-3.703670551471987,-215.6711104323433,-141.18325398529404,-15.86007589959108,72.41274458885829,-3.480331149687787,257.8163460215149,74.24101857990293
236,-3.690076918262109,-215.6643800588596,-141.2246311210539,-15.509426891603999,72.57392521452103,-3.4172241539012944,257.83315102148913,74.32379756906963
237,-3.670052804247619,-215.6579745792624,-141.25798910312932,-15.161169062900697,72.74792819542289,-3.361331096844015,257.8457360380739,74.42122636755929
238,-3.6439470405985723,-215.65187534656687,-141.28274280370695,-14.817632437995778,72.9316557215989,-3.313438183253568,257.8537693677387,74.53071075745052
239,-3.612264699416032,-215.64596824226606,-141.2985035829392,-14.481339812103686,73.12175869954753,-3.274268042021752,257.85694919723414,74.64942948901441
240,-3.5756577026233365,-215.64004333844974,-141.30508474361991,-14.155005266333044,73.31473222921854,-3.244454386536468,257.85500628057196,74.77442787806405
241,-3.5349082728060237,-215.6337995624921,-141.30250110066115,-13.841520104389698,73.50701330642849,-3.224518722121824,257.8477074796093,74.9027114266907
242,-3.490905669985453,-215.62685487354392,-141.2909629884892,-13.543924889673079,73.69507688807123,-3.2148505591657837,257.83486076750575,75.0313354679146
243,-3.444617464179539,-215.61876211806387,-141.27086534286272,-13.26536716864079,73.87552685504724,-3.2156923983010075,257.81632219302907,75.1574873935182
244,-3.397057227517277,-215.60903024625475,-141.24277274711122,-13.009045311199188,74.04517894448752,-3.2271304786204413,257.7920050471772,75.2785587003544
245,-3.3492508518524042,-215.59715008839362,-141.2074014606031,-12.778139654679226,74.20113336646062,-3.249091892669747,257.7618911448482,75.3922048466779
246,-3.302203702103087,-215.5826235232852,-141.16559935553673,-12.57573285899823,74.34083552978325,-3.2813481646339375,257.7260437780421,75.49639171837885
247,-3.2568705057166762,-215.5649946326509,-141.118324356519,-12.40472209943977,74.46212400747288,-3.323524846608275,257.6846215144671,75.58942830738565
248,-3.2141292831617703,-215.5438812654634,-141.066621561885,-12.267726396409982,74.5632655036833,-3.375116246536921,257.6378916424768,75.66998592658045
249,-3.1747599375725697,-215.51900527257007,-141.01159893949114,-12.166992928360248,74.64297709563844,-3.4355041079254978,257.58624176488405,75.73710486933147
250,-3.1394276288906386,-215.49021954335615,-140.95440141611928,-12.104306519372368,74.70043638530846,-3.5039788678042845,257.5301878918347,75.79018982323748
251,-3.1086708747277485,-215.45753002954578,-140.89618330155477,-12.080906580801615,74.73528038958162,-3.579762005757371,257.4703774911005,75.82899554306935
252,-3.0828943191882576,-215.4211112999619,-140.83807931485183,-12.0974156115475,74.74759406722643,-3.6620280229253335,257.40758643028516,75.8536043238193
253,-3.062366093580236,-215.3813147693001,-140.78117501840066,-12.15378297524406,74.73788942075393,-3.7499248172173147,257.3427095379981,75.8643967980743
254,-3.047219547445943,-215.33866936582362,-140.72647808350757,-12.24924713292082,74.70707617374867,-3.8425916170741328,257.2767453655419,75.86201757318825
255,-3.0374588662269644,-215.29387486330552,-140.67489222561176,-12.382318850481688,74.65642509120111,-3.9391740672736653,257.2107763385826,75.84733720296677
256,-3.0329678349597766,-215.2477883631315,-140.627195622464,-12.55078714957953,74.58752507839591,-4.038836390089574,257.14594568994715,75.82141194777634
257,-3.033520911237809,-215.20140452742575,-140.58402517593595,-12.751748957532067,74.50223529763397,-4.1407707332174475,257.0834324130172,75.78544275126049
258,-3.0387958833406747,-215.1558301800112,-140.5458673146585,-12.981662551806563,74.40263366870164,-4.244203911985195,257.02442512761183,75.74073484295539
259,-3.048387608847679,-215.11225385240124,-140.51305539477934,-13.236423983698169,74.29096318906355,-4.3484018310510155,256.97009536906074,75.68865928879353
260,-3.06182252816637,-215.07191085294832,-140.48577327820124,-13.5114646954749,74.16957747114559,-4.452671978935841,256.9215705506359,75.6306176054136
261,-3.078573784612563,-215.03604457743683,-140.46406437802565,-13.801867525533423,74.04088677643561,-4.55636452205333,256.8799068068129,75.56801025943878
262,-3.0980768621153625,-215.00586507907002,-140.44784529299088,-14.10249728695416,73.90730569366696,-4.658872629822237,256.846062081667,75.50220955841279
263,-3.1197456437226236,-214.9825063491742,-140.43692301912773,-14.408141220709537,73.77120350383908,-4.759632695985156,256.8208701143623,75.43453716308986
264,-3.1429886665113544,-214.96698427281757,-140.43101461385652,-14.713653980319988,73.63485821074033,-4.858125089258454,256.8050163392589,75.36624624281247
265,-3.1672251427129283,-214.96015765233568,-140.42976814772004,-15.014101448720286,73.50041517705883,-4.953875997068017,256.7990170531395,75.29850815446434
266,-3.1919001186569047,-214.96269481063115,-140.43278382605422,-15.304897604894219,73.36985124491318,-5.046460843364175,256.80320332477146,75.23240340751633
267,-3.216498013524893,-214.9750479895116,-140.43963424071723,-15.581928827881123,73.2449450748706,-5.135509670414605,256.81771091380483,75.16891652675388
268,-3.240553777165426,-214.99743707573475,-140.44988278628597,-15.841660463743086,73.12725418730759,-5.220714730254523,256.84247693543495,75.10893422547218
269,-3.263661097675023,-215.02984321720015,-140.46309939271924,-16.081221225583036,73.01809886456418,-5.301840271852495,256.8772432651262,75.05324609501272
270,-3.2854774469540002,-215.07201187768555,-140.47887293141153,-16.298462089451476,72.91855270568301,-5.378734162693578,256.921565951085,75.00254685203421
271,-3.3057260934951156,-215.1234641452959,-140.4968199070559,-16.49198779788867,72.82943923175122,-5.451340676279848,256.97482943723855,74.95743909179109
272,-3.3241953509841204,-215.18351476701193,-140.51658932602072,-16.661160785272468,72.75133355755841,-5.519713602679294,257.0362642683323,74.91843549356562
273,-3.340735280992611,-215.25129527704888,-140.53786399077438,-16.806079046304102,72.68456785522099,-5.584028765369937,257.1049670564036,74.88595952497091
274,-3.3552520125725773,-215.32578058998482,-140.56035891270693,-16.927530888731354,72.62923919883772,-5.644594967471758,257.1799217315835,74.860343871999
275,-3.3676999242579693,-215.40581757858797,-140.58381789681545,-17.026930469920817,72.58521839818252,-5.701862317643417,257.2600214236638,74.84182603739536
276,-3.378072121635589,-215.49015449783167,-140.60800945676033,-17.10623849950083,72.55215858807782,-5.756426853508916,257.3440906670805,74.83054078931526
277,-3.3863897912555525,-215.57747054779455,-140.63272308190272,-17.16787254709864,72.52950263129506,-5.80903045618551,257.43090790968574,74.8265094210838
278,-3.3926910257542557,-215.66640521725674,-140.65776664139992,-17.214611067650967,72.5164887902976,-5.860555253802414,257.5192284673671,74.8296260920308
279,-3.3970196391099807,-215.75558724853207,-140.68296545043222,-17.249494599138014,72.51215458884272,-5.912011997447031,257.60780808767225,74.83964183238055
280,-3.399414447880854,-215.8436631564536,-140.70816320013571,-17.27572668428612,72.51533930992677,-5.964522169458726,257.6954271835354,74.85614711590769
281,-3.399899579055106,-215.92932526792103,-140.7332245332352,-17.296576026887475,72.52468615206098,-6.019293782918321,257.78091559654655,74.878554239864
282,-3.3984765623413655,-216.01133922536272,-140.75803862430897,-17.315280345520826,72.53864560542235,-6.077590961744462,257.86317750003957,74.9060810452365
283,-3.3951191293706486,-216.08857079420963,-140.78252289423784,-17.334951491577726,72.55548197442504,-6.140697531000476,257.9412158414626,74.93773766510822
284,-3.3897715970079245,-216.16001162406582,-140.80662610134667,-17.35848081533155,72.57328509176489,-6.209875070002768,258.0141556246155,74.97231797595202
285,-3.3823514001039174,-216.2248033777829,-140.83033043937462,-17.38844361753681,72.58998918879759,-6.286316187203708,258.0812653433896,75.00839732405784
286,-3.372755881980514,-216.28225940171504,-140.8536526536631,-17.427001886220687,72.60340069633564,-6.37109412157856,258.14197588034386,75.04433801238635
287,-3.3608730216854497,-216.33188284665826,-140.87664429847212,-17.475805398948758,72.61123647259357,-6.465110155630473,258.1958960186691,75.07830399590186
288,-3.3465954101865516,-216.3733798806879,-140.89939108995662,-17.535892594984645,72.61117352158911,-6.5690407614289015,258.2428233946575,75.10828616859534
289,-3.3298364236435662,-216.40666651781467,-140.922011081972,-17.607594210523896,72.60091055853061,-6.683286840579449,258.28274949015264,75.13213937082345
290,-3.3105472595289753,-216.43186780675995,-140.9446513146724,-17.69044426441314,72.57824071890745,-6.8079277290847955,258.3158574028734,75.14763164158383
291,-3.2887334766821454,-216.44930869391456,-140.96748267511902,-17.78310430848084,72.54113333111707,-6.9426827181562585,258.34251165853294,75.15250523606389
292,-3.264469868639652,-216.45949659208372,-140.9906928559872,-17.88330769545327,72.48782114632903,-7.0868826885411265,258.36324001312386,75.14454762700686
293,-3.237912613220433,-216.46309632239107,-141.01447744853186,-17.987830828917296,72.41688799351135,-7.2394541136473185,258.37870780982644,75.12166932488304
294,-3.20930753263059,-216.46089857273859,-141.03902938865883,-18.092497878226233,72.32735076284526,-7.398917182801367,258.38968595113005,75.08198413888144
295,-3.1789931816377135,-216.45378337656325,-141.06452720636844,-18.192224272107268,72.21872912853428,-7.5633991370048355,258.3970139724923,75.02388668124229
296,-3.147397682827601,-216.44268039829757,-141.0911227838214,-18.28110251531718,72.09109662599798,-7.730663126002951,258.4015600829498,74.94612164570637
297,-3.115028807303745,-216.42852801494635,-141.11892954526027,-18.3525316489212,71.94510763307338,-7.8981520652976105,258.4041803365654,74.84783974390741
298,-3.082457501051857,-216.41223330133244,-141.14801207380245,-18.39938914116454,71.78199643279511,-8.063046188146389,258.4056792475154,74.7286361635362
299,-3.0502955995778085,-216.39463505136666,-141.17837801647846,-18.414241272383887,71.60354673110477,-8.222332318012258,258.40677411638956,74.58856892344248
300,-3.019168799387877,-216.3764718535642,-141.209972905401,-18.389585303722864,71.4120325128758,-8.372882371648656,258.4080651146788,74.42815631982488
301,-2.989686204512377,-216.3583569238283,-141.24267834372267,-18.318114103985277,71.21013359002384,-8.511538265583862,258.41001281372235,74.24835447204595
302,-2.962408077996123,-216.3407608889735,-141.27631387667233,-18.192991720205583,71.00083128067276,-8.635200240256859,258.4129243504174,74.05051749728342
303,-2.937813787213933,-216.32400309940505,-141.3106426560484,-18.008126893930918,70.78729110932474,-8.740915616531025,258.416948795851,73.83634389119072
304,-2.9162721742539466,-216.30825140854847,-141.34538064883267,-17.75843098680258,70.57274010557293,-8.82596512969349,258.4220815646852,73.60781321661946
305,-2.898016532690736,-216.29352974894593,-141.38020872499095,-17.44004733425776,70.36034620100725,-8.887944203696119,258.4281769671441,73.36711726869497
306,-2.8831259951902184,-216.27973237948365,-141.41478663584527,-17.05054068701585,70.15310650696082,-8.924836775612558,258.4349674431394,73.11658963852285
307,-2.8715145699359126,-216.26664349247991,-141.4487677904494,-16.589037938126406,69.95375010578832,-8.9350795210652,258.4420877998175,72.85863720123136
308,-2.8629284848389047,-216.25396090297517,-141.48181390160522,-16.056314449758336,69.76465960309409,-8.917614583688698,258.449102886114,72.5956766080316
309,-2.856951971945513,-216.2413226082564,-141.51360892159755,-15.454823603300316,69.58781420975902,-8.87192921500042,258.455537378568,72.330078379497
310,-2.8530211138550365,-216.22833496916869,-141.54387202915356,-14.788670284845798,69.4247556519383,-8.798081093154641,258.4609065038886,72.06412063347716
311,-2.850444870772148,-216.21460112146397,-141.5723695738953,-14.063531520746741,69.27657681222625,-8.696708487438134,258.464746477488,71.79995377764114
312,-2.8484319938617197,-216.1997480679154,-141.59892577412316,-13.286529220673787,69.14393171456956,-8.569024852291133,258.46664323972794,71.53957663032952
313,-2.846122320254655,-216.18345087588736,-141.62343172812552,-12.466061054161273,69.0270643130747,-8.41679787022709,258.4662579175197,71.28482347500986
314,-2.842620960198039,-216.16545261072565,-141.64585214644953,-11.61159611961722,68.9258526197698,-8.242313426200417,258.46334752647607,71.0373606721342
315,-2.837034000396407,-216.1455790288323,-141.66622924784124,-10.733442492936042,68.8398641091779,-8.048325495418439,258.45777977767824,70.79869081763795
316,-2.8285043930437044,-216.12374748588496,-141.68468343847283,-9.842494123588555,68.76841810080515,-7.837993458772418,258.4495413107473,70.57016212535831
317,-2.8162466569158897,-216.0999698754847,-141.7014106044476,-8.94996495276174,68.71065091498537,-7.614808883983492,258.4387390896525,70.35298070997317
318,-2.799579022515897,-216.07434971689293,-141.71667602151717,-8.06711851734493,68.66557998037153,-7.382514234346619,258.4255950454622,70.14822370542193
319,-2.7779518335179385,-216.0470738228876,-141.7308050212558,-7.205001538300081,68.63216368703789,-7.14501619477514,258.4104343862664,69.95685159020384
320,-2.7509713624259233,-216.0183992905284,-141.74417066650224,-6.374189962106028,68.60935454570487,-6.9062963221282985,258.39366832044374,69.77971861424078
321,-2.718418570978476,-215.9886368002915,-141.75717878426866,-5.584555612443882,68.59614404348918,-6.670321619246878,258.37577219876454,69.61758076488576
322,-2.680262557140203,-215.95813136562006,-141.77025081296617,-4.845061019883728,68.59159840440131,-6.440957503186931,258.35726027416155,69.47110122641665
323,-2.636668388125848,-215.92724177546856,-141.78380510346634,-4.163589078248882,68.5948851994128,-6.221885519198795,258.3386584621704,69.34085372690309
324,-2.58799884104147,-215.89632001151875,-141.79823756753933,-3.546812848331789,68.6052913404639,-6.016527994941378,258.3204766551595,69.22732447046303
325,-2.534809491038102,-215.86569188214966,-141.8139027646568,-3.000109070177925,68.62223338306676,-5.827981572906267,258.30318221788593,69.13091347687131
326,-2.477836725563095,-215.83564002224563,-141.83109647942865,-2.5275168402528885,68.64526123809897,-5.6589611917985785,258.28717619496865,69.05193608967595
327,-2.4179785831253273,-215.80639026756356,-141.85004051831288,-2.131740633810308,68.67405640202956,-5.511755647112744,258.27277347017707,68.99062522439856
328,-2.356268732434239,-215.7781021628538,-141.87087003966883,-1.8141946114026501,68.70842574616965,-5.388195393821063,258.2601876864991,68.94713470259485
329,-2.293844349399179,-215.7508639776493,-141.8936235093481,-1.5750831513190473,68.74829182773315,-5.289632803812715,258.24952129750613,68.92154382111345
330,-2.2319090165624025,-215.72469218985836,-141.91823542376548,-1.4135110063387772,68.79368060648939,-5.216934710629436,258.24076080659,68.91386314476618
331,-2.1716919924728653,-215.69953510928568,-141.94453207473933,-1.3276155637967928,68.84470734040289,-5.170486806136529,258.23377708546843,68.9240413556291
332,-2.1144053338796764,-215.67528019919848,-141.97223065184187,-1.3147134547999282,68.90156127208178,-5.15020926870655,258.22833058168544,68.95197282347675
333,-2.0612005061820993,-215.6517646562824,-142.00094191142318,-1.3714541396813589,68.96448953094844,-5.1555827777051935,258.22408119229794,68.9975053995808
334,-2.013126270932957,-215.62878885823378,-142.03017659806744,-1.4939739222813555,69.03378052498331,-5.185683690484724,258.2206026001108,69.06044783239444
335,-1.971089683793984,-215.6061323054455,-142.05935575544902,-1.6780448973145936,69.10974702709315,-5.239226674868011,258.21740085678533,69.14057619940861
336,-1.9358219357783593,-215.58357156540816,-142.08782488966636,-1.919214407577731,69.1927091694586,-5.314612707443863,258.21393680112567,69.23763883978332
337,-1.9078505690159637,-215.56089944586546,-142.11487163702512,-2.212931559345766,69.28297758638607,-5.409980221228785,258.2096514901441,69.35135939908213
338,-1.8874793070072187,-215.5379442900403,-142.13974625750382,-2.554658182995289,69.38083690886567,-5.523257284121466,258.2039933563178,69.48143767147994
339,-1.8747763532383548,-215.5145880661782,-142.16168406022987,-2.939962329177394,69.48652966996137,-5.652212898865305,258.19644549703474,69.62754789593899
340,-1.8695716051776299,-215.4907818936731,-142.17992886123523,-3.3645929740641067,69.60024048410257,-5.794505795427869,258.18655147001147,69.78933408383641
341,-1.8714629078397158,-215.4665577900435,-142.19375676974323,-3.824535143235991,69.7220802259001,-5.947729456848686,258.173938192362,69.9664019412536
342,-1.879831223630376,-215.4420356914732,-142.2024998361762,-4.316045259647657,69.85206991571917,-6.10945254945992,258.15833489379105,70.15830706189888
343,-1.8938643025141775,-215.41742518433995,-142.2055691768373,-4.835667229495182,69.99012409342954,-6.277254313466536,258.13958743850367,70.36453927317983
344,-1.9125880238228814,-215.3930218744959,-142.20247708433894,-5.380230554901,70.13603358725439,-6.4487547227577355,258.1176676777629,70.5845032658714
345,-1.9349041133546878,-215.36919881948597,-142.19285746313074,-5.9468325009377265,70.28944776872991,-6.621639370310709,258.09267781425484,70.81749592874768
346,-1.9596325586803476,-215.34639380928522,-142.1764837934818,-6.53280695367844,70.44985664651412,-6.793679195129535,258.0648499820301,71.06268116490784
347,-1.9855568409536293,-215.3250934254972,-142.1532837079615,-7.135683035248366,70.61657346607552,-6.962745415512974,258.03454129801327,71.31906336315078
348,-2.01147003891802,-215.30581476366729,-142.12334914645274,-7.753136780292818,70.78871880208781,-7.126820328934735,258.00222453716464,71.58546108275567
349,-2.0362198505726457,-215.2890855565014,-142.08694107389866,-8.382939243970629,70.96520743375227,-7.284004868532065,257.9684744714001,71.86048285149765
350,-2.0587506059659515,-215.27542331646097,-142.04448809021676,-9.02290432954038,71.14473956592161,-7.43252388210175,257.93395000499703,72.14250725305926
351,-2.0781404883813956,-215.26531413866348,-141.99657889541223,-9.670839390348842,71.3257981381556,-7.570730002069229,257.8993726099449,72.42966962559285
352,-2.093632498152743,-215.25919195670843,-141.94394917501535,-10.32450125042223,71.50665394469928,-7.697106736872589,257.86550202639904,72.71985760363312
353,-2.1046581309123202,-215.2574191900795,-141.88746375839142,-10.981559715837863,71.68538000746342,-7.810271099957521,257.8331104770428,73.01071735528777
354,-2.1108531553040266,-215.26026975943194,-141.82809489951742,-11.639570005989635,71.85987613566358,-7.908975803945216,257.8029566764978,73.29967174870262
355,-2.1120651474557497,-215.26791538582575,-141.76689747252314,-12.295954928633192,72.0279039694296,-7.9921109031562105,257.775760835789,73.58395094901955
356,-2.1083526193022055,-215.28041597301066,-141.70498194248012,-12.947997111954939,72.18713214950112,-8.058704832303578,257.75218180157776,73.86063522194479
357,-2.0999758448839967,-215.29771468483324,-141.64348615964525,-13.592841180783658,72.33519066583983,-8.107925023579579,257.7327974183158,74.12670908268687
358,-2.0873799271888887,-215.31963801949576,-141.58354718502125,-14.227505373572281,72.46973295011325,-8.139078564421984,257.718089033817,74.3791253957205
359,-2.071171124333014,-215.345900723437,-141.52627431367156,-14.848901694011849,72.58850387976295,-8.151613538170393,257.70843066654857,74.61487756900291
360,-2.0520877842263405,-215.37611485330535,-141.472724147858,-15.45386326748404,72.68941152865301,-8.145121675701402,257.7040827354841,74.8310775599598
361,-2.0309673876918772,-215.40980187296518,-141.4238780714398,-16.039177180815194,72.77060019997577,-8.119342750345588,257.70518962555394,75.0250370015663
362,-2.008711247907614,-215.44640653864275,-141.380621980853,-16.601620819095345,72.83052198384911,-8.074170877781302,257.7117799762448,75.19434836924465
363,-1.9862483985951087,-215.48531146432995,-141.34372784292566,-17.137999654292727,72.86800381841547,-8.009662648635047,257.72376853946633,75.33696279499658
364,-1.964500100613132,-215.5258515080681,-141.31383671423436,-17.64518461089968,72.88230688831557,-7.926046857802882,257.740958694324,75.45126099226322
365,-1.9443461896097964,-215.56732738371514,-141.29144324243995,-18.120147519218126,72.87317524906759,-7.823735467038211,257.7630451365608,75.53611385945197
366,-1.9265942207161406,-215.60901820179123,-141.2768821821742,-18.55999372716712,72.8408708250659,-7.70333529597075,257.78961678889283,75.59092967590578
367,-1.9119521474561183,-215.65019294965776,-141.27031789406004,-18.961991593739338,72.78619235087075,-7.565659731247138,257.82016047194594,75.61568532804544
368,-1.901005206823967,-215.6901211187296,-141.27173804089,-19.323599215828477,72.71047639077956,-7.411739447192691,257.8540661743988,75.61093965648044
369,-1.8941977673221484,-215.72808271690283,-141.28095264995068,-19.642489240908453,72.61557929634999,-7.24283079099837,257.8906347628963,75.57782779090653
370,-1.8918209762456801,-215.76337786055336,-141.29759929848282,-19.916572906994308,72.50383985264158,-7.060420212178735,257.9290887122543,75.5180362346645
371,-1.894006924170681,-215.7953361682331,-141.32115450039296,-20.144024448443837,72.3780233767031,-6.86622300761042,257.96858608937674,75.43375942111432
372,-1.9007296756003706,-215.82332631041226,-141.35095069446533,-20.323306672146643,72.24124907242759,-6.66217474532043,258.0082377629855,75.32763939248707
373,-1.9118130098163482,-215.84676618190548,-141.38619776948642,-20.453197903656307,72.09690341687244,-6.450414019079928,258.0471276482441,75.20269106828233
374,-1.926944232529617,-215.86513412450617,-141.4260078395278,-20.5328197687455,71.94854318561964,-6.2332556664712655,258.0843356384248,75.06221624151101
375,-1.945693064183135,-215.8779814498509,-141.4694219299375,-20.561664571466142,71.799792354726,-6.013154239186912,258.11896269680733,74.90970994283647
376,-1.9675344360597926,-215.88494627171872,-141.51543726663368,-20.539620504105816,71.65423745558412,-5.79265828623446,258.15015739747633,74.74876309184712
377,-1.9918740291042547,-215.88576833539125,-141.56303390540992,-20.466992700432886,71.51532593725258,-5.574356793855495,258.17714295885514,74.5829653675941
378,-2.0180755033859334,-215.88030409444787,-141.61119948803986,-20.344518273971353,71.38627173944012,-5.360819794246655,258.19924347580303,74.41581201132473
379,-2.0454884619757108,-215.8685408301661,-141.6589510564547,-20.17337393226734,71.2699717221452,-5.154535587506892,258.215907754618,74.25061792469656
380,-2.07347616309397,-215.85060831139933,-141.7053531530613,-19.955175439245203,71.1689359486114,-4.9578471544691505,258.22672906847083,74.09044202904114
381,-2.1014418363146046,-215.8267864749048,-141.74953180870713,-19.691969000175458,71.08523412144575,-4.7728902229039925,258.23145933863265,73.93802442197362
382,-2.128852282073877,-215.7975078831652,-141.79068437103973,-19.386215418312005,71.020459744469,-4.601535224071622,258.23001666897073,73.79573838968092
383,-2.155257382517421,-215.7633541777672,-141.82808546108092,-19.0407684398449,70.97571284548594,-4.44533516317902,258.22248572922024,73.66555878192948
384,-2.180304310961224,-215.72504620671316,-141.86108970496227,-18.65884892011896,70.95160133325844,-4.305481260701268,258.2091110648491,73.54904758057546
385,-2.2037455807373436,-215.68342785394606,-141.88913220994567,-18.244016256713177,70.9482602191372,-4.182768066519739,258.19028388274455,73.44735662404216
386,-2.2254405338080847,-215.6394438835484,-141.91172790183143,-17.800138008417367,70.96538699427947,-4.077569551835852,258.1665231840409,73.36124639286525
387,-2.245350342877753,-215.5941124534846,-141.92847074978872,-17.331357928634837,71.00229051428889,-3.989827381858632,258.13845235542965,73.29111865318869
388,-2.263527054428654,-215.5484934088998,-141.93903362914108,-16.842061999603043,71.05794997937573,-3.9190520989789133,258.106772563285,73.23705981675381
389,-2.280097650914038,-215.5036539354643,-141.9431691984414,-16.336841613644257,71.1310801536898,-3.864337299646355,258.07223448652155,73.19889128518922
390,-2.2952445264943133,-215.46063347801194,-141.9407117698926,-15.820452879151897,71.22019887744251,-3.824386170938414,258.0356099806104,73.17622285810896
391,-2.30918404245191,-215.42040992683576,-141.93157982377238,-15.29777113558941,71.32369313096524,-3.7975491012086446,257.9976651673175,73.16850544696841
392,-2.3221448827958695,-215.38386894652493,-141.91577862506463,-14.773740081902933,71.43988032449607,-3.7818705826598538,257.95913623131634,73.17507975430453
393,-2.334347797591786,-215.35177800371642,-141.893402321354,-14.253315347558194,71.56706203556284,-3.7751433116247495,257.920708892295,73.19521815315737
394,-2.3459880576813603,-215.3247662164753,-141.86463488467058,-13.741402766038862,71.70356803984241,-3.7749672446026588,257.8830021461579,73.2281576551948
395,-2.35722157074501,-215.3033106982753,-141.82974933535309,-13.242791999389754,71.84778916122022,-3.7788113460151815,257.84655653050805,73.27312255786173
396,-2.3681551460884678,-215.28772964506447,-141.78910490123985,-12.762086496511829,71.9981982271094,-3.7840758601521918,257.81182692893515,73.3293361342648
397,-2.378840917988883,-215.27818199832808,-141.7431420376728,-12.303631037246001,72.15335927237139,-3.7881531663005132,257.77917972686214,73.39602159131744
398,-2.3892745849727746,-215.27467312473536,-141.69237539601818,-11.87143831565623,72.31192603141493,-3.788485599252215,257.7488938900632,73.4723934141374
399,-2.3993970423767013,-215.27706565985048,-141.6373848328972,-11.46911618413849,72.4726315681354,-3.7826189695542913,257.721165294391,73.55764101897216
400,-2.409099179566691,-215.2850945306411,-141.5788045057263,-11.099797392289117,72.63427149276023,-3.7682508690170664,257.6961135022345,73.6509072436349
401,-2.4182298414615713,-215.29838516600333,-141.51731010749475,-10.766073980614632,72.79568353091611,-3.7432732093491548,257.6737901853181,73.75126455515962
402,-2.426606903122545,-215.3164739342322,-141.453604369992,-10.46993892824316,72.95572623171329,-3.705808803458062,257.6541884615514,73.8576919363306
403,-2.43403096882487,-215.33882987674355,-141.3884010776569,-10.212738110830696,73.1132593657926,-3.654242098936055,257.6372524970242,73.96905524336589
404,-2.44030054529824,-215.36487689813652,-141.32240796164032,-9.995135927175447,73.26712814285537,-3.5872443469651047,257.62288686255835,74.08409344704278
405,-2.445226953201104,-215.39401577932398,-141.2563089836984,-9.81709790643064,73.41615285369879,-3.503793522099575,257.6109653766112,74.20141263314657
406,-2.448647027519474,-215.42564564671582,-141.19074666269108,-9.677893092343453,73.5591249794877,-3.403189249356477,257.60133946399804,74.31948900012456
407,-2.450431971360276,-215.45918470164304,-141.12630521976567,-9.576118033138595,73.69481026337378,-3.2850629220892555,257.5938462729583,74.43668141599879
408,-2.4504914909638007,-215.4940899712329,-141.06349540293027,-9.509742894487296,73.82195877572093,-3.149383135020024,257.5883168117327,74.55125347178429
409,-2.448773269112877,-215.52987562630324,-141.00274187270125,-9.476178668917814,73.93932169070914,-2.9964564661200614,257.5845842089043,74.66140447506109
410,-2.445258576771498,-215.56612918744355,-140.9443739699979,-9.472362778456628,74.04567432242652,-2.826923476526216,257.582491992112,74.76530846689512
411,-2.439955179168988,-215.60252483314233,-140.88862057450004,-9.494858720995659,74.13984485274244,-2.6417495982189747,257.5819021344433,74.86116004264332
412,-2.4328887486629194,-215.6388330463086,-140.83560963102153,-9.539964042252919,74.22074803912923,-2.4422104513418996,257.5827025660175,74.9472254556049
413,-2.424093962229898,-215.67492594625907,-140.78537273702258,-9.603820069624478,74.28742300271067,-2.2298711729702867,257.58481383787534,75.02189719624282
414,-2.4136064091373095,-215.71077782548807,-140.73785485553472,-9.68251667255235,74.33907395456885,-2.0065595632781097,257.58819458649975,75.08374998345705
415,-2.4014562736518372,-215.7464606442242,-140.69292869499088,-9.772185857957181,74.37511237183698,-1.7743331985336843,257.5928453538258,75.13159584449723
416,-2.3876644023616382,-215.7821345220635,-140.65041266952065,-9.869079220606045,74.39519868782217,-1.5354410372239395,257.5988102107604,75.16453570267377
417,-2.37224087241081,-215.8180335489708,-140.61009084731896,-9.969626006018519,74.3992811530533,-1.2922803987706157,257.60617558919677,75.1820047593271
418,-2.3551857361795303,-215.85444742056575,-140.57173311284714,-10.07047057538291,74.387629346301,-1.0473504968981655,257.6150657775435,75.18380909724821
419,-2.336491398115331,-215.89169942454262,-140.53511391875142,-10.168490115899612,74.3608599500711,-0.8032039414801533,257.62563463242196,75.17015138017925
420,-2.3161460870402473,-215.93012125607555,-140.50002833446155,-10.2607952865339,74.31995279791072,-0.5623977551752175,257.63805319749997,75.14164418022554
421,-2.2941380110803355,-215.97002521873043,-140.46630447275092,-10.34471799000608,74.26625573777835,-0.3274454550259257,257.65249319002146,75.09931019772321
422,-2.2704599243896757,-216.01167464565836,-140.43381177911436,-10.417791550540468,74.20147744242529,-0.10077160741812986,257.66910676838296,75.04456934725803
423,-2.2451139471174244,-216.05525372531042,-140.40246516427825,-10.477729201426735,74.12766787795721,0.11533001260908504,257.6880035566871,74.97921331310799
424,-2.2181165308344113,-216.10083822429502,-140.37222550275266,-10.522406876766278,74.04718669566172,0.31873388211936615,257.7092264563761,74.90536870628853
425,-2.1895034382730145,-216.14836887558474,-140.3430973652063,-10.549855800618227,73.96266035331418,0.507515375423528,257.7327281946043,74.82545039754265
426,-2.159334549107129,-216.19762941595226,-140.31512478716274,-10.558269289919101,73.87692931486384,0.679978407401396,257.7583507057215,74.74210697903018
427,-2.1276982838814193,-216.2482312820575,-140.28838551837927,-10.546026642945687,73.79298719108863,0.834678029659379,257.78580927058243,74.65816060890857
428,-2.0947154699526624,-216.29960672100734,-140.26298389321113,-10.511735132959696,73.7139140899512,0.9704379991297939,257.81468296167435,74.57654365877177
429,-2.0605424863802506,-216.35101157163777,-140.2390424193857,-10.454289129463096,73.64280665712336,1.086363372909157,257.8444125000083,74.50023454375955
430,-2.0253734681574547,-216.40153830023777,-140.2166923268693,-10.372943380021049,73.5827072636545,1.181848195566006,257.8743061434687,74.43219484135531
431,-1.9894412848978769,-216.45013909767948,-140.19606347427757,-10.267395667589762,73.5365345854368,1.2565783129794237,257.90355365887865,74.37530935765834
432,-1.9530170489117142,-216.49565806821894,-140.1772741063971,-10.137872587711737,73.50701751915571,1.3105292829160164,257.9312478310147,74.33233029837366
433,-1.916408080924196,-216.53687088433034,-140.16042103056492,-9.985211219643071,73.49663405506327,1.3439593306158997,257.9564124530616,74.30582623029528
434,-1.8799544746642693,-216.5725298340563,-140.14557083718466,-9.810929097023232,73.50755637995942,1.3573973841053515,257.97803539966975,74.29813610017058
435,-1.8440245352361666,-216.60141200125284,-140.13275276807923,-9.61727516722061,73.54160312964252,1.3516264147220927,257.9951052159547,74.311328243347
436,-1.8090093662921511,-216.62236839007548,-140.12195372028415,-9.407255361017583,73.60019940884624,1.3276625478614978,258.00664965093097,74.3471641325468
437,-1.775316777046631,-216.63437202580553,-140.11311571160218,-9.184627901876224,73.68434498096296,1.2867306356809134,258.0117746594997,74.40706661441857
438,-1.743364582432074,-216.63656328071957,-140.106135940271,-8.953865408202095,73.79459085938534,1.2302371371659604,258.0097024722281,74.49209249342132
439,-1.7135734030999754,-216.6282907988971,-140.10086934222232,-8.720082963147187,73.93102434699568,1.1597411842581886,257.999807313767,74.60290944872374
440,-1.686359233220873,-216.60914645118987,-140.09713335259346,-8.488933423781928,74.09326234638787,1.0769246412758962,257.9816472950068,74.73977734410217
441,-1.6621261766144468,-216.57899284297022,-140.094714464186,-8.266473144252416,74.28045251196555,0.9835618773801731,257.9549910221527,74.90253399354853
442,-1.6412597313491062,-216.5379821102504,-140.09337608783278,-8.059002895618582,74.49128157503387,0.8814899551060721,257.919837598418,75.09058539991027
443,-1.6241208802935203,-216.48656505315034,-140.09286711629184,-7.872890052887525,74.72399001859681,0.7725800031117456,257.87642890026194,75.30290046318095
444,-1.611041135492388,-216.42548998958688,-140.09293055913687,-7.714379115610606,74.97639230032854,0.658710625197298,257.82525327003964,75.53801025742789
445,-1.6023185924465206,-216.3557910454815,-140.09331175222945,-7.589398359849158,75.24590207122284,0.5417442130033219,257.76704011848096,75.79401226060249
446,-1.5982149030213308,-216.2787659420745,-140.09376593514952,-7.50337086741316,75.5295622726185,0.42350691806602614,257.70274537421534,76.06858035212844
447,-1.598952884641415,-216.1959436895997,-140.09406531830612,-7.461038284995,75.82408047656905,0.305772792351719,257.63352818635167,76.35898183039161
448,-1.6047143707732576,-216.109042998777,-140.09400598242144,-7.466305370830966,76.12587018439073,0.1902522489707289,257.560719743387,76.66210296830806
449,-1.6156379601379234,-216.01992275406337,-140.09341495321547,-7.522112650886521,76.43109888573922,0.07858456740051038,257.4857855209792,76.97448459445931
450,-1.6318164849174146,-215.93052648445092,-140.09215758516063,-7.630343333516569,76.73574348139067,-0.027666260093915467,257.41028265784064,77.29236884142603
451,-1.653294154200027,-215.84282320897225,-140.09014510558657,-7.791769084427581,77.03565325076345,-0.12701338833576067,257.33581437810966,77.61175761275798
452,-1.6800633640527296,-215.75874719104218,-140.08734192323678,-8.00603743390681,77.32661999019153,-0.21804795174708108,257.26398337571453,77.92848258252745
453,-1.7120611642192831,-215.68013905329278,-140.08377209527112,-8.2717015379877,77.60445432947637,-0.2994402498992265,257.1963458911043,78.23828573029841
454,-1.7491654448947236,-215.60869051373672,-140.07952416801467,-8.586290789912608,77.86506659672297,-0.3699426998864739,257.1343679518967,78.53690857553548
455,-1.791191057758499,-215.5458947793631,-140.07475353333624,-8.946418476058385,78.104549989399,-0.4283958936587173,257.0793850199357,78.8201874552797
456,-1.837886212870811,-215.49300433797356,-140.0696815585684,-9.34792047060675,78.31926328812288,-0.47373887272146464,257.03256610285723,79.08415145810125
457,-1.8889295539890458,-215.4509974755715,-140.0645910477358,-9.786017092488803,78.50590999739283,-0.5050243721805243,256.9948832050212,79.32511907635886
458,-1.9439283619028,-215.4205543741176,-140.059817991871,-10.255488925390214,78.6616106796107,-0.5214393406725251,256.9670868142205,79.5397893524454
459,-2.002418369631342,-215.40204322018266,-140.05573996939572,-10.750856788099279,78.7839653967417,-0.5223305344457856,256.94968798352323,79.72532333033588
460,-2.0638655914830437,-215.39551639888128,-140.05276187423848,-11.266556221470202,78.8711035822723,-0.5072344264667179,256.9429474393202,79.87941200430231
461,-2.127670328689802,-215.40071650542473,-140.0512998162401,-11.797097829381851,78.92171929368504,-0.4759101246301778,256.9468719476852,80.00032766312613
462,-2.1931732530220773,-215.4170915626738,-140.05176407005305,-12.337206469845574,78.93509055385644,-0.42837354491583624,256.9612178974538,80.08695647598373
463,-2.2596633367763204,-215.44381851814484,-140.0545419302666,-12.881934430426801,78.91108224672298,-0.3649307885344681,256.98550178347085,80.13881120436454
464,-2.326387365222526,-215.47983380068555,-140.05998132328338,-13.42674607560002,78.85013267767481,-0.28620851649732243,257.01901702408446,80.1560239044451
465,-2.392560737995093,-215.52386940879776,-140.06837601966942,-13.967573762250062,78.75322442358608,-0.19317905806448377,257.0608562852986,80.13931934014913
466,-2.45737927076585,-215.5744927326374,-140.0799532659116,-14.500846879364028,78.62184053620538,-0.08717802393731197,257.10993824451396,80.0899705714794
467,-2.5200318299232345,-215.63014822933152,-140.09486462413938,-15.023497568216616,78.45790757647575,0.03008762322688688,257.1650376420816,80.00973884265723
468,-2.5797138104725184,-215.68919926278244,-140.11318072873013,-15.532947968316902,78.26372734817333,0.15654271254198773,257.2248175879821,79.90080046240674
469,-2.635641540748199,-215.74996881390788,-140.13489040626365,-16.027084641251786,78.0418995347813,0.28975936921200607,257.28786328157173,79.7656637993763
470,-2.6870675922381655,-215.81077819801357,-140.15990411322076,-16.50422605778949,77.79523770566563,0.42698545097606694,257.3527163979016,79.60707977392528
471,-2.7332967544364597,-215.86998324365004,-140.18806111425133,-16.96308866610603,77.52668138501181,0.5651859112042167,257.4179093721331,79.42794934675098
472,-2.77370222202925,-215.9260075670607,-140.21913951498354,-17.402756172106056,77.23920714271915,0.7010964800282061,257.48199879571985,79.23123157283912
473,-2.8077414084001897,-215.97737271467656,-140.25286823189177,-17.822655393132315,76.9357419882317,0.8312884246637942,257.5435972356116,79.01985584740908
474,-2.834970730902421,-216.0227251151513,-140.28894007780244,-18.22254052231492,76.61908263238807,0.9522425752580926,257.60140298006854,78.79664194638517
475,-2.855058661473626,-216.06085994446852,-140.32702524040081,-18.602485975126246,76.29182427512653,1.0604303829826975,257.6542274022032,78.56423122227554
476,-2.867796317849291,-216.0907420976197,-140.3667845271055,-18.962886298401656,75.9563023632657,1.1523995327488026,257.7010197580573,78.32503176278396
477,-2.8731049544542584,-216.11152447259306,-140.40788186399553,-19.304460047897134,75.61455021775976,1.2248614953816914,257.74088930761667,78.08117945767582
478,-2.8710399020196675,-216.12256374152466,-140.44999565498657,-19.628253271844297,75.26827460005656,1.2747782900015625,257.77312468620204,77.83451583741133
479,-2.86179071982931,-216.1234337080822,-140.492828702908,-19.935637473667594,74.91885024868239,1.2994456194187205,257.7972104430958,77.586582370372
480,-2.845677521338953,-216.11393615745388,-140.53611645412556,-20.22829679645681,74.56733327177555,1.2965695030168247,257.81284053686187,77.33862977561634
481,-2.8231436699432546,-216.09410876225246,-140.57963336120616,-20.508199706933603,74.21449215510202,1.264333634887376,257.81992831014156,77.09163997202553
482,-2.7947453490535454,-216.06422925469423,-140.6231971663851,-20.77755161699209,73.86085412824805,1.2014549453184724,257.8186121800176,76.8463576346293
483,-2.761138777247434,-216.02481491796976,-140.66667087432302,-21.038726550331344,73.50676373433288,1.1072252004477834,257.80925613355635,76.60332795029595
484,-2.723065896859848,-215.97661650485085,-140.7099621203677,-21.29417794844395,73.15244966131057,0.9815369275574097,257.7924441316906,76.36293699388014
485,-2.6813391668098325,-215.92060579381268,-140.7530196355271,-21.54633081146398,72.79809526489484,0.824892535058926,257.7689676056724,76.12545116640239
486,-2.636825760564771,-215.8579560679807,-140.79582665431235,-21.797459434477464,72.44390784774296,0.6383962268535949,257.7398053686521,75.89105239744617
487,-2.5904311820742847,-215.79001499042937,-140.83839141831186,-22.049556921521102,72.0901817732676,0.4237291637756939,257.7060955861967,75.65986638699326
488,-2.543082148869917,-215.7182698114817,-140.8807353114995,-22.30420431322806,71.73735097519564,0.18310923238067123,257.66910004272495,75.43198208992601
489,-2.4957085316017893,-215.64430554575793,-140.92287949193337,-22.56244835987903,71.3860273684059,-0.08076236730190006,257.63016170653185,75.20746186250902
490,-2.4492241517240054,-215.56975749958923,-140.96483106455645,-22.82469749802375,71.03702291654321,-0.3647648547263092,257.59065731638333,74.98634298321674
491,-2.404506333378955,-215.49626012363942,-141.0065698713507,-23.090645320530818,70.6913544228636,-0.6654287484832602,257.55194722883897,74.7686323667521
492,-2.362374321866266,-215.4253945301449,-141.048036915608,-23.35922974111898,70.35023128066746,-0.9790108083620336,257.5153250405463,74.55429702522729
493,-2.323567051811853,-215.35863713959716,-141.0891253116702,-23.628634146945164,70.0150273713432,-1.3015704297848885,257.48196953929977,74.34325314098051
494,-2.288721222911195,-215.29731180670623,-141.129674441101,-23.896334162833075,69.68723905996426,-1.6290456126630348,257.4529013299632,74.13535655408299
495,-2.2583510426389575,-215.24254744327033,-141.16946772600394,-24.159190439359875,69.36843185780079,-1.9573274058825023,257.4289460586459,73.93039712917191
496,-2.232831109227313,-215.19524268319395,-141.2082342135453,-24.413584509195534,69.06017880361051,-2.2823323631372343,257.41070564623516,73.72809893586187
497,-2.212383678843599,-215.1560385988614,-141.2456540896856,-24.655591648303655,68.76399393975304,-2.6000729513953686,257.39853845182097,73.52812752701453
498,-2.197071172254586,-215.12529992056795,-141.2813682371824,-24.881182162905912,68.48126440601698,-2.9067260354381306,257.3925488166767,73.33010490017581
499,-2.186794443081908,-215.10310470147434,-141.31499186885802,-25.086440809019983,68.21318464164634,-3.198699539470258,257.39258596490197,73.13363205255837
500,-2.1812970576196484,-215.08924201578216,-141.34613201107848,-25.267793226101094,67.96069601460293,-3.472697160965261,257.39825179673744,72.93831848047384
501,-2.1801755187450778,-215.08321713492953,-141.37440819665864,-25.42222829481307,67.72443495570046,-3.725780604488102,257.4089167594228,72.7438176155325
502,-2.182895015079273,-215.08426367335798,-141.39947525615062,-25.547506056932672,67.50469238391612,-3.9554282845578475,257.4237427575388,72.54986702686416
503,-2.188809979191553,-215.0913623624605,-141.4210467446876,-25.642342040770732,67.30138680804242,-4.1595889059908995,257.4417120073294,72.35633213743603
504,-2.197188492072247,-215.1032662926163,-141.4389174475304,-25.7065603195372,67.11405292307934,-4.336727853722399,257.461660835399,72.1632520930233
505,-2.2072393148469907,-215.1185325528719,-141.45298358404366,-25.741209251036107,66.94184681525276,-4.485864013763764,257.4823175899269,71.97088626701725
506,-2.2181400849164423,-215.13556016824313,-141.46325966485952,-25.748635487527483,66.78356812214543,-4.6065946158764115,257.5023439877355,71.77975971492275
507,-2.2290650945411796,-215.15263410862067,-141.4698912663023,-25.732513409619347,66.63769870813597,-4.6991060138423135,257.5203792818622,71.590705719768
508,-2.2392111671750783,-215.16797486171654,-141.473163118029,-25.697828587219114,66.50245661458364,-4.7641689990909475,257.5350864702169,71.40490338568144
509,-2.2478204629071223,-215.1797925049628,-141.47350187480853,-25.650815216010976,66.37586323665096,-4.803118176372023,257.54519928852574,71.22390804810992
510,-2.2541995244229365,-215.18634342571644,-141.4714729570892,-25.598848754420032,66.25582090187798,-4.817815933810822,257.5495680882484,71.04967210832655
511,-2.25773442325378,-215.18598715082888,-141.46777106807335,-25.550296222566324,66.14019733537788,-4.8106024287027545,257.54720225651255,70.88455381205004
512,-2.257902304921472,-215.17724052570173,-141.46320441540036,-25.514327820474257,66.02691294481572,-4.78423368012132,257.5373068891172,70.73131151416001
513,-2.2542797818983167,-215.1588268175282,-141.45867316358985,-25.50069464815238,65.91402650081942,-4.741810298865482,257.51931198397153,70.5930811415227
514,-2.246548496195697,-215.1297179768939,-141.45514312723594,-25.519478337156084,65.79981470070902,-4.6866996210808045,257.4928932380184,70.47333494459608
515,-2.2344979862781367,-215.08916895796108,-141.4536161130327,-25.580819320004117,65.6828413411357,-4.622454063929369,257.4579843038193,70.37582026433746
516,-2.2180259634697115,-215.03674344797128,-141.4550985400889,-25.694631253606758,65.56201235655328,-4.552728423539247,257.4147808605182,70.30447790057623
517,-2.197136258959644,-214.97233054233234,-141.46056997434872,-25.870309731816736,65.4366137109719,-4.48119865343184,257.3637370163151,70.2633406521223
518,-2.1719348776369745,-214.89615197764098,-141.47095306423054,-26.116443788919977,65.30633000756993,-4.411484437212658,257.3055545462112,70.25641363265792
519,-2.1426246113077823,-214.8087597192446,-141.48708614102677,-26.440538698720065,65.17124270979834,-4.34707756176503,257.24116550245395,70.28753901392567
520,-2.109498518583161,-214.71102403646375,-141.5096994995644,-26.848758138802168,65.03180802783234,-4.291277637912715,257.1717088800325,70.36024885857894
521,-2.072932400080267,-214.60411255783015,-141.53939613300875,-27.345692974533325,64.8888157465355,-4.2471361096323585,257.09850218623546,70.4776106299587
522,-2.033376260734717,-214.48946106425967,-141.57663744396314,-27.934162894928473,64.7433314880148,-4.217408832491846,257.02300884614556,70.64207079792834
523,-1.9913446663261143,-214.36873692023056,-141.62173413411654,-28.61505606074057,64.59662604291245,-4.204516905831656,256.94680231785304,70.85530268518508
524,-1.9474059158046144,-214.24379608027698,-141.67484208422675,-29.38721088918724,64.45009634620443,-4.2105150097024495,256.87152760645597,71.11806523117903
525,-1.9021700836062738,-214.11663460855902,-141.7359626667798,-30.247343162511253,64.30518325331808,-4.237066287203464,256.79886066230773,71.4300795637992
526,-1.8562761408166073,-213.98933573056965,-141.804946679597,-31.190020854801542,64.16329137983918,-4.285422848292397,256.73046607612645,71.78993007768904
527,-1.8103784548569521,-213.86401367399702,-141.88150098091893,-32.207688396474836,64.02571591219987,-4.356411234376782,256.66795362129096,72.19499612182177
528,-1.7651330215237777,-213.742755895984,-141.96519696125543,-33.29074145342549,63.89358058046804,-4.450422589068605,256.61283450596494,72.64141945771571
529,-1.7211838438695009,-213.62756559601846,-142.05548023102568,-34.42765261453178,63.76779002190996,-4.567407677553203,256.5664785826578,73.1241114319051
530,-1.6791499236262255,-213.52030656268164,-142.1516812768834,-35.605147608988176,63.64899865288614,-4.706877144564308,256.53007409209727,73.63680237263702
531,-1.6396133343728974,-213.42265237124923,-142.25302714948242,-36.808430755414086,63.53759702010989,-4.867907462639348,256.5045916614555,74.17213414589996
532,-1.6031087717526844,-213.33604179358161,-142.3586543208488,-38.02145721126543,63.43371553465721,-5.049152977955852,256.4907541863763,74.72179516890758
533,-1.5701148345849667,-213.26164206144605,-142.4676227380923,-39.22724822115976,63.3372445525831,-5.2488644316551065,256.4890139784632,75.27669552278546
534,-1.5410471589869725,-213.20032130996725,-142.57893100431298,-40.40824398575033,63.24786893142612,-5.464914381012313,256.4995382433285,75.8271781271295
535,-1.5162534841821023,-213.15263104659695,-142.6915326368946,-41.54668700746174,63.165114431615486,-5.694830009103153,256.52220356385135,76.3632602145063
536,-1.4960107459098664,-213.11879887850682,-142.80435339360974,-42.625026831540715,63.08840265780735,-5.935833747922115,256.55659957531884,76.87489758338172
537,-1.4805242522161242,-213.09873117891465,-142.91630960793916,-43.62633512883306,63.01711070362684,-6.184891820716948,256.60204153025444,77.35226242662606
538,-1.4699288247874855,-213.09202507738664,-143.02632735058282,-44.53471837015158,62.950631353991916,-6.4387702315329545,256.65759113215296,77.78602415932774
539,-1.4642915486071875,-213.0979891053013,-143.1333620853507,-45.335714262289436,62.88842969064052,-6.694097038631361,256.72208488612137,78.16762186402411
540,-1.463615601692287,-213.11567176303495,-143.23641831291778,-46.01665784728282,62.83009228498607,-6.947429151426516,256.79416906209923,78.48951690226943
541,-1.4678446318739116,-213.14389698154122,-143.33456851182146,-46.567003711579936,62.77536582533413,-7.195321529161194,256.87234002137933,78.74541491868798
542,-1.4768672968828191,-213.18130500092903,-143.4269705742458,-46.97859201381162,62.72418290057413,-7.434396542246221,256.95498822411616,78.93044776268725
543,-1.4905217869412635,-213.22639683235323,-143.51288296338404,-47.24584793503778,62.67667358467933,-7.661411304028799,257.04044395771206,79.0413076054388
544,-1.50860029340088,-213.27758032338468,-143.59167699244884,-47.36590662507508,62.63316231202476,-7.873320912994205,257.1270228006072,79.07632760841967
545,-1.5308534208335236,-213.33321584235293,-143.66284591066707,-47.33865867276013,62.594150287991255,-8.067335725331478,257.21306898899957,79.03550583974325
546,-1.556994498387524,-213.39165969080776,-143.72601082800037,-47.16671442674251,62.56028440003164,-8.240970995430693,257.2969951225843,78.92047169224672
547,-1.586703708391301,-213.45130362478943,-143.78092381429286,-46.8552889721705,62.53231431225818,-8.392087480226156,257.3773170389488,78.73439675006206
548,-1.6196319615686514,-213.51060938193382,-143.8274686284634,-46.412013043421894,62.511040106245105,-8.518921910896475,257.45268318187664,78.48185472904521
549,-1.6554045057944642,-213.5681377840524,-143.86565939993017,-45.846678406035174,62.49725343063527,-8.620106606267795,257.5218982742047,78.16863760493077
550,-1.6936243531980235,-213.62257258891893,-143.89563728749027,-45.1709290358037,62.491675647680665,-8.694677958609416,257.5839414443034,77.80153719211395
551,-1.733875731089308,-213.67273958372027,-143.91766489685858,-44.39791155368288,62.49489691379183,-8.74207405651604,257.63797908787245,77.38810311074032
552,-1.7757278382038095,-213.7176213975095,-143.93211822967166,-43.54189971397669,62.50732040680101,-8.762122231623632,257.68337273517454,76.93638911715789
553,-1.8187391459477544,-213.75636831914744,-143.9394761244014,-42.61790825897755,62.52911583995407,-8.755017707466957,257.7196821453107,76.45470000830474
554,-1.862462307572416,-213.78830525958722,-143.94030733322816,-41.64131118540181,62.560185852009205,-8.721294767352665,257.7466638311859,75.95135067233477
555,-1.9064494625505903,-213.81293500635906,-143.9352554760767,-40.627478473426926,62.60014786925958,-8.661792018549495,257.764265279017,75.43444742989156
556,-1.9502574395278665,-213.82993805623664,-143.92502219866137,-39.59144365949382,62.64833279855096,-8.577613453463552,257.77261528579464,74.91169980540809
557,-1.9934522128858339,-213.83916945498106,-143.91034896465084,-38.54761236922616,62.7038006610298,-8.470087057775633,257.77201101300545,74.39026853015326
558,-2.0356120608914616,-213.840653090791,-143.89199798091963,-37.50951921176602,62.76537213615379,-8.340722668303547,257.762902409497,73.87665309791973
559,-2.0763291721901624,-213.8345737656627,-143.87073276059073,-36.48963747408585,62.83167396295449,-8.191170666892308,257.7458745610024,73.37661969683838
560,-2.1152098004898785,-213.82126721212197,-143.84729878342853,-35.49924306837125,62.901195242077975,-8.023182909839145,257.721628370942,72.89516794916048
561,-2.151873329190143,-213.80120813468315,-143.82240466588271,-34.54833139847556,62.97235096132375,-7.838576988026122,257.690959878065,72.43653276585232
562,-2.1859507346619,-213.7749963623301,-143.7967042816329,-33.64558342996348,63.04354862711306,-7.639204490404441,257.65473853715196,72.00421594712351
563,-2.2170829912384646,-213.74334127071046,-143.7707803936643,-32.798375448480954,63.11325380082424,-7.4269234853856325,257.61388491502737,71.60104108881151
564,-2.244920009657216,-213.70704472615753,-143.74513047734825,-32.012825875813256,63.18005063165526,-7.203575031864205,257.56934839747294,71.22922495999457
565,-2.269120698898146,-213.66698290882852,-143.72015543707678,-31.293872057330468,63.2426940871247,-6.9709632373726516,257.5220856027924,70.89045873988388
566,-2.2893545943974427,-213.62408751352666,-143.69615185881358,-30.645369969304152,63.3001513862969,-6.73083825085798,257.4730402804617,70.58599316131004
567,-2.305305248734576,-213.57932696349218,-143.67330836235433,-30.070210074154698,63.35163102502982,-6.484881678458237,257.42312554093166,70.3167224967594
568,-2.3166754060763477,-213.53368826796546,-143.65170652595532,-29.570442867807554,63.39659869503725,-6.234694234856331,257.3732092063347,70.08326329880725
569,-2.3231939332646965,-213.4881599290894,-143.63132670792012,-29.14740790299678,63.434780318742035,-5.9817858407315985,257.3241028012874,69.88602478480833
570,-2.3246244127577036,-213.44371596328523,-143.61205887704574,-28.801860207900454,63.46615328687329,-5.727568627647228,257.27655430057285,69.72526864431303
571,-2.3207750951153243,-213.40130083570287,-143.5937183111431,-28.53408810308653,63.49092767552187,-5.47335327633064,257.2312443863538,69.60115674711058
572,-2.3115096499198815,-213.36181499058253,-143.57606572679094,-28.344016589572707,63.50951962440625,-5.2203488149585295,257.18878570456013,69.51378570145151
573,-2.2967580179613902,-213.32610062320765,-143.55883105185316,-28.231290924535145,63.522519152915905,-4.969665572807827,257.1497243825715,69.46320752356836
574,-2.2765266928966548,-213.2949273198383,-143.54173968002289,-28.1953358811636,63.53065454969007,-4.722320561837901,257.11454284700716,69.44943597932802
575,-2.2509078448736677,-213.26897726637776,-143.5245397329014,-28.235387577748504,63.534755235825,-4.479244238665826,257.083662867314,69.472438612008
576,-2.2200867555020714,-213.24882998618997,-143.5070286688112,-28.350496601163822,63.53571481484601,-4.2412874330816885,257.05744786198863,69.53211518239839
577,-2.1843470636129942,-213.2349469418793,-143.48907752293553,-28.53950325787353,63.534455949679135,-4.009227239435399,257.0362037837806,69.62826419305169
578,-2.1440733589015566,-213.22765666138304,-143.47065109036768,-28.800987916219924,63.531898689458636,-3.783770852684869,257.0201781846823,69.76054018079276
579,-2.09975073574377,-213.22714124694133,-143.45182245313006,-29.13320132389183,63.52893377907989,-3.5655566650275072,257.00955727536626,69.92840531656445
580,-2.05196105770011,-213.23342520897754,-143.4327804734538,-29.533981301069844,63.5264022407007,-3.355152362538317,257.00446098650787,70.13107938499616
581,-2.001375884804529,-213.24636755099698,-143.41382932881248,-30.00066318025318,63.52508213887714,-3.1530501821285153,257.0049362802832,70.36749237669984
582,-1.9487462382046905,-213.26565791091798,-143.39537985688068,-30.52999172273567,63.52568299201191,-2.959659829890442,257.01094924900417,70.63624373785653
583,-1.8948895479621573,-213.29081733334988,-143.37793326954264,-31.118042031801863,63.52884779307119,-2.775299825693385,257.0223767902791,70.93557182249528
584,-1.8406741892942373,-213.32120393316777,-143.3620584841763,-31.760156346104782,63.535162041646565,-2.600188275814478,257.0389987735436,71.26333633773821
585,-1.7870019833441118,-213.35602338886247,-143.348364798685,-32.45090267802107,63.545168608182294,-2.4344342646695494,257.0604916123628,71.61701565920767
586,-1.7347890274240705,-213.3943439590828,-143.33747192011603,-33.18406009068982,63.559386756303645,-2.2780310979582263,257.0864241101616,71.99371992837285
587,-1.6849452829630798,-213.43511558365302,-143.32997945656118,-33.95263392086125,63.578333339810456,-2.130852469346831,257.1162563914427,72.39021988788029
588,-1.6383534327676677,-213.47719258714807,-143.32643782123768,-34.748902438415804,63.60254411150074,-1.9926523136691605,257.14934260387486,72.80299050120433
589,-1.5958475841953925,-213.51935949718182,-143.32732205770668,-35.564494391596874,63.632593221345715,-1.8630687275280713,257.1849378260237,73.22826757496286
590,-1.5581924909395466,-213.56035946223048,-143.3330095605123,-36.39049480705851,63.66910926500028,-1.7416319105605722,257.22220929498184,73.66211486491206
591,-1.5260641145280616,-213.5989246438381,-143.34376228213017,-37.21757453437902,63.71278654624481,-1.6277756261328429,257.2602517631708,74.10049849087166
592,-1.5000324593006322,-213.63380775172314,-143.35971389540165,-38.03613759753342,63.76439047048458,-1.5208512794165356,257.2981065530921,74.5393649664526
593,-1.480547603191125,-213.66381366708288,-143.3808624924727,-38.836479617857364,63.82475625195278,-1.4201434899830099,257.33478375276815,74.97471891395514
594,-1.4679297240315734,-213.68782997158996,-143.4070695874,-39.608950440245835,63.89478050417349,-1.3248860643262637,257.3692869889715,75.40269671619694
595,-1.4623637147041177,-213.7048552284417,-143.43806614201296,-40.34411453661782,63.97540581531357,-1.2342774893874613,257.4006402122046,75.81963295128764
596,-1.4638986453609306,-213.71402405903487,-143.47346581886558,-41.03290361938704,64.06759901067913,-1.1474953332039923,257.4279158076545,76.222117329892
597,-1.4724518514439564,-213.7146284011787,-143.51278483381927,-41.666757003026625,64.17232437185476,-1.063709159664044,257.4502631739493,76.60704084011455
598,-1.487816924939061,-213.70613473760156,-143.55546706336378,-42.23774645967847,64.29051353270376,-0.9820917227827255,257.46693685131635,76.97163076246365
599,-1.5096745622342271,-213.68819741255172,-143.6009126948987,-42.73868351688892,64.42303404818257,-0.9018283001842812,257.4773233511184,77.31347504345617
600,-1.5376052079053988,-213.66066830351832,-143.64850857395658,-43.1632082782837,64.5706587077095,-0.8221240673852316,257.480965887557,77.63053715847857
601,-1.5711026947467959,-213.62360307148424,-143.69765833445052,-43.50585988910552,64.7340375536187,-0.7422094764897219,257.4775861378779,77.92116305302729
602,-1.6095884431321195,-213.57726403741867,-143.7478104084727,-43.76212968403603,64.91367429582978,-0.6613437769379017,257.46710201700705,78.18408203143055
603,-1.652426094798253,-213.52211948582095,-143.79848217497965,-43.928498761775494,65.10990840298484,-0.5788171073609287,257.44964033800426,78.41840352810038
604,-1.6989366562527242,-213.45883892867198,-143.84927880634723,-44.002462153412345,65.32290362026883,-0.4939518857810112,257.4255431749041,78.62361151928987
605,-1.748414257218443,-213.38828367726833,-143.899905744364,-43.98254187160063,65.55264308411833,-0.4061043802883359,257.39536679825517,78.79955795600559
606,-1.8001424423577743,-213.3114921024655,-143.95017417499864,-43.868290947717384,65.79893067247933,-0.3146672733220743,257.35987232457836,78.94645610169032
607,-1.8534105907644944,-213.229659275016,-143.99999940195997,-43.66029008266286,66.06139781801537,-0.21907378013440584,257.320007773224,79.06487409946324
608,-1.9075297652691898,-213.14411118310676,-144.04939259401166,-43.360137789699095,66.33951474535567,-0.11880355718413853,257.2768819615426,79.15572851351457
609,-1.9618471535234838,-213.05627422637895,-144.09844686629262,-42.970433997391176,66.63260495114712,-0.01339033145657064,257.2317313543504,79.22027702556565
610,-2.0157583287206067,-212.96764097793414,-144.1473189662549,-42.494756160229656,66.93986167994989,0.09756906924281063,257.18588139840665,79.26010896114784
611,-2.0687168040640374,-212.8797332354892,-144.19620801160855,-41.93762616275492,67.26036514061265,0.21440479910107227,257.14070399657504,79.27713194387091
612,-2.1202406503806936,-212.79406331614493,-144.24533283575192,-41.30446583882585,67.59309928174457,0.33736382072789534,257.0975727822952,79.27355282163066
613,-2.1699161653878587,-212.71209460780884,-144.2949095047622,-40.60153883419261,67.93696710745235,0.4666001116236083,257.0578179083189,79.25185111810455
614,-2.2173987335547607,-212.6352026289019,-144.3451304203012,-39.83587683065319,68.29080370734751,0.6021657980951539,257.022682177065,79.2147435902553
615,-2.2624111711796604,-212.56463812943295,-144.3961461603707,-39.015188801162,68.6533863238174,0.744003652981874,256.9932804257766,79.16513893972328
616,-2.304740014218605,-212.50149391633403,-144.44805093031295,-38.14775292322423,69.02344088158891,0.891941320014257,256.97056404655893,79.10608229789072
617,-2.3442303080449647,-212.4466770026655,-144.50087219963598,-37.24229194511487,69.39964454531105,1.04568759515982,256.9552922847825,79.04068979831452
618,-2.38077945680602,-212.40088734144666,-144.55456472410165,-36.30783404474425,69.78062414806794,1.2048310839045324,256.9480114663009,78.97207437756582
619,-2.4143305951125464,-212.36460387730259,-144.60900873356414,-35.35356242651825,70.16495077062542,1.3688415504521732,256.9490426310746,78.90326486380691
620,-2.4448657795169733,-212.33807808907443,-144.66401175411397,-34.38865799055847,70.5511312758374,1.5370742589092976,256.958477411647,78.83712132275915
621,-2.4723991230024547,-212.32133476875396,-144.71931341615655,-33.422140307057916,70.93759809052854,1.7087775372473515,256.9761815749723,78.77625039455714
622,-2.4969699446076214,-212.31417955243117,-144.77459259982774,-32.46271273682851,71.32269886321481,1.8831036554877298,257.0018054562032,78.7229248318179
623,-2.5186361574746785,-212.31621262207287,-144.82947628086114,-31.518617777873434,71.70468774127953,2.059122949864961,257.0348004407725,78.6790115501142
624,-2.53746834215868,-212.32684791153468,-144.8835494973396,-30.597508544056854,72.08171989177205,2.235841015258826,257.0744406142371,78.6459122084965
625,-2.5535450077059814,-212.34533699463515,-144.93636604008117,-29.706341628664568,72.45185058433557,2.412218727676129,257.11984867368557,78.6245196827952
626,-2.566949339180677,-212.37079660238248,-144.987459686968,-28.851295396757443,72.81303975764958,2.587194772455009,257.17002512520975,78.61519284926659
627,-2.577767388773139,-212.40223848662885,-145.0363558395958,-28.037716033144616,73.16316258582565,2.759710182669855,257.22387962193704,78.61775096655612
628,-2.5860873616395494,-212.43860023604884,-145.08258324713805,-27.270091682003805,73.50002618859612,2.928734141573749,257.28026310617287,78.63148776203951
629,-2.5919994724323936,-212.4787757266107,-145.12568535326542,-26.552053074248043,73.82139230476683,3.093290028895827,257.3379993978045,78.65520423032017
630,-2.595595853667103,-212.52164412502157,-145.16523085461318,-25.886397430757494,74.1250054786106,3.252480473421747,257.395915097528,78.6872582417251
631,-2.5969702424782994,-212.56609665178235,-145.20082320702883,-25.275131326657462,74.4086260934374,3.405510077734092,257.45286700006545,78.72562839432939
632,-2.5962176294532973,-212.61106052205974,-145.23210887273086,-24.71952766347149,74.67006742019863,3.5517045095150976,257.5077664283494,78.76798913683233
633,-2.59343449632729,-212.6555195778782,-145.25878405107005,-24.220191895006884,74.90723570218745,3.690524764914097,257.55959995880414,78.81179400188904
634,-2.5887204151825634,-212.6985312032171,-145.2805996057187,-23.777133116809964,75.11817212190711,3.8215755757027443,257.6074460598043,78.85436374910417
635,-2.582181531161843,-212.7392392975011,-145.29736400957134,-23.389836455314896,75.30109528726119,3.944607159974446,257.65048737692416,78.8929762823255
636,-2.5739359427411683,-212.77688336364517,-145.30894435789455,-23.05733422821128,75.45444268532377,4.059509815875307,257.68801875429904,78.92495537414258
637,-2.5641204792942105,-212.8108040193164,-145.31526568570504,-22.778274391524118,75.57690943338129,4.1663012393670655,257.7194513879218,78.94775548069252
638,-2.5528980426717203,-212.84044539279225,-145.31630882749636,-22.55098564674598,75.6674826244072,4.265106930854234,257.7443136279756,78.95904021470268
639,-2.54046455646545,-212.86535496419057,-145.31210694438715,-22.373539113022012,75.72546963841047,4.356134626965344,257.7622489608287,78.956752341949
640,-2.527054587926667,-212.8851814997774,-145.3027408191129,-22.24380661167818,75.75051900826155,4.43964425284591,257.77301175565617,78.93917348949454
641,-2.5129448340062086,-212.89967175873346,-145.28833318065733,-22.159515403632312,75.7426327972249,4.5159152942986935,257.7764614756356,78.90497211750856
642,-2.4984548878343884,-212.90866658853952,-145.2690425607711,-22.11829880840551,75.70216993325961,4.585213651188822,257.7725561364937,78.85323871636069
643,-2.483944960844177,-212.9120969114532,-145.2450573250697,-22.117741693613297,75.62984050399041,4.6477599595725945,257.76134578101136,78.78350765132011
644,-2.469810428924365,-212.90998001292772,-145.21659049165004,-22.15541948228265,75.52669158773193,4.703701120238298,257.7429666460706,78.69576557104894
645,-2.4564732178532944,-212.90241646493186,-145.18387581244681,-22.228929141564322,75.39408570844664,4.753086425035423,257.7176365571488,78.59044677490616
646,-2.444370260215333,-212.88958786523074,-145.1471654090411,-22.33591063746913,75.2336733916385,4.795849296922008,257.6856518575423,78.4684163535124
647,-2.4339395283174925,-212.87175530715024,-145.10672903445703,-22.474057652396205,75.0473615184085,4.83179526353748,257.64738583748675,78.33094226110371
648,-2.425604325019313,-212.84925818883215,-145.06285483324493,-22.641117052586765,74.83727918914619,4.860596338925349,257.60328826517247,78.17965773895914
649,-2.4197565685939066,-212.82251273154367,-145.015851395537,-22.83487764624062,74.60574261287732,4.881791533096802,257.55388538117313,78.01651568332903
650,-2.416739875171687,-212.79200943462513,-144.9660509379671,-23.053150031526975,74.35522021416202,4.894792873567034,257.4997796220274,77.84373667534192
651,-2.416833393006788,-212.75830863286672,-144.9138134701857,-23.29374055867462,74.08829883142711,4.898896200685931,257.44164830316544,77.66375252280972
652,-2.4202374832431097,-212.7220333716641,-144.85953172873374,-23.55442338710417,73.80765165120003,4.893296046636587,257.38024048970055,77.47914730683335
653,-2.4270623327661727,-212.68385905726814,-144.8036364858499,-23.832915113112765,73.51600838402935,4.877104001248513,257.3163713855834,77.29259801660348
654,-2.4373203529435625,-212.64449978256644,-144.74660164989842,-24.126856343067377,73.21612812495881,4.849370019612921,257.2509138295599,77.10681683900941
655,-2.450922821313311,-212.60469175360092,-144.68894847046204,-24.43380386681787,72.91077532656155,4.809106137342024,257.1847868599527,76.92449701600393
656,-2.467680857594425,-212.56517471249995,-144.63124817787573,-24.751235846002864,72.6026992478566,4.755312069666925,257.11894170702493,76.7482638308267
657,-2.4873106617245293,-212.52667260462874,-144.5741224775823,-25.076570834673408,72.29461699664041,4.687002178545852,257.0543459141672,76.58063165304812
658,-2.5094429257323156,-212.4898749130945,-144.51824145072206,-25.40719968075429,71.98919981775903,4.603233241572125,256.99196650990973,76.42396707200018
659,-2.5336362455373584,-212.4554200000321,-144.4643185752132,-25.74052766017623,71.68906168600374,4.5031323362641995,256.9327531765696,76.2804571316225
660,-2.559394079916779,-212.42388147036704,-144.41310275121197,-26.074022860018392,71.3967486760835,4.385924056694152,256.87762218825776,76.15208076639269
661,-2.586184423565394,-212.3957581803792,-144.36536737925354,-26.405266085232288,71.11472714777734,4.250956314851255,256.8274416559945,76.04058094428072
662,-2.6134610801350266,-212.37146819546032,-144.32189669808218,-26.731997520921787,70.8453686760683,4.0977241745208035,256.78301844277235,75.94743495578186
663,-2.6406853622515634,-212.35134672279204,-144.2834696987435,-27.052156009722403,70.59093000873082,3.925891485689709,256.7450869436973,75.87382087309645
664,-2.6673471463796172,-212.33564769380308,-144.2508419555828,-27.36390793954467,70.35352711218488,3.735310465375319,256.7142996525796,75.82057935426354
665,-2.6929843219904157,-212.32454825577065,-144.22472571387397,-27.665664115199814,70.13510337231392,3.526039706973565,256.6912190952187,75.78817139960934
666,-2.7171997642213506,-212.31815509022456,-144.2057686507898,-27.956084334595346,69.9373930425216,3.298361305883271,256.67631047326586,75.77663408203367
667,-2.7396751168895697,-212.31651134471355,-144.1945318985644,-28.23407054087229,69.76188196944726,3.0527978329542456,256.6699343550384,75.78553750385113
668,-2.7601809220813487,-212.31960307474245,-144.19146810286477,-28.498750354108985,69.60976844462394,2.7901297762144304,256.6723389498244,75.81394724169574
669,-2.7785828679702647,-212.32736436604253,-144.19690041986559,-28.749453534623104,69.48192767671819,2.5114138196734377,256.68365180657815,75.86039729258682
670,-2.794844044023272,-212.33968062723824,-144.21100345907823,-28.98568448834148,69.37888374456458,2.2180019632279766,256.70387110341073,75.9228789249594
671,-2.8090231017886262,-212.35638980756843,-144.23378727925032,-29.207094274228176,69.30079286324157,1.911561059135406,256.73285697015285,75.99885075780085
672,-2.8212682237619116,-212.3772814459114,-144.26508556352584,-29.41345577081864,69.24744132990638,1.5940919016160744,256.77032342241074,76.0852748222798
673,-2.8318068973532515,-212.40209351922945,-144.3045489504978,-29.60464581173428,69.21826065257342,1.2679465775475498,256.81583145365977,76.17868238387344
674,-2.8409316779732774,-212.43050709081643,-144.3516442192719,-29.78063824495437,69.21236119289128,0.9358423439055843,256.86878370432174,76.27527201621525
675,-2.848982321571642,-212.46213877742204,-144.40565974404097,-29.94151192776988,69.22858426259859,0.6008698272370095,256.9284209861845,76.37104087180191
676,-2.8563247908737837,-212.49653107701954,-144.46571741445618,-30.087477531030274,69.26557106712352,0.2664929078613594,256.9938208381716,76.46194830825758
677,-2.863327719654014,-212.5331406978185,-144.53079102099295,-30.21892662901996,69.32184527394497,-0.06346260770722537,257.0638982614107,76.54410906106553
678,-2.87033709011256,-212.57132524397954,-144.5997308428444,-30.336505840402182,69.3959044658098,-0.38483439300758016,257.1374088131571,76.61401114664568
679,-2.8776501931739236,-212.61032889313714,-144.67129380439795,-30.441217684363664,69.48631454104945,-0.6931656046163805,257.2129542631286,76.6687518187111
680,-2.885490251899788,-212.64926796773338,-144.7441781358319,-30.534548294604146,69.59180043304256,-0.9837653631811616,257.2889909944168,76.70628336045962
681,-2.8939832015315985,-212.68711750988243,-144.81706111295796,-30.618620272576024,69.71132645912193,-1.2517887091799182,257.36384129556546,76.72565943034462
682,-2.9031379947489784,-212.7227001086421,-144.88863828187942,-30.696366892062144,69.84416023248903,-1.492335943605084,257.4357077003357,76.72727220372778
683,-2.91283152724836,-212.7546783077364,-144.9576626399937,-30.771721685703003,69.98991533448944,-1.70057005697795,257.5026906215503,76.71307067014727
684,-2.9227989816592004,-212.78155191453146,-145.02298250463866,-30.849815239863243,70.14856966357912,-1.8718497504277303,257.5628096527845,76.68675102054061
685,-2.9326301787834663,-212.80166135693426,-145.08357715564307,-30.937168969709337,70.32045826935892,-2.001874508371285,257.6140289563382,76.65391089047431
686,-2.9417723966078744,-212.8131978417843,-145.13858970035037,-31.04187400702778,70.50624126626184,-2.0868373878295565,257.6542870252994,76.62216015482494
687,-2.949539888305696,-212.81422051800564,-145.1873569434693,-31.17374240544543,70.70684890108112,-2.1235806110869055,257.6815308306003,76.6011819354709
688,-2.9551298518061953,-212.80268027032258,-145.22943634777025,-31.34441791912121,70.92340693999796,-2.1097485763966217,257.6937540458346,76.60273854454053
689,-2.9576439918478954,-212.77644924679635,-145.2646304469095,-31.56743480537923,71.15714627726865,-2.043932499602614,257.6890387527952,76.64061837784969
690,-2.9561143624884263,-212.73335477970156,-145.29300925873812,-31.858215392225762,71.40930112929622,-1.9258006567410688,257.66559975765034,76.73052138706787
691,-2.949532072781043,-212.67121605426212,-145.31493121761042,-32.234000256492024,71.68100043679505,-1.7562082127284595,257.6218303701637,76.8898826619059
692,-2.93687764038915,-212.58788183307806,-145.33106287043816,-32.71370837945529,71.97315722906187,-1.5372808892856802,257.55634829982176,77.13763574190628
693,-2.9171520956635155,-212.48126782600716,-145.3423972146961,-33.317728188458275,72.28636078983384,-1.2724671727484147,257.4680403449551,77.49391943888656
694,-2.8894081690995,-212.34939280620742,-145.3502702174825,-34.06764358905705,72.6207765587621,-0.9665543512368016,257.356104777617,77.97973405670253
695,-2.8527809399432593,-212.1904130655186,-145.35637470712098,-34.98590164646203,72.97605882536988,-0.6256444226629897,257.22009053233774,78.61655481817893
696,-2.806517227991362,-212.00265505324876,-145.36277043203438,-36.09543034623079,73.35128142473893,-0.2570868718895246,257.0599322840506,79.4259119823535
697,-2.7500028858919157,-211.78464598833799,-145.37188869627911,-37.419215888940954,73.74489178151032,0.13063348705957992,256.875980232909,80.4289485307719
698,-2.6827870720917524,-211.5351419603323,-145.3865296922705,-38.97984941151821,74.15469363965161,0.5280539603803566,256.6690230210879,81.64596736150608
699,-2.604602577423419,-211.25315269842673,-145.40985051089598,-40.79905310242891,74.57786349469606,0.9249354047528112,256.4403018511096,83.09598058484406
700,-2.5153813374072804,-210.9379619391505,-145.44534186720378,-42.89719563932211,75.0110050127883,1.3105044761511664,256.1915137092084,84.79627376510479
701,-2.415264379684422,-210.58914221901355,-145.49679187915982,-45.29280696474012,75.45024454516427,1.6737315230191918,255.92480169248967,86.76199786130886
702,-2.3046056385028413,-210.2065629262237,-145.56823575329398,-48.002102802760824,75.89136921147605,2.0036368419034725,255.64273075426533,89.00580123829316
703,-2.1839693110800344,-209.79039053782063,-145.66389088006036,-51.03853008953965,76.33000696261615,2.2896159428996117,255.34824764673002,91.53751350255405
704,-2.0541206703337522,-209.34108016648437,-145.78807754218127,-54.41234567173952,76.76184569730809,2.521772591531874,255.04462442465032,94.36389219909144
705,-1.9160104256445818,-208.85935784418163,-145.94512612467878,-58.13024222972255,77.18288613150769,2.691246864428515,254.73538553868278,97.48844278801337
706,-1.77075289487081,-208.34619331672295,-146.13927235457192,-62.195037341484785,77.58972089040475,2.7905245130405403,254.42421922415758,100.91132191983405
707,-1.6195985382130424,-207.80276350027998,-146.37454273515877,-66.60544367146684,77.97983029139027,2.813713856848912,254.11487459453232,104.62933376587026
708,-1.4639018140692581,-207.23040726895132,-146.654633026949,-71.35594001656561,78.35188354905402,2.7567773803200146,253.8110466988292,108.6360287943574
709,-1.3050857031223864,-206.6305729931765,-146.98278332876927,-76.43676387226188,78.70603270221378,2.6177070901953936,253.51625285204938,112.92191361635005
710,-1.1446044944539027,-206.00476112619637,-147.36165391728687,-81.8340458196936,79.04418548585205,2.396635241839316,253.23370464491995,117.47477906134955
711,-0.9839065577960658,-205.35446491716274,-147.7932064016169,-87.53010396260605,79.37024271532442,2.0958749989194994,252.96618093904593,122.28015122722455
712,-0.8243988555270875,-204.68111288299372,-148.27859490299826,-93.50391256703577,79.69028564324655,1.7198887288782299,252.71590772504692,127.32186674980063
713,-0.6674148086628229,-203.98601697460978,-148.81807192020122,-99.73175288724568,80.01269935170252,1.2751847550571629,252.48445096902987,132.58276897547725
714,-0.5141868279505734,-203.27033040417615,-149.41091333233283,-106.18804602090958,80.34821964302687,0.770146286914255,252.27262850084443,138.04551619064685
715,-0.3658245044541102,-202.53501882940117,-150.05536659954294,-112.84635779766329,80.70989305098385,0.21479876745395393,252.0804465687007,143.69348665395594
716,-0.22329923517574488,-201.78084805255017,-150.74862560089213,-119.6805545528932,81.1129424002463,-0.37947606808152234,251.90706589963847,149.51175800764972
717,-0.0874358520083239,-201.0083906718908,-151.48683471262822,-126.66607667703545,81.57453369528095,-1.0002695123180032,251.75080104414496,155.48813093607234
718,0.04108855134842332,-200.21805325757978,-152.26512378766336,-133.7812846995671,82.11344393774189,-1.6345074271542095,251.60915553801792,161.61415905611028
719,0.1617389741004297,-199.4101245272741,-153.07767474684292,-141.0088211613897,82.74963365528568,-2.2688319321629598,251.4788939723157,167.8861394778533
720,0.27411103638519846,-198.58484354812316,-153.91781950635107,-148.33692163642579,83.50373232557315,-2.889990594785328,251.3561503064658,174.30601196007714
721,0.377915151023647,-197.74248520852393,-154.77816785609207,-155.760601171533,84.39644928605982,-3.485220276226409,251.23656965202292,180.88211001401916
722,0.4729581280504031,-196.88345829941494,-155.65076267551018,-163.28263941075886,85.44792689442367,-4.042612955541798,251.11547847057176,187.62970576181314
723,0.5591242008141245,-196.00840984404604,-156.5272586312186,-170.9142899239257,86.67705642525536,-4.5514513835498605,250.98807599066544,194.5712929317581
724,0.6363574963099714,-195.11832814153928,-157.39911936145307,-178.67564756910724,88.1007802569418,-5.002503306807864,250.84963798381892,201.7365599348672
725,0.7046477170186917,-194.21463656295677,-158.2578272025467,-186.59562228327619,89.73340614580368,-5.388264247627155,250.69572307541065,209.16201786968062
726,0.7640202233556486,-193.29927045490496,-159.0950988288211,-194.71148794076854,91.58596067103004,-5.703140438372352,250.52237154658627,216.8902661738681
727,0.8145309377260433,-192.37473036183118,-159.9030998213976,-203.0679994479841,93.66560914900933,-5.943565515138147,250.3262869848784,224.9689002938665
728,0.8562657396074833,-191.44410601917653,-160.67465114782925,-211.71609796717678,95.97516833985023,-6.108046971962358,250.10499203651833,233.44908926936372
729,0.88934347190705,-190.5110672371741,-161.40342074852646,-220.71125060847777,98.51273600412189,-6.197141096121622,249.85695088773213,242.38387419748574
730,0.9139214487501743,-189.57981989940262,-162.08409383525773,-230.11149466585556,101.271457747415,-6.213358067746415,249.5816529338351,251.82625882975398
731,0.9302024089113237,-188.65502756480143,-162.71251613116888,-239.97527551522262,104.23944656855191,-6.16100202840381,249.27965418504868,261.8271791502317
732,0.9384420004097064,-187.74170119434092,-163.28580514008388,-250.35918027282887,107.39986413997998,-6.045954050241491,248.95257501639347,272.4334483733383
733,0.9389559222694424,-186.8450611568384,-163.80242557189086,-261.31567541918685,110.73116534758549,-5.875408813370574,248.6030547337383,283.68577667194114
734,0.9321257760777618,-185.97037697085077,-164.26222617051727,-272.89095555605263,114.20749954007314,-5.657578106759518,248.234665091161,295.61696100510886
735,0.9184026224551285,-185.12279127630703,-164.6664363075407,-285.1230026506012,117.79925399414131,-5.401375711397191,247.8517863578055,308.25033025092455
736,0.8983073195796959,-184.3071352549584,-165.01762181753335,-298.03994156793686,121.47371794730309,-5.116098617984679,247.45945076699385,321.59851568606234
737,0.8724269645061963,-183.52774304998078,-165.31960078613628,-311.65875994005575,125.1958396804116,-4.811118838060206,247.06315921187496,335.6625983384197
738,0.8414071070524706,-182.78827264774526,-165.57732148547888,-325.98444023357155,128.92904493211938,-4.4955983798687615,246.668677948562,350.4316646822674
739,0.8059398100791179,-182.09154024238345,-165.79670629984352,-341.0095309619439,132.63608270266528,-4.178237506193509,246.2818228204991,365.88278224017057
740,0.7667480619982168,-181.43937439602473,-165.984467019615,-356.71416377199415,136.27986439792528,-3.8670635526080486,245.9082390066989,381.98138825236197
741,0.7245674505987811,-180.83249537994166,-166.14789807881218,-373.0665047265194,139.82426418413561,-3.569264776397185,245.5531844040039,398.6820686099258
742,0.6801262953761668,-180.27042396520406,-166.29465516069445,-390.0236123013858,143.23485206638296,-3.291071153651452,245.22132449547004,415.9296912868935
743,0.634125561592443,-179.75142269544705,-166.43252722749526,-407.5326618803714,146.47953613809779,-3.03768173393302,244.91654607267319,433.6608487657563
744,0.5872198623362199,-179.2724714041847,-166.56921050600343,-425.5324869688237,149.52909618859258,-2.8132360537314014,244.64179657330035,451.80555731574304
745,0.540000719572681,-178.82927751821944,-166.71209313939102,-443.9553807385919,152.3575969169305,-2.620825285304357,244.3989550315668,470.2891570603291
746,0.49298298477696356,-178.4163206199158,-166.86805885044058,-462.72909742699704,154.9426749351536,-2.4625374128065904,244.18873962478452,489.0343549992563
747,0.4465949177751103,-178.02692989698994,-167.0433169348438,-481.77899104111634,157.26569916466227,-2.3395298916441427,244.01065550799237,507.96335294525346
748,0.4011719863851884,-177.65339244790056,-167.24326433678226,-501.0302283208801,159.31180884359782,-2.25212298750905,243.86298511145137,527.0000032065383
749,0.3569541046133476,-177.28708982228326,-167.47238368149456,-520.4100136663794,161.06983700365765,-2.1999072688843055,243.7428214051739,546.0719364650248
750,0.3140858132126221,-176.91865960844288,-167.73417911262885,-539.8497655667874,162.53212990708815,-2.1818594254218118,243.64614288187465,565.1126085308738
751,0.27261879665951355,-176.53817836054094,-168.0311497092925,-559.2871869470625,163.69427465305085,-2.196461507520208,243.56792726442453,584.0632155288
752,0.23251610999790878,-176.13536168115255,-168.36479829915086,-578.6681757799303,164.55474818049663,-2.2418196104610097,243.50229931085795,602.8744306917524
753,0.19365754240441707,-175.69977678488172,-168.73567187339333,-597.9485272592295,165.11450149303215,-2.3157788126297723,243.44270668758787,621.5079203806011
754,0.15584562269783434,-175.22106238733477,-169.14342874983558,-617.0953847289506,165.37649337332365,-2.4160317810001133,243.38211686390898,639.9376022501825
755,0.11881183364067242,-174.68915043987528,-169.58692716638402,-636.0884033255613,165.3451883200746,-2.540218913132291,243.31322748691366,658.1506146324592
756,0.08222265069538194,-174.09448421693875,-170.0643299726135,-654.9205977781352,165.02603400107378,-2.686018268786012,243.2286827360255,676.147973107471
757,0.04568507559681205,-173.4282275863085,-170.5732203099106,-673.5988537856844,164.42493412924625,-2.8512239305201,243.12128860336952,693.9448976590995
758,0.008751401205540577,-172.68246086969882,-171.11072350798764,-692.1440905507579,163.54773319058097,-3.03381184237271,242.98422075420257,711.5708014493044
759,-0.02907697571090166,-171.85035943924987,-171.67363087320632,-710.5910701116545,162.39972969460564,-3.2319925704162737,242.81121952012876,729.0689397848162
760,-0.06834678300520694,-170.92635203605883,-172.25852162777173,-728.9878568965472,160.98523443927206,-3.4442507739819423,242.5967676408942,746.4957250914911
761,-0.10965113300118631,-169.90625667503187,-172.86187996678015,-747.3949382946329,159.30718964177453,-3.6693715010669514,242.3362475428044,763.9197205315133
762,-0.1536287021336256,-168.78739283235592,-173.48020500989065,-765.884023836566,157.3668637111703,-3.906453801664377,242.0260761475441,781.4203311517089
763,-0.20096360577646288,-167.56866931795423,-174.11011231183616,-784.5365465704521,155.16363494474226,-4.15491262519589,241.66381637038722,799.086216925975
764,-0.25238562587564245,-166.2506477317698,-174.74842644687044,-803.441895193759,152.69487547892743,-4.414470484783927,241.2482654503909,817.0134565361157
765,-0.3086703757629955,-164.83558159867312,-175.39226479383714,-822.6954093504398,149.95594433327156,-4.685140862044096,240.77952084786327,835.3034941060027
766,-0.37063900685006584,-163.32743114701972,-176.03911292096805,-842.3961733007416,146.9402952589679,-4.967205757349161,240.25902455662603,854.0609034207274
767,-0.43915713623473535,-161.7318533524614,-176.6868919984117,-862.6446451646223,143.63970129029778,-5.261190110610958,239.6895864562905,873.3910056577705
768,-0.5151326774034254,-160.05616652053618,-177.33401856044966,-883.540160443062,140.04459346612413,-5.567835917751446,239.075386994116,893.3973776505308
769,-0.5995121009590176,-158.30928852960167,-177.97945668290876,-905.1783497952437,136.14450637741317,-5.888078671778604,238.4219591621122,914.1792884876063
