time,ax,ay,az,gx,gy,gz,accmagnitude,gccmagnitude
0,57.74639763449854,-354.092059973757,-41.862800695474995,-202.71074767957356,-372.81229697752286,-160.08069047980683,361.3542112367819,446.45925433438344
1,56.40607652125092,-339.6838653545811,-43.057947022322594,-145.5191983017671,-357.3502266778731,-138.3872719715941,347.38684229629825,442.0413934367446
2,55.01532627449014,-325.52279731177197,-44.198686442757044,-89.78450771214301,-341.4369260087022,-116.74265291365924,333.63895552755383,437.1535743901123
3,53.58491579830254,-311.7388229017625,-45.27638373224836,-36.227197688142795,-325.0640086558399,-95.24218504209917,320.2377347747122,431.7440049034074
4,52.12468767219098,-298.4579796503606,-46.28220951936018,14.474194842440365,-308.21964024071923,-73.97641856357833,307.30641495652173,425.7777406162484
5,50.64326409607036,-285.800167058495,-47.207165644186794,61.699713235385175,-290.8892113603092,-53.03025365731,294.96207243843446,419.2395483595429
6,49.14784231285319,-273.8770177734549,-48.04216272172189,104.90286326121868,-273.0562436978222,-32.482130454420115,283.31351550271825,412.136330834182
7,47.644090157754604,-262.7898982899149,-48.778153345736065,143.62329174272983,-254.70350468845615,-12.403264156841391,272.459326381545,404.49897732705875
8,46.13614591840916,-252.6280897486748,-49.40631900146825,177.49686625654672,-235.81429013289733,7.1430541801616725,262.4861051253913,396.383501708482
9,44.62672019896728,-243.4671973876037,-49.918303736301574,206.262873817043,-216.37382084119324,26.102060087467827,253.46696167615607,387.87134518007224
10,43.11729123824544,-235.3678325254881,-50.30648343614814,229.76817969900762,-196.37068977322272,44.427984532718625,245.46029607925306,379.06875567865194
11,41.6083795054704,-228.37460385649146,-50.564256341191836,247.96831131929017,-175.7982906298705,62.08435191899327,238.5088981512346,370.1052028654235
12,40.09988269102274,-222.5154457373013,-50.686338305786684,260.92554815714726,-154.65615765287149,79.04407423377323,232.63938766551325,361.13084039389446
13,38.59144860443153,-217.80130079607667,-50.66904532189775,268.8042013157137,-132.95114953653356,95.28931637962869,227.86200503745707,352.31307988308856
14,37.08286114848743,-214.22616343911602,-50.510545953227926,271.86335259004545,-110.69841759363325,110.81111838618402,224.17075148501604,343.83238983939043
15,35.57441364369092,-211.76748027983228,-50.21106758730334,270.44739178472526,-87.9221090842909,125.60877237960325,221.54386738794412,335.87747513322404
16,34.067244503480474,-210.38689336826457,-49.7730429073371,264.9747420367049,-64.65576994942832,139.6889649084605,219.94462836666654,328.6400263073485
17,32.56361266806824,-210.03130243183026,-49.20118662518113,255.92519546115832,-40.94242574271717,153.0647077569811,219.32243052483025,322.3092505848937
18,31.06709411060342,-210.63421340781585,-48.50249687518585,243.82629531286088,-16.834333943084857,165.75409211053145,219.6141294242163,317.06640604247184
19,29.58268570069239,-212.1173327926722,-47.686180199561264,229.2391969199495,7.607585826826706,177.77891129030976,220.7455918280854,313.0795564962135
20,28.116808255997576,-214.3923611451466,-46.76350326857372,212.74442000843206,32.31462499358145,189.16320566021133,222.63341516240595,310.4987482753249
21,26.677206396782168,-217.36293465394934,-45.747577934531684,194.92787255807647,57.2114326520404,199.93178918281342,225.18676698295778,309.4517833257159
22,25.272748686058723,-220.9266610434303,-44.65308865930285,176.3674841587842,82.21739487606924,210.10882004057768,228.30929542747856,310.04072855056745
23,23.913137351882064,-224.97719526944113,-43.495972893796235,157.62073813137096,107.24819589393333,219.71647751390293,231.90106172191824,312.33926165835
24,22.608542371478816,-229.40630160131963,-42.29306596114654,139.21333948305838,132.21750146776725,228.77380388244623,235.86044750870215,316.3909117733932
25,21.369179432775955,-234.10585194118096,-41.06172260559961,121.62920299485123,157.03869821258456,237.29576362231222,240.0859932401901,322.208211378155
26,20.204854801762103,-238.96971547503802,-39.81942757038618,105.30189512384449,181.62661930090263,245.29256292122034,244.47812899405534,329.7727374367229
27,19.12450197743477,-243.89550152375313,-38.58340725833978,90.60761724556629,205.89918784131444,252.76926099103994,248.94076536707982,339.0359860674646
28,18.13573498010385,-248.78612517531798,-37.37025372866737,77.85977740161312,229.77891431367098,259.72569133420853,253.38271906186395,349.92099829491667
29,17.244441305997523,-253.5511734113483,-36.195571092567945,67.30516323111651,253.1941930445085,266.1566965153714,257.71895497769265,362.3246344764673
30,16.454434388877573,-258.10805754839004,-35.073652875963695,59.121699364697456,276.08035353334657,272.05266466249276,261.87163371314915,376.12038138570125
31,15.767181361467415,-262.38294546859447,-34.01719726157556,53.41774747652235,298.3804343168319,277.4003406254898,265.7709600400353,391.1615679126161
32,15.18161755639784,-266.3114739205292,-33.037065576350145,50.23288606416695,320.0456593918365,282.18387046106784,269.3558337968431,407.2848625817935
33,14.69405501022849,-269.8392468499341,-32.14208819004019,49.54008943039981,341.0356100151768,286.3860258903947,272.5743095467754,424.3139287095524
34,14.298188464024545,-272.922130125022,-31.338921115797625,51.24921022133226,361.318098136916,289.9895467556212,275.383875106538,442.0631211568807
35,13.985198860924626,-275.5263561526174,-30.63195582685636,55.21165576229732,380.86876160455955,292.9785350371298,277.7515616444399,460.3411218416695
36,13.743950852284108,-277.62845393893576,-30.023283949571603,61.226134198909165,399.67041468636035,295.33983377962096,279.6538996344562,478.95442808091036
37,13.561277269510182,-279.21502145591387,-29.51271757218212,69.04533170460925,417.71219894299554,297.0643278272381,281.07673585142317,497.7106263519183
38,13.42234009167365,-280.28235796364237,-29.09786499584202,78.38336684883521,434.9885875990659,298.148109779151,282.0149270393997,516.4214019959968
39,13.311054396037255,-280.8359742453616,-28.77426078195771,88.92385300495192,451.4983005675308,298.5934631018626,282.47192590858265,534.9052510626738
40,13.210559320173585,-280.88999846738596,-28.53554763272922,100.32838543190067,467.2431874044025,298.409623931958,282.4592746247751,552.989873172232
41,13.103718330814399,-280.4664945299811,-28.373705648041465,112.24525836166201,482.2271328396118,297.61329301167456,281.9960198684327,570.5142342658387
42,12.973630124420156,-279.5947083142346,-28.27932176527942,124.31821145046337,496.45503552185505,296.22887894627,281.1080618373532,587.3302963737343
43,12.804131174824501,-278.3102552107195,-28.24188907592703,136.19500602698184,509.9319059744364,294.2884633707772,279.8274473273555,603.304418874005
44,12.580271134209948,-276.6542599382476,-28.25012292116945,147.53564014629657,522.6621239988282,291.83148772498,278.1916144995876,618.3184421384182
45,12.288742959446333,-274.6724573203132,-28.292279030758205,158.02002679371034,534.6488873867575,288.90417035192485,276.24259460611387,632.2704690904307
46,11.918251014571599,-272.41426089682705,-28.356459188692835,167.35497985713846,545.8938713566107,285.55867160205247,274.0261744033101,645.0753617544224
47,11.459802838960037,-269.9318054336799,-28.430892117729798,175.2803748173358,556.3971015384251,281.8520331542215,271.59102269837194,656.6649674505338
48,10.906913854141976,-267.2789697423414,-28.504180772363664,181.57437240853676,566.1570246284659,277.8449251478299,268.9877855601831,666.9880832879393
49,10.255718667090536,-264.51038773089033,-28.565510866251298,186.05761239070858,575.1707435470329,273.60024048872646,266.26815701293333,676.0101602549423
50,9.504987270411403,-261.6804581206589,-28.60481835831405,188.59630253940782,583.4343712840815,269.181579985213,263.4839352166499,683.7127427797367
51,8.656048926490085,-258.8423663933724,-28.612915557174667,189.10414829299748,590.9434510066626,264.6516751623457,260.6860777813803,690.0926387513643
52,7.712630681816232,-256.0471356279117,-28.581576739848977,187.54309386069897,597.6933891056913,260.0707976022262,257.92377333249084,695.1608194775238
53,6.680621216558929,-253.34272519250464,-28.503585110523673,183.92287635658866,603.6798518032766,255.49520378449378,255.2435490442187,698.9410582269127
54,5.567773935274934,-250.77319725623533,-28.372743837913895,178.29942873065932,608.8990839488481,250.97566208041255,252.68843509969662,701.4683283921622
55,4.383365574409772,-248.37797067998432,-28.183854882745614,170.77220162682485,613.3481197197078,246.55610413329833,250.29720682744158,702.7869960594331
56,3.1378278505076795,-246.19118021615023,-27.93267023353179,161.48050555125633,617.0248676629539,242.27243757992957,248.10372376577294,702.9488549392108
57,1.8423696764458852,-244.24115626499278,-27.61582087901856,150.59900096398965,619.9280654304513,238.1515520080391,246.13638228870315,702.0110627202338
58,0.5086064365954349,-242.55003689695093,-27.230729392256922,138.33248471607723,622.0571118486399,234.2105450779687,244.41769490263783,700.0340462298983
59,-0.8517888551953272,-241.1335198164993,-26.775512446936666,124.91013644826793,623.4117952977368,230.4561899030737,242.9640052749653,697.0794479275763
60,-2.2273996713809905,-240.00075787634995,-26.248879858874513,110.57939709837581,623.9919472020697,226.8846577824829,241.78534394505573,693.208187669638
61,-3.6073346714599457,-239.1543979674802,-25.650036706916303,95.59965246355877,623.7970568008753,223.48150309715334,240.8854258026475,688.4787108491169
62,-4.981442617620275,-238.59075959784536,-24.97859462508938,80.23588829925961,622.8258875234524,220.22191047768987,240.26178678576852,682.9454869562518
63,-6.34046774487916,-238.30014598103594,-24.23449739184983,64.75247202712528,621.0761361475631,217.07119810488913,239.90605361168866,676.6578119794618
64,-7.67614286269417,-238.26727689137365,-23.417964524453787,49.40720276876922,618.5441738100999,213.98556478881562,239.80433663534748,669.6589548142074
65,-8.981220839947477,-238.47182923708397,-22.52945496467884,34.4457581000145,615.2249032684219,210.9130624756597,239.93773248533373,661.9856729320051
66,-10.249448542206277,-238.88906876919674,-21.569651373172135,20.09665253623128,611.1117601461115,207.79477042862425,240.2829204797653,653.6681068942249
67,-11.475490463130933,-239.49055481845963,-20.539464091785604,6.566807709612118,606.1968780795655,204.5661422921451,240.8128352047538,644.7300477206414
68,-12.65481195254486,-240.2448993273222,-19.440052445869938,-5.962183856157896,600.4714294619413,201.15849224582226,241.49739692236625,635.1895563796264
69,-13.783533766097154,-241.11856152812055,-18.272859861399912,-17.337040365892378,593.9261450761933,197.50058217201936,242.304281463172,625.059901349935
70,-14.858270433987697,-242.07666026992067,-17.039658562596742,-27.434979122006325,586.5520071567206,193.5202696109331,243.1997118173079,614.3507687323453
71,-15.875964725695539,-243.08378702457753,-15.742599572426796,-36.16509527061667,578.3411013834652,189.1461768526498,244.14925459118146,603.0696900234715
72,-16.833729438602738,-244.10480375047277,-14.384264170599186,-43.468935544849046,569.2876046210793,184.3093439569393,245.11860558004696,591.2236256170872
73,-17.728705973918586,-245.10561087287823,-12.967713458251595,-49.320290361980284,559.3888777768605,178.94483136952746,246.07434970453644,578.8206375760537
74,-18.557946840485474,-246.05387160662238,-11.49653299666668,-53.724243267894224,548.6466275855227,172.99324023570975,246.98468141128242,565.8715832882555
75,-19.31832666463497,-246.91967976209432,-9.974869733953607,-56.71552898425777,537.068097496368,166.40212057965564,247.82007242552575,552.3917621680249
76,-20.006483891933936,-247.67615917675937,-8.407458808195882,-58.35626106621828,524.6672458327448,159.1272398718307,248.55387463614642,538.4024504302672
77,-20.618793466895855,-248.29998414512286,-6.799638317768403,-58.73309930366064,511.46586865899803,151.13368754161692,249.16284705068458,523.9322639722984
78,-21.151369507699037,-248.7718117508775,-5.1573506451903315,-57.95393725310615,497.4946250814115,142.39679449332627,249.62759724975493,509.0182962607812
79,-21.600096318863795,-249.07661884807675,-3.48712938170781,-56.14420205830134,482.7939239950878,132.90285031082783,249.93292960714894,493.70698652325086
80,-21.960685784255276,-249.2039385863627,-1.7960714060953218,-53.44287093022955,467.41463379130386,122.64960463850942,250.06809470868006,478.05468332213763
81,-22.22875889285061,-249.14799376812087,-0.09179426736475982,-49.99831966782057,451.4185805270538,111.64654349625965,250.02693681626292,462.1278796141316
82,-22.39994861649145,-248.90772683460673,1.6176202888874116,-45.96412693932094,434.87880554289575,99.9149360346406,249.80793873503166,446.0031072618416
83,-22.47002064195793,-248.4867287720104,3.323695010679529,-41.49496259304016,417.87956024970913,87.48765207763239,249.41416592173826,429.76649099759356
84,-22.43500781611523,-247.8930716264975,5.017635537361597,-36.74268820199702,400.51602355983846,74.40875548758008,248.85311406154074,413.51297353592935
85,-22.29135380555042,-247.13905157050527,6.690415269037266,-31.852792736835294,382.89373625020824,60.73288322193619,248.13646660801484,397.3452349104303
86,-22.036061430129546,-246.24085151505432,8.33286324340485,-26.961275195469774,365.127756662136,46.52442539117298,247.27977088117336,381.37234055422584
87,-21.66684119693001,-245.21813405734738,9.935752105130216,-22.19206895198889,347.34155350712405,31.856527614802477,246.30204318538608,365.70816421159293
88,-21.1822554173422,-244.09357703666439,11.489884542110483,-17.655079833512477,329.66566317317876,16.809942788219576,245.2253149675992,350.4696425249915
89,-20.581852808718352,-242.89236503423245,12.986178235081635,-13.444882487872304,312.236148994155,1.4717640755810277,244.07413315870636,335.7749262936053
90,-19.866287873841507,-241.64165059421057,14.415750972716664,-9.640088992674825,295.19290680624107,-14.065925946515632,242.87502833168122,321.741497323894
91,-19.037418980172262,-240.36999862204212,15.770008773521457,-6.303371775095826,278.67786425492255,-29.707453257805042,241.65596404410653,308.48431897732195
92,-18.098379181357465,-239.10682644716235,17.040740443671794,-3.4820920907720385,262.83312137780473,-45.35495975145582,240.44577983296946,296.1140835229499
93,-17.053614479079403,-237.8818507272077,18.22022197283916,-1.2094582714441517,247.79907800820737,-60.90978230695498,239.27363910009112,284.7356111104598
94,-15.908885398054602,-236.72455094611416,19.301333594269494,0.493882749889823,233.71259023326726,-76.27376771627733,238.16849179305754,274.44644429298035
95,-14.671229574332399,-235.66365775140136,20.27769123766862,1.617929934791289,220.70519391750207,-91.35049129149976,237.1585604035136,265.33566923396813
96,-13.348885548580144,-234.72667279645913,21.143792516570493,2.1612027318913003,208.9014287539653,-106.04635164760808,236.27085639218038,257.48298110106015
97,-11.951180549121867,-233.9394252272969,21.8951754750831,2.128517625665144,198.41729206959016,-120.27151885217987,235.5307327768832,250.9579980166763
98,-10.488386999741703,-233.3256686446448,22.528586325375265,1.528770912086679,189.35884769611098,-133.94071806323475,234.96147736542636,245.81981632438365
99,-8.971553682051432,-232.90672139134742,23.042150571883795,0.37282067343464337,181.8210109732736,-146.97383702676956,234.58395007209174,242.11679034905592
100,-7.412318343107187,-232.70115241422397,23.435540441099203,-1.3284526465533801,175.88652596925323,-159.2963539865106,234.41626703493978,239.8865125908968
101,-5.822709348622736,-232.72451471013295,23.710130608360288,-3.5658422272075083,171.6251456444616,-170.83959208933558,234.47353389169126,239.155965672405
102,-4.214944720645011,-232.98912840133505,23.869133963183113,-6.333216806770253,169.09302063051436,-181.54081592009754,234.76763051503625,239.9418152779274
103,-2.601237412391416,-233.50391570241334,23.917709528230052,-9.628590642472604,168.33229794025203,-191.34319396419528,235.30704965973953,242.2508131560696
104,-0.9936157306518802,-234.2742903327508,23.863035373749426,-13.454834137904523,169.37092712877572,-200.19565668532638,236.09679220208972,246.08028017181186
105,0.5962327813749492,-235.3021041053211,23.714340116459496,-17.82000676228314,172.2226674979084,-208.052683612141,237.13832173734477,251.41864090928667
106,2.157086976556458,-236.58565325633538,23.482887163791826,-22.73730258367784,176.88728497487529,-214.87405508847831,238.42958100523623,258.24598330836767
107,3.6782821179055145,-238.11974644871597,23.181906234296438,-28.224608390396508,183.35092092076775,-220.62460547637838,239.96507182655756,266.53461911009225
108,5.1497614600562,-239.89583533323506,22.826466938083456,-34.30368548172593,191.58660791540657,-225.27401402737297,241.73599902092357,276.24962313701366
109,6.562089054827201,-241.90220724048513,22.433289554614944,-40.99899844687958,201.55490070360807,-228.79666649531737,243.7304773155148,287.3493313280381
110,7.906425780625954,-244.12423815979903,22.02048892232107,-48.33622679139052,213.2045850500773,-231.17161450561758,245.93379873238223,299.78577891503784
111,9.174472656123697,-246.54470267860592,21.607248795805933,-56.3405071508598,226.4734238423263,-232.3826510447748,248.32875642175702,313.5050613225654
112,10.358387185036984,-249.14413590424587,21.2134261355465,-65.03446422108999,241.28889862619158,-232.4185099158782,250.8960192858006,328.44760156233303
113,11.450679667336837,-251.9012404783999,20.859087400220524,-74.43609689095649,257.5689058794626,-231.273185546199,253.61454989628564,344.5483094369985
114,12.444097006025583,-254.79332974044294,20.563981843500898,-84.55659215119891,275.222370579213,-228.9463581856354,256.46205624562464,361.73662014293905
115,13.331501557519225,-257.79679621189314,20.346960041392904,-95.3981430625165,294.1497447005232,-225.44389933811357,259.41546609125965,379.93640314531683
116,14.105752171386312,-260.8875931329657,20.22534950185961,-106.95184821098474,314.24336492244964,-220.77842406627462,262.4514113515976,399.06573662924063
117,14.759594020490066,-264.04171582671586,20.214303335635094,-119.19576827015,335.38765192065324,-214.96985116500937,265.5467092567767,419.0365484659696
118,15.285563458216956,-267.23566905901043,20.32614245162495,-132.093209969752,357.4591432488738,-208.0459293602096,268.67882661487755,439.75413143106476
119,15.675914127867088,-270.44690618232227,20.569716071988168,-145.5912984849334,380.3263629916689,-200.04268761608952,271.82631345761797,461.11654819182957
120,15.922570802109771,-273.65422567694606,20.949808822799334,-159.6198862219233,403.84954399588895,-191.0047701787359,274.9691923807973,483.01395012797997
121,16.017117735537703,-276.8381107739357,21.466624631474893,-174.0908306010849,427.88023218006145,-180.9856220887044,278.08929007313714,505.32784323684444
122,15.95082851153511,-279.9809982754941,22.115377733051307,-188.89765827344644,452.2608164722613,-170.04749854444566,281.1704979347102,527.9303441294229
123,15.714744339334723,-283.0674637077296,22.886018890826765,-203.9156211573285,476.824041401188,-158.26128139544255,284.1989495655149,550.6834792838347
124,15.29980736236636,-286.0843117957518,23.763120247937692,-219.0021429740431,501.392571316083,-145.70609732316964,287.1631045269789,573.438590917614
125,14.697054602607711,-289.0205641076154,24.72593532518186,-233.99765436627933,525.7786848637488,-132.4687435074502,290.05373033687283,596.0359224203443
126,13.897876518705266,-291.8673396539919,25.74864244341084,-248.72681928073573,549.7841851413729,-118.64293616239893,292.86377826117325,618.3044643105195
127,12.894341670803357,-294.6176291720587,26.800771272791202,-263.00016282328994,573.2006143684587,-104.32840399116807,295.58815305314073,640.0621469214982
128,11.679585573629478,-297.2659693767607,27.847803792333778,-276.61611834171833,595.8098612811983,-89.6298518839668,298.22338198657064,661.116467009459
129,10.248257406345273,-299.8080291256129,28.851932612633842,-289.36351620708894,617.3852438286589,-74.65582052982023,300.76719384485983,681.2656306917889
130,8.597012978855798,-302.2401249797213,29.772951426978413,-301.02453625241134,637.693138357742,-59.51746607006917,303.21802374379627,700.3002833638325
131,6.725036890604343,-304.5586890497458,30.569245125530774,-311.3781381809354,656.4952090366191,-44.327281532555055,305.57446481966406,718.0058778558193
132,4.634572097957648,-306.7597171068558,31.198842169392293,-320.2039680955971,673.5512680665332,-29.19777928475135,307.83469280657715,734.1657050141763
133,2.3314317158070796,-308.838229170813,31.62049026602624,-327.2867141707027,688.6227690133587,-14.24015160994404,309.9958939460487,748.564576748383
134,-0.17453407214777103,-310.7877774420511,31.794718436518416,-332.42085145398795,701.4769035624581,0.4370749248219489,312.05372989794336,760.9931119375369
135,-2.869043548311553,-312.60003691732976,31.68485331768033,-335.41567757831217,711.8912378012399,14.729376051251593,314.0018746993151,771.252532928114
136,-5.733087687253199,-314.26451200325323,31.257963444487366,-336.1005016143349,719.6587895892632,28.537540933356937,315.8316578481057,779.1598376653561
137,-8.742756281409994,-315.76838785056196,30.485711071142894,-334.32981168541056,724.5934154277802,41.76893808775165,317.53184403369573,784.5531728263978
138,-11.869204821844788,-317.09654801361216,29.3450962508373,-329.9882176843091,726.5353450287645,54.33871040077885,319.0885738396656,787.2971995946651
139,-15.078775882904077,-318.23177053321876,27.81908213093341,-322.99494770333024,725.3566758421508,66.17086551548208,320.4854809778829,787.2882187059353
140,-18.333283358581884,-319.1551030450702,25.89709346249045,-313.3076741090762,720.9666193732957,77.19921906589583,321.7039906096319,784.458807635685
141,-21.590462597288166,-319.8464048746202,23.575382005972358,-300.9254597536125,713.31627766695,87.36814087624641,322.72379087025996,778.7817225819358
142,-24.804584622500396,-320.28503166232497,20.857253013511954,-285.89064723809776,702.4027237760129,96.63305113283289,323.52345721008214,770.2728333126357
143,-27.927228278421023,-320.4506275892074,17.753146954901617,-268.289563257278,688.2721664636906,104.9606174030269,324.08119837008917,758.9928913290014
144,-30.908199951264546,-320.3239832985675,14.280571122537284,-248.25197239189652,671.0219981082372,112.32861569542739,324.3756853649343,745.0479804891327
145,-33.69658587907248,-319.88791491460773,10.463877529316655,-225.94928422565064,650.8015554986974,118.72543897756269,324.3869215819295,728.5885606701282
146,-36.24191647217408,-319.1281209258501,6.3338868909883885,-201.59158637053235,627.8114642631847,124.14926245918325,324.0971128053685,709.807083434964
147,-38.495415462021306,-318.03397822764333,1.9273631677857046,-175.42363576290248,602.3014870322585,128.60690357689177,323.4914996960719,688.9342280658586
148,-40.41129954389309,-316.5992451164161,-2.7136515335947355,-147.7199852137498,574.566851294763,132.1124428562252,322.55912076306805,666.2338722418292
149,-41.94808732548501,-314.82264625853855,-7.54262665246178,-118.77944871807543,544.9430930786739,134.68569618924306,321.29347990977175,641.9969709506287
150,-43.06987089222515,-312.7083215883015,-12.50943780470674,-88.91911801437601,513.7995137521401,136.35064571036918,319.6930982544666,616.5345671596059
151,-43.74750014619264,-310.2661271963927,-17.561343022513345,-58.46813750306367,481.5314053476027,137.1339420667307,317.761934715309,590.1701957500935
152,-43.95962984770132,-307.51178153604616,-22.644014610899635,-27.76142915224599,448.5512517358957,137.06358391940992,315.50966394238907,563.231966892397
153,-43.693582046747935,-304.46685490799,-27.702598859664075,2.8664626088912692,415.2791575622712,136.16786189083598,312.9518039073568,536.0446269610875
154,-42.94598207733543,-301.1586044067427,-32.68277480861598,33.08726103181039,382.1327942591373,134.4746270273224,310.10968912794675,508.921895956934
155,-41.723134129842144,-297.6196604881629,-37.531782898164025,62.58446421062426,349.5171824642219,132.01091259505705,307.0102893231583,482.159371435691
156,-40.04111226623997,-293.88757505648806,-42.19939480281648,91.05837932350845,317.81465096742045,128.80290702860435,303.68587731291007,456.02826976871506
157,-37.92555430283076,-290.0042441975001,-46.63879741434771,118.23062207598218,287.37532036749343,124.8762481549514,300.17355399311435,430.7702442656599
158,-35.411158823754185,-286.01522097468137,-50.807367265701615,143.84804577885785,258.50845092287034,120.25658570140926,296.5146418555125,406.59347419539085
159,-32.540898983407644,-281.9689347655629,-54.66731690449019,167.68608718464748,231.47496603693403,114.97034056878933,292.7539614379836,383.67015893760265
160,-29.36497981533862,-277.915833502353,-58.18620156180554,189.55153389510966,206.48141581501667,109.04557517325581,288.93900714615927,362.1354807484278
161,-25.939577584933023,-273.9074643135475,-61.337282070724825,209.28473003698355,183.6755826989402,102.51287972403638,285.11904016932607,342.08802430334276
162,-22.325409387831485,-269.9955070926192,-64.09974723615863,226.76124255119075,163.1438588502633,95.40617588911125,281.3441169752857,323.5915685161905
163,-18.586187869828205,-266.23077512040464,-66.45880474071127,241.89300975066882,144.91044871987904,87.76334361628658,277.66407244995077,306.67810198170474
164,-14.787019170372067,-262.6621975155559,-68.40565358778852,254.62898721575263,128.93837549140372,79.62659015880591,274.12747748566096,291.3518612043252
165,-10.992802073311289,-259.3358001229983,-69.93735293712119,264.95529488665613,115.1322010866161,71.04250244654338,270.7805919597296,277.59415176187684
166,-7.266683340841085,-256.29370425963026,-71.0566023573798,272.89485565484625,103.34230930311051,62.06175281606405,267.6663356421357,265.3686864415424
167,-3.6686187434286666,-253.5731660099455,-71.7714476043238,278.5065029955739,93.37055260031904,52.73846016840118,264.82330143661915,254.62716044086258
168,-0.2540816718148062,-251.2056818461667,-72.09492449906615,281.8835267195149,84.97702646565524,43.129239741538086,262.2848370859308,245.31478165510816
169,2.927048200336273,-249.21618863289868,-72.04465159277427,283.1516248602653,77.8877118625558,33.292001432133944,260.0782226102396,237.37548442122682
170,5.831394256505103,-247.62238708461655,-71.6423803399875,282.46623809322386,71.80271591180185,23.284576918382292,258.2239709219266,230.75657881149195
171,8.422779021716371,-246.43421705621992,-70.9135098075062,280.0092613699749,66.4048427463932,13.16326892685988,256.73527791569944,225.4126249449427
172,10.672705681597407,-245.65351029633655,-69.88657169320989,275.985154291855,61.36823853420603,2.9814217299459633,255.61764549007393,221.30837135750394
173,12.5606322778336,-245.27384130205354,-68.59269058478871,270.616504017043,56.36687438633436,-7.211889573366227,254.86869616301036,218.42065471763644
174,14.074052569674306,-245.28058988051257,-67.0650240216676,264.1391278057083,51.082655559016956,-17.372962054513195,254.47819135758678,216.7392200866817
175,15.20840221763114,-245.65122058349974,-65.33818730638292,256.79683191479455,45.21297287227726,-27.464286451740925,254.428257697461,216.26648119994294
176,15.966811328033447,-246.35577520241054,-63.44766924684706,248.8359655744684,38.477541214385575,-37.45503403604691,254.69381758609404,217.0162945252848
177,16.35972451572743,-247.35756575139763,-61.4292467330097,240.49992128374043,30.624399382999187,-47.32118021701707,255.2432125407106,219.01186652458728
178,16.404407926502408,-248.61404733109728,-59.318407628190435,232.02373597679525,21.43497439451433,-57.045262478628885,256.03900051104597,222.28294974850567
179,16.12435989249522,-250.07784332311496,-57.14979240221775,223.62894340440852,10.728140934159851,-66.61579582707463,257.0389019754775,226.86251023243784
180,15.548638946245909,-251.69788990975565,-54.956665105965904,215.51881793331697,-1.6367677114530255,-76.02639174652415,258.1968643534561,232.7830661173278
181,14.71112054708062,-253.4206633835013,-52.770423777392985,207.8741346973693,-15.758017272915433,-85.27464505960172,259.4642107026762,240.07290496529515
182,13.649692607781729,-255.19145244062935,-50.62015930708724,200.8495510120169,-31.69059700984718,-94.3608660157732,260.79083719143716,248.75238422590243
183,12.405399992511597,-256.95563863997774,-48.5322702651431,194.5706897678154,-49.446389321229894,-103.2867417602578,262.1264245105627,258.83050552422736
184,11.021549529022172,-258.6599510179172,-46.530139337428004,189.13197834842592,-68.99534337269994,-112.05401180199453,263.421630839024,270.3019295154965
185,9.542789411074901,-260.2536647820041,-44.63387509675594,184.5952685222051,-90.26759225007983,-120.6632364030639,264.62923755699245,283.14456574101627
186,8.01417963306829,-261.68971833540326,-42.86012110142885,180.98923655047312,-113.15643272969763,-129.11272576792962,265.70522291711654,297.3178341000576
187,6.48027269794418,-262.9257270296421,-41.22193284186911,178.30954138225172,-137.5220650700351,-137.3976829025297,266.60974274345693,312.76165462479094
188,4.984225717184202,-263.92487565086435,-39.72872176598148,176.5197043491283,-163.19596805467387,-145.50959576108102,267.30800054147113,329.3961832711876
189,3.5669657118084106,-264.6566746046736,-38.38626445066679,175.55266677291647,-189.98576373619804,-153.43589655550105,267.77099205089934,347.1222756434825
190,2.266429142982984,-265.0975671139425,-37.19677397050548,175.31298130809864,-217.68040967436207,-161.15988941799296,267.9761113109511,365.82262952040435
191,1.116894523297821,-265.2313765515055,-36.159029720429054,175.67959634541006,-246.05554688829466,-168.66093324305623,267.9076068366539,385.36353201481285
192,0.1484237527695705,-265.0495844132343,-35.26856151233605,176.50919704199882,-274.8788314524787,-175.91485536867702,267.5568776865552,405.59711897534396
193,-0.6135761028790885,-264.55143069789835,-34.517883764557425,177.64006735867147,-303.91508719121543,-182.89456399900666,266.9226003655647,426.36404259775196
194,-1.1486634287945914,-263.7438301718669,-33.89677591524808,178.89643058571463,-332.9311349412098,-189.57082229069064,266.0106792174722,447.49643674999385
195,-1.4415429490326566,-262.64110088428146,-33.392605562982546,180.093208088257,-361.7001777896322,-195.91314371672155,264.8340159029098,468.8210663018584
196,-1.482119836810848,-261.2645058693468,-32.990690964008394,181.04110719277523,-390.00564870304856,-201.89076580506386,263.41209817724047,490.16254535106935
197,-1.265434523056869,-259.64161513566864,-32.67469894375894,181.55191340330893,-417.6444547683995,-207.4736573310432,261.77041431288427,511.3465094644333
198,-0.7914892905266431,-257.80550208768824,-32.427072551773826,181.44382754842638,-444.4295795822483,-212.63351271983487,259.93970638046085,532.202630105102
199,-0.06498036669806877,-255.79379548977855,-32.229479918229714,180.5466643383973,-470.1920315522084,-217.3446873425689,257.95508225491085,552.567367361348
200,0.9050490743293556,-253.64761416363754,-32.06327245634555,178.70672220586368,-494.78215046033023,-221.5850293749192,255.85501191954077,572.2863718408271
201,2.1056187348609496,-251.41041634892397,-31.909937833194345,175.79114751350173,-518.0703067427313,-225.33656862619264,253.68023805998115,591.2164687127465
202,3.520267436223516,-249.12679894587043,-31.751531837508587,171.69164614998184,-539.9470466782675,-228.5860302996805,251.47263405886798,609.227184767216
203,5.129539835851423,-246.84128380442266,-31.57107371640594,166.32743491047881,-560.3227515936992,-231.32515128718208,249.27404447973097,626.2018094840029
204,6.911488691708952,-244.59712897570486,-31.35289151417617,159.6473651595694,-579.1268904308376,-233.55078726280908,247.1251441098118,642.0380093944228
205,8.8421793224846,-242.43520244100057,-31.08290692869112,151.63118539248416,-596.3069528948854,-235.26480969762818,245.0643516160317,656.648038421472
206,10.896184972963086,-240.39295415570544,-30.748852746954057,142.28993505225003,-611.827154620121,-236.47380256891395,243.1268326831118,669.9586038544469
207,13.04706416345224,-238.50351908891935,-30.340419747185273,131.6654811949486,-625.6670052002802,-237.1885787287097,241.3436249124252,681.9104576442583
208,15.267813589218388,-236.79497924611604,-29.849333835825018,119.82922633257549,-637.8198232982062,-237.42354510673383,239.74091267079723,692.4577858071885
209,17.53129258646728,-235.28980662519697,-29.269367826315698,106.88003355845694,-648.2912702629127,-237.19595321745487,238.33947462445826,701.5674654476484
210,19.810617408118194,-234.0045019805525,-28.59629530469755,92.94143541256881,-657.0979563244304,-236.52507575654684,237.15432010578283,709.2182505271289
211,22.07952525570246,-232.9494364486476,-27.827796112439273,78.15821542156847,-664.2661542448392,-235.43135083184504,236.19452295629145,715.3999359091563
212,24.31270883867388,-232.1288948475675,-26.963323872024894,62.692474202760614,-669.8306371357095,-233.93553293765342,235.46325333787541,720.1125365174396
213,26.48612206296561,-231.54131116317194,-26.003945747811212,46.71931327662864,-673.8336422400666,-232.05788519222514,234.95799957287386,723.3655065283207
214,28.57725668974929,-231.1796786854971,-24.952163692088156,30.422286888180036,-676.3239520642466,-229.81744160729647,234.67096376165816,725.177013550673
215,30.565389130738783,-231.03210979139675,-23.811725309849187,13.988782773146049,-677.3560783820502,-227.23136185382643,234.58960718338236,725.5732749566315
216,32.43179631249951,-231.08251403573377,-22.587431534579817,-2.3945052287599693,-676.9895323499329,-224.31439461832946,234.69731493015598,724.5879574890125
217,34.15993961500208,-231.31135876988915,-21.28494764579885,-18.545858040034755,-675.288164012123,-221.07845966721786,234.97414460934044,722.2616366018437
218,35.73561601977226,-231.69647460262885,-19.910623714344393,-34.29242991960884,-672.3195559712989,-217.5323533957673,235.39762189270894,718.6413087783915
219,37.14707573871591,-232.21386887269162,-18.47133010155407,-49.4736574803895,-668.1544584636255,-213.68157807952815,235.94354639085705,713.7799486354952
220,38.385105834072746,-232.8385136251601,-16.974312835677495,-63.94410702445881,-662.8662560619866,-209.5282914759056,236.58677448687092,707.7361029537142
221,39.44307971800874,-233.54507979629446,-15.427072354441403,-77.57572522604974,-656.5304592137758,-205.0713709002853,237.3019507936902,700.5735152123302
222,40.31697283466089,-234.30859582744503,-13.837267300332538,-90.25949228332145,-649.2242162735988,-200.30658422170947,238.0641662196226,692.3607756486701
223,41.00534516671523,-235.1050162156898,-12.212643041762847,-101.90650389279418,-641.0258434012258,-195.22685906808147,238.84952771606004,683.1709924620725
224,41.50929144300821,-235.91169298503087,-10.560982827637014,-112.44852761607339,-632.0143711777059,-189.82264044872542,239.6356320882432,673.0814797046015
225,41.83236001850226,-236.70775007372814,-8.890078529882464,-121.83809184805268,-622.2691090541456,-184.08232546668052,240.4019431479692,662.1734576521251
226,41.98044126567234,-237.47436657599147,-7.207717992631044,-130.0481742195491,-611.8692321313812,-177.9927617389144,241.13007736778235,650.5317627265665
227,41.96162597428889,-238.19497924241824,-5.5216865800155475,-137.07156253581616,-600.8933981268988,-171.53979441934433,241.8040076280786,638.2445657394737
228,41.78603399856387,-238.8554174962624,-3.8397807343185257,-142.91996467772836,-589.4194037721331,-164.7088465967904,242.41019750382998,625.4030977265415
229,41.465613690157696,-239.44398552985385,-2.169830724880149,-147.62294170300368,-577.5238881033907,-157.48551975994877,242.93767994709773,612.1013804553056
230,41.01391376908018,-239.95150591170952,-0.5197284740377881,-151.22672794866182,-565.2820854319999,-149.85620403283502,243.3780943417618,598.4359532985451
231,40.44583088413672,-240.3713376015465,1.1025450013024285,-153.7929823874962,-552.7676243779712,-141.80869069920834,243.72569473299487,584.5055801383252
232,39.77733744470823,-240.69937837693857,2.6888988299654772,-155.39748871796414,-540.0523625420435,-133.33278194824098,243.97733947226354,570.4109107246167
233,39.025194844776976,-240.9340575744623,4.2311245511719004,-156.12879200322263,-527.2062404161635,-124.42089547681798,244.132468622026,556.254062422691
234,38.20665706194304,-241.07632011681198,5.720906963290718,-156.0867329915859,-514.2971342227614,-115.06866460368117,244.19307061970957,542.1380826583772
235,37.339169207196335,-241.12959776528018,7.149857601770943,-155.3808236631251,-501.3906866726887,-105.27553644993846,244.16363469633018,528.1662516197947
236,36.4400651086704,-241.0997594563793,8.509572840933531,-154.12840387875923,-488.5500978879175,-95.04536968675286,244.0510814507771,514.4411906571369
237,35.52626738636122,-240.99503044170663,9.791716384792174,-152.45253136329487,-475.8358658848347,-84.3870288273606,243.86466176852267,501.06375535999905
238,34.61399278541939,-240.82587017389432,10.988124029565503,-150.47958403477128,-463.3054760087631,-73.31496532711554,243.6158143782567,488.131712879622
239,33.71846512541936,-240.6048011406412,12.090927481567698,-148.33658956500332,-451.0130498044931,-61.849768884309576,243.31797449719284,475.73822793508083
240,32.85363846906723,-240.34618429659122,13.09269370711643,-146.1483344835702,-439.0089740947639,-50.01866678620013,242.98632944813565,463.9702067872685
241,32.03193406314528,-240.06594044691846,13.986576388594974,-144.03433706873446,-427.3395388797674,-37.855945418230355,242.63752092072278,452.9065689781687
242,31.263995911011015,-239.7812202860275,14.766476134342053,-142.10579041763063,-416.0466169940118,-25.403266075296774,242.28929703314108,442.6165300252586
243,30.55847107435252,-239.51002864233283,15.427205903896338,-140.46259364959357,-405.1674190945573,-12.709846929043827,241.96012031448208,433.15798401823116
244,29.92182173448593,-239.27081092016195,15.964657596165836,-139.19059199132812,-394.7343553533687,0.1675152368038473,241.6687402290856,424.57607468136496
245,29.358176598751434,-239.08201181869978,16.375964942278472,-138.35914321152288,-384.77503145724216,13.164605496318629,241.4337409529895,416.9020391297406
246,28.869229443110243,-238.9616181498681,16.65965692521745,-138.0191204515909,-375.3124018376025,26.210148234156865,241.27307680934993,410.15240151270194
247,28.454192537332872,-238.9266990227869,16.8157952272334,-138.20145049266563,-366.3650969844676,39.226367336815734,241.20360915675565,404.3285836241877
248,28.109812407084892,-238.99295783821833,16.846088947278528,-138.91627147281415,-357.947933213726,52.129745636175066,241.2406596465419,399.4169851551061
249,27.830454603322927,-239.1743112937975,16.75398008722143,-140.15277438223228,-350.07260187752763,64.83197195030485,241.3975954554528,395.389566956162
250,27.6082625447553,-239.48251065248002,16.544693979169935,-141.8797681372736,-342.74852141249136,77.24105745667221,241.68546203692298,392.2049472309029
251,27.433392974645347,-239.92681969654427,16.22524981269519,-144.04697937971406,-335.9838214051609,89.26259790239143,242.11267793117906,389.8099948825524
252,27.29432737108758,-240.51376219477007,15.804427663851888,-146.58706706565434,-329.78641490133236,100.8011538268099,242.68480436907151,388.1418786199086
253,27.178255162935926,-241.2469496308516,15.292689924510213,-149.4183006223355,-324.1651050614074,111.76171712906277,243.40440010999433,387.1305069474404
254,27.0715210774177,-242.12699756680232,14.70205682266535,-152.44782084674196,-319.13066581295385,122.05122885224262,244.2709693829024,386.7012741233736
255,26.960125423264405,-243.1515363885316,14.045937799933684,-155.5753757754171,-314.6968334814099,131.58011019504434,245.28100799438783,386.7780110416264
256,26.830262680533405,-244.31531926103443,13.338922657260477,-158.69739977388213,-310.8811472350457,140.26376684488903,246.42814957471074,387.2860278322149
257,26.66888070973479,-245.610426814007,12.59653820519852,-161.71128347129118,-307.7055803327894,148.02402598978756,247.7034104475166,388.15512691102987
258,26.46424057152003,-247.02656434714456,11.834977354591302,-164.5196659805086,-305.19691147205896,154.79046586536376,249.09552770206668,389.32246165672154
259,26.206455649787024,-248.5514433538323,11.070808098917922,-167.0345708497515,-303.3867957573569,160.50159942476603,250.59138091495768,390.7351174561204
260,25.887988642113086,-250.17123522890122,10.32066971036497,-169.1812052809191,-302.3115074569449,165.10587676028715,252.1764839621071,392.3522991281929
261,25.50408598622826,-251.87108146407257,9.600962671221305,-170.9012496175101,-302.01134103513436,168.56247539536236,253.8355298053743,394.14702199804253
262,25.05313122313862,-253.63564173290993,8.927537443159508,-172.1554811168119,-302.529672008505,170.84185355301045,255.55296830626673,396.1072228440429
263,24.53690140924165,-255.44965926921054,8.315385486222237,-172.9256015889092,-303.911693954254,171.9260488278106,257.3135952398929,398.23623058310744
264,23.96071384420713,-257.298521917919,7.778334536879047,-173.2151708708919,-306.202861504183,171.80871295845952,259.10312982855015,400.5525633521649
265,23.333454056386774,-259.16879705134767,7.328749523652311,-173.04958520717517,-309.44708052870106,170.49488210600634,260.9087581679446,403.08904675109443
266,22.667480121697185,-261.0487190035297,6.977240847611902,-172.47507915934557,-313.68469530406924,168.0004907039225,262.71962068961557,405.89127551814175
267,21.978402783373912,-262.9286086497027,6.7323830181723885,-171.55676948335517,-318.9503279521427,164.35164523350423,264.5272231313702,409.01546613693694
268,21.284745258292382,-264.80120617230904,6.600448587113305,-170.37579774479022,-325.27062804037774,159.5836820485116,266.3257522621262,412.5257697780119
269,20.60749097267224,-266.66189991700617,6.585164666874034,-169.02566421880474,-332.6619906549318,153.74004056686485,268.1122798136793,416.491133295785
270,19.969531824931824,-268.5088367124498,6.687501681170368,-167.60787828808063,-341.1283005330333,146.8709896684409,269.8868408632334,420.9818110138045
271,19.395033992738547,-270.3429023377143,6.905505915087298,-166.22707963294673,-350.6587589778416,139.0322508293387,271.6523765121237,426.06564212546283
272,18.908742709183734,-272.1675650494593,7.234188413087063,-164.98580920795558,-361.22585009168426,130.2835662098934,273.4145351802837,431.8042179079457
273,18.535251487019003,-273.9885800747752,7.665482423603125,-163.97912825799813,-372.78350381108777,120.68726342199852,275.1813320023455,438.2490695319451
274,18.298264287985017,-275.8135584963583,8.188279730902341,-163.289296550341,-385.26551527636957,110.30687087803551,276.9626713952216,445.4380108405198
275,18.21988019593986,-277.65140982419234,8.788552890136867,-162.9807272160062,-398.5842826984566,99.20583842359,278.7697436609859,453.39177086140694
276,18.3199284665559,-279.51167363835583,9.449565799639165,-163.09543525656045,-412.62992828848235,87.44641742372603,280.614312373468,462.1110478810588
277,18.61537725937241,-281.4037618559225,10.152169619875716,-163.6491902150493,-427.269868157829,75.08875239840114,282.5079151665935,471.57411053641937
278,19.119832771696903,-283.3361392499326,10.875175485089837,-164.6285706506707,-442.34889654572345,62.19023183843846,284.46100627364115,481.73506122022695
279,19.843138494022934,-285.3154756822423,11.59579063297064,-165.9890977463927,-457.68984600838974,48.805137669013874,286.48207464633174,492.5228620991575
280,20.791078452066962,-287.3458088519826,12.290101204805051,-167.65459527865406,-473.09487620579125,34.984619923807784,288.5767764914814,503.84120238374686
281,21.96518435634815,-289.42776053046146,12.933583347990032,-169.51788088345606,-488.3474276350311,20.77700554072768,290.74712496953833,515.56925574906
282,23.362644317487863,-291.5578511449741,13.501624424512963,-171.44283859383944,-503.2148530322373,6.228429311685061,292.9907815401643,527.5633398084675
283,24.976309376897376,-293.7279562809513,13.970038031077971,-173.26785745712232,-517.4517107070546,-8.616246184121064,295.300492123175,539.6594485901622
284,26.794792758694697,-295.9249441055804,14.31555985381875,-174.81054991381808,-530.8036744232026,-23.71227346175669,297.6637067555206,551.6765880911599
285,28.802655047414365,-298.1305253928479,14.516315315285675,-175.87359092101048,-543.0119867625518,-39.01369248321705,300.0624142163465,563.4208073831808
286,30.980666353336552,-300.3213381735524,14.552253415601612,-176.2514489874362,-553.8183593089287,-54.47191058087802,302.47321350063737,574.6897854625998
287,33.3061342326249,-302.4692772149904,14.405543290660406,-175.73771895435388,-562.9702042703815,-70.03427601873035,304.867632178379,585.2778081277735
288,35.75328435645447,-304.54206495174486,14.060930649189919,-174.13272055286112,-570.2260679446525,-85.64273440870784,307.2126880286752,594.9809502915111
289,38.29368029819334,-306.5040461158023,13.506050714447682,-171.25100374637708,-575.3611261327675,-101.232654367139,309.4716759509396,603.6022688320131
290,40.89666933094938,-308.31717458024934,12.731692980651921,-166.9284067790229,-578.1725954237346,-116.73190033162103,311.6051484874783,610.9568121834524
291,43.52984220482085,-309.9421493786165,11.732011492205505,-161.02834631704965,-578.4849127711443,-132.06021760032507,313.5720468374853,616.8762674786402
292,46.15949603524157,-311.33964873983155,10.504673196764909,-153.44707604974005,-576.1545385568764,-147.12897836777165,315.3309312152958,621.2130927615628
293,48.751090879145636,-312.47160689013356,9.05093696929879,-144.11772134941376,-571.0742438593024,-161.84131855328758,316.84125546615485,623.8440154323625
294,51.26969289072718,-313.3024782437302,7.375657511625769,-133.01297307865298,-563.1767496414865,-176.09267474474416,318.06463103129283,624.6728127030985
295,53.68040046098559,-313.80043691413306,5.4872112573491485,-120.14639579576459,-552.4375941690894,-189.77171036359613,318.9660291790671,623.6323216754336
296,55.94875415199076,-313.9384654624689,3.3973450306086663,-105.57237023586464,-538.877116378588,-202.7616021766586,319.51487705338076,620.685654819055
297,58.04113564715796,-313.6952946162198,1.1209519593964206,-89.38474525900449,-522.5614584361031,-214.94164429022538,319.68601151937423,615.8266218419843
298,59.92516432788689,-313.05616465315705,-1.3242172775511865,-71.71431991263128,-503.6025110434267,-226.18911749855866,319.4604641333265,609.079382031514
299,61.57010183578022,-312.0133887708769,-3.9178966995304214,-52.7253119765899,-482.15675026539077,-236.3813665559288,318.82606024004775,600.4973725051234
300,62.94727492968485,-310.5667085720305,-6.637687503429471,-32.61099591608874,-458.4229446723711,-245.39802518092648,317.7778247048842,590.1615777256956
301,64.03052505491405,-308.723441148705,-9.459466874798677,-11.58871109986228,-432.6387461569548,-253.12332764161354,316.31819549261934,578.1782244766821
302,64.79668920358378,-306.4984254349127,-12.357810116035909,10.105549786681419,-405.0762158118584,-259.44844658329833,314.4570535196125,564.6760040220254
303,65.22611080656714,-303.91378193747124,-15.306415067128311,32.222763233717274,-376.03637517849796,-264.27379891243544,312.2115823745499,549.8029376845205
304,65.30317176505501,-300.9985043590314,-18.278520203522053,54.506511921593706,-345.84290955516707,-267.5112637403513,309.60597437072187,533.7230110087511
305,65.01682799264877,-297.78790396705324,-21.247309995950975,76.69846398697399,-314.83518136656005,-269.08625746348355,306.6710000213689,516.6127036545627
306,64.36112227971496,-294.3229279743795,-24.186302781133158,98.54355593673083,-283.3607373491995,-268.93961115108067,303.4434567369806,498.65753812072995
307,63.33564156799711,-290.6493720108792,-27.069717507265032,119.79477965267866,-251.7675142529801,-267.0291957794419,299.965509937777,480.0487622852634
308,61.94588235424034,-286.817004667386,-29.872816459358823,140.2175128137278,-220.39596410560355,-263.33124273465995,296.283936854904,460.98026934602296
309,60.2034888257709,-282.87862007808,-32.57222161590536,159.5933652989571,-189.57133049529847,-257.841310934321,292.4492813030429,441.64584293660477
310,58.12633355564079,-278.88903350561685,-35.146202661370594,177.72353791292372,-159.59630946111807,-250.57485794484165,288.51492766455726,422.2367933667792
311,55.73841948210107,-274.9040353350633,-37.574934799114615,194.4317028405483,-130.74432046741654,-241.56738085097157,284.53610455266346,402.940023065327
312,53.06959321673101,-270.9793205205979,-39.840724410628006,209.56641867199988,-103.25359397356954,-230.8741042383797,280.5688325914886,383.9365279091081
313,50.15507189069058,-267.16941264416084,-41.928200479570116,223.00308908152843,-77.3222532493801,-218.5692084619395,276.6688353635581,365.40031031111147
314,47.03479720960696,-263.5266036104694,-43.82446972787193,234.64546598019942,-53.10453147972675,-204.7446112275132,272.8904367129499,347.4976531805135
315,43.75263999806527,-260.09993126752505,-45.51923368097346,244.42668738806242,-30.70822351358568,-189.5083374939276,269.28547061971636,330.38668251930034
316,40.35548568219984,-256.9342179513564,-47.0048664108884,252.30982919828665,-10.193427338430686,-172.98253410464017,265.90223170803745,314.21713039044505
317,36.89223566519684,-254.06919322039872,-48.276452453624564,258.2879405794697,8.427414522202618,-155.301204227638,262.78449524024023,299.1301994725694
318,33.41276135246575,-251.53872371853464,-49.331785192695776,262.38352799246934,25.188207466354694,-136.60775105419057,259.97063509282714,285.25842671067386
319,29.96684686285406,-249.3701717901057,-50.171326616228995,264.6474561964027,40.16670660390052,-117.05242868490001,257.49286641106016,272.72544865614213
320,26.603153716958527,-247.58390179936163,-50.798129700019054,265.1572488818157,53.48094120327835,-96.78979930073565,255.37663618493517,261.6455866576565
321,23.36823668372017,-246.19294893588423,-51.217724856303256,264.0147970362756,65.2847072858908,-75.97628920415383,253.64017992110303,252.1231964629217
322,20.30563503104491,-245.2028597180744,-51.437972079457296,261.34351708067805,75.76229865211859,-54.76792300758173,252.29425614813286,244.25176207660323
323,17.455057991470284,-244.61170679961566,-51.468880683816934,257.28503795013063,85.1226628753474,-33.318296739778326,251.342063117817,238.11275348497705
324,14.851677629707996,-244.41027366005684,-51.32239888134701,251.99553029032094,93.59317597089209,-11.776828775578274,250.77933440047985,233.77430617287249
325,12.525536979485338,-244.58239809994237,-51.01217590918274,245.64181605920706,101.41322765138054,9.712695710616657,250.59460291103272,231.2898114194831
326,10.501076886613179,-245.10545791580407,-50.55330000459071,238.39740916823857,108.82779927020177,31.013293422820325,250.76961700154317,230.6965259130772
327,8.796781833182235,-245.9509782185047,-49.96201627440305,230.43863575162493,116.08120054826234,51.99569073165984,251.27988813214006,232.01431517006932
328,7.424943131620226,-247.0853377138264,-49.25542946453519,221.94096676898744,123.41111128404096,72.5390109811557,252.09534741343825,235.244637624716
329,6.391536999809325,-248.47055068225566,-48.45119771824948,213.07566837780766,131.04305268396095,92.53129000058348,253.1810877604218,240.3698570466191
330,5.69621484941585,-250.06510205129618,-47.56722437174337,204.00684081571353,139.18539147970768,111.86987009939342,254.49816911785172,247.35294365656694
331,5.332403392647019,-251.82481454625355,-46.62135547029961,194.8888792793878,148.02495985755743,130.46171795219377,256.00446585456837,256.1375933550287
332,5.28751258209981,-253.70372910336013,-45.63109095403376,185.86435551498747,157.72335616636235,148.22370152205755,257.65553763112695,266.64876437936715
333,5.5432494378323085,-255.65498212268943,-44.61331728110365,177.06229098496698,168.41397561193696,165.0828474707362,259.4055073957311,278.7936053745876
334,6.076034964271705,-257.63166535676544,-43.584068384403636,168.59677474141657,180.19980620312316,180.97658588345544,261.2079322437437,292.46273098154694
335,6.8575194119879646,-259.5876561065678,-42.558320134716546,160.5658729273648,193.15201184341245,195.85297603219547,263.01665449085624,307.53179157405225
336,7.85518833828399,-261.4784069735085,-41.54982108348641,153.05078135530613,207.3093099944537,209.67089696741414,264.7866215303897,323.8632816550729
337,9.033048799367231,-263.26168579619707,-40.57095953690701,146.11518498696722,222.67813444746508,222.4001805255354,266.474664028035,341.3085339262721
338,10.352382128257549,-264.8982576025176,-39.632664283708706,139.80480440937254,239.23355416747376,234.02166162448572,268.040222815466,359.7098499967247
339,11.772547508648952,-266.3525013746266,-38.744333912786395,134.14712609454855,256.92089795910204,244.5271210427219,269.44601546922536,378.90272196458966
340,13.251819056865877,-267.59295515417085,-37.91378807718461,129.15132831754943,275.6580138396595,253.91909899300353,270.6586340641868,398.7181013468337
341,14.748238234311112,-268.59278361882156,-37.1472336953339,124.80842737342799,295.338073766429,262.2105636044756,271.64906614162396,418.98467400696387
342,16.22046298607575,-269.33016285928187,-36.44924011869625,121.091678840653,315.8328205176596,269.4244265589635,272.3931316862547,439.5311028718163
343,17.628595107532384,-269.788577690937,-35.82271969239804,117.95727510244323,336.99614490135616,275.5929076785911,272.87182988936365,460.18820447356524
344,18.93496814745064,-269.95702742060354,-35.26891361178877,115.34538111143303,358.66787814127514,280.75675984156726,273.0715906359237,480.79102995179437
345,20.104879631746552,-269.83013663340887,-34.78738696359794,113.18154300215119,380.6776860434402,284.96437373524094,272.98442698362356,501.1808252131039
346,21.10725327121214,-269.40816840876056,-34.376040425659305,111.37848724236514,402.84895803306085,288.27078749149246,272.60798639237873,521.2068480983422
347,21.915218843128265,-268.6969384618145,-34.03114820827598,109.83830266494894,425.0025948667649,290.7366285760888,271.9454999953849,540.728022909717
348,22.506599484399263,-267.70762994922217,-33.747431721409875,108.45496767360117,446.96061311715505,292.4270143710887,271.00563059493567,559.6144151207328
349,22.864298085031965,-266.456509982751,-33.51817617431463,107.11715524873652,468.5495014436665,293.4104342204092,269.80222124010106,577.7485120434225
350,22.976576172075873,-264.9645503177505,-33.33539354307596,105.71122363544545,489.6032815619099,293.7576303884474,268.3539473406549,595.0262985952266
351,22.837220094013333,-263.25695644717183,-33.190031010511696,104.12428351237362,509.96624332936244,293.5404898144275,266.6838766181032,611.3581203196135
352,22.445590614702358,-261.3626116271337,-33.072219926135084,102.2472238947624,529.495336108627,292.8309539756086,264.8189430751927,626.6693274315525
353,21.80655344198313,-259.3134451453916,-32.97155704356654,99.97757888414303,548.062206251729,291.6999513474959,262.78934360329066,640.9006933940085
354,20.930289976256617,-257.14373722313957,-32.87740735775172,97.22212541057269,565.5548735444962,290.2163561433544,260.62786867672077,654.0086000515553
355,19.83198986449482,-254.8893761268071,-32.779216176609154,93.89911813742388,581.879039549724,288.44597819104547,258.3691816309812,665.9649803044925
356,18.53142988119017,-252.58708607884506,-32.666817072837254,89.94009090934406,596.9590203226476,286.4505916140978,256.04906401978883,676.7570104339637
357,17.05244714283616,-250.27364687391608,-32.53072215791129,85.29118235031535,610.7382968883165,284.28701364209826,253.70364698708406,686.3865483038992
358,15.42231839411971,-247.98512717224682,-32.36238184650041,79.91397277586003,623.1796801429127,282.00624825701505,251.36864991750411,694.8693202438568
359,13.671060615036051,-245.7561530203277,-32.154402975280924,73.7858460144076,634.2650923365381,279.65271158680696,249.07864757128127,702.2338669777583
360,11.83067107169542,-243.61923144857428,-31.90071660592538,66.89990946412104,643.9949741416442,277.26355695894097,246.8663856034067,708.5202660751847
361,9.934327036918319,-241.60414648998426,-31.596689700854867,59.264517771192864,652.3873336422264,274.8681180447699,244.76216221668858,713.7786545659085
362,8.015566798684466,-239.7374420506252,-31.239177701445936,50.90245178989599,659.4764610786849,272.4874890316466,242.79329105405685,718.0675809824864
363,6.1074741896199205,-238.04200278360773,-30.82651750384138,41.84980823851225,665.31134087453,270.13426076225824,240.98365730292528,721.4522216245487
364,4.241888499259313,-236.53674024508206,-30.358462297131624,32.154659445384404,669.9537999970431,267.8124303366418,239.35337513163134,724.0025009845435
365,2.448660264315424,-235.2363870725426,-29.83606150788269,21.875547619118905,673.4764380964871,265.5174984162169,237.91854999914986,725.791160113182
366,0.7549714634020569,-234.15139709316813,-29.261491181753428,11.07988244052985,675.9603892486094,263.23676383423054,236.69114454412923,726.89181846049
367,-0.8152633962035682,-233.28794479828827,-28.6378426917672,-0.1576890672299946,677.4929675045198,260.9498196377822,235.6789423645403,727.377074442728
368,-2.241900694993402,-232.64801411043237,-27.96888033727091,-11.756878506226634,678.1652496761602,258.62924841478093,234.88560060017028,727.3166884425369
369,-3.5089629707905887,-232.22956416124035,-27.25878058665176,-23.63327070188904,678.0696497913935,256.2415074875331,234.31078008781878,726.7758900876296
370,-4.604915836933007,-232.02675893588903,-26.51186692464717,-35.6997293755455,677.2975408204205,253.747986467613,233.95034096798136,725.8138499868849
371,-5.522819549823912,-232.03024798035534,-25.732354293451028,-47.86768669638159,675.9369802642063,251.10621154046703,233.79659184245241,724.4823544787823
372,-6.260352170505152,-232.22748670691504,-24.924116054831874,-60.04832651005548,674.0705962064487,248.2711636088804,233.83858174923822,722.8247196879296
373,-6.819705646807045,-232.60308690622296,-24.090484484361937,-72.15368190570989,671.7736886197198,245.1966717409409,234.06242610837174,720.8749774892837
374,-7.2073604953995485,-233.13919052595264,-23.234093321874056,-84.09767148035802,669.1125964302777,241.83683953787107,234.45166005933984,718.657360196751
375,-7.433748672245413,-233.81586220006128,-22.35676810851581,-95.79709595804626,666.143373666678,238.14745985488432,234.98761485180754,716.1861024371764
376,-7.512817435362935,-234.61149803119608,-21.45946716322955,-107.17260973955773,662.9108079378539,234.0873722997647,235.6498147895888,713.4655676267143
377,-7.461509379030888,-235.50324945892825,-20.542273360501547,-118.1496723921999,659.4478022758148,229.61971819960047,236.4163933906026,710.4906935490785
378,-7.299175338822621,-236.46746150652598,-19.604434617055137,-128.65947392239121,655.7751286818525,224.71305018097104,237.26452774427037,707.2477386201241
379,-7.046937743197148,-237.48012419530497,-18.644449147750453,-138.63981530612543,651.9015504240988,219.34225887351602,238.17088943213813,703.7152995400488
380,-6.727022546491452,-238.5173345113125,-17.660189878229843,-148.03591301363895,647.8243012985492,213.489287200067,239.1121088851774,699.8655631287559
381,-6.362078313992539,-239.55576424795322,-16.649060886595482,-156.80108459797688,643.5299033777034,207.14361218092472,240.06524793054027,695.6657497428997
382,-5.974501283403635,-240.57312659588604,-15.608177655731584,-164.89726358881086,638.9952991529395,200.30248396729857,241.0082728117769,691.0797017004163
383,-5.585785092001258,-241.54863168115554,-14.534562420798899,-172.29528778656586,634.1892685681175,192.97092105955323,241.92051732406534,686.069566965533
384,-5.215913207373894,-242.46341856508437,-13.425345859481341,-178.9749072177885,629.0740961158675,185.16146905583335,242.78312307249234,680.5975263184135
385,-4.882810982750597,-243.3009488982574,-12.277966632302322,-184.9244674273432,623.6074483941454,176.89373787203618,243.57944160593368,674.6275123106467
386,-4.6018727801036015,-244.0473460400226,-11.090360948085532,-190.14024047443388,617.7444187251036,168.19373911296543,244.29538188429729,668.1268712085787
387,-4.385577792926701,-244.69166363137143,-9.861135611992989,-194.62539953264462,611.4396923740552,159.09305096201388,244.91968683429798,661.0679248059887
388,-4.243205971505346,-245.22606968572356,-8.589719756037354,-198.38866265051345,604.6497827877649,149.6278426231373,245.44412497111756,653.4293968094081
389,-4.180662575852768,-245.64593603605837,-7.276492099111952,-201.44266487128507,597.3352855739374,139.83779423219815,245.8635869745344,645.1976774371917
390,-4.200416111519803,-245.94982781302215,-5.922881646934271,-203.8021509286555,589.4630929201257,129.76495118468583,246.176082048689,636.3679084415636
391,-4.3015498460807615,-246.13939287261272,-4.5314401533357165,-205.48210732389595,581.0085076505256,119.4525533622301,246.3826342060915,626.9448773791686
392,-4.479922322879898,-246.21915634981931,-3.1058847050060954,-206.49596853298934,571.9571941399448,108.9438792607919,246.48708390867793,616.9437138839362
393,-4.7284279671836265,-246.1962305867558,-1.65110884103396,-206.85403612603153,562.3069037092013,98.28114314647866,246.49580557479146,606.3903825701169
394,-5.037345474194441,-246.07995534503715,-0.17316090900942493,-206.56224247012435,552.0689156050719,87.50448160381407,246.41735609768062,595.3219685101814
395,-5.394759290281121,-245.88148712909077,1.3208111525086998,-205.62137371823331,541.2691416320209,76.65106492503706,246.26207338724305,583.7867532598333
396,-5.78703792745038,-245.61335927453922,2.8226489204190037,-204.02684117031805,529.948852630966,65.75436758353817,246.0416466988758,571.8440822538579
397,-6.199351718128063,-245.28903593869433,4.3233063426318585,-201.7690572674339,518.1649969218334,54.84362858073177,245.7686818995832,559.564026962264
398,-6.616211738881575,-244.92248311024684,5.813005604407007,-198.83443457224618,505.99009274258344,43.94352579812141,245.45628468960217,547.0268461562597
399,-7.022011141771008,-244.52777814070035,7.281424339759855,-195.20698592721754,493.51168757525016,33.07407919845646,245.11768306435778,534.3222496672302
400,-7.401550276926982,-244.11877609039013,8.717911269316833,-190.8704645916388,480.8313872322601,22.250787203145297,244.76590697567758,521.5484660712535
401,-7.740527881639982,-243.70884654668228,10.111725894857273,-185.8109472294471,468.0634675945643,11.484990424092873,244.41353841224657,508.8111143492432
402,-8.025982175920223,-243.3106889111938,11.452296388804733,-180.01973230159155,455.3330928069683,0.7844486252988565,244.07253937487857,496.2218801579196
403,-8.246667835776744,-242.93622806015392,12.72948844975502,-173.49640332773188,442.7741758606514,-9.845888852739298,243.75415907420768,483.89700069373913
404,-8.393357578864297,-242.59658638697962,13.933876761958693,-166.25189168778607,430.5269304433099,-20.402942473764384,243.46891577336064,471.9555682808309
405,-8.459060626667355,-242.3021230324378,15.057009848851708,-158.31136767553897,418.73517567106785,-30.884418024921143,243.2266435477188,460.51767112315486
406,-8.439154435634368,-242.0625269047648,16.091658663818713,-149.71679156815378,407.5434663086605,-41.28760885343781,243.03659014525027,449.7023990315515
407,-8.331430354577279,-241.88694707105262,17.03203940973265,-140.52896842149562,397.0941288142564,-51.60812110661828,242.90754926646645,439.62575122084996
408,-8.136057902741683,-241.7841423876034,17.87400195106954,-130.8289706191805,387.5242872403399,-61.838564304832914,242.84800905898473,430.398491784886
409,-7.855475925153562,-241.76263195679832,18.61517675572123,-120.71881987455201,378.96296294760043,-71.96725435167794,242.86629856109303,422.12400611126435
410,-7.494221566313429,-241.83082924271508,19.25507542242136,-110.32135395024747,371.5283288761247,-81.97697856681059,242.97071529743772,414.8962182352837
411,-7.058709456608868,-241.99714536587567,19.795142229473445,-99.77924093380025,365.32519291645576,-91.84387249886817,243.16962010098646,408.79763420875923
412,-6.556973888185346,-242.27005092507883,20.23875639668562,-89.25314312868656,360.4427755716791,-101.53645660368102,243.47148917419156,403.89757864861
413,-5.99838665467609,-242.65809022884963,20.591186541131897,-78.91907080622698,356.9528350680649,-111.01487754723229,243.88491797631457,400.2506897177609
414,-5.393363072192283,-243.1698465602437,20.859499968782245,-68.96500066926005,354.90817973355894,-120.23039368115421,244.4185762474369,397.8957317569476
415,-4.753068357196793,-243.81386151062202,21.052430007708345,-59.58686298785973,354.34159429494326,-129.12513685616372,245.08111782886752,396.85477512153
416,-4.08913553139529,-244.59851504530297,21.180204648991857,-50.98402384875576,355.2651943733002,-137.63217337669707,245.88105246277624,397.13278000052605
417,-3.413404176902132,-245.53187551751327,21.25433935821158,-43.35440423337455,357.6702115057148,-145.67587651346614,246.8265891591121,398.7176054320621
418,-2.7376870809932963,-246.62153017127696,21.28739609189723,-36.88938546865257,361.5271987973144,-153.17261283172806,247.92546185230145,401.5804468047324
419,-2.0735695890490833,-247.87440672492536,21.292709526161634,-31.768651218011808,366.78663467024495,-160.03173540122174,249.1847479124879,405.6766858221771
420,-1.4322444195377577,-249.29659550939397,21.284080728304282,-28.155110540477853,373.3798897547445,-166.15686881942514,250.61068877286834,410.9471177713627
421,-0.8243826315857244,-250.89317959822807,21.27543840846641,-26.190036296107145,381.22051070851325,-171.44746380534139,252.2085197745517,417.3195036321704
422,-0.26003939597377473,-252.66807775095322,21.280468648622758,-25.988540446735264,390.20576546571033,-175.80059287668567,253.98231367059938,424.7103803517639
423,0.25140853205278957,-254.62390222418645,21.312215562893176,-27.63549476526319,400.218387696099,-179.11295324975757,255.93483949172798,433.02705221845065
424,0.7012979351804108,-256.76183108882515,21.38265761177404,-31.181993682494173,411.128454517725,-181.2830383937726,258.06743615342424,442.16968003421346
425,1.0816916639828265,-259.0814930561274,21.502267230840236,-36.642445842731206,422.7953309941757,-182.2134352947452,260.3798987057638,452.0333827227231
426,1.3853732367202996,-261.58086208219424,21.67956489554653,-43.99237160019463,435.06961775954636,-181.81320011739626,262.8703746027409,462.5102679784873
427,1.6058275035163785,-264.25615896709894,21.920682351800195,-53.16697379806321,447.79504432024873,-180.00026053660386,265.535267536191,473.4913144721096
428,1.7372104865955595,-267.1017574675357,22.228953020801583,-64.06053749867307,460.810260150351,-176.7037889023042,268.36914686470664,484.8680379293776
429,1.7743107953707338,-270.1100929221386,22.60455016226801,-76.526700033606,473.95048816480886,-171.86648723300917,271.3646612567132,496.5338867300743
430,1.7125047834748628,-273.2715719971533,23.04419491232929,-90.37961529727659,487.04901947662546,-165.4467233675163,274.5124557911365,508.3853285654292
431,1.547707989645935,-276.5744827916017,23.540956333602647,-105.3960156072866,499.93854318587535,-157.42045779782435,277.80109229635565,520.3226068298135
432,1.276326320406533,-280.0049050481194,24.084163652173,-121.31815169611353,512.4523191032665,-147.7829030374081,281.21697300246535,532.250162589732
433,0.8952117189706252,-283.5466206819576,24.659446689581056,-137.857568615036,524.4252138813989,-136.54986218117878,284.74426773307835,544.0767343494675
434,0.40162853509926977,-287.18102566266805,25.248914253343276,-154.69965502549235,535.6946314550235,-123.75870088932449,288.3648453019665,555.7151630269378
435,-0.20676175277212755,-290.88704583509866,25.83147238081019,-171.50888718103246,546.1013767616051,-109.46891736997189,292.0582109145372,567.0819434698574
436,-0.9318887368784395,-294.64106158672877,26.38327560522843,-187.93467702644412,555.490497500094,-93.76228745685465,295.80145326659334,578.0965764371282
437,-1.775225192702656,-298.416849107005,26.87829582128002,-203.61772531104089,563.7121524139565,-76.74257537680427,299.56920745653446,588.6807860616268
438,-2.7376950230485693,-302.1855489834008,27.288985866853768,-218.1967742497626,570.6225564385159,-58.53481372543394,303.33364246258765,598.7576770495182
439,-3.819531304275531,-305.91567568268067,27.587009368529607,-231.31564918291068,576.0850529938754,-39.28416701652275,307.0644844847162,608.2509127715092
440,-5.0200823015081175,-309.57318381286643,27.74400515505532,-242.63047417261782,579.9713612845125,-19.15440088175439,310.729089711176,617.083999227563
441,-6.337567600032405,-313.12160878843827,27.732353815720202,-251.81694163606707,582.1630406875528,1.674016741265742,314.29258193019496,625.1797594283076
442,-7.768790922624196,-316.5223004068182,27.525915764252694,-258.57750979557676,582.553203845882,23.00615468724951,317.71807168232647,632.460076501782
443,-9.308820590116373,-319.7347674650356,27.100714167618094,-262.6483927783183,581.0484939471559,44.63517018476089,320.9669739222756,638.8459705301808
444,-10.950653023271302,-322.7171492999695,26.435541666587763,-263.8061959271879,577.5713198403419,66.3451449243098,323.99943978599777,644.2580533637451
445,-12.684879183028984,-325.42682540767265,25.512476123700306,-261.87403363514653,572.0623160977038,87.91417506626347,326.7749143327547,648.6173781990913
446,-14.499378038909589,-327.8211667341676,24.3172969119689,-256.72695081115967,564.4829654598603,109.11767921421765,329.25282557744066,651.8466683851258
447,-16.3790642405784,-329.85842209011844,22.83979886900048,-248.29645589236384,554.8182901460608,129.73187969571876,331.3934008666745,653.8718756011485
448,-18.30571820855493,-331.49872148626605,21.07400552185103,-236.5739685418177,543.0794884572888,149.5374014265817,333.158595626635,654.6239852038283
449,-20.257925329884962,-332.7051666357282,19.0182863746901,-221.61299419510985,529.3063668131452,168.32292082976463,334.5131082926177,654.0409609523077
450,-22.21114705554236,-333.44496899442373,16.675385140892903,-203.52986370339212,513.56939819616,185.888786572275,335.4254454202651,652.0697068225182
451,-24.1379411903679,-333.6905885363047,14.052367148538906,-182.50291909173035,495.9712288217067,202.0505256629511,335.8689936632673,648.6679222549336
452,-26.00834222611798,-333.4208224123987,11.160494962036234,-158.77008210076852,476.64745730164776,216.64214348993121,335.82305095312614,643.8057379264502
453,-27.790405345649013,-332.6217918102229,8.015041534041314,-132.6248051916179,455.76652491809926,229.51912511979742,335.27376793565355,637.4670389254558
454,-29.450909368841934,-331.2877777219242,4.635049897765833,-104.41046982657338,433.5285814398674,240.56104807727698,334.21495251903434,629.6504076926045
455,-30.956204043827263,-329.42186192626093,1.0430476091126788,-74.51336015373101,410.16322754924624,249.67372425439245,332.64869526031566,620.3696477542246
456,-32.27317590900386,-327.0363380323158,-2.7352770257896606,-43.354398932085616,385.9260816406644,256.79080053234657,330.5857810164941,609.6538794157916
457,-33.37029556605871,-324.1528682010345,-6.671431344740029,-11.379884337527432,361.0941743314855,261.8747635624533,328.0458621137239,597.5472286836587
458,-34.21869945480888,-320.80237308678034,-10.734503288448835,20.948491058507688,335.960236373955,264.91731300223347,325.0573792337653,584.108158831825
459,-34.79325306125473,-317.02465453713006,-14.891572168039069,53.16402663148497,310.8260113287993,265.9390880615233,321.65722731960284,569.4085175915991
460,-35.07354122602377,-312.8677617331817,-19.108143184771873,84.80547514168033,285.9947886052648,264.9887527215383,317.89017432231884,553.5323886498826
461,-35.04473504362751,-308.3871210957962,-23.34860356153502,115.42724604978984,261.7634097217913,262.14146365609395,313.8080500590741,536.5748409442385
462,-34.69829286275344,-303.6444581977649,-27.576697356784017,144.60902923155615,238.41404544137583,257.4967609377249,309.46873063890274,518.6406618085005
463,-34.03246357003167,-298.7065462657835,-31.75601481678071,171.96454323597212,216.20606961869538,251.17593563100877,304.9349508823022,499.84314195009256
464,-33.05257208195659,-293.6438208710142,-35.85049085948319,197.14915081765025,195.3683650458111,243.31894131791123,300.27298296008325,480.3029559853855
465,-31.771078606663878,-288.5289040948039,-39.8249063045476,219.86613532309883,176.09238710281238,234.08092875160082,295.55122394084606,460.14715786363735
466,-30.20741396187839,-283.43508343529976,-43.64538488371435,239.87149363975215,158.526283658523,223.62849371847565,290.83873756322697,439.50829185283254
467,-28.387602327768303,-278.4347904069955,-47.2798787583725,256.9771725442361,142.7703261796649,212.1357369616921,286.20379564405164,418.5236107555816
468,-26.343689659293887,-273.59812090547376,-50.69863504866713,271.05275082998355,128.87384970505892,199.7802407713027,281.7124617356024,397.33439410696616
469,-24.113000407427545,-268.9914343864866,-53.8746356769496,282.0256423246022,116.83383124359815,186.73906891771924,277.427254373135,376.08536671345416
470,-21.73724767712565,-264.6760626720004,-56.784002674078685,289.87995594594355,106.59516126642309,173.18489491857756,273.40592053118286,354.92422548602434
471,-19.261523431587563,-260.70715272567594,-59.40636094152879,294.6541902792578,98.05258625327507,159.28235863816167,269.7003428445329,334.001283081846
472,-16.73319677625258,-257.13266183283133,-61.725150179651415,296.43795757072235,91.0542268281566,145.18474360038792,266.3555976448847,313.4692258509033
473,-14.20075011177282,-253.99251881159995,-63.72787728327597,295.36792660960595,85.4065098747579,131.03105789666128,263.4091755078838,293.48296075144464
474,-11.7125846653005,-251.31796133317053,-65.40630022382999,291.62315137401225,80.88029665325713,116.94359091485582,260.8903719886555,274.19949512439285
475,-9.315827825542502,-249.1310568881822,-66.75653469222954,285.41992074705587,77.21794429819651,103.02600672185558,258.81985334486393,255.77776094942243
476,-7.055174257174761,-247.44441290320205,-67.77907595851667,277.00623274170067,74.14100761174397,89.3620226281181,257.2093999007401,238.37826892817043
477,-4.971790885306887,-246.26107946176577,-68.47873073166178,266.6559719580735,71.35827454969532,76.01470760182039,256.06182788449917,222.16246473507684
478,-3.1023127989096384,-245.57464557588642,-68.86445719502706,254.66285632680263,68.57383416183012,63.026419132863246,255.37108868691334,207.29166567593367
479,-1.4779533521004724,-245.36952665735498,-68.9491154300729,241.3342200646033,65.49489997036785,50.41937866368417,255.12254214575347,193.92548315564312
480,-0.12374779742995569,-245.62143661869376,-68.74913453098428,226.98471230916556,61.83915224121888,38.19686515080204,255.29339736060888,182.21968280118315
481,0.9420537310452755,-246.2980329965974,-68.28410640501944,211.93001066974992,57.34141403682231,26.344984452146836,255.8533106278061,172.3234936216518
482,1.7084307832586687,-247.3597179409729,-67.57631938618411,196.48067011838563,51.75953119015303,14.834950041365294,256.76512556710287,164.37644119956315
483,2.171863590928248,-248.7605723433394,-66.65024730320863,180.9362442989767,44.87937818851693,3.6257892224781276,257.98573581804357,158.50483795135358
484,2.336421050228148,-250.44939547092534,-65.53201139407449,165.5798234230517,36.51895496936279,-7.332629980586854,259.4670464085989,154.8181078241464
485,2.213658137361977,-252.37081898109162,-64.24883331921876,150.67312713932856,26.531571086626325,-18.09637104772636,261.15700672774636,153.40514808664798
486,1.8223178742779405,-254.4664627388298,-62.828497441920476,136.4522709598814,14.808133502720501,-28.72412936492069,263.0006865801671,154.33093509141952
487,1.1878368781504303,-256.6761007652535,-61.298839392808134,123.12429230920485,1.2785643060805518,-39.27399232217987,264.9413673919544,157.633565319859
488,0.3416590135819036,-258.9388088267668,-59.687275530335974,110.86448088473078,-14.087621897127022,-49.80038593702408,266.9216232058111,163.32189187750038
489,-0.6796311780812987,-261.1940701814185,-58.020384287369914,99.81451353246788,-31.281550690726252,-60.35132353399016,268.8843702632538,171.37387581176978
490,-1.8353350048433419,-263.3828221226785,-56.323545929701446,90.08135258261477,-50.25599949654753,-70.96605518248965,270.77386911597495,181.7357272128126
491,-3.0817964907238706,-265.44843237135115,-54.620642445940376,81.73683424823673,-70.92715290279506,-81.67319549513257,272.536668587261,194.32186816344034
492,-4.37365096616162,-267.3376002339062,-52.9338146272783,74.81785450453876,-93.17705756877503,-92.48938329045427,274.12248572122644,209.01571204681443
493,-5.66511941751977,-269.0011820379431,-51.28326944300745,69.32705591094216,-116.85671882312779,-103.41850090981238,275.48501943307497,225.67122350054248
494,-6.911298153711929,-270.3949431067566,-49.68712819609652,65.23392956823805,-141.78976341213803,-114.45145513957574,276.58269746466874,244.11520021806535
495,-8.06939250381246,-271.4802391222084,-48.161305095593214,62.476268882734715,-167.7765731983794,-125.56649714160999,277.3793563002749,264.1501998750365
496,-9.099846114026898,-272.22462816764653,-46.71940687445815,60.961941423879345,-194.5987753404681,-136.73003675957506,277.844852063004,285.55802014855533
497,-9.967323454657532,-272.60241144005477,-45.37264658770892,60.570976392988534,-222.0239582896331,-147.8978880838928,277.9555975324333,308.1036252785183
498,-10.64151164921845,-272.595096243629,-44.1297681512873,61.15799247719774,-249.81047253974282,-159.01686904663134,277.6950168928707,331.5393988005815
499,-11.097717957885562,-272.19177018267993,-42.996981865377144,62.55500942384163,-277.7121727516913,-170.02666861765633,277.05390623869965,355.6095908476963
500,-11.317250402398928,-271.389371227817,-41.97791460674012,64.5746933669484,-305.48296490752364,-180.86189106812216,276.0306848115423,380.0548227519107
501,-11.287580276951738,-270.1928353482779,-41.07358133349133,67.01407916779675,-332.881038235595,-191.45418745229097,274.6315200715714,404.6165139110186
502,-11.002295888633428,-268.61510245579296,-40.282386860777805,69.65879249142608,-359.67268474047034,-201.73438911146368,272.87030965025997,429.04110628380715
503,-10.460866186517128,-266.67696295129633,-39.600168150645516,72.28776126338033,-385.63563605048915,-211.63456554448055,270.76850533436004,453.08397861161177
504,-9.668240449492723,-264.40673117881795,-39.02028704370845,74.67836393077914,-410.5618747215185,-221.0899384602616,268.3547683661609,476.51296271036057
505,-8.634315540368544,-261.83973817045626,-38.533781156008395,76.61191603122911,-434.25990274118936,-230.04059460720208,265.66445109394084,499.1113952821291
506,-7.373305285656814,-259.0176436481159,-38.129576900920604,77.87935305322988,-456.55647235873874,-238.4329517286689,262.7389068985549,520.6806587228238
507,-5.903047421896499,-255.9875756860601,-37.79476400277459,78.28693157091091,-477.2978027083285,-246.22094444002255,259.6246378667966,541.0421822087906
508,-4.244282466487756,-252.80111503153648,-37.51492611777527,77.6617457705669,-496.3503195792142,-253.36690949635235,256.37229731672124,560.0388895581592
509,-2.4199360868011968,-249.5131491522613,-37.274517726038965,75.8568454273314,-513.6009652141906,-259.8421621717939,253.03557142565603,577.5360934610142
510,-0.45443245202658344,-246.18062804052022,-37.05727373205766,72.75574619899226,-528.9571309343414,-265.62726668716084,249.66997036111616,593.421847972559
511,1.6269388478672249,-242.8612591493775,-36.84663573162839,68.27614455289171,-542.3462688825709,-270.7120134591281,246.33156405449017,607.6067843279412
512,3.7985850382565167,-239.612182166917,-36.626178130772836,62.37268603811007,-553.71524138716,-275.0951243941214,243.07570077795307,620.0234701906146
513,6.035089761110103,-236.4886654530228,-36.38001836019278,55.03868226970603,-563.029468026238,-278.7837147317691,239.95574784179266,630.6253489562785
514,8.311603780825045,-233.54286496887153,-36.09319798492942,46.306722069498115,-570.2719314965439,-281.7925462760757,237.02189309735613,639.3853318452732
515,10.604145945312858,-230.82268375584198,-35.75202486143615,36.24816879902433,-575.4421034292008,-284.14311217265595,234.32004373697393,646.2941287167719
516,12.889818586698087,-228.37076582190628,-35.34436976654937,24.971574527888293,-578.5548494998728,-285.86259717121544,231.8908553114228,651.3584115366345
517,15.146945800751748,-226.22365288559408,-34.859913348510084,12.620071856163806,-579.6393684754191,-286.98275879426956,229.7689189795875,654.5989058103999
518,17.355146126339047,-224.41112595099932,-34.29034054530792,-0.6321710694148907,-578.7382114971414,-287.5387736395144,227.98212881614904,656.0484999377792
519,19.495352941829786,-222.95574638425856,-33.62948017100201,-14.584323984233825,-575.9064161891625,-287.5680896233136,226.55124382511036,655.7504515602417
520,21.549796646654993,-221.872603434104,-32.87338794074932,-29.01396578627389,-571.2107764035077,-287.1093203838409,225.48965167842732,653.7567555150642
521,23.501962803319252,-221.1692674202187,-32.02037229659427,-43.682702890628725,-564.7292542045683,-286.20121330472546,224.80333365649165,650.1267218117814
522,25.33654016843879,-220.84594041843482,-31.07096400606228,-58.342168294724516,-556.5505272016036,-284.8817181084286,224.49102313384475,644.9257952338778
523,27.03937195707433,-220.89578939334845,-30.02783239993813,-72.74022573526489,-546.7736519373608,-283.187178513932,224.54454336958844,638.2246311601855
524,28.597422554692006,-221.3054405427289,-28.89565311591706,-86.62720072030207,-535.5078126488128,-281.1516646448541,224.94930444316995,630.0984251494343
525,29.99877004606491,-222.0556083576769,-27.68093416543915,-99.76196382000614,-522.8721143463002,-278.8064583692035,225.6849341028201,620.6264771079707
526,31.232632437742026,-223.1218288423465,-26.391808825785063,-111.91770086386876,-508.99537032491776,-276.17969731912746,226.72601329985744,609.8919553130904
527,32.28943251118109,-224.47526373348003,-25.037805065712714,-122.88721920266869,-494.01582788871974,-273.2961760364692,228.04288450263036,597.9818124927064
528,33.16090301001226,-226.0835416388017,-23.629601789432545,-132.4876585408894,-478.0807733022894,-270.17729499899684,229.60249974050555,584.9867970513106
529,33.84023045612924,-227.9116030249018,-22.178782032990938,-140.56449855097134,-461.3459586541273,-266.8411406665641,231.36927598045932,571.0014985793581
530,34.322232469602135,-229.9225191507095,-20.69759233190792,-146.9947828348621,-443.97479971405687,-263.3026723153498,233.3059281332834,556.1243683830394
531,34.60356024870749,-232.07826028454312,-19.198715807018655,-151.68950849598795,-426.13730432861803,-259.57398489426413,235.37425468846223,540.4576623667441
532,34.68291513873723,-234.34039529503298,-17.69506411875407,-154.59516055257242,-408.0087040604817,-255.66461296266348,237.53585717984487,524.107264070076
533,34.56126637580453,-236.6707120993679,-16.199590452121637,-155.69439822085354,-389.7677764080034,-251.5818405046578,239.75278159657998,507.1823588169283
534,34.24205647468098,-239.03175566719128,-14.725122437255868,-155.0059236531232,-371.59486033595255,-247.3309855078028,241.98807673702058,489.7949446691912
535,33.731381369933274,-241.38728672489043,-13.284210937715473,-152.58358193010352,-353.66958346813146,-242.9156359633479,244.20627082150742,472.05918107896815
536,33.03813399070596,-243.70266962342518,-11.888988760555135,-148.51475433150156,-336.1683343166629,-238.3378242814187,246.37377309087833,454.090590779432
537,32.174101988992206,-245.9452018059178,-10.551033256173854,-142.91811726699711,-319.26152624195817,-233.59813901357225,248.45921138458883,436.00514396182604
538,31.15401246778277,-248.0843997076425,-9.281228329982438,-135.94084964456493,-303.11071043145023,-228.69578522365472,250.43371950944794,417.91826587951164
539,29.995518457491002,-250.09225648470436,-8.089623577503854,-127.75538268954612,-287.86560248661425,-223.6286160670612,252.27118919454014,399.94381858778286
540,28.71912329864048,-251.94348564676426,-6.9852902589671215,-118.55579505419342,-273.66109111208897,-218.39316536263118,253.94850042294155,382.1931118541234
541,27.34803995588911,-253.61576171545514,-5.976175625990048,-108.55395740563816,-260.6142982700804,-212.9847118343302,255.4457411762841,364.7739946783103
542,25.9079828473839,-255.08996475690265,-5.0689588881547145,-97.97552217917212,-248.8217590699448,-207.3974003660543,256.7464234909881,347.7900675932666
543,24.42689032550133,-256.3504302234636,-4.2689135759577495,-87.05583767735574,-238.3567880521902,-201.62443696746084,257.83769742586355,331.34004055419956
544,22.934576755896533,-257.38519922537716,-3.57978170499844,-76.0358447943911,-229.26709714162268,-195.6583659293601,258.7105583386712,315.5172458176608
545,21.462314443439006,-258.1862577541915,-3.0036650022409646,-65.15799257559067,-221.57272910614984,-189.49143182559843,259.36003641061944,300.40930174974017
546,20.042347368183147,-258.74974751191786,-2.5409382963081835,-54.66218922084135,-215.2643684726042,-183.11602507939045,259.78535166778005,286.0979123446192
547,18.707340361355094,-259.0761270003022,-2.190190697638967,-44.78179345751022,-210.30208970677052,-176.5252061612116,259.9900139199193,272.658779067995
548,17.489768720958057,-259.1702603218133,-1.9482010359773292,-35.73965339792755,-206.61460056935687,-169.71329893115578,259.9818459563018,260.16159812787595
549,16.421254696121018,-259.0414131820932,-1.8099539081562306,-27.744218498703848,-204.0990371238197,-162.67653783870554,259.7729104728703,248.67011861315862
550,15.531859274650376,-258.703140625322,-1.768700656507553,-20.98578061135413,-202.62136530105232,-155.41374731861006,259.37932637748366,238.2422439580285
551,14.849340448801472,-258.17305814983195,-1.8160659386004088,-15.632932075117072,-202.01744071626993,-147.92702636680076,258.82096742675554,228.93016732443692
552,14.39839248960677,-257.4724957789933,-1.9421965732605824,-11.829351697156511,-202.09477172992786,-140.222408252184,258.1210443105577,220.7805368822688
553,14.199884577463362,-256.6260424216065,-2.135946377530482,-9.69103761350865,-202.6350190884144,-132.31046426533428,257.3055793107029,213.8346474690323
554,14.27012115371207,-255.66099501489566,-2.385089272182174,-9.30409970415931,-203.39724805605263,-124.20681989146773,256.40279006095386,208.1286507684557
555,14.6201500106434,-254.6067332311242,-2.676552728873342,-10.723206804135929,-204.1219255523146,-115.9325513668018,255.4424054178138,203.69376866464177
556,15.255146698182955,-253.4940453936172,-2.9966640700543614,-13.970758823393533,-204.53562618207633,-107.51443147768991,254.4549414174205,200.5564864119213
557,16.17390474916594,-252.35443396638743,-3.3314028437984913,-19.036823690758144,-204.3563793694451,-98.98499732572584,253.4709679954449,198.73869625818148
558,17.36846022244062,-251.2194290926725,-3.666653423956202,-25.879846239064275,-203.2995583798759,-90.38242041547419,252.52039713136494,198.2577598514112
559,18.823876008737315,-250.11993618723085,-3.988453165751627,-34.42810345202695,-201.0841840409995,-81.75017078521677,251.63182039139036,199.12645969840682
560,20.518206437991676,-249.08563899852288,-4.283232771808134,-44.58185052728475,-197.43949347179873,-73.13648116109452,250.83191895945103,201.35281561360733
561,22.42265660604977,-248.14447364750734,-4.538046693759276,-56.216077056394205,-192.11160785379488,-64.59363213125908,250.1449629600868,204.93975003872734
562,24.501944183658324,-247.322182860209,-4.7407920550977645,-69.1837734687986,-184.8701231497657,-56.17709182740246,249.59241012600907,209.8845944085946
563,26.714864497716746,-246.6419536850801,-4.8804145438434645,-83.31959483975677,-175.5144431034561,-47.94455076294685,249.19260738468418,216.17843589611837
564,29.015052128672064,-246.1241368028586,-4.947099113726411,-98.44380151747797,-163.87967410711013,-39.95489361585699,248.96059310891928,223.80530960167613
565,31.351923936503148,-245.78604127674555,-4.932442564978058,-114.36635305161178,-149.84190639036717,-32.267146263745275,248.90799278116495,232.74124660141945
566,33.671779771281656,-245.64179538264176,-4.829604686360894,-130.89103349677887,-133.32271619019554,-24.93943049942537,249.04299681719576,242.95319514594763
567,35.91902939846801,-245.70226205199876,-4.63343502297801,-147.8194927134486,-114.29274039520566,-18.02795239645334,249.37040640320984,254.39784263487064
568,38.037508674640094,-245.97499643469723,-4.340573463656597,-164.95509994372748,-92.77419938136991,-11.58604418491712,249.89173149339635,267.020380577978
569,39.97184510745253,-246.46423311065067,-3.949524211591407,-182.1065219364503,-68.8422745700755,-5.66327404533048,250.60532459953686,280.75327229072656
570,41.66883199995901,-247.17089150416064,-3.460703688600047,-199.09095648932984,-42.62528229263595,-0.3046337542934307,251.50653461794147,295.51510032536714
571,43.07877073359083,-248.09259007771146,-2.876463224217149,-215.7369713274949,-14.303622083500779,4.45018884438341,252.58786666914142,311.2095838420184
572,44.15674227680194,-249.2236628761337,-2.2010870655272656,-231.88691603962823,15.892486491670432,8.567446728483903,253.8391368045215,327.72486250351955
573,44.86377188485396,-250.55517565089139,-1.4407656412917111,-247.3988905308668,47.68643011122603,12.019873857313918,255.24761423250885,344.9331418297484
574,45.167855174345085,-252.07494248207598,-0.6035436684769478,-262.14826698563957,80.75971099812045,14.787121648469565,256.7981478416772,362.6907852787155
575,45.04481910674857,-253.76754699497053,0.3007570137208894,-276.0287735770711,114.75743087884366,16.856084262776406,258.4732777058605,380.83892125957965
576,44.47899759443809,-255.6143748228585,1.2606393642185458,-288.9531567032979,149.29461747079733,18.22110569986772,260.25333577598707,399.2046098215356
577,43.463708059202105,-257.59366600040795,2.2630570557002465,-300.8534438538927,183.96324327621033,18.884063793447336,262.1165430934723,417.60258544251207
578,42.00152188723981,-259.6805974819297,3.2935640070043264,-311.6808312152602,218.3397748059273,18.854329965575843,264.03911347192275,435.8375614732313
579,40.10432794778147,-261.8474067726375,4.336487680486452,-321.4052195182716,251.99308513592808,18.148608686631615,265.99537538137014,453.707051286582
580,37.79319388934726,-264.063567433046,5.37512646263776,-330.0144198788725,284.49256307978925,16.790666274081023,267.95792435374875,471.0046339406101
581,35.098034547611746,-266.29602576793746,6.391971090900048,-337.51305028789176,315.4162568333076,14.810964080172097,269.89781736373465,487.52357039956826
582,32.057100184310286,-268.5095054555272,7.368949139913362,-343.921144551936,344.358897162841,12.246215417546408,271.7848183900429,503.06066126873696
583,28.716299181849458,-270.666883572011,8.287689986431229,-349.27249975739534,370.9396538243243,9.138888037584492,273.5877010576854,517.4202288395644
584,25.12837040329128,-272.7296377836852,9.129805640352906,-353.6127956332726,394.80948816793324,5.53667407515272,275.2746103024655,530.4181044899607
585,21.351920413676066,-274.65836062728295,9.877180898049389,-356.9975284548127,415.6579744171192,1.4919468338524573,276.8134807282788,541.8855059661114
586,17.45034104197814,-276.4133328869984,10.512265023735551,-359.48981173331964,433.2194718350562,-2.938781188550093,278.17250500494987,551.6726963730791
587,13.490623798209153,-277.95514426241084,11.018356842211999,-361.158104496737,447.27854034586545,-7.695391186646804,279.3206415189995,559.65232692992
588,9.542089307133283,-279.2453461826358,11.379875591369775,-362.0739349496798,457.67450405452985,-12.71468076056589,280.22814691278705,565.7223787006985
589,5.675051866766935,-280.2471193493082,11.582610905966916,-362.30969286765713,464.3050812177341,-17.930880962880238,280.8671166892697,569.8086348879539
590,1.9594413952213472,-280.9259378869502,11.613946797815593,-361.93656831962045,467.12901544860165,-23.27617573877177,281.2120162225009,571.866634468576
591,-1.5365925560139975,-281.25021291353397,11.463056420062633,-361.0227166945844,466.1676603975667,-28.681233161305848,281.240185387331,571.8830785356793
592,-4.7480674987766145,-281.1919005574834,11.12106656433486,-359.6317294977384,461.5054877750925,-34.07575733354006,280.9323022508388,569.8766807904207
593,-7.614515932614671,-280.7270624678554,10.581192900978627,-357.82148595386576,453.2895057520627,-39.38906799639082,280.27279436389307,565.8984716676538
594,-10.081263534597753,-279.83637034895276,9.838848645112186,-355.6434514304456,441.72759150892085,-44.55071241885669,279.2501897976885,560.0315807762481
595,-12.100606265267608,-278.5055497501899,8.891730523697952,-353.1424747097388,427.08575834942536,-49.491111788265606,277.85740395018644,552.3905343685071
596,-13.632855889639146,-276.7257619179756,7.7398866466207865,-350.3571170462114,409.6843945162749,-54.14224272765899,276.0919619960761,543.1201130980437
597,-14.647225604296214,-274.49392544160594,6.3857710743785,-347.32052186635724,389.893527416138,-58.4383540936866,273.9561601793189,532.3938198789047
598,-15.122531033834854,-271.812981089921,4.834289353136656,-344.0618054996251,368.12718296833503,-62.31671968160582,271.45717135803994,520.412007792788
599,-15.04768662452221,-268.6921031853793,3.0928379601084144,-340.60791768491475,344.8369249322855,-65.71842824129409,268.6071008438059,507.39971367568774
600,-14.421983032124768,-265.1468590155119,1.1713385785805681,-336.9858876670765,320.50467319640273,-68.58921242628668,265.4229975116383,493.60423473937846
601,-13.255137072795204,-261.19931451550224,-0.9177343353581351,-333.2253400391408,295.63491300399664,-70.88031711351248,261.92682271198015,479.2924743465592
602,-11.567111875183107,-256.8780804872802,-3.159336817233317,-329.3611370870969,270.74641883539414,-72.54940427044059,258.1453763372318,464.7480703650531
603,-9.387710803349798,-252.2182897345039,-5.535855996923852,-325.4359841573699,246.3636271899481,-73.56148581847364,254.1101761880539,450.26830733122574
604,-6.755954302219164,-247.26149235440576,-8.027136375289002,-321.5028237628945,223.00780205976707,-73.88986769585294,249.85728413245454,436.1608041271936
605,-3.7192538175258205,-242.05545461267016,-10.610541089432244,-317.6268440687639,201.18814575173317,-73.5170778511445,245.42707095586314,422.73996396384536
606,-0.3324010778148762,-236.65384685439722,-13.261057513605957,-313.8869383082859,181.3930159035796,-72.43573892865678,240.86391172051182,410.3231744326097
607,3.343605905450043,-231.11580803778423,-15.951455744528982,-310.37647302003165,164.08141646819487,-70.64933427353158,236.2158051144741,399.22675269730644
608,7.242876639046217,-225.50537846051148,-18.65250706963785,-307.2032535738477,149.67493493065152,-68.17280548205235,231.53391341066205,389.7616442093143
609,11.296056606689879,-219.89079731260495,-21.33326752935745,-304.4886130211295,138.55029872655683,-65.03291311392552,226.8720235218585,382.2289012555402
610,15.431843492268925,-214.3436668942346,-23.961429325270306,-302.3655911344388,131.03271970932582,-61.26829102028544,222.28593331697726,376.91498748336824
611,19.5785621436329,-208.93798996227358,-26.50374044435666,-300.9762103203964,127.39018595224582,-56.92912987261589,217.83277016608557,374.08697306304896
612,23.665766731052088,-203.74909042622735,-28.926490801898293,-300.46789118249774,127.82884484447813,-52.07643698856525,213.57025034614247,373.98770039484907
613,27.625835753608182,-198.85243065278397,-31.196061447089885,-300.98908300026596,132.4896002718101,-46.78083694740652,209.5558886338145,376.8310126562301
614,31.395522630290017,-194.32234138136093,-33.27953157071856,-302.68421545684885,141.44601984721524,-41.12089964615814,205.8461675695316,382.7971489575321
615,34.91742185698729,-190.23068313403962,-35.145335803234524,-305.6881098479432,154.70361608479195,-35.18100768235652,202.49567595949716,392.02842204193024
616,38.14130851701636,-186.64546127458107,-36.76396139923363,-310.12002149182155,172.20052876577907,-29.048801578863102,199.55622651421842,404.62530728359457
617,41.02530778763615,-183.6294205482349,-38.108671401761846,-316.0775188137359,193.80959551803014,-22.812268152624732,197.075963257003,420.6430831880858
618,43.53685156557192,-181.23864878834453,-39.15623593073861,-323.630435405521,219.34175506813563,-16.556563252709502,195.09847046832726,440.08916994722574
619,45.653382055535765,-179.52122304330433,-39.887649574081095,-332.8151548941963,248.55068422523846,-10.36068392399558,193.6618963013645,462.92130919820215
620,47.362767585126385,-178.5159340587375,-40.28880879508319,-343.6295003305516,281.13852735202335,-4.294125258144126,192.79810555795424,489.04671097216277
621,48.66340418428811,-178.2511263134755,-40.35111979867448,-356.0284971253545,316.76253833091744,1.586327902877728,192.5318772736593,518.322261461271
622,49.56398747379696,-178.7436903846326,-40.07200508910672,-369.92126097999517,355.04242259058105,7.239516154349895,192.88016376278532,550.5558401758896
623,50.082952736549714,-179.99824236859234,-39.455276677520466,-385.16923219551285,395.5681433288098,12.642369099694694,193.851428837012,585.5087435471661
624,50.24759590819115,-182.00652175304884,-38.51134610601422,-401.58593949643296,437.907944147009,17.791766981305663,195.44508427106166,622.899162326358
625,50.0929034791674,-184.74703506107312,-37.257246495900425,-418.93843471298817,481.6163419654118,22.705667185551036,197.65104539627103,662.4066200922581
626,49.66013368569111,-188.18496841064587,-35.71644969558363,-436.9504977060385,526.2418602984847,27.42338893724461,200.44942898746666,703.6772549440411
627,48.99520375260935,-192.2723883941654,-33.91847182216043,-455.30766979594443,571.3343026305704,32.00498509551871,203.8104192215434,746.3298169289523
628,48.14694751511481,-196.94874757846316,-31.89827223776589,-473.66413201176294,616.451405182465,36.52967327253385,207.6943300322421,789.9622564779771
629,47.16531402376121,-202.14170816972103,-29.695463225622092,-491.6513978943339,661.164752833037,41.09334717249798,212.0518939669813,834.1587878897662
630,46.099580479596334,-207.7682942534361,-27.3533590877436,-508.8887343407474,705.0648867800022,45.80524025767556,216.82480766552536,878.4973201580931
631,44.99665182334416,-213.73637858277436,-24.917902889194544,-524.9951532339442,747.7655746386404,50.78386464083311,221.94656125054786,922.5571501024797
632,43.89951434907744,-219.9465034225073,-22.436515845095418,-539.6027289250469,788.9072514913709,56.1523955779007,227.34357256806047,965.9268069932809
633,42.845901992556605,-226.2940261944722,-19.956918051851034,-552.370894471501,828.1596730324333,62.03371324195328,232.93663734149058,1008.211923048851
634,41.86722201686495,-232.67156969553918,-17.52596976789172,-563.0012611781128,865.2238484103373,68.54534556157422,238.64269338328828,1049.0429814270938
635,40.98777243601978,-238.97174367119933,-15.188579656684619,-571.2524039134659,899.8333390008308,75.7945752877443,244.37688165045003,1088.082764789169
636,40.22426761528954,-245.09008987055697,-12.986720347791143,-576.9539720626275,931.7550180248911,83.8739775137744,250.0548698210411,1125.0332961833806
637,39.58567244334302,-250.92818700063702,-10.958582700268614,-580.0194332761088,960.7893834640786,92.85763819869958,255.5953860830315,1159.6420341492162
638,39.073331084161154,-256.39683611718795,-9.137888974766499,-580.4567402733455,986.7705047134135,102.79826984218931,260.92289302639637,1191.707061442268
639,38.68136514385637,-261.4192320248254,-7.553372661751718,-578.3762320158174,1009.5656666332436,113.72538998644136,265.97031510954815,1221.0809986691204
640,38.397308550530255,-265.93401346692724,-6.228420017356986,-573.9951406598313,1029.0747589354576,125.64466612592477,270.6817193593726,1247.6733872606017
641,38.20294160344876,-269.8980754344001,-5.180856609739234,-567.6381762801868,1045.2294478847152,138.5384617918884,275.0148387424203,1271.4513252797594
642,38.075283158039404,-273.2890216474649,-4.422852736339538,-559.7338025984495,1057.992161327217,152.36754732525574,278.9433216218768,1292.4382050999238
643,37.987697335206036,-276.10713480520093,-3.9609159504624882,-550.805994962567,1067.354914892596,167.07386833881696,282.4585894683691,1310.7104896661515
644,37.911070176111025,-278.37674724305134,-3.7959385824210723,-541.4614780017397,1073.3380042981853,182.5841975156054,285.5711893790708,1326.392565838825
645,37.815013193331474,-280.1469058213313,-3.9232738118283224,-532.372663301027,1075.9885844926473,198.8144342181813,288.3115388370615,1339.6498198861693
646,37.66905490338191,-281.49124249557474,-4.332824909544437,-524.256734861162,1075.3791510119538,215.67426643046954,290.72997785377186,1350.680183017231
647,37.443787302038984,-282.5069860416098,-5.009146656200419,-517.851549578687,1071.6059342029555,233.0718774495363,292.8960678665347,1359.7044871868954
648,37.11194042985657,-283.3130805583946,-5.931572851345505,-513.8892189258335,1064.7872155746807,250.91837146644355,294.897106783826,1366.9560483435944
649,36.64936329156918,-284.0474122269328,-7.074396505927582,-513.0684038033107,1055.061579101237,269.13161094841735,296.83586452714513,1372.6699518805283
650,36.03589276637367,-284.86318655014696,-8.407137644621503,-516.0264741648139,1042.5861177416575,287.63920397206334,298.82758229521926,1377.0725489448741
651,35.25609398943145,-285.9245421107604,-9.894936488401157,-523.3127452427466,1027.534622983349,306.380446557452,300.9963198245334,1380.371677490696
652,34.29985638618182,-287.40153044279043,-11.499107022895616,-535.3639918013889,1010.0957880784076,325.3071053309847,303.4707750333654,1382.7480949936903
653,33.16282887862156,-289.4646305994455,-13.177878127290859,-552.4833550519797,990.4714501616492,344.3830100673331,306.3797354844511,1384.3485512131188
654,31.846675424577267,-292.2789973630926,-14.88733700619616,-574.8235957783259,968.8748816982728,363.5825056581155,309.8473472303272,1385.28084486965
655,30.359128865928785,-295.99866091231837,-16.582572628965682,-602.3754216038055,945.529120587612,382.8878827795309,313.9884012925813,1385.611106407565
656,28.713819323367005,-300.76090157015074,-18.218995655435574,-634.96134188299,920.6653073102243,402.28596218479436,318.9038401294513,1385.3634393519562
657,26.92985551773177,-306.6810155195207,-19.753788228339854,-672.2352009689571,894.5209843870686,421.76404818819793,324.6766757442635,1384.5219418707247
658,25.03114479943417,-313.8476666264764,-21.14741628774992,-713.6872348517729,867.3383122111751,441.3054944735524,331.36848819282284,1383.0350199211048
659,23.045450352047855,-322.3189875578902,-22.365123085510938,-758.6542157983197,839.3621635894197,460.8851429280553,339.0166400840554,1380.8217918218277
660,21.00320103095534,-332.11955339867586,-23.378317973068555,-806.3340214824244,810.8380701651444,480.4649055751274,347.63230273331135,1377.7802708192255
661,18.93608905791082,-343.2383070076033,-24.165779593043712,-855.8038084385838,782.0100015861772,499.98976011543465,357.1993472256543,1373.7969043396265
662,16.875511191265907,-355.62747137125183,-24.7146057454529,-906.0408926040914,753.117963059739,519.3844184214491,367.6741124850773,1368.7569613831179
663,14.850927129209222,-369.20244346724223,-25.020860836715485,-955.9454395621561,724.3954046420822,538.5509019997832,378.98602486600555,1362.555210159213
664,12.888221662496733,-383.8426289322795,-25.089893194483242,-1004.3641332373727,696.0664524323469,557.3672184459072,391.03901105605945,1355.1063274386267
665,11.008162457977281,-399.39314849133444,-24.936316185365236,-1050.1141083638759,668.3429981389078,575.6872804787347,403.7136190433515,1346.354528260103
666,9.225043190544854,-415.66732619508025,-24.583666908114758,-1092.006579520023,641.4217121474443,593.3421483851318,416.86974126861026,1336.2819870867731
667,7.545593292262641,-432.44985602695806,-24.06377256907013,-1128.869756158542,615.4810662328413,610.1426123623872,430.3498203350876,1324.91572029193
668,5.968222464208041,-449.50053683437744,-23.415866429243955,-1159.5707777302991,590.6784591521556,625.8830676027696,443.9824107626211,1312.3326965317278
669,4.482651773135421,-466.55846469934755,-22.685502114810657,-1183.0365191736314,567.1475318672075,640.3465752150947,457.58596957644966,1298.6630235371422
670,3.06996502387526,-483.34657539695314,-21.92331741816124,-1198.273195795882,544.9957438584092,653.3109479787178,470.9727529464594,1284.0911220696012
671,1.7030954894091916,-499.5764362491417,-21.183697391765556,-1204.3847369624405,524.3022635557986,664.5556518285485,483.952704595553,1268.854841472633
672,0.3477449270307954,-514.9531954986803,-20.52338289146583,-1200.5899050949959,505.11620912387764,673.8692717668679,496.33723343345315,1253.242501833275
673,-1.036285611380116,-529.1806074667586,-20.000066063340306,-1186.2381184073581,487.4552648976526,681.0572557210346,507.9427920910339,1237.5878730666054
674,-2.4933904463352694,-541.9660624609534,-19.67100929718063,-1160.8239013800096,471.3046977540881,685.949624965968,518.5941840058877,1222.2631299818763
675,-4.070132865828786,-553.0255610330952,-19.591718743648055,-1123.999844866946,456.6168096809745,688.4083290863588,528.1275437687561,1207.6698625825309
676,-5.812966707663102,-562.0885820818472,-19.814696899585837,-1075.5879167256312,443.31088766667085,688.3339292001967,536.3929528260663,1194.2282779510954
677,-7.765790161476125,-568.9028025345256,-20.38829053139908,-1015.5889318531463,431.2737446525093,685.6713144029524,543.2566693082515,1182.364804992127
678,-9.967430547589338,-573.2386318743789,-21.355640924085694,-944.1899714121184,420.3609754068857,680.4141901084914,548.6029654845079,1172.498400730892
679,-12.44917148618205,-574.8935268296024,-22.7537348838216,-861.7695323847697,410.3990653563823,672.6081195895674,552.3355780869248,1165.0259454145744
680,-15.23244252880803,-573.6960498503945,-24.612549158372993,-768.9001830487426,401.18847597096504,662.3519484728088,554.3787849258563,1160.3071893803055
681,-18.326793829388905,-569.5096296732734,-26.954279257813464,-666.348489996782,392.5077806755645,649.7974942117158,554.6781256734823,1158.6497664438473
682,-21.728273376745666,-562.2359735910625,-29.792646151918785,-555.0719648250216,384.11884416793407,635.1474379443154,553.2007855272602,1160.2948120435367
683,-25.418311231512465,-551.8180696400508,-33.13228011813049,-436.21275701820065,375.77293905708717,618.6514148047296,549.9356581231968,1165.403721953374
684,-29.36319449227108,-538.2427040917745,-36.96818861533121,-311.0878032221619,367.21759497429554,600.6003607218339,544.8930995476799,1174.0465655264159
685,-33.514189397762536,-521.5424075084263,-41.28532270280465,-181.17514485977057,358.20389301025585,581.3192380003389,538.1043802185217,1186.1926335842627
686,-37.808334474531634,-501.7967338474805,-46.05826264337114,-48.09615889443521,348.49386397380107,561.1583262315568,529.6208377992021,1201.703561538817
687,-42.16989272704544,-479.13277427731794,-51.25104696090314,86.40647983813267,337.8676295657657,540.4833260127606,519.5127340533953,1220.3294269727585
688,-46.512413894534745,-453.7248123234516,-56.8171702806252,220.49516816054435,326.12994410231477,519.6645771278611,507.86782272134144,1241.7081779640127
689,-50.74132267223477,-425.7930404359318,-62.699774580399506,352.2679798132616,313.11584871882314,499.0657378832569,494.78964414446693,1265.3686995969854
690,-54.75691838682395,-395.60127979732823,-68.83205730017964,479.7932182527009,298.6952318143704,479.03230744810116,480.395574713239,1290.7377624378435
691,-58.45764815133237,-363.4536741736531,-75.13791909910069,601.147416512396,282.7761863431638,459.88039847752464,464.81467400118106,1317.1510064580311
692,-61.74350045623695,-329.69036327691714,-81.53287407577939,714.4560640495988,265.3071534066771,441.8861827599359,448.1853880721262,1343.8679857037912
693,-64.51936041754102,-294.6821795442907,-87.92524510229458,817.9361248835147,246.27793214428502,425.276436599539,430.6531821296144,1370.0911260219643
694,-66.69817212206391,-258.8244525144533,-94.21766474887364,909.9392078788978,225.71971127727414,410.22060211076206,412.3681877478135,1394.9882302756312
695,-68.20376789131899,-222.53004540042073,-100.30889569341863,988.9940640226863,203.7043325684307,396.824751326963,393.4829580623785,1417.717910207898
696,-68.97324826152435,-186.2217874595211,-106.09597127157905,1053.8469228298038,180.34302489737777,385.1277872207913,374.15042739569645,1437.457047642408
697,-68.9588282873987,-150.32450153113663,-111.47663590187145,1103.4980533800656,155.7848426656566,375.10013537096245,354.52216839541114,1453.4291181243984
698,-68.12910232916849,-115.25685634350418,-116.35203760341466,1137.2328698001995,130.21499920034813,366.6450710658274,334.74702770016216,1464.931989094761
699,-66.46971692519985,-81.42329516264087,-120.62959397129555,1154.6459310563177,103.85320734662947,359.60269353982915,314.9701979290662,1471.3636811886142
700,-63.98347622004619,-49.20630315655201,-124.22592337670036,1155.656344258733,76.95203821992335,353.7564123472031,295.33274814957826,1472.2445966098542
701,-60.68993448183463,-18.959272771496483,-127.06970971586729,1140.5133874810415,49.79520537024787,348.8416651532429,275.97158909131343,1467.2348920123413
702,-56.624554456420796,8.999792247245576,-129.1043561839168,1109.7916155679798,22.69559602955611,344.55645707254774,257.01980019994625,1456.14599547933
703,-51.83752793569799,34.39352755730362,-130.29028434452601,1064.3752662498252,-4.007182361124251,340.5732140449788,238.60720315373075,1438.945700833952
704,-46.39236447052008,56.98925368259828,-130.6067497699131,1005.4323872767577,-29.949988836242778,336.55138928341927,220.86103927939007,1415.7567592954301
705,-40.364353241063284,76.60171124793474,-130.05307256801117,934.3796917614889,-54.75029990283606,332.15025902028106,203.9066001326629,1386.8493614643687
706,-33.8389901074672,93.09443968222601,-128.64921630607017,852.8396587434033,-78.01151058455261,327.0413873098744,187.86767035339005,1352.628301418773
707,-26.910438189753464,106.37981184534695,-126.4356879071583,762.5917874508248,-99.32950350731038,320.9203148159838,172.8666662632121,1313.615896563626
708,-19.680060309597483,116.41779328574664,-123.47277002800502,665.5201647775674,-118.30051727532691,313.5171153594528,159.02438815644533,1270.431880143513
709,-12.255030231585513,123.2135465740149,-119.83913260771376,563.559609926701,-134.53024275575547,304.60555266007174,146.4593441048237,1223.7714868189385
710,-4.747000885037587,126.81404648180846,-115.62989882578627,458.64262429619436,-147.6439640733836,294.0106494584307,135.2866437138248,1174.3828343647194
711,2.7292147257638337,127.303908684145,-110.95426099125501,352.6492136004598,-157.2974513991052,281.6145457549599,125.61649768088536,1123.0445050638316
712,10.057006532836601,124.8006608170369,-105.93275345387103,247.36138164911705,-163.1882175542502,267.3605688803819,117.55239014253961,1070.5440020683413
713,17.11943027353216,119.44969726245408,-100.69429261649408,144.42374110250503,-165.06667999827772,251.2554681786233,111.18901326569137,1017.657553053286
714,23.80081272349444,111.41915523186987,-95.37308910438578,45.31127039626282,-162.74673053718925,233.36978908131334,106.6100658645458,965.1315922177952
715,29.988519401099314,100.89492869933522,-90.10552561556625,-48.695199592188125,-156.11521170327404,213.8363825499203,103.88602024252086,913.6661791343755
716,35.57487918750023,88.07600084443374,-85.02707852787758,-136.52562229358387,-145.1398336564487,192.84706894141598,103.07195606781556,863.9005911731144
717,40.45923664100152,73.17023001964799,-80.26934507149448,-217.3297393344218,-129.87513636208377,170.64750016117233,104.20554997279402,816.4013267373155
718,44.55008424890622,56.390674840878134,-75.95722368644105,-290.47901084292135,-110.46619960220602,147.53029138873285,107.3052978428053,771.6527532237083
719,47.76721393127524,37.95249594506241,-72.20628519050297,-355.56225636965326,-87.1499135874724,123.82652659762577,112.36903595025655,730.0506091050812
720,50.04381819534789,18.070428809528707,-69.12036736469541,-412.3759235890197,-60.25373080072708,99.89578335534247,119.37281831861804,691.898516747221
721,51.32846409843179,-3.0432141645668644,-66.78942469924968,-460.90995353350087,-30.191915696373133,76.11487276403575,128.27020018095297,657.4075834717968
722,51.58685621295448,-25.180082171710563,-65.2876663153919,-501.3301981723971,2.5406092080516154,52.86554837360792,138.99196910152165,626.6990701697152
723,50.80329896886167,-48.136954022818685,-64.67201635765686,-533.9582854044864,37.37665159100715,30.52149999299468,151.44635472690135,599.8099965296201
724,48.981767001545585,-71.71663391716874,-64.98093133902493,-559.2497317131275,73.687139520129,9.435009549678039,165.51973559780058,576.7014334202628
725,46.14649752919521,-95.72867316010996,-66.23360803993907,-577.770987368018,110.79322474748724,-10.07629869920021,181.0778487890592,557.2691091344109
726,42.34203255678391,-119.99000807361459,-68.42961352116986,-590.1759805792449,147.9797631850435,-27.742136463197603,197.9674965333349,541.3558355552291
727,37.632659934553544,-144.32559072571436,-71.54896416393585,-597.1826256704553,184.50980248320033,-43.351150963989454,216.01873271348427,528.7651596036092
728,32.101229255274575,-168.56907188700174,-75.5526707245385,-599.5496921262842,219.6396872931624,-56.76092995082509,235.04749958360873,519.2755839824807
729,25.84735018136676,-192.5635763272726,-80.3837488158637,-598.0544000140081,252.63438781948503,-67.9059184311873,254.858670616299,512.6546908729274
730,18.985016794221323,-216.1625901661443,-85.96866905811217,-593.4711013771375,282.78266507735435,-76.80281290238372,275.2494394863207,508.6725402273777
731,11.639741404707305,-239.23095884835038,-92.21919218151966,-586.5514052118994,309.41170488272627,-83.55309725157568,296.01297825759315,507.1137866479206
732,3.945322808704484,-261.64597196690704,-99.03450825452943,-578.0060843784087,331.9008795353306,-88.34251731759456,316.9422690663443,507.7880493260507
733,-3.9595873536827217,-283.2984866429579,-106.30358258329107,-568.489054726283,349.69432901227816,-91.43744969958848,337.833991889606,510.5381669759406
734,-11.934927853348654,-304.0940142989821,-113.90760774893054,-558.583640490657,362.31209169650845,-93.17829153036274,358.49232708179625,515.2460682832667
735,-19.842478570177647,-323.9536685511941,-121.72247232242167,-548.7912453112945,369.35956021645956,-93.97016329638166,378.7325095720586,521.8360842588855
736,-27.548732531052956,-342.8148497339374,-129.6211793840337,-539.5224500940416,370.5350934827786,-94.2713561958328,398.3839596176846,530.2756196626141
737,-34.92724751109457,-360.631531780092,-137.47617666138993,-531.0904759668562,365.6356818732655,-94.58005365287039,417.2928211872853,540.5731890485513
738,-41.860403724891924,-377.374027608272,-145.16158733141035,-523.7069019786359,354.56063658415644,-95.41990762192972,435.32376875593576,552.7739187955475
739,-48.2405762378654,-393.02814431892745,-152.5553481537309,-517.4795258315603,337.3133524269335,-97.32505634842803,452.36099596246225,566.952731006974
740,-53.970812109152284,-407.59369704064443,-159.54126399648533,-512.4123002071162,314.0012670402601,-100.8251367096907,468.3083677463507,583.2055590534601
741,-58.965166246443815,-421.0824202572008,-166.010975223597,-508.40734901258304,284.8341914680402,-106.43077844841945,483.0887887038537,601.639080474138
742,-63.14888195970439,-433.51538385836506,-171.86581338502032,-505.2691407520636,250.12119716438548,-114.61998157684378,496.64290168358514,622.3595630682102
743,-66.45859538845083,-444.92007532319855,-177.0185005800258,-502.7109474579408,210.2662037218443,-125.82568938287159,508.92727417130914,645.4614816663922
744,-68.84270092526118,-455.32734169326335,-181.3946361822567,-500.36373240642286,165.76233148854507,-140.4247942428868,519.9122540080876,671.0165667068513
745,-70.26194946155653,-464.76839339399794,-184.93391372407143,-497.7875771099196,117.1849914137294,-158.72875852935536,529.5796818909655,699.0638919918883
746,-70.69027850519124,-473.2720592601406,-187.59101797032704,-494.485668305149,65.18361253728172,-180.97599255181728,537.9206376246889,729.6015072435017
747,-70.11580791396014,-480.8624537119235,-189.33616273235512,-489.92071738098804,10.471880135476585,-207.32609340573035,544.9333720797116,762.579991202808
748,-68.54188799044866,-487.55717878596596,-190.15524069963107,-483.5334929448492,-46.18361395068547,-237.85600339002985,550.621540950393,797.8981668960644
749,-65.98806297346717,-493.366140689462,-190.0495678475455,-474.7629431778262,-103.97632621269173,-272.5580936775251,554.9928156929286,835.40109658702
750,-62.4908115829581,-498.29101662050977,-189.03521881783,-463.0672047457833,-162.07422100635821,-311.3401256161297,558.0579077602816,874.8803605408647
751,-58.10394202979862,-502.3253657595088,-187.14196697391142,-447.9446674477586,-219.63550200383665,-354.0269978258892,559.8300085303429,916.0765175035983
752,-52.8985451654786,-505.4553410168128,-184.41186247954786,-428.9542007183488,-275.8252604367443,-400.36415686074025,560.3246204371923,958.6835468917548
753,-46.96244059007783,-507.660927298192,-180.89750141289673,-405.7336475998334,-329.83259101703464,-450.02253019985505,559.5597344128803,1002.3549890024539
754,-40.399083033845294,-508.9176088795435,-176.66005618276557,-378.0157449101523,-380.8876701355226,-502.60482623557533,557.5562939435757,1046.711436433477
755,-33.32592858007344,-509.1983529580606,-171.76715048238302,-345.64072554160015,-428.27827167267907,-557.653031367645,554.3388758001645,1091.3489910886951
756,-25.872291438379715,-508.4757875738346,-166.29066970883824,-308.5649932824252,-471.3652068153003,-614.65691790943,549.9365106800415,1135.8482877758174
757,-18.176750512686013,-506.7244485706446,-160.30460002056333,-266.86542913303634,-509.5962087796534,-673.0633602011749,544.3835625182222,1179.7836980861136
758,-10.384188660181728,-503.92297128759606,-153.8829860883945,-220.73909032831114,-542.5178375391829,-732.286242969322,537.7205825310036,1222.7323679651345
759,-2.6425644054532675,-500.0561084340502,-147.09808891723478,-170.49829688863616,-569.7850513476056,-791.7167372136304,529.9950536124453,1264.2828072639857
760,4.900474532276321,-495.1164671121374,-140.01881051284278,-116.56135467907296,-591.1681765347215,-850.7337144203761,521.2619440299403,1304.0428293900102
761,12.101023271366026,-489.10587619335814,-132.70943198535846,-59.43941554305599,-606.5570965415703,-908.7140683308173,511.58399822620567,1341.6467145193835
762,18.822286024847703,-482.0363200742359,-125.22868782824773,0.2798073963955456,-615.9625667426158,-965.0427143827646,501.03170774775214,1376.7615203173814
763,24.937769417611463,-473.9304044214003,-117.6291749661258,61.95059742094128,-619.514639200178,-1019.1220420925845,489.6829260638089,1409.0924812701794
764,30.33420202870486,-464.82135080779386,-109.95707437989998,124.88912117594792,-617.4582540776802,-1070.3806086634438,477.6221151132321,1438.3874314371064
765,34.91408834618626,-454.75254669559905,-102.25214822051052,188.39371340597717,-610.1461290226048,-1118.280886483474,464.93923602630025,1464.4401775407512
766,38.59781812339445,-443.77670206391315,-94.54796702476884,251.7647119193511,-598.0291590648297,-1162.3259142312863,451.728319028029,1487.0927594162501
767,41.32526927219512,-431.9546822462226,-86.87231905057696,314.32312876483047,-581.6446248358725,-1202.0647490830436,438.08576624183473,1506.2365691669834
768,43.0568633792072,-419.354097694506,-79.24775508525747,375.42760060224987,-561.6025864400456,-1237.0966712366742,424.10845513998686,1521.8123508576011
769,43.77405610219515,-406.04773596548716,-71.69222550699008,434.48921762096813,-538.5709017807798,-1267.074145799454,409.89171964508745,1533.8091543336661
770,43.47926795927041,-392.111920449082,-64.2197705785107,490.9839689519944,-513.2593423358336,-1291.704595991644,395.52729079187276,1542.2623569834748
771,42.19528238595049,-377.6248757217966,-56.841229420937346,544.4626553475447,-486.40328365499323,-1310.751082221212,381.1012801736391,1547.2508900063622
772,39.96415611747681,-362.66517224519765,-49.564937961433614,594.5582070700834,-458.74742607746555,-1324.0320121570433,366.69228795404746,1548.89381178788
773,36.84570134286114,-347.3103143140803,-42.39739152495811,640.9904117133138,-431.02996062027177,-1331.4200273276463,352.36971355797846,1547.3463652226171
774,32.91560937839436,-331.63552514195635,-35.34385351150874,683.5681105328448,-403.96754290652024,-1332.8402235074186,338.1923414290268,1542.7956449215053
