time,ax,ay,az,gx,gy,gz,accmagnitude,gccmagnitude
0,38.93612086723298,-334.33097829531687,33.23999869167393,-362.7829068117216,-140.14610675180083,-152.86352868677957,337.8038841978788,436.9577223397589
1,37.6216563134465,-329.9606002717448,28.92092342097075,-336.29112940538204,-115.73380596844142,-193.22252787153897,333.47983181842795,455.179402716613
2,36.21895532034555,-325.49156757773164,24.49149771488857,-310.68433464725183,-93.51605864193314,-231.92533131644822,329.07222919932104,473.0507398833341
3,34.70695562715397,-320.9255699689327,19.960436125325437,-286.06797815967826,-73.92581129153756,-268.35566294517565,324.5823500059049,490.2175231334687
4,33.06886775378032,-316.26786705206433,15.339627389262718,-262.5408498184503,-57.348931355943726,-301.9425628154094,320.01494371411553,506.3483270410835
5,31.293253130423093,-311.52789934398334,10.644498120483197,-240.195236013709,-44.11184398692135,-332.17522709867194,315.3788742503275,521.1436972992619
6,29.374909320707136,-306.71970866392394,5.8942765979575285,-219.11647834933015,-34.470310092898075,-358.61613075556176,310.6875607809605,534.3439961595872
7,27.31552049908416,-301.8621352483299,1.1121342136387578,-199.38188784614664,-28.599745605767204,-380.91196669324216,305.959186786684,545.7356171736536
8,25.12404413680801,-296.97877327418615,-3.6748146640242494,-181.05906542996905,-26.58744819461759,-398.8020035747677,301.21665911668237,555.1553599390875
9,22.81681848162024,-292.09768119244194,-8.435668949323414,-164.20375936809532,-28.427042651102266,-412.12355419757847,296.4873146879721,562.4928435836479
10,20.41738861382495,-287.25085678050056,-13.136061698738702,-148.85745048711615,-34.01538386147374,-420.8143543999333,291.8023870295699,567.6909303712213
11,17.95606082391928,-282.47349798326036,-17.73864687680375,-135.04489339353742,-43.15207369842321,-424.9117736371876,287.1962566945988,570.7442254944697
12,15.469205403087521,-277.8030791792517,-22.20374544421368,-122.77185709762801,-55.54166323495576,-424.5489063759735,282.7055183571147,571.6958121923341
13,12.998336570243897,-273.27827897427426,-26.49013608751109,-112.02330392095163,-70.7985310885517,-419.9477216602226,278.3679036476327,570.632468213375
14,10.589005177769712,-268.93780063048723,-30.55596812700113,-102.76222433858716,-88.45435637961903,-411.40957009883704,274.2211031310654,567.6786852968536
15,8.289544925348178,-264.81913015307856,-34.35976714405465,-94.9293100456144,-107.96804132204531,-399.3034566662832,270.3015337276845,562.9898725366406
16,6.149715764494002,-260.95727992847264,-37.86149812221209,-88.44359983553748,-128.73788156981277,-384.0525776333942,266.6430994750737,556.7451619351591
17,4.219288689188765,-257.3835674340142,-41.02364685316703,-83.20417405506407,-150.11572818031922,-366.1196845565735,263.2759937799697,549.1402451845049
18,2.5466142165926313,-254.12447854403578,-43.812278407895676,-79.09290510035851,-171.42282928520342,-345.9918727388733,260.22559004796017,540.3806508590329
19,1.1772131629765936,-251.20066296562723,-46.19803186911647,-75.97819706789511,-191.96697943753537,-324.1653934745401,257.51146465951297,530.6758185899554
20,0.15242381929918114,-248.6261051685156,-48.157013289944736,-73.71957313987835,-211.06053997440512,-301.1310592824339,255.14659168336274,520.2342412761202
21,-0.49186466094039044,-246.4075079250584,-49.67155367893201,-72.17290231383124,-228.0388280464111,-277.36075294468776,253.1367426471943,509.2598312025077
22,-0.7263663022293462,-244.5439175574472,-50.730805078472095,-71.19600579663773,-242.27831223599927,-253.29547067919066,251.48011735958045,497.9495308174803
23,-0.529415915959261,-243.0266105602127,-51.331154681608766,-70.6543543898386,-253.2140083852943,-229.33523441806062,250.16722338271325,486.49205200021305
24,0.11217191638229167,-241.8392507279173,-51.47644360716419,-70.42656469187271,-260.3554504184891,-205.83110483485694,249.18101237149438,475.06751162848246
25,1.2024238051838068,-240.95831454694599,-51.17798286557923,-70.40942227133888,-263.3006259652999,-183.0794216724167,248.4972712058424,463.8476548046207
26,2.7357295133274713,-240.35377077907094,-50.454364219581905,-70.52219763987802,-261.74732021768716,-161.31829704791215,248.08525496970765,452.99632857224964
27,4.69658557679418,-239.9899884797866,-49.331068717389336,-70.71006686786725,-255.50140362441866,-140.72629638848818,247.90853809322746,442.66988664834884
28,7.05957962951027,-239.82683708998115,-47.839881375182095,-70.94649519426979,-244.4817248412275,-121.42316465248007,247.9260504378305,433.0172617521998
29,9.78963084070373,-239.820933794509,-46.018127012828224,-71.23448500431955,-228.7214208165411,-103.47239428410273,248.09325782428397,424.17952565284264
30,12.842496071093077,-239.92698779698338,-43.907749259469064,-71.6066292062386,-208.365619145461,-86.88538557518002,248.36344205596848,416.2888554720091
31,16.165543646939962,-240.09918862480907,-41.55426167946736,-72.12394991940292,-183.66567080743977,-71.62691837294587,248.68903378679,409.4669247262279
32,19.698787374685747,-240.2925857481181,-39.00560619259471,-72.87354340432344,-154.97020182890157,-57.621634939128164,249.02295214684014,403.8228265510815
33,23.3761629582442,-240.46440934149695,-36.31095877819716,-73.96509677715966,-122.71340052121849,-44.76122625363087,249.31990738253626,399.45070447508624
34,27.12701791961258,-240.57528669602937,-33.51952520641099,-75.52638936670326,-87.40105648819072,-32.91201763733305,249.53762653530146,396.42730643204965
35,30.87777529098141,-240.5903153213588,-30.67936980142765,-77.69793851107221,-49.59493581785834,-21.922663724872308,249.63796707741574,394.809687544916
36,34.553721680155014,-240.4799617658161,-27.836317883755676,-80.6269917226861,-9.896113665364549,-11.631686504121221,249.5878891538284,394.6332673211783
37,38.08086263694881,-240.22076412624307,-25.032967705176873,-84.46109970883045,31.072107760085352,-1.8746215784181892,249.36026335219657,395.9104019560859
38,41.38778314759124,-239.79582543864785,-22.30784081888554,-89.34152369499736,72.68108874930692,7.509425240211142,248.9344973365791,398.6295715457075
39,44.40744892251017,-239.1950937210199,-19.694691670317514,-95.3967336073662,114.3129880471755,16.671968736357726,248.29697062833586,402.75521759760596
40,47.07888518217197,-238.41543156149248,-17.22198865008459,-102.73624104703552,155.37565132610553,25.750199014395392,247.4412717996556,408.2282104841904
41,49.348674045477715,-237.46048358550306,-14.912570677050436,-111.44498492205247,195.3158423009945,34.86297630170987,246.36823641857313,414.9668872961402
42,51.17221922997617,-236.3403542298081,-12.783476099697939,-121.57845181392068,233.63050188753232,44.10780389693829,245.08578774987933,422.8685798965171
43,52.514736927846364,-235.07111141312745,-10.845934702692903,-133.15867203086978,269.8758214559074,53.558782283086835,243.60858587290747,431.81154822595056
44,53.351943449246946,-233.67413423793877,-9.105509133857606,-146.17119026439246,303.6740163426384,63.265515872849846,241.9574946690432,441.65724014049835
45,53.67042266504219,-232.17532513322774,-7.562369130029658,-160.56307062900487,334.71777984779703,73.2529162976079,240.15888019097298,452.25281086037546
46,53.467668968620266,-230.60420914345207,-6.211680246654386,-176.24196212526724,362.77248141100023,83.52182322106971,238.24375838634145,463.4338477721189
47,52.7518142135285,-228.9929453828689,-5.044087947411139,-193.07622288203189,387.6762426380436,94.05034571603085,236.24681491363734,475.02725671068896
48,51.54105956323513,-227.37527777054893,-4.046277493577263,-210.8960788268943,409.3380805514511,104.7958140744884,234.2053244875061,486.854272680229
49,49.8628447565458,-225.7854537883836,-3.2015899244658987,-229.49577279321804,427.7343498115057,115.69722298019434,232.15800133012652,498.7335614725606
50,47.75279706207201,-224.25714091467543,-2.490674575287113,-248.63664183831392,442.90374630055135,126.6780419152497,230.14381533766596,510.4843795996643
51,45.253509410828165,-222.8223703408586,-1.8921590859482336,-268.0510427958816,454.94115458601584,137.64926754536265,228.20081002518432,521.9297588727852
52,42.413201510674135,-221.51053654983707,-1.3833187142002417,-287.4470286191517,463.99063181212097,148.51259571157198,226.36495807973503,532.8996787909053
53,39.28431919317283,-220.34747952744803,-0.9407279857584561,-306.51366141432777,470.23782041968065,159.16359725524347,224.66908868964728,543.2341843723214
54,35.92212600762464,-219.35467395065314,-0.5408792723713665,-324.9268333764799,473.9020715807872,169.49479163048127,223.14191800231035,552.7863991872399
55,32.38333736789234,-218.54854664682,-0.16075471353132784,-342.3554554910324,475.22854061850546,179.39852462485283,221.80721022524847,561.4253738108179
56,28.72484165806518,-217.939940019164,0.22166002429978104,-358.46786694044954,474.4804861432885,188.76957122289465,220.6830922356449,569.0387001876888
57,25.002545018018708,-217.53373527258762,0.626929251747292,-372.93831627974373,471.9319684631724,197.5074013159544,219.78153953034197,575.5348145178222
58,21.270367525132894,-217.3286454412945,1.0737944305404246,-385.4533688147886,467.86110310575697,205.5180638725816,219.10804634252574,580.8449073548319
59,17.57940867186049,-217.3171843861489,1.57887871841172,-395.7181029650371,462.5439853497433,212.71566344371064,218.6614878261256,584.9243613185098
60,13.977290037337623,-217.48581379251044,2.1564702007309524,-403.4619708537775,456.2493644641898,219.02342073592183,218.43417710522607,587.753645007056
61,10.507673494508833,-217.81526560769137,2.818383176040308,-408.4442136392554,449.23411397564314,224.37432595171282,218.4121145762455,589.338606253438
62,7.209944538840234,-218.28103259546145,3.573895213306234,-410.45873893492217,441.7395175307883,228.71140927222243,218.57542143170053,589.7101278729741
63,4.119042535940952,-218.85401523441166,4.429756159822722,-409.3383851893297,433.9883682180362,231.98766683581545,218.8989444277465,588.9231328852725
64,1.2654132566730254,-219.50130929527504,5.390263779734976,-404.9585153268037,426.1828610000508,234.16569252351246,219.35301468013824,587.054951711627
65,-1.3249453113201204,-220.18711505114265,6.457399244184188,-397.2398982338949,418.5032414823331,235.21707556454507,219.90433968132155,584.2030886267954
66,-3.6303746828214054,-220.8737461262903,7.631014248137711,-386.1508506183109,411.1071584751778,235.12163102936313,220.51700469727115,580.4824465483726
67,-5.633415137014135,-221.52271349099485,8.90906015336856,-371.7086225786907,404.1296523721421,233.86653406670044,221.15355723928204,576.0220865199656
68,-7.320659600682741,-222.09585808585825,10.287848529673317,-353.9800179374088,397.6836965597292,231.4454287901933,221.77614642999978,570.9616104187764
69,-8.682624770343468,-222.55650404159385,11.76233207464492,-333.08124582974784,391.86119558869837,227.85757906140276,222.3476878048032,565.4472629191515
70,-9.713656578286896,-222.8706035740531,13.326395108511626,-309.1770044423145,386.734332675425,223.10712157789007,222.83302350438106,559.6278526696458
71,-10.411880753856032,-223.00784453485142,14.973143419917074,-282.4788022963165,382.35715144904384,217.20247248179635,223.20004805553413,553.6505943073548
72,-10.779202167445227,-222.94269229269358,16.695184050871163,-253.2425277966459,378.76725389170554,210.15592811740106,223.42077099881695,547.6569734881932
73,-10.82134924055126,-222.65533891971785,18.48488666147624,-221.7652841220049,375.9874990733594,201.9834894691284,223.47228928993616,541.7787373018102
74,-10.54795261829739,-222.13253432032494,20.33461937249735,-188.38151369598336,374.0275961059276,192.704928760096,223.33764439807103,536.1341125177138
75,-9.972641210056286,-221.36827586555825,22.23695333595145,-153.45844403450644,372.88549977178025,182.34410584371946,223.00654121389738,530.8243538724142
76,-9.113134066475148,-220.36433539213047,24.18483160816123,-117.39089449838283,372.5485379031635,170.9295312687024,222.475908357517,525.9307235154571
77,-7.991303607329093,-219.1306053009793,26.17169912503556,-80.59549183264903,372.9942244573552,158.49516202346877,221.7502824589303,521.512000027034
78,-6.633184564532261,-217.68524905975715,28.19159174630093,-43.50435251973098,374.19073941446686,145.08140479177712,220.84200261129234,517.6026102084644
79,-5.068903699894767,-216.05464560308425,30.239183559474544,-6.558303318327586,376.097083987324,130.73629014143208,219.77120542643596,514.2114681849706
80,-3.3325077987640674,-214.27312174281784,32.30979294235215,29.80027115884888,378.6629452953059,115.51676988241469,218.56561577026562,511.3215933969231
81,-1.4616713975883602,-212.38247153713104,34.399349062541816,65.1348433483315,381.8283272770871,99.49007963977226,217.26013307811377,508.89056119347856
82,0.5027290856425247,-210.4312664954132,36.50432116345946,99.02228495860363,385.5230233974928,82.73510029059277,215.8962179569823,506.8518167072971
83,2.5171819244193667,-208.47396563277422,38.62161295060961,131.06037583966486,389.666021141735,65.3436459287873,214.52108864182057,505.11685455496814
84,4.5362475001339,-206.56984004198148,40.74842390153079,160.87509566678253,394.1649379543693,47.42160287926566,213.18674209662137,503.5782342639663
85,6.513399360796817,-204.7817329091427,42.88207884851328,188.127497422909,398.91559274229536,29.08984433569976,211.94882025306114,502.11336561338743
86,8.401984431705324,-203.17468233407445,45.019827001731684,212.51995386772313,403.8018159799247,10.484848720351472,210.8653476498694,500.5889618162667
87,10.156280998598902,-201.81444018279413,47.15861175767689,233.80157243848467,408.6955947082819,-8.241043058122509,209.9953718554766,498.86602509067967
88,11.732626773087512,-200.76592480540634,49.294813231910794,251.77259183616192,413.4576365289027,-26.91978587785722,209.39754188815274,496.80520229586995
89,13.09058373365629,-200.09164834852183,51.42396647690386,266.2876047704525,417.9384196563979,-45.36824547176999,209.12866200243104,494.27233076447106
90,14.194101773025888,-199.85016041751274,53.540459689122216,277.25749394004384,421.9797750925467,-63.38929636827114,209.24225857480266,491.1439873639143
91,15.012639905115122,-200.09454908873266,55.63721836560296,284.65001869392626,425.4170230705544,-80.7734124046833,209.78719657231775,487.3128563774062
92,15.522202334951684,-200.87103795729007,57.70538353310293,288.4890435544354,428.08166029655877,-97.300742751296,210.80637960535617,482.6927418816158
93,15.70624740199772,-202.21771426933412,59.73399490743788,288.8524526254796,429.80456859248443,-112.74364996855797,212.33556422073198,477.22306545297954
94,15.556430400634428,-204.16341845516746,61.70969282246562,285.868842474945,430.4196909082506,-126.8696712304617,214.40231511407558,470.8727083465843
95,15.073146393617947,-206.7268198766542,63.61645554030069,279.713128211626,429.76809894940993,-139.44485018086795,217.02512356124421,463.6430778388157
96,14.26584596218391,-209.91569781631992,65.43539083985478,270.60123215857874,427.70235923314084,-150.2373756841915,220.21270695868427,455.57030013986343
97,13.153104931588665,-213.7264411113101,67.14460239530182,258.78405141487883,424.0910919848023,-159.02145569963963,223.96350323848026,446.72646735220206
98,11.7624380393982,-218.14377454995468,68.71915214084595,244.54091947570726,418.823609753773,-165.58135018552423,228.2653700980882,437.2198931367196
99,10.129855778382016,-223.14071521184783,70.13113932208431,228.1727875823826,411.81451886493596,-169.71548649992573,233.09549529157727,427.1943600343947
100,8.299172645375512,-228.67875740851963,71.34991510311616,209.99535322536923,403.0081650719028,-171.2405838599847,238.4205205760086,416.82736910534055
101,6.321083134814336,-234.70828088247197,72.34244824962995,190.33235615568083,392.38280315053197,-169.99571909552643,244.19687826347044,406.3274277984579
102,4.2520285715869255,-241.1691734986296,73.07385222389703,169.50924680106993,379.95436732637813,-165.8462726127358,250.37133563506902,395.9304331913658
103,2.1528831778267965,-247.99165680756707,73.5080767448965,147.84740893690613,365.7797151602667,-158.68769920275446,256.8817387004356,385.8952241888221
104,0.08749186098186863,-255.097300529033,73.60875762707461,125.65908864177167,349.9592130136508,-148.44907121937632,263.6579430093277,376.4983883457415
105,-1.8789044915035022,-262.40021011465234,73.34020819359723,103.24314547913093,332.6385289025978,-135.09634055314794,270.6229155886027,368.02841839343836
106,-3.6813176114646766,-269.8083700605437,72.66852479048165,80.88169971704099,314.0095014099268,-118.63526075923424,277.69398881099136,360.77932297648294
107,-5.256693422533349,-277.2251245990271,71.56276902406718,58.837701686959804,294.3099638260146,-99.11390289823929,284.7842443891962,355.043808238624
108,-6.545584147247578,-284.5507767998002,69.99618134534995,37.35339752995359,273.82242174830225,-76.6246901526309,291.80400394148825,351.1061630959913
109,-7.493768158025919,-291.6842867724969,67.9473752894796,16.64961244309289,252.87150894154595,-51.30586913545632,298.66240168882683,349.23500041424296
110,-8.053775788572352,-298.52504929184204,65.40145942022797,-3.0742778216511875,231.82017779792776,-23.342331471215033,305.26901463594896,349.6760258171688
111,-8.186281624489428,-304.9747305143068,62.351034859955284,-21.63985944840574,211.06461433827434,7.034301546598584,311.53552583697524,352.6450214907031
112,-7.861327088754992,-310.93914232203394,58.79702010779005,-38.88888047022151,191.0279013346658,39.54641528902996,317.3773968188322,358.3212407657781
113,-7.059341088529831,-316.33013092304844,54.74926156349072,-54.68235708631298,172.15248625712564,73.87203586542223,322.7155255877025,366.8414089188086
114,-5.771930935994352,-321.0674532624567,50.22689757623414,-68.89980223204162,154.891544046598,109.64742680592587,327.477866387308,378.2945169711344
115,-4.002420681462277,-325.08061032793086,45.25845537154446,-81.43876827650968,139.69935944194685,146.4706963708497,331.6009860670318,392.71758020126197
116,-1.7661193083836484,-328.31060070070305,39.88167295089034,-92.21485000195882,127.02089082668256,183.90644127929733,335.031529331921,410.0925139583324
117,0.9096932833386466,-330.71155108996163,34.143051018098035,-101.16222754017384,117.28071765751105,221.49142469886857,337.72756128224273,430.3442577061785
118,3.986069085260799,-332.2521735809342,28.09715234057866,-108.23474521539836,110.87161562980283,258.7412525985355,339.6597507036385,453.3402534670581
119,7.412984530992073,-332.9169926881562,21.805676969723436,-113.40742765888028,108.14304538261122,295.157973608075,340.8123521169061,478.89135362223885
120,11.130217658703494,-332.70728028678184,15.336350667597628,-116.67823843481844,109.38987759831397,330.23848474240236,341.18393978728216,506.7541899894311
121,15.068497989470718,-331.6416346454817,8.761669912009495,-118.06980066323426,114.84170444715878,363.48358081334067,340.78784426631864,536.6349769820289
122,19.15090987008242,-329.7561423559186,2.15754913112363,-117.6307373283866,124.65309932707889,394.40744147600765,339.6522429437699,568.194648315749
123,23.294522441123984,-327.1040694125212,-4.398086315706499,-115.43626468884858,138.89518087761226,422.5473091524477,337.8198611809999,601.0551503281073
124,27.412211949022513,-323.7550398148492,-10.82672431818872,-111.58769635450761,157.54881417925455,447.4730762526395,335.34724988317714,634.8066531221622
125,31.41463504707846,-319.79367640860306,-17.050679537535416,-106.2105929185117,180.49974624965017,468.7964743892472,332.30361857833395,669.0154090858459
126,35.212305186665716,-315.3176989228236,-22.994478123659235,-99.45141795386085,207.53593002966775,486.17954544217656,328.76921992985666,703.2319926246274
127,38.717718596986685,-310.43549798523486,-28.586203135711504,-91.4727209799687,238.34724489942275,499.3420781848772,324.833301783035,736.9996889713137
128,41.84747242919381,-305.2632306686059,-33.75879432312226,-82.44703980689793,272.5277726354333,508.06771748760144,320.59166570872486,769.8628495696498
129,44.524316043814125,-299.9215115747721,-38.451296135376865,-72.54987531858046,309.58073231639054,512.2084964175382,316.1438953624199,801.3750812619382
130,46.679077253609236,-294.53180166264707,-42.61004439497787,-61.952222257415826,348.9261107607574,511.68760275425336,311.5903419820557,831.1071747062455
131,48.25240824368615,-289.21262264370915,-46.1897756692446,-50.81322728174188,389.9109418904629,506.50026633081677,307.02897576959293,858.6546984263966
132,49.19630050240593,-284.07574551745466,-49.15463501771131,-39.273583227392216,431.8220873959612,496.71273699990326,302.55222857960564,883.6451883542009
133,49.4753242733765,-279.2225157590096,-51.479048927182895,-27.450252279524985,473.90125577421884,482.45940942827644,298.24396354891826,905.7448520490096
134,49.06755581906732,-274.7404832119213,-53.148422694506465,-15.433039212047746,515.361876047566,463.9382347450106,294.1767098275439,924.6646876373429
135,47.96516522181938,-270.7005005485457,-54.15961704677444,-3.283410360167119,555.4073286447234,441.40463485025776,290.40929465987347,940.1658969835768
136,46.17464845426528,-267.1544393331589,-54.521158781781864,8.964219632934064,593.2499422550286,415.1641980609336,286.9849906009213,952.0644579155515
137,43.71669960419893,-264.1336471498474,-54.25314561183708,21.298720829709392,628.1301032306513,385.5644805635917,283.93027338658226,960.2347164853792
138,40.6257315191745,-261.6482338026392,-53.3868166441879,33.7262146091296,659.3348006641708,352.9862634437582,281.2542573827293,964.6118680029458
139,36.94906455751305,-259.6872311368031,-51.96377670246278,46.26220623821344,686.2149482449458,317.83461792284345,278.948842427674,965.1932121416703
140,32.745812730308295,-258.21962264948354,-50.034883596742034,58.92250037597051,708.2008814731796,280.5301123268757,276.9895702330821,962.0380895413144
141,28.08550411149977,-257.19619003493233,-47.65883003646489,71.71364361662474,724.8155198561002,241.5004559623628,275.3371524617465,955.2664341830738
142,23.046478241789764,-256.5520788269673,-44.900473105823956,84.62369113039846,735.6847991722098,201.17282146835282,273.9395983382972,945.0559095258518
143,17.714107599899748,-256.2099482135175,-41.82898122010722,97.61406715514869,740.5451077073272,159.96702312765757,272.7348392263378,931.6376402593519
144,12.178893119032994,-256.08354327240426,-38.515879243786124,110.61318782676283,739.2475914782027,118.28965973309906,271.6537229577426,915.2906069438806
145,6.534485142934577,-256.08151230772603,-35.03307612466892,123.51235647841378,731.7593176782669,76.52926307886537,270.6232335894753,896.3348349209825
146,0.8756810447697899,-256.11128757148725,-31.450956258052095,136.164248886846,718.1613966748772,35.0524326568329,269.5697839109415,875.1235745694371
147,-4.703551127218935,-256.08285355223137,-27.83660703944841,148.38410255775705,698.6442576086266,-5.799111809922567,268.4224287764555,852.0347280767768
148,-10.111977072172618,-255.91224190478994,-24.252242473282504,159.9535304223735,673.5003499905895,-45.71066276770412,267.1158567695054,827.4618201278046
149,-15.262887436536914,-255.52461455729195,-20.753868161670635,170.62671037858232,643.1146039010745,-84.39596369244092,265.59303488953725,801.8048310067306
150,-20.075739560066065,-254.85682488568986,-17.39021807879505,180.138567433805,607.9530250807684,-121.59808002247519,263.80740443154065,775.4612089655742
151,-24.477618426398994,-253.85937891737936,-14.20197938532653,188.21446951055086,568.549828979103,-157.0898198555929,261.7245539046905,748.8173560621202
152,-28.40449004934898,-252.4977518428937,-11.22130898381661,194.5809021487823,525.4935304814859,-190.6738057128565,259.3233242744549,722.2408423898676
153,-31.80222512202387,-250.75304746828525,-8.471635169069675,198.97656877990474,479.4124050225312,-222.18227754362627,256.5963308543603,696.0735537347172
154,-34.6273758838905,-248.6220179310622,-5.967729829401796,201.1633762336416,430.95972431332865,-251.4766847409966,253.54991319270067,670.6259234023626
155,-36.847695179991554,-246.11648667621634,-3.7160308642909787,200.93680212091553,380.7991484236921,-278.44710408846555,250.2035480213466,646.1723451318792
156,-38.44239363217304,-243.26223834402802,-1.71518996824142,198.1351942264123,329.59062742583717,-303.0115032125712,246.58877980027748,622.9478134718862
157,-39.40213834310246,-240.09745451814328,0.04318318007634861,192.6476160320443,277.9771313425938,-325.11485629670665,242.74773822248693,601.1457919419987
158,-39.728803978229635,-236.6707845919298,1.5736134432395539,184.4199229852774,226.5724873227582,-344.72811069865253,238.73132248877042,580.9172683061753
159,-39.43499388426536,-233.03914697999528,2.895726676485019,173.4588292196016,175.95055842305223,-361.84699907683375,234.59713872444357,562.3709211831437
160,-38.54335479061252,-229.2653580718424,4.033130777802646,159.8338039978998,126.6359502665642,-376.4906904080431,230.40727999513572,545.5742943860893
161,-37.085713316494356,-225.4156851637651,5.012254121266719,143.67672174721062,79.09638197162232,-388.7002735158852,226.22603830026748,530.5558561805872
162,-35.10206571715208,-221.5574156106755,5.86118441883535,125.17927874102975,33.73680830564616,-398.5370675915896,222.11763503244578,517.3078103594228
163,-32.63945409053715,-217.7565280310279,6.608549386304682,104.58828064127374,-9.104666964835836,-406.08075566619846,218.14405104144635,505.78952319762783
164,-29.7507630151348,-214.0755428072089,7.2824771962358215,82.19899375623176,-49.15908989966383,-411.42733972137705,214.3630298834823,495.93143223141624
165,-26.493470713251686,-210.57161847455555,7.909669811283046,58.34683394600593,-86.22721042103905,-414.6869208323014,210.8263182278148,487.63930652868845
166,-22.928388427752015,-207.29494804574685,8.514616074978258,33.39773599021208,-120.17837151523545,-415.98131461268565,207.57819587423566,480.7987315637693
167,-19.118420463749636,-204.2874951594854,9.118964095490448,7.737599048175568,-150.94784908505042,-415.44152071805576,204.65433461003303,475.27969401321894
168,-15.127374853168034,-201.58209466423858,9.74106424603907,-18.238762586502624,-178.53279304713604,-413.2050743298943,202.0810106080183,470.94114321573426
169,-11.018850666126259,-199.20192660209707,10.395685317160378,-44.13872242898942,-202.98695480088293,-409.41331665770633,199.87467995834504,467.6354085838398
170,-6.855222807570659,-197.1603574451694,11.093897500774801,-69.58256895281883,-224.41441856506646,-404.20863019003787,198.04191215228562,465.212358623536
171,-2.6967391088271713,-195.46112867924006,11.843107860330091,-94.21346205257944,-242.9625814984247,-397.7316924589392,196.57966274074514,463.5231997449178
172,1.399261916352846,-194.09886107887837,12.64722775101962,-117.7062787585763,-258.8146465551137,-390.11880916294797,195.4758546556277,462.42383256318567
173,5.379010749893908,-193.0598337976418,13.506947875597369,-139.7750778405251,-272.181899335392,-381.49939336656803,194.71022838926638,461.7777087767531
174,9.192848207698798,-192.32299106082831,14.42009523835462,-160.1789906894765,-283.29603345298267,-371.99366201982934,194.25541480158319,461.4581603012286
175,12.795658038079406,-191.86112586656083,15.382046743212385,-178.72642488661265,-292.40176765873167,-361.71062397666105,194.07818087872212,461.35020076914634
176,16.147204538542606,-191.6421893924872,16.38617606493685,-195.27754162071565,-299.7499637339015,-350.7464343430539,194.14079801897088,461.3518245188444
177,19.212391501420058,-191.63067617115573,17.424313298218102,-209.74503492057823,-305.5914103337319,-339.1831871572101,194.4024837500248,461.3748472265448
178,21.9614596160004,-191.78903783833636,18.487200435344388,-222.0932975797021,-310.17138888457015,-327.08821080578474,194.82087046528633,461.3453438929936
179,24.37013867493438,-192.07908190248907,19.56492969367664,-232.33610502682131,-313.72508784124153,-314.5139174758504,195.3534583248864,461.2037438092515
180,26.419768727967963,-192.4633163899488,20.64735591125699,-240.53298454437098,-316.47388496626684,-301.4982395314388,195.9590137505259,460.9046395330774
181,28.097400771502553,-192.90620636333398,21.724478326757556,-246.7844639635761,-318.6224765044406,-288.06566299920456,196.5988798858179,460.41635973451224
182,29.39588278249483,-193.37531400279403,22.786790535827297,-251.22641185518606,-320.3567986779912,-274.2288427671764,197.23817074248964,459.72034586196753
183,30.313931270271954,-193.84229974401697,23.82559977997739,-254.02369022336256,-321.84266132858846,-259.99075715291,197.8468260329486,458.81036114694507
184,30.856182691497896,-194.28376734823863,24.833317743553167,-255.36334052653297,-323.2249956080675,-245.34733269776376,198.4005083925227,457.6915482443284
185,31.033213865364957,-194.6819403760508,25.803724769765964,-255.44751502161373,-324.62760676845807,-230.2904449566557,198.88132854128412,456.37933965946183
186,30.861516615994493,-195.02516129745246,26.732208194652138,-254.4863498922095,-326.1533186469067,-214.81117932150914,199.27838698678357,454.8982145014511
187,30.363409537963253,-195.30820753558825,27.6159738426573,-252.69095733772554,-327.8843980274779,-198.9032191864615,199.5881233664249,453.2802880611892
188,29.56686894005392,-195.53242126421168,28.454228029091897,-250.26669370415684,-329.88315474831717,-182.56621846121192,199.81446668017975,451.5637193125338
189,28.505261562823925,-195.70565187468884,29.248325785042788,-247.40684188683127,-332.1926272668776,-165.80901247528203,199.96878161533786,449.7909269932632
190,27.2169637313315,-195.8420118201355,30.001879440717023,-244.28682967612022,-334.83728284991867,-148.65252586631195,200.06960808885066,448.0066174603324
191,25.744855386876363,-195.96144830249932,30.720820303074433,-241.059091839125,-337.8236851609221,-131.13224760528675,200.14219335708478,446.2556457568021
192,24.135682762850834,-196.08913554562886,31.413405275774288,-237.84867258957908,-341.14110760353043,-113.30016100136372,200.21781911100766,444.580753156864
193,22.439289759528215,-196.25469582573032,32.09016027179606,-234.74965645331795,-344.76209604830973,-95.2260393545136,200.33293043502613,443.02024750670006
194,20.70772472426482,-196.49126226910192,32.7637533688224,-231.8225087362234,-348.6430077167123,-76.99804473675758,200.52807951974987,441.60571476461604
195,18.994235903935348,-196.83440240336867,33.44879273577155,-229.09240069382093,-352.7245728900861,-58.72259670897112,200.84670421767908,440.3598692882796
196,17.352174873177262,-197.32092799854084,34.16154706568262,-226.54858737107273,-356.93254199424655,-40.52350789990139,201.3337692493489,439.2946646419686
197,15.833832263247938,-197.9876232684789,34.91958930364185,-224.1448956871513,-361.17849174471775,-22.54041266124959,202.03430542722595,438.4097939419064
198,14.489233781560218,-198.8699295113307,35.74136773248018,-221.80136427353398,-365.36086959919544,-4.926542189498175,202.99188911779783,437.69170709673637
199,13.364926880651954,-200.0006292994173,36.6457117743559,-219.40705290152263,-369.36635488287374,12.154076376627392,204.24710986054626,437.11326027909837
200,12.502789872475127,-201.40857694523632,37.6512827968066,-216.82400720249657,-373.0716068301359,28.529899068974334,205.8360781684199,436.63408988958554
201,11.938896099893014,-203.11752375450553,38.77598243179648,-213.89232431582187,-376.3454539202505,44.02550873339045,207.78902762919506,436.2017694462349
202,11.70246605370657,-205.14508618724736,40.036332383884826,-210.43621898588196,-379.05155538736784,58.465498556251696,210.12906518823988,435.7537647340667
203,11.814940043901515,-207.50190225185253,41.44684063071669,-206.27094047646744,-381.05153564804215,71.67846493662053,212.87112073620324,435.2201529018386
204,12.28920318245812,-210.19101619645767,43.019369494406966,-201.21034220139433,-382.2085575332592,83.50097816668348,216.02114182871796,434.5270187731713
205,13.128992941923585,-213.2075240024021,44.76252133588727,-195.07486217091645,-382.3912632619421,93.78140276156465,219.5755716986706,433.60039083695125
206,14.328517310308461,-216.53850266335266,46.6810576294545,-187.69963699151987,-381.4779759588006,102.38344636405895,223.5211390166643,432.3705345890712
207,15.872308509642272,-220.16323516101096,48.77536698112479,-178.9424483051334,-379.3610219526208,109.18932623684941,227.8349765214545,430.7763858816713
208,17.73533330131973,-224.05373083323923,51.040997262478136,-168.69119026814437,-375.9510074177829,114.10245474810915,232.48507307339048,428.7698844359251
209,19.883375787769474,-228.17552782652274,53.468266344773276,-156.87055094649352,-371.18086407296596,117.04955932884997,237.43105020091167,426.3199593940385
210,22.273701898891424,-232.48875086672868,56.04196484675073,-143.4476194017991,-365.00946944588105,117.98216774334627,242.62524011968165,423.41592571810173
211,24.856006104165687,-236.94938415824535,58.74116281874323,-128.43616298063301,-357.42464964510816,116.8774062137224,248.01402797309777,420.07007301782386
212,27.573630281421465,-241.51070661718973,61.53913036292502,-111.89936431271411,-348.44538876236646,113.7380765233456,253.53940742811093,416.3192673346521
213,30.36503227640115,-246.1248259209026,64.40337993929526,-93.9508625101853,-338.1231005631236,108.59199959036864,259.14068680623365,412.225441156752
214,33.165467965468835,-250.74424019686367,67.2958359104767,-74.75400529481001,-326.54186499472524,101.49063808317382,264.75627384841084,407.87491561939083
215,35.908836643105005,-255.32335263029532,70.17313525128559,-54.519285298740634,-313.81759158649203,92.5070399809186,270.3254621047669,403.3765772901845
216,38.52962690436154,-259.8198654865403,72.98706254324499,-33.500001669826666,-300.09613849793044,81.73317820648644,275.7901414752379,398.8590134337649
217,40.96489040055697,-264.195986132753,75.68512220055972,-11.986254582155162,-285.55048225411264,69.27679687844186,281.0963597227282,394.4667855009266
218,43.156164726686306,-268.41938817841054,78.21125086613735,9.702557483040522,-270.3770912451477,55.257909287571465,286.1956704411739,390.3560814267389
219,45.05126436383793,-272.4638848752182,80.50667252811795,31.226512611526264,-254.79169954664846,39.80512263873886,291.0462150884624,386.690024928635
220,46.60585997830105,-276.30978802293066,82.51089754045894,52.23494181354388,-239.02470300974943,23.05198641628712,295.61350097922383,383.6339291026051
221,47.78477168496415,-279.94394232073483,84.16286368120544,72.37690181209787,-223.3164062897507,5.133572316437304,299.87085221265386,381.35076110357204
222,48.56291161777387,-283.3594412221572,85.40221194368014,91.31201606619088,-207.9123391108876,-13.816507730861025,303.79952541480225,379.997037949496
223,48.92582569100709,-286.55504525201195,86.17068153667344,108.72134215789526,-193.05883520295458,-33.668454077340066,307.38849648036484,379.71930793607106
224,48.869803618322415,-289.5343371870598,86.41359777981152,124.31791647266427,-178.9990307296941,-54.297840585120134,310.6339381410298,380.6512977819834
225,48.401549233650535,-292.30466045636797,86.08141414689607,137.856623496781,-165.969393250415,-75.58626642836414,313.53842117872966,382.9117325679374
226,47.53742844517543,-294.87589759542266,85.131257252337,149.14303584252184,-154.196840101311,-97.42103652194682,316.10988433451445,386.60277168794266
227,46.30233778096652,-297.25915448546823,83.52841317305524,158.04087382193512,-143.89645011163591,-119.69387431439596,318.3604291081144,391.80895415187183
228,44.72826025564027,-299.46542306929143,81.24768724082426,164.47774426526453,-135.2697193987657,-142.29874182508823,320.30500515687737,398.59651305425797
229,42.85259510593474,-301.50429961036366,78.27456893601423,168.44884313239984,-128.50326594149035,-165.12891383026394,321.96005920704357,407.01290329157297
230,40.71636212130006,-303.3828365129481,74.60613943887728,170.01835095156346,-123.76785378203866,-188.07352103256005,323.34222453795843,417.0863898357453
231,38.36238871369702,-305.1046023753315,70.25167124941262,169.31831810289643,-121.217589565611,-211.0138354537194,324.46712840634774,428.82556648546006
232,35.83358792293643,-306.66901659238357,65.23288563024853,166.54492940819375,-120.98914255899473,-233.81961446817618,325.3483905044128,442.218715675624
233,33.171428080063144,-308.0710111311247,59.583852600348685,161.95215202616924,-123.20085230542463,-256.34584247162627,325.99687619774465,457.2329747662272
234,30.41468025954609,-309.30105331075504,53.35053786179044,155.84290180943478,-127.95161169466537,-278.4302069110735,326.4202537754049,473.81333687035914
235,27.598509052211213,-310.3455403452547,46.59001939691355,148.55800311822085,-135.319442901443,-299.89161597741474,326.6228855859123,491.88157642677936
236,24.753947265984742,-311.1875504717019,39.36941164617043,140.46335595004885,-145.35971538940484,-320.53000894060324,326.6060595571768,511.33524194601597
237,21.90776784582731,-311.80790878489296,31.764545786410142,131.93585127371986,-158.10298625157768,-340.12763005815196,326.3685418229112,532.0468908172282
238,19.08273857903891,-312.1865010604506,23.858460219931253,123.34867888488328,-173.5524725099878,-358.45183915631617,325.90740548337476,553.8637449096914
239,16.298218953268147,-312.3037485757623,15.739756450141089,115.05673984149824,-191.68119349932897,-375.2594244050249,325.21906781432574,576.6079164721077
240,13.571035571396893,-312.1421434318249,7.500873133900242,107.38289668337151,-212.42885161781558,-390.3022743595467,324.3004511098245,600.077296219874
241,10.916554114983619,-311.68773843018397,-0.7636734506426089,100.60576195744677,-235.6985546395736,-403.3341653888445,323.15017255294305,624.0471251254619
242,8.349852999425705,-310.9314884204417,-8.95903976424701,94.94963814835349,-261.3535243546061,-414.11833425232504,321.7696667405361,648.2722091315544
243,5.88689742468567,-309.87035056113257,-16.991758964971414,90.57708682335009,-289.213983129849,-422.43543971429347,320.1641504748173,672.4896972706655
244,3.5456130232622285,-308.50806782235645,-24.7713664022395,87.58443561758081,-319.05445603915325,-428.09147672714926,318.3433521780936,696.4223318086604
245,1.3467657368668577,-306.8555815136625,-32.21191927212586,86.0003469610837,-350.6017617540319,-430.92519589042496,316.32194624935227,719.7820869882144
246,-0.6854316423963089,-304.9310426093391,-39.233387276108836,85.78739108596399,-383.53398031523824,-430.81460164904047,314.11965400773437,742.2741302065964
247,-2.523046721775785,-302.7594162466684,-45.76289508265708,86.84640353506829,-417.480673788559,-427.6821539887156,311.76099571803104,763.6010577702042
248,-4.134526103634887,-300.3716974928903,-51.73580138682922,89.0232739409676,-452.0245962598461,-421.49837594049364,309.27470101102995,783.4673726338331
249,-5.485177908572572,-297.80377827221196,-57.09660339653992,92.11771159735036,-486.7050678759569,-412.2836665164041,306.6928065611731,801.5841826393099
250,-6.538025443296588,-295.095024445315,-61.799659236788955,95.89346289038497,-521.0231120498248,-400.1082283351093,304.0494891130824,817.6741044092992
251,-7.254995068636906,-292.2866377953856,-65.80972364114349,100.08941302535145,-554.4483739592994,-385.0901335510013,301.37969793116014,831.4763592349965
252,-7.5983798344049855,-289.4198896405782,-69.10229442573616,104.43098798489459,-586.4277581817171,-367.391663084325,298.71766285197623,842.7520410094838
253,-7.532502895799039,-286.53432076029014,-71.66376903623448,108.64128272120841,-616.3956463270935,-347.2141547424334,296.09536212300867,851.2895199907384
254,-7.025492190342073,-283.66600612916966,-73.49141222989049,112.45137953548499,-643.7854813246124,-324.7916779839412,293.5410380382618,856.9099178962024
255,-6.051071259071909,-280.84598217375054,-74.59313759938142,115.60938675330019,-668.0424316445299,-300.3839101356224,291.07784775100487,859.4725491768163
256,-4.590270917928756,-278.09892817839335,-74.98710691528834,117.88782037650694,-688.6367754857008,-274.2686161712591,288.7227310471913,858.8801728583544
257,-2.632972389115806,-275.44218128043195,-74.70115222213236,119.08906658568496,-705.0775747362361,-246.73413013963562,286.48556582641237,855.0838454861498
258,-0.17920343893318436,-272.885145771701,-73.77202681519073,119.04879556921314,-716.9261486953043,-218.07220311705535,284.36866550339005,848.0871184480682
259,2.759876388339989,-270.42913272313996,-72.24449353236791,117.63734025195913,-723.8088184774464,-188.57152543131912,282.3666513496904,837.949293447327
260,6.1613489217487665,-268.06763737596793,-70.17026300572918,114.75919697175719,-725.4283847094757,-158.5121567686203,280.4667089416854,824.7874466494266
261,9.990299859511415,-265.7870326821381,-67.60680071008821,110.350934959729,-721.5738296912259,-128.1610140055017,278.6492140874087,808.7769580810219
262,14.199986150448868,-263.5676312954371,-64.6160288890118,104.37790201491642,-712.1278008033286,-97.76848070459836,276.88869233749875,790.1503360502073
263,18.732409734133533,-261.38504759434727,-61.262956208990424,96.83017261288265,-697.0715289129204,-67.56612135642268,275.15505895890215,769.1942015589564
264,23.519286119688672,-259.2117769736359,-57.614272931027294,87.71819660372013,-676.4869539349024,-37.76541363974642,273.41507363605507,746.2443885335782
265,28.48338406078663,-257.0189017056839,-53.73695177151582,77.06857456546541,-650.5559578059424,-8.55735762852468,271.6339361620004,721.6792150761465
266,33.54020086992145,-254.7778306348314,-49.69689440626578,64.92031904870605,-619.5567318176008,19.88721504725623,269.7769457193346,695.9110811978651
267,38.59992649795616,-252.46198309603065,-45.557661158138934,51.32187158039809,-583.8574220096859,47.41682532429401,267.8111466464553,669.3766423676876
268,43.569638448732256,-250.0483350024667,-41.37931734986042,36.32904526513774,-543.9072980803431,73.89821496636944,265.70688743430924,642.5258898666767
269,48.35565943815694,-247.51875629980216,-37.21742457724556,20.003961908636754,-500.22577606241174,99.21507210432938,263.439226660291,615.810534369942
270,52.8660013678791,-244.8610831084202,-33.12219911058273,2.4149583168945368,-453.3896926411489,123.26675871273186,260.9891290791541,589.6721355807433
271,57.01281364281152,-242.06988390723063,-29.137853059486762,-16.362645401903873,-404.01927940188216,145.96715005126177,258.34440649243265,564.5304454853883
272,60.71475179086976,-239.146896060949,-25.302127198542927,-36.24508766402327,-352.76331770918335,167.24365933974204,255.50037064844375,540.7724329736933
273,63.89918399346876,-236.10112592139387,-21.646017834809687,-57.13823461736601,-300.28396801687757,187.0364852150743,252.46017868951395,518.7424306530189
274,66.5041584793491,-232.94862181375976,-18.193694032546468,-78.93541801673067,-247.2417602376157,205.29808713016217,249.23486504962193,498.73378996300613
275,68.48006357998916,-229.7119437921619,-14.962595886920695,-101.5152866112053,-194.28120455542242,221.99286633315347,245.84306680336854,480.98235072713294
276,69.790924151632,-226.41936657617117,-11.963699294610537,-124.73990123181076,-142.0174363787521,237.0970084128623,242.3104618615287,465.6619326711289
277,70.41529226522202,-223.10386198702935,-9.201927918119988,-148.4532743145245,-91.02424797473599,250.59842826602008,238.6689504916792,452.881949304526
278,70.34670556840884,-219.8019139584042,-6.6766890435765,-172.48051429329954,-41.82378671733585,262.4967500032929,234.9556196990535,442.68714012750496
279,69.59370258915128,-216.55222265194476,-4.3825069816147595,-196.62768824271328,5.121879460342593,272.80325241949043,231.2115365912745,435.0593244391389
280,68.17939981095446,-213.39435467915686,-2.3097256416992624,-220.68246653310578,49.41720989180792,281.54071417757774,227.48042099265624,429.921003875174
281,66.14065033007783,-210.36739445103902,-0.4452510774791307,-244.41556541078972,90.73761076185647,288.74310046879486,223.80724960760273,427.1405822211778
282,63.52681826482989,-207.50864782242436,1.2266946104521508,-267.58296155268107,128.83185580180867,294.4550435782699,220.23684440704207,426.5389294036048
283,60.39821664309423,-204.8524440010049,2.723834561894235,-289.92882018759786,163.52259834832014,298.7310829779542,216.81249694649176,427.89699118293265
284,56.82426866925696,-202.42907547040173,4.065136913452802,-311.189056859081,194.70511451048824,301.63464596686276,213.57467796740303,430.9641362631428
285,52.88146215858934,-200.26390849410183,5.270172333462368,-331.0954410390957,222.34445510862207,303.2367669294416,210.55987748904653,435.46693661731246
286,48.65117356686739,-198.37668857358318,6.3585445112122,-349.3801436728444,246.47121116806514,303.61456094731784,207.7996142184257,441.1180915663631
287,44.217440821025825,-196.7810560915543,7.349404807386488,-365.78062554290415,267.1761153502387,302.84948435785265,205.31964437683584,447.6252273511869
288,39.66476310711247,-195.48427773716205,8.261058360666997,-380.0447557771066,284.6037111308806,301.02542956161835,203.13938955663772,454.6993280209695
289,35.07600142634818,-194.48719007965158,9.110664688384267,-391.93603955114037,298.9453239114883,298.226713119775,201.2715922294787,462.0625787072651
290,30.530446593431407,-193.7843436860237,9.91403108590446,-401.23882343936316,310.43156440572653,294.53602468835606,199.72219725906643,469.4554290061676
291,26.102111624936988,-193.36432979344048,10.68549240313192,-407.76333938362103,319.32458528789215,290.032409633174,198.49044884785073,476.6427134510453
292,21.85829331732304,-193.21026665297785,11.437866830657255,-411.35044639822985,325.9102979879721,284.7893603447343,197.56918490713593,483.418698784624
293,17.858433775220824,-193.3004191840364,12.182474691419717,-411.87593351188065,330.4907384709956,278.8730904036267,196.9453050148603,489.610963663199
294,14.153297674036077,-193.6089236422031,12.929206016977231,-409.2542572399081,333.3767495212504,272.3410618911434,196.60038418082374,495.0830542973742
295,10.78446622399464,-194.10658873416838,13.686622758927244,-403.44160102547494,334.8811228910142,265.240829340796,196.51140275579644,499.73589783803203
296,7.78413506369898,-194.76174590568525,14.462082693011231,-394.4381618852863,335.31231797270584,257.609254112129,196.6515628834557,503.5079927285541
297,5.175191256054595,-195.54112404476106,15.261874256046378,-382.2895902246233,334.96884491919167,249.47213047351624,196.99116352605427,506.37443053703083
298,2.971534586769858,-196.41072719217078,16.091354378167914,-367.087531189408,334.1343703293766,240.84424994143887,197.49850884321714,508.3448356706679
299,1.1786008306681914,-197.33669767466836,16.955084300010633,-348.969238337491,333.073574103655,231.72991448977237,198.14082812882273,509.4603366823478
300,-0.20596010323897393,-198.28615093740785,17.856960904291007,-328.1162514689657,332.02875836379667,222.12389329991043,198.88518911752814,509.78970487235546
301,-1.1914999734860368,-199.22797171145405,18.800343024475584,-304.75214969310923,331.2171848095184,212.012802544159,199.69938970883314,509.424812478762
302,-1.7935294954729322,-200.13356357546868,19.78817352955728,-279.13940868395997,330.82909665984477,201.3768734739624,200.55281561150946,508.4755743977973
303,-2.032860682996996,-200.9775453109921,20.823098696035274,-251.5754084166978,331.0263661588256,190.192060744543,201.41725294671272,507.06454473731065
304,-1.9347717598826284,-201.73838777964318,21.907586282569817,-222.38765508695946,331.9416989159218,178.43243050867105,202.2676455010405,505.3213431167006
305,-1.5282247157614792,-202.39898450980084,23.044042708305597,-191.92829856274562,333.67832220611035,166.0727566988139,203.08278618267286,503.3770858117178
306,-0.8451572319456939,-202.9471479486748,24.234927971347386,-160.56804446794112,336.3100855465338,153.09124463553314,203.84593145568718,501.358993748096
307,0.08013823597757667,-203.3760216586226,25.482864770790915,-128.6895775766665,339.88190773086393,139.4722943130235,204.54532634747832,499.3853429450179
308,1.2115446353304802,-203.6843969278692,26.790736039829078,-96.68063025020183,344.410513995444,125.20921207504472,205.17462633912905,497.56091311817863
309,2.5115651154160386,-203.8769206689878,28.161762998218993,-64.9268457150613,349.88541891494503,110.30677924432375,205.7332013591385,495.97307647705634
310,3.9416957786614635,-203.96418044748702,29.599554076775714,-33.80460051234524,356.27012376722183,94.78358937413664,206.22630650509817,494.6886508962828
311,5.462745976663527,-203.96265244167606,31.108113915562885,-3.673962796226067,363.5035102537671,78.6740715515703,206.6651044133707,493.7516192286755
312,7.0351297972029245,-203.89449959491586,32.69180146725267,25.128027562820293,371.5014244479257,62.03012509744733,207.06652592632994,493.1817894517139
313,8.619154054167787,-203.78721059034677,34.35522734613178,52.29356630341013,380.1584546498678,44.92230084576148,207.45295934396395,492.97443899542736
314,10.175327485452279,-203.67307558778813,36.10308298059819,77.54959049103188,389.3499136506651,27.440475807208788,207.85176417788367,493.10095205368003
315,11.664713275451488,-203.5885014804252,37.93989765519466,100.66240438509625,398.9340391760113,9.693981322022276,208.29461254395545,493.5104228389062
316,13.049342756211367,-203.5731770334827,39.869723869512654,121.4412693284102,408.7544256645112,-8.188840154170821,208.81666941045478,494.13216329754033
317,14.29270245625165,-203.66910592946,41.89575619469333,139.74083595356007,418.64269598919606,-26.061657571730443,209.45563109075044,494.8790236305689
318,15.360299858798284,-203.9195328813866,44.0198934297933,155.46234246252695,428.42141357566493,-43.76174246574453,210.25064895777442,495.6514100437205
319,16.220305740029495,-204.36779408297966,46.24225781767302,168.55355535209944,437.9072243702061,-61.1120987538415,211.24117175312483,496.34186673864366
320,16.84426323105304,-205.05612780779794,48.56068812516574,179.00748292317394,446.914205397653,-77.9240822787846,212.46574448388725,496.8400768292849
321,17.207846087369653,-206.02448347926654,50.97022558795507,186.85994116105573,455.25738342839577,-94.00044416949844,213.96080429977965,497.03812747331324
322,17.2916413101555,-207.30936786029207,53.4626131836118,192.1860915055669,462.7563744970662,-109.13871751464345,215.75951381084846,496.8358763061842
323,17.08192463968424,-208.94276537534589,56.02582947877813,195.09609842436092,469.23908329663305,-123.13485494849137,217.89067028968236,496.14624863003945
324,16.571392058612016,-210.95116631366133,58.6436785414918,195.7300717697606,474.545391279526,-135.7870155484854,220.37772550153704,494.90028834612184
325,15.75980682477221,-213.35473200534977,61.29545737545547,194.25246688181224,478.5307541070076,-146.89939286629917,223.23794587490676,493.05178183998163
326,14.654520154637652,-216.1666202175531,63.955722125283394,190.84611786421897,481.06962332910825,-156.28597191166244,226.4817366685979,490.58127479855153
327,13.270824836037404,-219.39248735638614,66.59417371717359,185.70608019683644,482.0586041460354,-163.77410173654013,230.11214709934697,487.4993089396672
328,11.632104872765634,-223.03017714847425,69.17568233361342,179.03346067340723,481.4192610191386,-169.20777269993638,234.12456659482936,483.8487200496254
329,9.769750597110551,-227.0695988117573,71.66046802867243,171.02941666107964,479.1004860527346,-172.45049466502343,238.50661589220712,479.7058611413772
330,7.722817198144591,-231.49279147284258,74.00445186047772,161.88951224290642,475.0803518557729,-173.38768535082363,243.23823074461566,475.1806449711262
331,5.537414917076631,-236.27416569455687,76.15978808161256,151.7986240496826,469.367381437496,-171.92849738046647,248.2919304047503,470.415338033012
332,3.265830853161868,-241.38090757286514,78.07558301679445,140.9265917950204,462.0011829396768,-168.00703800305808,253.63325783026272,465.5820824170128
333,0.9653949649638205,-246.77352643146688,79.69880011255617,129.42480426684818,453.0524168724132,-161.58296592478297,259.22137403278407,460.87917106141504
334,-1.3028840884897006,-252.40652421751682,80.9753432480952,117.42389683201328,442.622087993192,-152.64148330683858,265.0097855767983,456.5261541953178
335,-3.4758748446950545,-258.22916342897304,81.85130199291895,105.03270751646224,430.84018257380905,-141.1927753668674,270.94718201714323,452.75790827343394
336,-5.490020636242152,-264.1863104833763,82.2743336283044,92.33859275507491,417.86370315220313,-127.27098254831135,276.97835878463246,449.81785136928863
337,-7.283119321862814,-270.2193324666266,82.19514810203766,79.4091405290439,403.8741842278001,-110.93281843784976,283.04520040706973,447.9505380531129
338,-8.796118920432269,-276.2670269854251,81.56905424769609,66.2952402080246,389.07479955518073,-92.25596839397002,289.087698965677,447.3939082423815
339,-9.974859756367088,-282.26656738786704,80.35751893022601,53.0353801028663,373.68718970875403,-71.33741742871406,295.0449835254279,448.3714930688072
340,-10.771694562130449,-288.1544488859084,78.52968543942573,39.66095269606476,357.94814278768854,-48.29185976777639,300.8563381138848,451.08489061565615
341,-11.146923152453144,-293.8674249127284,76.06379355313204,26.202261954551755,342.1062485586564,-23.25033545652182,306.462188667678,455.7068106329403
342,-11.069987797865242,-299.34342705893965,72.94844148328866,12.694855044649064,326.41861668284054,3.640779520006919,311.8050431142728,462.3749482876893
343,-10.520388784595495,-304.52246583844396,69.18362992451756,-0.8142511010584644,311.14770565246215,32.220334198282586,316.8303732795797,471.1868858549145
344,-9.488295718653353,-309.34751296587257,64.78153138882129,-14.260904647707646,296.55825625355817,62.31246192201624,321.4874323362718,482.19614666025524
345,-7.974847225148771,-313.7653681566661,59.76693459501349,-27.559169876169054,282.9142695770666,93.72613760361925,325.730006359667,495.4094497309909
346,-5.992147909733877,-317.7275138609366,54.1773241558291,-40.59811745644039,270.47592375692017,126.25429148077107,329.5171022126649,510.7851485773185
347,-3.562985118794407,-321.1909591808001,48.06256999304207,-53.24041463698876,259.49629441288096,159.67259849052024,332.8135755261967,528.2327921933546
348,-0.7202980794042894,-324.11906940167205,41.48421832993642,-65.32298288983871,250.2177380537838,193.73811887750034,335.59070159989915,547.6137251878787
349,2.4935619497020642,-326.48237057244756,34.514395992205735,-76.65986805926738,242.8678187535956,228.18801163219456,337.82668882049427,568.7426468915918
350,6.027739689817065,-328.25931032814617,27.23436084032817,-87.04731942221369,237.654704700126,262.73857179255396,339.5071292525962,591.3900717581685
351,9.823912453399254,-329.4369478699547,19.73275157538223,-96.27090563494131,234.76202612757973,297.08485106296547,340.62537513068867,615.2856659678272
352,13.81741980997701,-330.01153895013704,12.103607583511003,-104.11431828296435,234.34325950925245,330.9011065794025,341.18282386395697,640.1224638892763
353,17.938456495645376,-329.9889768502967,4.444241621423019,-110.36934423911377,236.5157739641504,363.8422857069891,341.18908866835136,665.561976804153
354,22.11330527312221,-329.38504820306116,-3.146946783736181,-114.84634751691867,241.35473663370874,395.5466987072112,340.66202782830396,691.2401827621467
355,26.26559339228014,-328.22546308806363,-10.572632168773195,-117.38451200468334,248.88712129578533,425.6399607792686,339.62760348602507,716.7743307214564
356,30.317563536063528,-326.54562190045715,-17.738623291368352,-117.86107608828112,259.0861006057696,453.7402056042413,338.11954120545863,741.7704209438854
357,34.19135689445767,-324.39008704611655,-24.555763086449865,-116.19884703668578,271.86613106220494,479.46448897989694,336.17876473425906,765.8311631493658
358,37.810310679317126,-321.8117360512928,-30.941626588692674,-112.37141369072624,287.07906248019435,502.43621804500765,333.85258681467167,788.5641846317693
359,41.10027340065675,-318.87058489492625,-36.82199211229808,-106.40566593170905,304.5116156999941,522.2933638964606,331.1936469670221,809.590266178357
360,43.99093805045515,-315.63228660419725,-42.13207543394603,-98.38145623584346,323.88456320641217,538.6971486380429,328.25860093292437,828.5514125838628
361,46.41718668565353,-312.1663299208355,-46.817527384698245,-88.4284767317539,344.8539063981456,551.340847763535,325.10658333859635,845.1185991005881
362,48.320431167016544,-308.5439848761653,-50.835201821888056,-76.72065011043313,367.0142649815279,559.9583201683946,321.79748389570983,858.9990604574458
363,49.64992556275961,-304.83606449996,-54.15370358164581,-63.46852403371702,389.90458179460836,564.3318741424418,318.3900963033008,869.9429973417824
364,50.36401729870615,-301.11059219610667,-56.75372510311799,-48.91030081515229,413.0161118473099,564.2990994036174,314.9402156433042,877.7495662999482
365,50.4312972635424,-297.4304799369678,-58.62817670708776,-33.3022161870107,435.80252354958157,559.7583417426471,311.49877200838546,882.2719994583235
366,49.831603974688214,-293.8513312977666,-59.782110218842455,-16.908996501762523,457.69180929475084,550.6725658353342,308.1100935147268,883.4216819596152
367,48.556833956500206,-290.4194844752935,-60.23243034609908,0.0049282312965365505,478.09959498739516,537.0714390445593,304.8103901285995,881.1710107265827
368,46.61151066550604,-287.1704037260584,-60.00738470739789,17.182891692761057,496.4433620860631,519.0515677860611,301.6265414443484,875.5548775984403
369,44.01306876038114,-284.12751346834796,-59.14582321282938,34.38173763329807,512.1570544027527,496.77491914013757,298.57525787844844,866.6706648575323
370,40.79181974267368,-281.3015481643389,-57.69622161260635,51.37563685515271,524.7055339366655,470.46555402721833,295.6626669693894,854.676705562892
371,36.99057844564007,-278.6904639215349,-55.71547265772511,67.95796860964487,533.5983708488269,440.40487594337753,292.88435575554075,839.7892337420486
372,32.663946067848364,-276.2799261173254,-53.26746086201795,83.94145014853649,538.4024957880185,406.92565523578935,290.2258776045733,822.2779178439168
373,27.877262430640165,-274.04435373272526,-50.42145185103379,99.15685542299002,538.7533010456141,370.4051207592566,287.6637084306155,802.4601245688466
374,22.7052559489845,-271.9484685556374,-47.250342378919605,113.45077171770588,534.3638441785471,331.25741915385555,285.16661404421785,780.6940941055273
375,17.230433188919207,-269.9492689506722,-43.82882951119603,126.68289112712908,525.0318795454141,289.9257297689385,282.6973686409204,757.3712235788283
376,11.541260327644457,-267.9983256678238,-40.23156497213738,138.7233210857818,510.64451779366,246.8742944202419,280.21474550420254,732.907660416443
377,5.730196133342531,-266.04428228248435,-36.53136224533772,149.45033280065678,491.1803906443258,202.58058032218713,277.67568623315196,707.7354102778487
378,-0.10835994204959605,-264.0354355292393,-32.79751990804787,158.7488634583591,466.7092788866933,157.52774691495605,275.03754527632026,682.2931713110075
379,-5.880140352319909,-261.92227069019896,-29.09431596777488,166.50996560793752,437.3892453354783,112.19753855863144,272.2603029063559,657.0171190597026
380,-11.493040887091404,-259.6598337959788,-25.479716324697222,172.63127230235156,403.46140028741354,67.0636805328926,269.3086422616971,632.3318812732385
381,-16.859053595894324,-257.2098350313233,-22.00432775322599,177.01843255447469,365.2425116549281,22.58581947947007,266.153794569526,608.6419536877889
382,-21.896049613340264,-254.54239546354884,-18.710613568514184,179.58737639331298,323.11575081929993,-20.795976665050645,262.77507049256786,586.323810425442
383,-26.529366893882514,-251.63737067420604,-15.632379473853902,180.26719595889398,277.5199330416376,-62.666160207408375,259.161013513456,565.7189505759414
384,-30.69316533949086,-248.4852084337549,-12.794528386563046,179.00337986090938,228.93766324522306,-102.638095245953,255.31013185053035,547.1280923499895
385,-34.331520176517444,-245.08732164938118,-10.213076106233178,175.7611124146629,177.88283086462215,-140.3579092138724,251.2311870880086,530.8066775812018
386,-37.39923353148416,-241.45598117480017,-7.895413933810819,170.52834605271298,124.88790968279716,-175.50781205223728,246.94303927170958,516.9617854746084
387,-39.862353716477124,-237.6137546325874,-5.8407992019600075,163.31837141497093,70.49150987190248,-207.80888666523578,242.47406861768172,505.75048155041515
388,-41.698401439012585,-233.59253616115825,-4.041049801964667,154.17164187991762,15.226600423715281,-237.0233505091795,237.861212181446,497.27955395865234
389,-42.89631151261907,-229.43222718750698,-2.4814140863785075,143.1566546369784,-40.39022755533962,-262.9562856507501,233.14866898751254,491.606523574749
390,-43.45610718494373,-225.17913961669444,-1.141583130330272,130.36974653669634,-95.86814952412075,-285.4568335618992,228.38633878724556,488.7417637612067
391,-43.38833169012585,-220.884200244326,0.0031913554142967843,115.93372757045341,-150.74991540920206,-304.418850740703,223.6280677367354,488.6515339434888
392,-42.71326798999538,-216.60103889460802,0.9809126605582805,99.99534493531944,-204.61792408231713,-319.7810212016569,218.9297789450431,491.26171751288166
393,-41.45998269203559,-212.3840429921347,1.8216284418735087,82.72164252045272,-257.098492116091,-331.526421558905,214.34756715082173,496.4620553750389
394,-39.665233490830154,-208.28645830028626,2.5562334406388145,64.29535011732995,-307.86432049196173,-339.6815341765918,209.9358349081876,504.1106770974372
395,-37.372280962212855,-204.3586097548325,3.215323176494969,44.90949939896656,-356.6352313875678,-344.3147048203131,205.74554284513547,514.0387482183276
396,-34.62964524156327,-200.64630803508294,3.8281328769187346,24.761515689206867,-403.1773066092865,-345.534044909796,201.8226391164677,526.0550726095067
397,-31.489846398879855,-197.18949704600107,4.421591285480599,4.047072166460618,-447.30060940511606,-343.4847859741561,198.2067234300287,539.9505120436066
398,-28.008164571923952,-194.02118510122685,5.019513463754752,-17.045986529068802,-488.8557126131905,-338.3461054364127,194.92998926766595,555.5021112725065
399,-24.241452342686962,-191.1666886840903,5.641950640454599,-38.34334308300424,-527.7292886029779,-330.32745765346243,192.01647452535437,572.4768460367937
400,-20.247027480094793,-188.64320285773536,6.30470873696453,-59.6892384168836,-563.8390399191046,-319.6644609713319,189.4816363749644,590.6349431698204
401,-16.081669074688122,-186.45969753147008,7.019040500325007,-80.95057986012525,-597.1282629378396,-306.6144089692082,187.3322515269342,609.7327551947939
402,-11.800734456401837,-184.61712475460627,7.791509536733479,-102.01992174103258,-627.5603388604494,-291.4514903126279,185.56662913061058,629.5252044196347
403,-7.457408395404071,-183.10890984872935,8.624018531535821,-122.81717475564942,-655.1134359767101,-274.4618148096254,184.17511113707454,649.767840878243
404,-3.102090125793272,-181.92168921743888,9.513989050968883,-143.289969276082,-679.7756842254365,-255.93835192621052,183.14082480385468,670.218582303014
405,1.2180822573058996,-181.0362504747347,10.45467675408286,-163.41267044765132,-701.5410486930099,-236.17589175680592,182.44064457417292,690.6392213489954
406,5.459576440408872,-180.4286260529156,11.4356035669046,-183.18411542464352,-720.4060847663791,-215.46613780119435,182.04631580954,710.7967949460414
407,9.58269162120906,-180.07128934680546,12.443087175644617,-202.62421083388048,-736.3677064582242,-194.093036868403,181.92569048021022,730.4649124061931
408,13.551682034709431,-179.93440237789017,13.460847761239098,-221.76958678310348,-749.4220430087692,-172.32844501239495,182.0440245664355,749.4251319694794
409,17.33479794849084,-179.98706571928957,14.470671911659965,-240.66854840172948,-759.5643990380589,-150.4282203108759,182.3652883573815,767.4684591972427
410,20.904264730294965,-180.19852492912983,15.453113898551047,-259.3755946681592,-766.7902722721401,-128.62882374547493,182.8534439449901,784.3970154220127
411,24.236219751985672,-180.53929289797435,16.38821489792323,-277.94578686909017,-771.0973229318016,-107.14449819921742,183.4736489007574,800.0258924232486
412,27.310624814141587,-180.98215405003432,17.256221328064516,-296.4292467246616,-772.4881338011479,-86.1650822497324,184.19335114424305,814.1851742402927
413,30.111168862103757,-181.5030237363574,18.0382844604013,-314.866048862882,-770.9735536671076,-65.85449971793963,184.98324688700342,826.7220728756635
414,32.625172275858255,-182.0816438014711,18.71712495315948,-333.2817457141954,-766.5763827519423,-46.34994787592726,185.81808067399948,837.5030956140563
415,34.84350019380526,-182.7021027122195,19.277647830949146,-351.6837265842774,-759.3351395142527,-27.761787300549475,186.67727347416854,846.4161408314349
416,36.760488415610865,-183.3531756322613,19.707495397269398,-370.0585682541507,-749.3076450878152,-10.174115402714085,187.5453713119261,853.3724082431196
417,38.37388165477519,-184.02848643890786,19.997527408866677,-388.37048377893785,-736.5741746599424,6.35401537165549,188.41231312082058,858.3080089187526
418,39.68478053257191,-184.72649985049694,20.142219492985426,-406.5609210056589,-721.2399530048451,21.786793784321524,189.27352231353336,861.1851691024591
419,40.69759098626945,-185.4503572268921,20.139972287025813,-424.549304041045,-703.436811857391,36.10933775584904,190.1298317224757,861.9929377365382
420,41.41996792574045,-186.20757373715514,19.993325256904853,-442.2348504240377,-683.3238767442035,49.32496649825621,190.98725566235532,860.7473275947794
421,41.86274412536157,-187.0096170839401,19.709070781947304,-459.4993355234239,-661.0872067724025,61.45216087982097,191.856625594273,857.4908409294475
422,42.03983543332928,-187.8713887424538,19.29826599994494,-476.21061679405415,-636.938369139315,72.52132377511512,192.75310716287882,852.291350074797
423,41.968114236362766,-188.81062792086013,18.776142104613506,-492.22667947072824,-611.1119873811232,82.57145607138231,193.69561641258156,845.2403206108443
424,41.66724450982829,-189.8472565665509,18.1619131478824,-507.39992940168736,-583.8623554461637,91.64686422655087,194.7061520781929,836.4503804703758
425,41.159473484623966,-191.00268113743843,17.478488566763808,-521.5814454424645,-555.459255521843,99.79401166257975,195.80905928024944,826.0522554028057
426,40.469376730234686,-192.29906392084845,16.752095201144392,-534.624918425435,-526.1831534114858,107.05861860476615,197.0302379890935,814.1911129253616
427,39.62355507770384,-193.75857389691444,16.011815396825828,-546.3900476544362,-496.3199690934126,113.48310331006661,198.3963076406899,801.0223862884945
428,38.65028322358732,-195.4026251778492,15.289048310580919,-556.7452360182486,-466.15563094600094,119.1044425143434,199.93373795559614,786.7071881226409
429,37.579111144819315,-197.25111063237543,14.616902343872075,-565.5695136020574,-435.970620347984,123.95251121871686,201.66795610874885,771.4074682854679
430,36.44042069749066,-199.3216398335169,14.029528032812836,-572.7537162307158,-406.0347006349965,128.04894244980167,203.62244236799233,755.2811167735779
431,35.26494106172659,-201.62879378073018,13.561402560818694,-578.2010374101673,-376.6020034627647,131.40652701430525,205.81783000232667,738.4772531006157
432,34.08322823371983,-204.18341329952653,13.246578879560152,-581.8271479250537,-347.90661979060906,134.02915205716798,208.27103002297838,721.1319705536855
433,32.92511575007223,-206.99194272905297,13.117913753442386,-583.5601274341209,-320.1588150499725,135.91225591281702,210.99440629730668,703.364810671416
434,31.819146235666217,-210.05585448430764,13.206289631521566,-583.3404708646416,-293.54196082727077,137.04375582874778,213.99503078409683,685.276226054958
435,30.79199600072259,-213.37118237889163,13.539845084666885,-581.1214176125557,-268.2102495976952,137.40538536131294,217.27405112147127,666.946247366332
436,29.86790763829825,-216.92819156847048,14.143227711821162,-576.8698060748712,-244.28723451309907,136.974360680462,220.82620290616595,648.434505396839
437,29.068148362696373,-220.7112104599731,15.03688203198507,-570.5675858736467,-221.86521176469867,135.72528101147392,224.63949658059266,629.7816761951719
438,28.41051452038429,-224.69864515807876,16.236383192888752,-562.2140336288669,-201.0054368700508,133.63215918551788,228.69510410860374,611.0123229285388
439,27.90890475851153,-228.86319038775764,17.751825836483796,-551.8286248286868,-181.73913700443964,130.67047446663582,232.9674639072866,592.1390100543383
440,27.57298496214111,-233.17224282472216,19.587276698203727,-539.45442377264,-164.06924928344816,126.81914162585687,237.4246142134177,573.167471813172
441,27.407966620829306,-237.58851401257266,21.74029971680302,-525.1617742905897,-147.97278194721304,122.06229742516102,242.02875578713932,554.1025362860078
442,27.41451649269297,-242.07083125432393,24.201563496024303,-509.05201277477835,-133.40366602306335,116.39081780996592,246.7370353290919,534.9544455218786
443,27.588809404284596,-246.57510660207825,26.95454273477752,-491.2608864730751,-120.29594464380423,109.80349560215603,251.5025318574538,515.7451767126834
444,27.92272813530249,-251.05544659561025,29.975327644655728,-471.9613458037807,-108.56714055731035,102.30782866440478,256.27541991293555,496.5143614816991
445,28.40420517037791,-255.4653687340442,33.23255809698155,-451.36538894226766,-98.1216518668527,93.9203916010345,261.0042758845564,477.3244194287872
446,29.01769143484422,-259.7590847926073,36.687501445616014,-429.72466738381456,-88.85405041615142,84.66678913503112,265.6374869066227,458.2645646350965
447,29.744727961236705,-263.89280616998593,40.29429346747946,-407.32960893874747,-80.6521913859738,74.58121518238197,270.12471571583177,439.45340437101044
448,30.56458888742825,-267.8260227496821,44.00035965857686,-384.50687629965813,-73.40007892926502,63.7056668459344,274.41836981443083,421.039921856379
449,31.454959313913154,-271.52270452654295,47.747028804719264,-361.6150526882632,-66.98046314708299,52.088885231653975,278.4750195857847,403.20271490046474
450,32.392610057645555,-274.95237469226225,51.470342594504565,-339.0385298677771,-61.27716291554009,39.785113111306394,282.25670802555993,386.14744686615387
451,33.354033408922206,-278.0910042695043,55.102055040425434,-317.17966672672856,-56.17711573426745,26.85277114203957,285.73209494348646,370.1025542684223
452,34.31600923549867,-280.9216820559994,58.570805078091254,-296.449386224022,-51.572152932603515,13.353158266456681,288.87738131141487,355.3133448508677
453,35.25607843994657,-283.4350198070428,61.80343634229217,-277.2564801246269,-47.360492088023115,-0.6507225596455914,291.67696517275783,342.03470791413815
454,36.152910020242345,-285.62926133520045,64.72643070820266,-259.9959876853685,-43.447934609580074,-15.095124904364782,294.12378929228055,330.52273945347946
455,36.986557907238755,-287.5100755348415,67.2674171238682,-245.03709769749264,-39.74875950846576,-29.916237375109592,296.2193524716031,321.0256511967451
456,37.73861337231203,-289.09002705053297,69.35671458622855,-232.71108447695016,-36.186315746785425,-45.050537643249214,297.9733709057561,313.7743779177813
457,38.392267215264276,-290.38773384937343,70.92886766765236,-223.29982069252745,-32.69333348073438,-60.434808611924346,299.4030924656652,308.973316394969
458,38.93230249815568,-291.42673740046814,71.92413443293809,-217.02540943099677,-29.211995108698638,-76.0058329313498,300.5322843552002,306.7916205387723
459,39.34504281236029,-292.2341273699749,72.28988939327601,-214.0414439895382,-25.69382562971374,-91.6998093049579,301.3899319931791,307.3554434035913
460,39.61828261890718,-292.83897754690935,71.98190777998626,-214.42633909414116,-22.099474254560278,-107.45155650401865,302.00870297150834,310.7414650800349
461,39.74122501659429,-293.2706620649192,70.96550135991725,-218.1790869202488,-18.398462726086652,-123.19358690903312,302.42324341193324,316.9719847499749
462,39.70444866825837,-293.55713001208983,69.21647973497343,-225.21768293678835,-14.568969431041666,-138.85513971699265,302.6683840570246,326.0117924677171
463,39.49992013318259,-293.72322162663477,66.72191417443224,-235.3803487301072,-10.597702972189035,-154.36126446622694,302.7773393481028,337.76697380419375
464,39.12106118755928,-293.7891101619401,63.480683501449434,-248.42955969240387,-6.479896780942282,-169.63203862773096,302.7799842915023,352.08573635032127
465,38.56287351594725,-293.7689501649973,59.5037838105226,-264.05877113750876,-2.219430871090956,-184.58198972435832,302.70129119706166,368.7612779331508
466,37.82211607906369,-293.669805603827,54.81438644105726,-281.90163102409775,2.1709386149320915,-199.11977459761704,302.56000178790214,387.53664090148357
467,36.897524227614205,-293.49092041564535,49.44763225180008,-301.5433729851844,6.669283959633631,-213.14814853060884,302.36760028248153,408.1114169365497
468,35.790054917052224,-293.2233800818506,43.45015529256954,-322.5340007227887,11.24420400997215,-226.56423749780467,302.1276404053589,430.15008704576945
469,34.50313958371891,-292.850196243538,36.87933567603315,-344.40280498714014,15.854586663204742,-239.26010985050007,301.83546439055374,453.29170709908175
470,33.04292535583845,-292.3468276779288,29.802289732829568,-366.67369889191724,20.449510396034135,-251.12363052087136,301.4783353127612,477.1605854923594
471,31.418485902534126,-291.68213073359124,22.29461519012669,-388.88081843806077,24.968355306759474,-262.039571928993,301.0359858814252,501.3775504751044
472,29.641984739222046,-290.81971126789756,14.438919987395167,-410.58381532334226,29.341181324957585,-271.8909511515342,300.48156761674653,525.5713736380834
473,27.728775550861194,-289.71962924017924,6.3231751015669495,-431.382270485146,33.489410366198825,-280.5605617713034,299.7829648096381,549.389905038227
474,25.697425582254915,-288.3403876822625,-1.9610564974118254,-450.9286800273076,37.32682237289276,-287.9326697012478,298.90441882329867,572.5104845271649
475,23.569649171222608,-286.64112115687794,-10.320452549634393,-468.93950856965034,40.760846385423974,-293.8948433545466,297.80839123157455,594.6492206946999
476,21.370139241321077,-284.58388624182714,-18.66175743738774,-485.2038646643081,43.694102596293725,-298.339888167861,296.45758022972836,615.5687690582681
477,19.12628569586843,-282.1359489448636,-26.893532736992885,-499.5894237816539,46.02613575110503,-301.1678526548691,294.8169950101973,635.0842898979699
478,16.867772182039882,-279.27196163677826,-34.92777092355409,-512.0453027897344,47.655278854668246,-302.28806786796093,292.85598848738135,653.067320434514
479,14.62604746752785,-275.9759248808897,-42.681324941109445,-522.6016756899711,48.48059990660101,-301.62117561759226,290.55015036634524,669.4473565084074
480,12.433674790840032,-272.2428368521601,-50.07712553269696,-531.366017987177,48.40390901736334,-299.1010952322398,287.8829696961975,684.2110101066371
481,10.323571160144262,-268.0799441854508,-57.045179074602224,-538.5159837604087,47.331829111022266,-294.6768762473358,284.8471875797359,697.3986976072291
482,8.328157235313007,-263.50752249617824,-63.52335741196642,-544.2890614087929,45.1779481748435,-288.314386327189,281.44577517414376,709.098924558862
483,6.478445760836223,-258.5591322980049,-69.4580046481348,-548.9693213495462,41.86506446360136,-279.997789443553,277.6924884947604,719.4403658140426
484,4.803101760068901,-253.2813168923324,-74.8043921795343,-552.8717528731788,37.327505041784036,-269.73077697205696,273.61196969022853,728.5820863549728
485,3.327510818640222,-247.73273329518025,-79.52705239214532,-556.3248705645761,31.513448867012283,-257.5375215875402,269.2393847192012,736.7023913496128
486,2.0728932536682283,-241.98273495179996,-83.60001473019024,-559.6524306523047,24.38713273036262,-243.46332892306472,264.6196096362268,743.9869118803869
487,1.0555023925553582,-236.10945451393027,-87.00695760108717,-563.1552116806778,15.93077973785885,-227.5749644211808,259.80600108331964,750.6166045138153
488,0.28594494620603444,-230.19746433379066,-89.7412783205789,-567.0938641952802,6.14608116608851,-209.9606333403378,254.85880954484819,756.7563559833025
489,-0.23133943919209735,-224.335119164493,-91.80607320405419,-571.6738111155914,-4.944908454316922,-190.72959187618142,249.84331450173505,762.5448395636143
490,-0.498404205844174,-218.61170719376614,-93.21401239901058,-577.033083516816,-17.29953801405165,-170.0113685155021,244.82777662993192,768.0861799754022
491,-0.5238954389429114,-213.11454948034128,-93.98708975200233,-583.2338123132063,-30.85497299782582,-147.95457895113012,239.88131166263784,773.4438660166661
492,-0.3228980300371583,-207.9261923702093,-94.15622704774465,-590.2578764376676,-45.52914221569687,-124.72532700293583,235.07179239936278,778.6372173781641
493,0.08349066580387009,-203.12183198694703,-93.76071433058415,-598.0069480914215,-61.22202032761303,-100.50519901966312,230.4638798521395,783.6405690012297
494,0.6688674124730781,-198.76709514342454,-92.84747356001162,-606.3068955216672,-77.81699491010257,-75.4888792025446,226.11727315974898,788.3851829811516
495,1.4025022285251243,-194.91627881785513,-91.47014110049095,-614.9162284415503,-95.1820574608947,-49.881434631441664,222.08525277864732,792.7637374483093
496,2.250563694672851,-191.61112307862342,-89.68797468983807,-623.5380281085278,-113.17059695608165,-23.895336108216053,218.41357440588084,796.6370860620301
497,3.1775443184476755,-188.8801624436582,-87.56460152557423,-631.8346177510075,-131.62165743364312,2.252710646581594,215.139753048565,799.8428506268866
498,4.14782204649147,-186.7386701697958,-85.16663488479787,-639.4441146524113,-150.3596340634607,28.34505131051716,212.29275780458698,802.2053219594962
499,5.127280685319817,-185.1891805063775,-82.56219628370737,-645.99796529927,-169.19350587152616,54.166425982692786,209.89311830166812,803.5461090922975
500,6.0849044769383696,-184.2225468408707,-79.81938772033314,-651.1385909857975,-187.91581662739918,79.50732397355765,207.9534237917637,803.6949897470946
501,6.994260644023819,-183.81947011857923,-77.0047633418073,-654.5363479934966,-206.30170019013883,104.16732100420468,206.47917663877345,802.5004632492545
502,7.83478800919994,-183.95241300696716,-74.18185162491804,-655.9051169328528,-224.1082909954448,127.95838080717417,205.46994481135988,799.839576808323
503,8.592819112266236,-184.58780164891098,-71.4097779129658,-655.0159643187015,-241.07486020290426,150.70810752690306,204.9207443231692,795.6266757639119
504,9.262276712638558,-185.68840854563277,-68.74203312326343,-651.7084528778362,-256.9239761874956,172.26293130449903,204.82357307930974,789.8208091139686
505,9.845002169207287,-187.21580680505983,-66.22542791524069,-645.8993054498164,-271.3639126869806,192.49119689713126,205.16901247932606,782.4315965703485
506,10.350691826342212,-189.13278739097774,-63.899263047127235,-637.5882439839147,-284.09243036765,211.28610574969576,205.9478123843947,773.5234276178975
507,10.79643702567862,-191.4056368613479,-61.79473666544626,-626.8609269373877,-294.8019504844353,228.56843900965842,207.15237853867225,763.2179142322598
508,11.20588260423061,-194.00618288453657,-59.934598513655736,-613.8889951921045,-303.18603463139044,244.2889670447871,208.77808875888354,751.6945575460315
509,11.60803684456076,-196.91352770954876,-58.33305017246335,-598.9273099402678,-308.946991687228,258.43043449210813,210.82437433449996,739.1896176564061
510,12.035782180552731,-200.1154047639278,-56.99588017333226,-582.3085279588206,-311.8043576340672,271.00900213330294,213.2955152032365,725.9931991401899
511,12.524150045152375,-203.6091097857508,-55.9208138758827,-564.4352126508792,-311.5039379903582,282.07502995363257,216.20111080460157,712.444587383225
512,13.10843457963444,-207.40197457707634,-55.09805093242584,-545.7697255635256,-307.82706557260514,291.7131000909594,219.55620237091654,698.9258967334965
513,13.822227970127754,-211.51136783622584,-54.51095826124579,-526.8221848017238,-300.59970641002377,300.04120303935713,223.38103610058874,685.8541234967122
514,14.69546446074675,-215.96422295130435,-54.136883692932194,-508.13681513962484,-289.70104205881825,307.20904315883257,227.70046959453944,673.6717357930552
515,15.752560375906008,-220.79610679176747,-53.94805463619432,-490.27705005112847,-275.07116596821686,313.39545700232935,232.54303585598015,662.835977374533
516,17.010733902473767,-226.04985642286996,-53.91252697379378,-473.80977763139964,-256.71755409244395,318.8049764929544,237.9396901147093,653.8071112678043
517,18.478581392771833,-231.77382240659935,-53.99515166468578,-459.2891487462527,-234.7200050052584,323.6636050847901,243.92227488096196,647.0358782076803
518,20.154977109274903,-238.01976795383894,-54.158530010837545,-447.2403844676236,-209.23379166681343,328.21390608159606,250.52174798276047,642.9504906566553
519,22.028351117725165,-244.84048252523482,-54.36393334017408,-438.14402885070837,-180.49082464645002,332.70952684105856,257.7662268090531,641.9435225345875
520,24.076385851584213,-252.287176337416,-54.57216914698944,-432.42109113179106,-148.7986933651319,337.4093003804997,265.67890939909216,644.3590850456734
521,26.266156170304875,-260.4067284487138,-54.74438336242799,-430.4195082575209,-114.53752562348298,342.5710771863412,274.27593912776223,650.4806981027052
522,28.554721004374873,-269.2388656715961,-54.84279687580997,-432.40233483888954,-78.15468404096109,348.44544486732184,283.56428431767426,660.5202728467873
523,30.89015716179488,-278.8133526441023,-54.83138305880902,-438.5380340547002,-40.157399040310274,355.26949141363025,293.5397070891371,674.6086117732146
524,33.21300737220135,-289.14727512484933,-54.676500905290496,-448.8932007121718,-1.1035198213037087,363.260759299916,304.1848970334227,692.787807509634
525,35.45809504588449,-300.2424989153175,-54.347503863488846,-463.4279977587778,38.40935519295701,372.61152372946066,315.4678444791881,715.0058786187353
526,37.556638564586855,-312.08338554292203,-53.817345834211814,-481.99453165733166,77.75603329816424,383.483511837179,327.3405246691926,741.1139216799953
527,39.438580942633386,-324.6348426632675,-53.06320258917264,-504.3383323032853,116.29677300017659,396.00316480549003,339.7379577750774,770.8659866610486
528,41.03503972364534,-337.8407818383768,-52.06711962342383,-530.1030410007103,153.39078936969676,410.25753519763697,352.57770055336675,803.9218031724753
529,42.28077869044002,-351.62304896750567,-50.81668689971522,-558.8383439781311,188.4097856175057,426.2909078719138,365.75981419595,839.8524049957007
530,43.11660632578668,-365.88088360354817,-49.305727409567396,-590.011113357668,220.7511101159335,444.1022311949695,379.16734032451177,878.148622272805
531,43.491613440999664,-380.49095331600637,-47.53497049153508,-623.0196236033804,249.85019941116846,463.64344086582844,392.6673038513984,918.2323317320505
532,43.365171945160604,-395.3079986998283,-45.51266399898349,-657.2105907023786,275.1920407936277,484.8187481574193,406.11224816748506,959.4702667302862
533,42.70862755973857,-410.1661137093897,-43.25506495133911,-691.8986297253136,296.32145388971156,507.48494760127477,419.34229521249983,1001.1900818315787
534,41.506631347129634,-424.8806741871213,-40.78674068066397,-726.3875489996375,312.85203822118615,531.4527778275326,432.1877104868536,1042.6982384421508
535,39.758068257445125,-439.2509135135824,-38.14061534185391,-759.9927127523486,324.4736643001958,556.4893448574907,444.4719404663441,1083.2991365274218
536,37.47655525896617,-453.0631267821715,-35.35771069387159,-792.0635364253984,330.95841113198435,582.3215895262916,456.01507615831275,1122.3147812000354
537,34.69049629068604,-466.09446310715,-32.486552695291294,-822.0050625967581,332.16488569632537,608.6407488084989,466.6376806763831,1159.1041675923602
538,31.4426951681924,-478.1172403188955,-29.582242203513214,-849.297529350719,328.0409051768037,635.1077242346968,476.1649003536218,1193.081518682823
539,27.789539753908226,-488.9036893346599,-26.70521423310987,-873.5129039024812,318.6245744121237,661.3592310884657,484.43075872398776,1223.7325363345333
540,23.79978098644569,-498.23100944402216,-23.919732111825972,-894.3275127783388,304.04383547291235,687.0145639026284,491.2825123570324,1250.6279295255936
541,19.552939299835554,-505.88659305769835,-21.292178354636132,-911.5301398949392,284.5145895154917,711.6827825439075,496.58492934866905,1273.4336546139423
542,15.137379234285909,-511.6732611325494,-18.889212678826972,-925.025256626238,260.33748658040076,734.9701038835289,500.2243376509028,1291.9175179907672
543,10.648100905894612,-515.414340044403,-16.77587017185862,-934.8313578981513,231.89345112271158,756.4872794217038,502.11228344898444,1305.9520231433262
544,6.184304218239634,-516.9584082551568,-15.013670820841682,-941.0746707695512,199.63797360542154,775.8567493637772,502.1886410115951,1315.5135640988228
545,1.846787899822393,-516.1835472532428,-13.65880694050925,-943.978749470837,164.09416979053682,792.7193867651163,500.4240256324339,1320.6782544474413
546,-2.2647493863232326,-513.0009457576821,-12.760468365334711,-943.8506571964218,125.84460581198711,806.7406786627076,496.8213803697551,1321.614824863284
547,-6.05443418504351,-507.3577282917914,-12.35935702153451,-941.0645551707988,85.52191735807064,817.6162311353245,491.41663450298523,1318.5751208460747
548,-9.432894160519902,-499.2389077902583,-12.486433065654648,-936.0435778956006,43.79831323943813,825.0765282706016,484.27836572737806,1311.8827905317785
549,-12.319806625649461,-488.6683954091804,-13.161924614982492,-929.2408797909962,1.3741355197403202,828.8909177598641,475.5064374710224,1301.9207756556748
550,-14.646240998047093,-475.70903731152026,-14.394622582781468,-921.1207034419192,-41.034266692607666,828.870835671234,465.2296253205772,1289.1182116382809
551,-16.356718969240987,-460.46168565168483,-16.1814714702264,-912.1402515434163,-82.70702130923182,824.872317469879,453.60228994859494,1273.9373078036313
552,-17.410921962438508,-443.06334669927855,-18.50745605316004,-902.7330480086741,-122.9332007907084,816.7978688624868,440.8001953613991,1256.8607174721806
553,-17.784984109390262,-423.6844805695145,-21.34577257423331,-893.2943509368631,-161.022883856302,804.5977856777921,427.0156080245217,1238.379822371113
554,-17.472319593273543,-402.5255527603336,-24.65826177822105,-884.1690338586624,-196.31843797684883,788.2710141573197,412.45184253384843,1218.984250367072
555,-16.48394506953125,-379.81295705192264,-28.39607125440379,-875.6421874225427,-228.20469193964524,767.8656296592519,397.3174420503199,1199.1528255754881
556,-14.848271078314811,-355.7944421693409,-32.500507640918926,-867.9325215058043,-256.1177317642473,743.4789821011192,381.8201963228023,1179.3460230497594
557,-12.610351643508627,-330.73418079085087,-36.90403633182988,-861.1884811924743,-279.5521327538703,715.2575124925785,366.16120654138325,1159.9998763065898
558,-9.83059912109662,-304.90761897697405,-41.53138777385345,-855.4868430644924,-298.06652931928613,683.3961921396409,350.5292044384123,1141.5211757667291
559,-6.582991445281116,-278.5962372946455,-46.30073517501827,-850.8334419269324,-311.28751512023655,648.1374822924652,335.095323297382,1124.2837091888534
560,-2.9528202314934986,-252.08234273134562,-51.12491797803253,-847.1655992847659,-318.9119504925524,609.7696651815376,320.0085015319724,1108.625237382036
561,0.9659503501594419,-225.64399438969542,-55.91269771177036,-844.355786597164,-320.70782361186235,568.6243647735656,305.39167630112365,1094.844872980694
562,5.073623569989837,-199.5501478984184,-60.57004634488223,-842.2160592269657,-316.51386039829714,525.0730634926691,291.33889657088406,1083.2005389876208
563,9.267900714010677,-174.05608577560923,-65.00148053215067,-840.5028409173655,-306.23810424586316,479.5224347358552,277.9134536217774,1073.90622969653
564,13.447080359080507,-149.3991858882277,-69.11146671999246,-838.9217230708856,-289.85569342622387,432.4083532506675,265.14709366464075,1067.1288818615894
565,17.51319686767607,-125.79506948390029,-72.80593023891873,-837.1320662621252,-267.40605758384527,384.18851589124444,253.04034314852754,1062.9847883010746
566,21.374968103845568,-103.43416528780286,-75.99390421594585,-834.7513478642313,-238.98974123781773,335.3336994288042,241.5639435755348,1061.5356434972123
567,24.950429317602037,-82.4787275798411,-78.5893495429206,-831.3593782362253,-204.76504515417759,286.31779180292887,230.661360339475,1062.7844874915475
568,28.169144267517634,-63.06035384425453,-80.51316423793385,-826.5026912257835,-164.94465563319193,237.6068477585617,220.25230023422915,1066.6719893630261
569,30.973905162033596,-45.27805995626351,-81.69537969788549,-819.6995802789983,-119.79240387268823,189.64752784101304,210.23714488638126,1073.0736584295175
570,33.32185881859717,-29.196985006323967,-82.07751458081594,-810.446373464374,-69.6202583713144,142.85537149988699,200.50218145680327,1081.7986616032972
571,35.185026196431366,-14.847810139638224,-81.61502778850291,-798.2255935981344,-14.785600509349749,97.60342378305421,190.92548614738573,1092.5909331920961
572,36.55021434016895,-2.2269824929286592,-80.2797841281966,-782.5166129560473,44.3112309038194,54.21177595715723,181.38328961542592,1105.1331728382504
573,37.41835162342597,8.702167120187134,-78.06242309799835,-762.8092748869416,107.22920873974007,12.938588813989417,171.7566273300211,1119.0541418114499
574,37.803306871176694,18.007338681569944,-74.97450531138708,-738.6207173118432,173.48884376569646,-26.026861032654907,161.93805544315273,1133.9394167189182
575,37.730278514885505,25.78416374506299,-71.05030401604114,-709.5153072151265,242.57455183075442,-62.56863962934435,151.83819854088253,1149.3454889694553
576,37.233859510619325,32.1520880384472,-66.34811210026776,-675.1272049947772,313.93735597751595,-96.6457536994931,141.39189376168446,1164.8168472626696
577,36.35589557181103,37.24928349667921,-60.950948381416694,-635.1846615589621,386.9980936606718,-128.29066377428558,130.56370808435594,1179.9054618408802
578,35.14325719841949,41.226696547715804,-54.96657019596185,-589.534760689372,461.15124588676827,-157.6046529567182,119.35263130963517,1194.1918939983952
579,33.64564020082431,44.24140138866577,-48.52673046763792,-538.1670106916762,535.7694329318277,-184.75016684190632,107.7957832220324,1207.3070749838434
580,31.91349668107022,46.44948616581457,-41.785653746419314,-481.2340127274801,610.2085446140928,-209.94040871622062,95.97101455586,1218.9536499821252
581,29.99618137391611,47.99875014746997,-34.91774395004308,-419.0674228589143,683.8134061534008,-233.42662131735642,83.9983215491936,1228.925701972775
582,27.940379027656526,49.02152504547156,-28.11457309988875,-352.1875942305111,755.9238345726278,-255.48360261241,72.04002727899828,1237.1256950811512
583,25.788858110064048,49.62794895539552,-21.581231481219277,-281.305625527764,825.8809210572863,-276.3940853202782,60.29970636244089,1243.5776246857297
584,23.579574966192283,49.900014766528706,-15.532142293436163,-207.31701961886452,893.0333810091232,-296.4326591881056,49.019844136054616,1248.4356174529578
585,21.345131512450454,49.88668693901224,-10.186456593962129,-131.2867197848572,956.7438399001378,-315.8499323451335,38.47823262946218,1251.987545763162
586,19.112570212621815,49.60033423241183,-5.763147893525506,-54.425874759791846,1016.394961299481,-334.85761341866254,28.983120639096008,1254.6535491344262
587,16.90347404437633,49.01466589212082,-2.4759224470989754,21.93877948151209,1071.3953659420913,-353.6151501205427,20.867158731650303,1256.9796333876118
588,14.73432736120981,48.064290509274294,-0.5280540956584501,96.40160070888668,1121.1853318377591,-372.21848552356096,14.480212342342767,1259.6267089824373
589,12.617086168369662,46.64594613506581,-0.10724446515122525,167.51917225809504,1165.2423017207593,-390.69139534519803,10.181153860762297,1263.355527315227
590,10.559903066192751,44.62138249088002,-1.380603096813684,233.85413512070855,1203.0862534769328,-408.97975473545216,8.32878308064639,1269.0080030597962
591,8.567952489486894,41.82181489301606,-4.489839589287812,294.0199710881655,1234.285009876961,-426.94895841885926,9.272061078187166,1277.4854128919699
592,6.644305423370119,38.053816415073044,-9.546761894894143,346.72509738346514,1258.4595743524392,-444.38459089502544,13.339873994402444,1289.7239709995242
593,4.790808976929697,33.10646978431935,-16.62918115065785,390.8148095272053,1275.2895781705906,-460.99632125474017,20.830570426779182,1306.6683140412624
594,3.0089340576346255,26.759562593658327,-25.777332266939123,425.3098099120304,1284.518910021418,-476.42488736701677,32.00153946628581,1329.243477289581
595,1.3005622731871676,18.792577602234093,-36.99092836792256,449.44025009292403,1285.9615707276594,-490.2519425160457,47.05911511116435,1358.3259946205776
596,-0.33131065688668654,8.994203676153502,-50.22697320425374,462.6743746445286,1279.5077523914972,-502.0124660909999,66.14910509698636,1394.7147937070783
597,-1.8819742619692257,-2.827927736997035,-65.39845655445872,464.7409799479902,1265.1300818807506,-511.2093862277282,89.34824641836113,1439.1025765379993
598,-3.3445239277112067,-16.8375905656936,-82.37405205089593,455.64500290665427,1242.889893634377,-517.3300211337842,116.65688528702582,1492.048373681804
599,-4.7095222659631135,-33.16071515827875,-100.9789241088654,435.67565009282634,1212.9433095689815,-519.8639118315502,147.99316626228327,1553.9519431158128
600,-5.964822752002474,-51.87686305599853,-120.99673022492937,405.40658506602887,1175.5468108995146,-518.3215883839589,183.1889944736985,1625.0306578914606
601,-7.095579279805347,-73.01174074918607,-142.17287629165202,365.6878236940171,1131.0618972769596,-512.2537823013356,221.98800667846797,1705.2994980127144
602,-8.084466728602434,-96.53105418329862,-164.21904499602206,317.6291505738863,1079.958353780561,-501.2705691301485,264.0457512240681,1794.5547347557533
603,-8.912137118360853,-122.33598359934695,-186.81897011305006,262.57506411481666,1022.8155971539734,-485.0598972432088,308.9322330181753,1892.36187063945
604,-9.557931772472791,-150.26052704527694,-209.63537270095463,202.07147964235236,960.3215592176967,-463.404931855817,356.13692596983145,1998.0483724457845
605,-10.000860337282012,-180.0709204029924,-232.31791068243376,137.82466469726677,893.2685951428682,-436.199618052383,405.0762905358887,2110.7017034261494
606,-10.220841309670707,-211.46729192502494,-254.51192472762892,71.65314709745654,822.5459808893414,-403.4618455304736,455.103757173048,2229.173119279866
607,-10.200176121816892,-244.08764987531677,-275.86769565097427,5.433627220337482,749.128686120009,-365.34358653554517,505.5220483793781,2352.0876361091514
608,-9.92520218528563,-277.5142326486412,-296.04986719344055,-58.95775423157225,674.0622698603504,-322.1373869720751,555.5976151160352,2477.860501967057
609,-9.388043498965173,-311.2821716453251,-314.7466387362432,-119.70709458875574,598.4439374058236,-274.27863155009527,604.5768619467354,2604.7203985245274
610,-8.588354014594838,-344.89032896116214,-331.6783008100478,-175.12529631825376,523.40001199581,-222.3430881351969,651.7037351116479,2730.7394535064227
611,-7.534930459870346,-377.81407688888095,-346.6046781213401,-223.70912524817592,450.06031129014275,-167.03936935005535,696.2381564458126,2853.8699432267013
612,-6.247057198674192,-409.5196884980802,-359.3310668920898,-264.19807845848635,379.5301731824924,-109.19612905918233,737.4747123253668,2971.987293604182
613,-4.75543510305675,-439.47991362984453,-369.71231265508715,-295.62418697649275,312.8611301838961,-49.74403236099779,774.7609597403648,3082.9386365560886
614,-3.102540961708274,-467.1902271272567,-377.6547767038112,-317.35180328664876,251.0214438473849,10.30720285171896,807.5146983154865,3184.5957472977507
615,-1.342269589901922,-492.1851575771861,-383.11608529558737,-329.1044981148002,194.86781991759437,69.89609601818766,835.2395802799128,3274.910707523184
616,0.4612633805359329,-514.0540347779944,-386.10273961072943,-330.9764642589727,145.11958310221686,127.94009519010278,857.5384866065953,3351.972186370829
617,2.2358255579632074,-532.4554355085495,-386.6658692873865,-323.4263716646386,102.33640057009538,183.36839328249408,874.1241767845931,3414.0599198484547
618,3.904059799108835,-547.1295720315607,-384.895604136504,-307.2525202244989,66.90037391298836,235.1552835606204,884.8268067905586,3459.694914931963
619,5.387233431427157,-557.9078776115177,-380.9146689154846,-283.54943406201596,39.00307357915097,282.3522588027664,889.5979928912997,3487.6831677166206
620,6.609495406628398,-564.7191226841477,-374.87183132371035,-253.64765947948518,18.637944519854408,324.117011635535,888.5111833268089,3497.151219152543
621,7.502295145022438,-567.591561248304,-366.93574172565275,-219.0402501511956,5.598469026199951,359.7376552091351,881.7582106977495,3487.572510426022
622,8.008569823761505,-566.6508576964685,-357.2895241913418,-181.30093267629442,-0.5175396338830536,388.65086234602575,869.6420584817891,3458.7840272693606
623,8.08632483959075,-562.1138517788019,-346.1262687665749,-141.99993574551598,-0.29722037222489844,410.4531707899101,852.5660811779245,3410.9930075373686
624,7.7113080820292295,-554.2785347538426,-333.64539078521625,-102.62373633284754,5.504547649340817,424.90532010461794,831.0201337301111,3344.7735777571093
625,6.878587134974544,-543.5108805185857,-320.04969924511295,-64.50448443727447,15.988553726251443,431.93004722948274,805.5642471628212,3261.0532691684216
626,5.602950486164827,-530.2293645714951,-305.5429602090061,-28.763724315512373,30.14009533399852,431.6041769490851,776.810603461547,3161.089617637299
627,3.918150279313067,-514.8880978959555,-290.32774134143364,3.7265515991033906,46.86201530623712,424.1460693870565,745.4046075086418,3046.4375142695108
628,1.8750797369801668,-497.95950953896113,-274.60336172912906,32.36424726034018,65.01034216901544,409.89955756652074,712.0058396986684,2918.9085435418124
629,-0.4609641544669669,-479.91744930550857,-258.56382956854503,56.81935151918585,83.43076410562746,389.31547895432635,677.2696184569726,2780.5240620682243
630,-3.013738730435878,-461.22147142400223,-242.39571487222054,77.01988384831013,100.99419996820913,362.93182479337884,641.8298224609687,2633.4640924281225
631,-5.700009351630985,-442.30291913147516,-226.27596406433892,93.1245987947354,116.62993724729381,331.35342932350244,606.2835259121745,2480.0141579200154
632,-8.43375523041027,-423.5532727680917,-210.36971039329003,105.48609287752953,129.35511709262477,295.2320096474145,571.1778894750258,2322.5119801079586
633,-11.130380173041273,-405.31506139242566,-194.82816412355294,114.60815287405984,138.29968583811151,255.2472486435766,536.9996262332118,2163.295601888833
634,-13.710692914277443,-387.8754798547901,-179.78667888226346,121.10098773141007,142.72624452533054,212.08948766391717,504.1672304148453,2004.654124673102
635,-16.104448240338897,-371.4627079320011,-165.36308794977936,125.63749162930787,142.04448255287298,166.44446267535983,473.02602413454053,1848.7819674925954
636,-18.253278494784265,-356.2448017447851,-151.65639086661923,128.91300546767522,135.82007350098354,118.98037858421569,443.8459527445385,1697.7373996745728
637,-20.11289142393119,-342.3309241725935,-138.74585051232768,131.61029072955986,123.7780543492884,70.33747573871209,416.8219500294919,1553.4060303609401
638,-21.654460226630416,-329.7746023007259,-126.6905371074879,134.37070173843128,105.80082975829468,21.1201064667789,392.0766052693592,1417.469893404188
639,-22.865180989547213,-318.57864648807714,-115.5293311765912,137.7719141156238,81.92106968686006,-28.10878401927581,369.66479752712496,1291.3826907370249
640,-23.748018352394556,-308.70133642078514,-105.28137467921509,142.3120822762609,52.30992219752409,-76.83098090828187,349.5799188932459,1176.3516260276015
641,-24.320700346054682,-300.0634722424234,-95.94693985563465,148.3999684756197,17.26114756935867,-124.57441180804443,331.76128684941915,1073.3260772275512
642,-24.614056305885477,-292.5559005494755,-87.50866967542497,156.3503950244105,-22.828021360974855,-170.91297800384416,316.1023443491073,982.9931397191831
643,-24.669815844047726,-286.0471527400209,-79.9331325081506,166.38428845287663,-67.47830508877757,-215.46515256695338,302.45926218015444,905.7798375452104
644,-24.538000920665873,-280.39087419701485,-73.17262705267444,178.63257318615973,-116.1509703165233,-257.8916870694897,290.65958931274395,841.8615606286334
645,-24.274047672944906,-275.43277424830677,-67.16717197596593,193.14319964500436,-168.2704177444515,-297.8927488862003,280.51064083240624,791.1760586426172
646,-23.935792183943924,-271.016885269612,-61.84661816427703,209.89063260056824,-223.2456327048108,-335.20478560541534,271.8073665821026,753.442135920201
647,-23.580447578538266,-266.9909805011697,-57.13282926940693,228.78716473572365,-280.48949691557306,-369.5973859362293,264.339502665386,728.1820752958807
648,-23.261690515419712,-263.2110599563864,-52.94188660879798,249.6954516882655,-339.43516320772983,-400.87037718078005,257.89786795048326,714.7467844209348
649,-23.026963727948836,-259.544868866928,-49.186285020765695,272.4416899244738,-399.54894472538484,-428.85136522911705,252.27972467282797,712.3426962683063
650,-22.915087534225574,-255.87446138068862,-45.77709473579512,296.82888365979596,-460.3394346120394,-453.3938819995889,247.29317345676083,720.0595423752962
651,-22.95425726333204,-252.0978628371661,-42.62606946684627,322.64967874184447,-521.3628223560428,-474.3762568301191,242.76059724207863,736.8982263653653
652,-23.16048602387615,-248.1299166330769,-39.64768269900941,349.6982851444888,-582.2245863669826,-491.70127374749535,238.52120522055492,761.7981354811894
653,-23.53653412747604,-243.90242626128477,-36.76107330157467,377.7810674311808,-642.5779065267064,-505.2966184214281,234.4327566599006,793.6633274857828
654,-24.07134858354398,-239.3637192655084,-33.89187914330634,406.72545289528017,-702.1192537859872,-515.1160607095059,230.37256505831124,831.3871168723803
655,-24.740019046462752,-234.47776741920956,-30.973934423049116,436.38688637285406,-760.5816834787031,-521.1412653678027,226.2378951728088,873.8746617601606
656,-25.504240955667708,-229.22299675794517,-27.950803746135918,466.6536441504716,-817.7263959321984,-523.384078779849,221.94586934511668,920.0632268446814
657,-26.313262598774994,-223.59091343943066,-24.777124031124227,497.44940243387447,-873.3331420184443,-521.8891065085078,217.43299636214482,968.9398722275075
658,-27.105280291496843,-217.58465882596627,-21.41972432201183,528.7335356424146,-927.1900484116011,-516.7363769135553,212.65442778606638,1019.5563939710223
659,-27.809234585046568,-211.2175917759942,-17.858493717292504,560.4991961166171,-979.0834194631381,-508.04388022111505,207.5830353170813,1071.0414189512862
660,-28.346950458129225,-204.51197935266347,-14.086969287449259,592.7693015991198,-1028.7880395588936,-495.9697786676835,202.20838978091788,1122.6096322251735
661,-28.635556102155054,-197.49785970594692,-10.112619498099793,625.5906318280082,-1076.0584514885404,-480.71409891125967,196.53570852501076,1173.5681875245878
662,-28.590108336755698,-190.21212296885895,-5.956804605985664,659.0263097028062,-1120.6216247524176,-462.51974029946655,190.58482365197668,1223.3204185294962
663,-28.12634798536749,-182.6978376454304,-1.6544037430280232,693.1470112700584,-1162.1713575997328,-441.67266030223544,184.38920869976315,1271.367028675521
664,-27.163505882646064,-175.00383124464292,2.746891504612308,728.0213062604074,-1200.3646839665514,-418.50113046557414,177.99508617687826,1317.3049894840194
665,-25.627079765620437,-167.18451517522809,7.187606253933262,763.7055721892137,-1234.8204859791665,-393.37399147741854,171.46062299546963,1360.8244209576565
666,-23.451504128110493,-159.2999257835959,11.597812971549518,800.2339475409606,-1265.1204456512467,-366.6978730824661,164.8552057177334,1401.7037611880392
667,-20.582639102053104,-151.41593671397058,15.898733601660819,837.6087928703213,-1290.8124042532118,-338.9133825441883,158.25877330213424,1439.8035542343441
668,-16.98001055995786,-143.6045834359635,20.004576700092237,875.7921137783978,-1311.416131980223,-310.4903031247566,151.76117267199177,1475.0591939989695
669,-12.618741963564988,-135.94442967344122,23.82456875342377,914.6983685662841,-1326.431442191031,-281.92188037166056,145.46149295468803,1507.4729566352955
670,-7.4911288967449225,-128.52089808333534,27.265136042993237,954.1890383804083,-1335.3485134634448,-253.71830714115214,139.4673282691979,1537.1056357185153
671,-1.6078191667681114,-121.42648401126584,30.232191362252216,994.0692813656447,-1337.6602105568052,-226.39954619321267,133.89391648416694,1564.0680650677336
672,5.001426185843826,-114.76077148476567,32.633477871046466,1034.0869265537392,-1332.8761249348927,-200.48764984041608,128.8631020710854,1588.5127765939137
673,12.287403884476221,-108.63017479236309,34.380919919842405,1073.9339883119196,-1320.537990060462,-176.49874797534278,124.50207465300633,1610.6259975260555
674,20.181574278949977,-103.14733704609327,35.39292785704161,1113.2507970654367,-1300.2360688277938,-154.93487804936072,120.94184092141424,1630.6201443144794
675,28.596597055180553,-98.43012906112905,35.596601168410494,1151.6327451084592,-1271.6260614070702,-136.27582337974658,118.31539641144137,1648.7269194141488
676,37.42728623685884,-94.60020773053944,34.92977258378159,1188.639537010335,-1234.4460412253175,-120.97111072240526,116.75557558904742,1665.1910611541182
677,46.55197062485781,-91.78111263649922,33.34283594503436,1223.8067139272262,-1188.532894181015,-109.43229653977521,116.39257411368912,1680.2647355902245
678,55.83424411840373,-90.09590226935894,30.80030362511153,1256.6590943728052,-1133.8377116216,-102.02564671877435,117.35115581048773,1694.2024940008039
679,65.1250890718527,-89.66435590587817,27.282045880267834,1286.7256480326027,-1070.439572745874,-99.06528993721595,119.7475781254542,1707.2566546039827
680,74.26535384321588,-90.59979288320343,22.784174837376028,1313.5552040321022,-998.5571502366263,-100.80690359615188,123.68629267649288,1719.6729091728782
681,83.08856246944661,-93.00558659838977,17.319549161317628,1336.732302404324,-918.5575887022508,-107.44197576536891,129.25650066649004,1731.6859139479845
682,91.42402991162076,-96.9714746228593,10.917890521559071,1355.8924395568786,-830.9621438768688,-119.0926789439895,136.52866459217125,1743.5146102579718
683,99.10025037000864,-102.56978723949284,3.6255181388423465,1370.7359466081077,-736.448135393223,-135.80739347335052,145.55109568315007,1755.3570435550275
684,105.94851800102343,-109.85173322656438,-4.495279046701456,1381.039781448893,-635.8468588899761,-157.5569309994252,156.34674867928697,1767.3845165380685
685,111.80672798635165,-118.84389292679107,-13.367203650433007,1386.666612224352,-530.1372229716721,-184.23152934155442,168.9103601891078,1779.7350218881538
686,116.52329131960238,-129.54507366246187,-22.899211240000636,1387.5707135666757,-420.4350187913869,-215.6387140369333,183.20606331348043,1792.506042903903
687,119.96108072304138,-141.92368063898397,-32.98803902677668,1383.8003718886303,-307.97788708999445,-251.50214243388038,199.16560044824703,1805.746967971821
688,122.00131081591375,-155.9157474150376,-43.51997299173005,1375.4966829945836,-194.10620830541959,-291.46155929862977,216.68724051127415,1819.4515144122622
689,122.5472457123369,-171.42375405843754,-54.37282950041766,1362.8888043460647,-80.24029273121968,-335.0739972530672,235.63548857790633,1833.5506751122336
690,121.52762287828193,-188.31633861663101,-65.41813027639394,1346.2858791104402,32.14562235674577,-381.81635219735176,255.8416561185396,1847.906768483041
691,118.89968308779538,-206.42897905969113,-76.52344773516104,1326.065970710939,141.5519604063093,-431.0894560347634,277.10533844225165,1862.3091799113054
692,114.65170162146039,-225.56568944445974,-87.55488982583361,1302.6624354995752,246.4842977013538,-482.2237597967375,299.196821709395,1876.472334743941
693,108.80492420002777,-245.50173726354618,-98.37968006830597,1276.548225442254,345.48503075080976,-534.4867314819619,321.86041426851125,1890.0363519945681
694,101.41482137968826,-265.98735055131067,-108.86877144657763,1248.2186633741508,437.16545634361853,-587.0920627951962,344.818665825711,1902.5707099458475
695,92.57158616318193,-286.7523449113049,-118.89941534882553,1218.1732802899191,520.2374755117293,-639.2107614717457,367.77740334524964,1913.5811219807417
696,82.3998104451762,-307.51156344391126,-128.35759223277435,1186.8973539951025,593.5441081671149,-689.9841723453713,390.43147557738973,1922.5196805133714
697,71.05728622781506,-327.9709875350868,-137.14020214053758,1154.8438441299568,656.0879798641658,-738.5389118510275,412.47106052708085,1928.7981814799234
698,58.73288824958209,-347.8343443611487,-145.15691291056902,1122.4164778225759,707.0569179084487,-784.0036099487925,433.5883547249342,1931.8043904915307
699,45.64350832764218,-366.810008449346,-152.33157387731242,1089.9547940928596,745.8457796008175,-825.5272269806286,453.4844333511533,1930.920851778647
700,32.030031855645944,-384.61797069084304,-158.60312494678175,1057.7219872262533,772.0736490049636,-862.298553810768,471.8760500884646,1925.5456731852987
701,18.152376773814396,-400.996630501249,-163.92596640842007,1025.8963762582214,785.595607837155,-893.5663236689194,488.50213864986205,1915.114555581086
702,4.283656468608703,-415.70915769307237,-168.2698020747643,994.5672413395081,786.508439987409,-918.6591846785011,503.12978583286446,1899.1231969110606
703,-9.296420953783612,-428.5491726745283,-171.61902078191343,963.7355808541323,775.1498817027455,-937.0046320332035,515.5594669034734,1877.1491182684686
704,-22.30874837400536,-439.3455093814493,-173.9717276481145,933.3200393160049,752.0913614592072,-948.1459100936892,525.6293637084563,1848.8719477735333
705,-34.48238696202311,-447.9658571144629,-175.33856430220524,903.1678428740498,718.1245285047993,-951.7558947635816,533.2186202260019,1814.091248170346
706,-45.56223536901303,-454.3191265209541,-175.74145833462543,873.0700992088986,674.2421725576822,-947.6470704063396,538.2494285580007,1772.7410574425917
707,-55.316499071975834,-458.3564507234072,-175.21241662830863,842.7803484215215,621.6143328760562,-935.7769206121491,540.6878826127983,1724.9004041344485
708,-63.54364449764097,-460.07081117021886,-173.79243362744634,812.0348841910892,561.5604729581983,-916.248337749184,540.5435882074548,1670.7991611327786
709,-70.07852963240326,-459.4953611614649,-171.53053710376702,780.5731794146442,495.51859310631534,-889.3049890346088,537.8680745807908,1610.8187397307886
710,-74.79743162025025,-456.7005970392485,-168.48295253160452,748.1567865049403,425.0121202598138,-855.3219180230519,532.752107325451,1545.4873314333272
711,-77.62174176430536,-451.79058675624077,-164.7123397499762,714.5853271653397,351.61539237890605,-814.7919719434252,525.3220499186783,1475.4696890555592
712,-78.52016591746535,-444.89850102825966,-160.28704374119638,679.7085849837251,276.9185554090648,-768.3088944606418,515.735456137755,1401.5517782557326
713,-77.509346690837,-436.1817026095238,-155.28030317583136,643.4341888446563,202.49270503444896,-716.548086614409,504.17609759111446,1324.6209752784607
714,-74.65290474941672,-425.81663847029523,-149.7693724828532,605.7308456224847,129.85611470905837,-660.2461047982681,490.8486402375996,1245.642776768049
715,-70.05897205046905,-413.9937540925212,-143.83453175070917,566.6274807286045,60.44237865650171,-600.1799361161329,475.9731823860337,1165.635174021411
716,-63.87635494775319,-400.9126146809935,-137.55797983941366,526.2089345517717,-4.428746689159184,-537.1469823873053,459.7798552318096,1085.6419031109388
717,-56.289516855035835,-386.77737935802674,-131.0226262618505,484.6090310150085,-63.57709815437456,-471.9465164931738,442.50366638032415,1006.7057203463346
718,-47.51260769205306,-371.7927346618509,-124.31081430643403,442.0018943060875,-115.98385941566161,-405.36317438647103,424.3797384265016,929.842700105781
719,-37.782790904162525,-356.16035538121605,-117.50302023234082,398.59236528519705,-160.80883711379215,-338.1528382529762,405.6390606677198,856.0183502799674
720,-27.353129416951113,-340.0759258414683,-110.67658042541291,354.60628360128817,-197.40291670936256,-271.0310723149635,386.50483509422304,786.1261284118501
721,-16.485290577587627,-323.7267246172013,-103.90449958263692,310.28127330050444,-225.31549416721663,-204.6641072943279,367.1894606595603,720.9687489686467
722,-5.442318108241022,-307.28975112715074,-97.25438815252596,265.85851346371805,-244.29682369838068,-139.66224018272717,347.8921649653428,661.2425175121327
723,5.518302085070172,-290.93035392482653,-90.78756714603476,221.5758067453932,-254.2953699156104,-76.57542445309204,328.79726197106515,607.5248172693682
724,16.15108361988789,-274.80130751979095,-84.55836472851935,177.66209552072638,-255.45040068597538,-15.890770153978064,310.07298965973644,560.2648032610639
725,26.228323132012786,-259.0422767260405,-78.61361397654413,134.33343552256656,-248.08019755178958,41.96835078814248,291.8708635314504,519.7773171538994
726,35.5450952614087,-243.77960411058953,-72.9923472631877,91.79033381369865,-232.6663855236563,96.64189705969683,274.32547043698503,486.24000882922957
727,43.92336502321665,-229.12635622591358,-67.72567200292617,50.21629735641659,-209.83498583921605,147.83173087289595,257.55462211424987,459.693626276595
728,51.21515898810175,-215.18256698051624,-62.83680612714517,9.777417367196696,-180.3348685508143,195.29942242298156,241.6597879412623,440.04540421393915
729,57.304770435627205,-202.035620863634,-58.341249687332336,-29.377176733204344,-145.01432391853868,238.86350081070304,226.7267307431383,427.0754364390408
730,62.11000462283257,-189.76072424884532,-54.24707041947053,-67.11413522559913,-104.79648281781445,278.3963294313347,212.82627686026046,420.44585297134364
731,65.58249755426306,-178.42141943089447,-50.55528449326183,-103.31409254281823,-60.65429960881183,313.82074758714407,200.01516102809714,419.7125417150583
732,67.70716415578654,-168.0701033026526,-47.260317618583414,-137.86935602424288,-13.58577104916113,345.1065845055635,188.33689690681882,424.3390647741176
733,68.50084887922195,-158.7485205681597,-44.3505351575203,-170.68117728148098,35.4099919843005,372.2671173709415,177.82263450114212,433.7123371883331
734,68.0102636794554,-150.48821002148054,-41.808832237043795,-201.656724700233,85.35529057252339,395.35551307289813,168.49197581928655,447.1595759989224
735,66.30930610798045,-143.31089153237755,-39.61327572705545,-230.70591180844113,135.31448482142193,414.4612666672838,160.3537298983642,463.96599817624093
736,63.4958554269832,-137.22879060471504,-37.73778931895614,-257.7382796174946,184.41235960937018,429.7066302110359,153.40659778293994,483.39274600921505
737,59.68814844695611,-132.2449061262607,-36.15287116259789,-282.6601697485403,231.8498821508596,441.2430148177115,147.63978700574245,504.69454169290174
738,55.020840146616735,-128.35323449209162,-34.82633127444671,-305.37244728873304,276.91710186361536,449.2473465894321,143.03356322142992,527.1366122959424
739,49.64085750550023,-125.53896896369314,-33.72403402721724,-325.76902881607447,319.00302428428915,453.9183625760691,139.55975340050162,550.0104776105896
740,43.70315814122496,-123.7786965025603,-32.81063012897393,-343.73643769598846,357.6023776807199,455.4728441902902,137.18221987917187,572.6482544500658
741,37.366507378625165,-123.04061545861917,-32.05026287194255,-359.15454711814596,392.3192835677721,454.14180018455176,135.8573271876182,594.4352002895665
742,30.7893870561005,-123.28479680874452,-31.40723488133098,-371.89858811615323,422.86793784472366,450.1666270427367,135.53442375303382,614.8202940897197
743,24.126145556980962,-124.46350949612649,-30.846623604078264,-381.8424049228161,449.0705024560881,443.7952893275895,136.1563582843514,633.324728025811
744,17.523490423241185,-126.52162699874685,-30.334835870890387,-388.8628439490855,470.8524917462466,435.2785742525464,137.66004615447412,649.5482547943088
745,11.117412166994223,-129.39712771136206,-29.840093878486936,-392.84507449593275,488.2360067022187,424.8664820102495,139.97709509207556,663.1733958763391
746,5.030610866528147,-133.0216963891694,-29.33284692679369,-393.68856614481615,501.33121904314237,412.80481531450147,143.03449304990963,673.9675634851533
747,-0.6295233929075141,-137.32142833007035,-28.786105219011134,-391.3133952540338,510.3265324717085,399.33202816776225,146.75535539538384,681.783182896804
748,-5.772348180460865,-142.2176327985079,-28.175693923425083,-385.6665252896558,515.4778495543039,384.6763860201258,151.05972445376227,686.5559255946715
749,-10.324820769618869,-147.62772787256577,-27.480427482533166,-376.72770469411967,517.0973515116502,369.05347898408536,155.86541226692972,688.3011822028689
750,-14.231785254420085,-153.46621556082306,-26.682205792726204,-364.51465036425685,515.5421588572838,352.664118531844,161.0888769552289,687.1089223435449
751,-17.4557383600961,-159.64572354119053,-25.76603517857026,-349.0872304906753,511.20318877260974,335.6926377516827,166.64612354801775,683.1371091507848
752,-19.97613733882701,-166.07809800173214,-24.719977918011693,-330.55042179885584,504.49446602662186,318.3056069912856,172.4536207034017,676.6038596553054
753,-21.78832818141933,-172.67553070906763,-23.53503463866176,-309.0558868781052,495.8430834192172,300.65097124213247,178.42922479362053,667.7785672152722
754,-22.902181099404373,-179.35170257982463,-22.20496462544756,-284.8020911683383,485.6799497711026,282.8576127249171,184.49310228858613,656.9722260957087
755,-23.34052255898423,-186.02292563898183,-20.72605026016724,-258.03295086449776,474.4314120341784,265.0353405961331,190.5686404433519,644.527218262847
756,-23.13744966874984,-192.60926520421194,-19.09681350317414,-229.0350682334385,462.5117953445046,247.2753076428338,196.58333528260872,630.8068357119654
757,-22.33660455520699,-199.0356242967331,-17.317694446840598,-198.1336667854339,450.316871270139,229.65084961222567,202.46964499228326,616.184816075819
758,-20.989474805706642,-205.23277253656644,-15.39070438054055,-165.68738398447647,438.2182391087072,212.21873573068962,208.16579616836984,601.0351636424197
759,-19.153772409771825,-211.1383020780037,-13.319068225826161,-132.08211343289503,426.5585860303319,195.0208092858459,213.61652992334908,585.7225119254732
760,-16.891929068606974,-216.69749342725387,-11.106873188155674,-97.72411199404904,415.6477773631603,178.08598556950557,218.77377450177704,570.5932580454042
761,-14.269731291747105,-221.8640742063516,-8.758741525998987,-63.032600296902814,405.75971734583084,161.4325616085757,223.597230680162,555.9676646185831
762,-11.35510524431396,-226.60085410157504,-6.279544974483531,-28.43208737534758,397.12991309380794,145.07077850532588,228.05485578886308,542.1330837499794
763,-8.21704962513273,-230.88021945900775,-3.6741762695648705,5.65535812771184,389.95367082139825,129.00556376179313,232.12323178394314,529.3384132147153
764,-4.924705548820396,-234.68447144775203,-0.9473895101734576,38.817685798678326,384.3848541458114,113.23936902572262,235.7878026260848,517.7898507674038
765,-1.5465457604442323,-238.00599268702646,1.8962836932587324,70.66011157754743,380.535139879897,97.77500975833411,239.04296662376123,507.64797223290077
766,1.850338531507356,-240.84722900159767,4.8525404962787055,100.81188767656958,378.4737167269364,82.6184085894479,241.8920106784596,499.0261248401092
767,5.2008766225460095,-243.22047565519264,7.91723858096852,128.93247750224256,378.2273855678408,67.78114434774834,244.34687565642787,491.990099681416
768,8.442606209658962,-245.14746102853076,11.086260394797094,154.71704887821022,379.78103493901085,53.28271431938126,246.42774538993518,486.5590253381947
769,11.516231452612054,-246.65872524418543,14.355319491351958,177.9012244669947,383.07848027444004,39.152428150978714,248.16245602774777,482.70740702031856
770,14.366169252008783,-247.79279659963046,17.719719791685083,198.26504680436844,388.02366941271805,25.430867179928843,249.58572747987267,480.3682202605068
771,16.941097468413474,-248.59517465591085,21.174078543053902,215.63612500753254,394.48226900369144,12.170861139729345,250.73822431888948,479.43695362045094
772,19.194513359954826,-249.11713528198004,24.712022926624154,229.89193085542541,402.2836560660332,-0.5620470918821832,251.66545954296794,479.7764796975711
773,21.085304142131648,-249.41437983912698,28.325869190781166,240.96120564386595,411.2233451226312,-12.689660737973206,252.41656104225595,481.2226173822306
774,22.57832481936754,-249.5455579645565,32.00629228121995,248.82443001531524,421.0658831334356,-24.12170950359664,253.04292740887166,483.5902312970717
775,23.644972071775157,-249.5707008093972,35.741993438785734,253.51330171071447,431.5482413412485,-34.756935589479625,253.59680664501448,486.6796983127042
