time,ax,ay,az,gx,gy,gz,accmagnitude,gccmagnitude
0,-8.996239159138131,-244.96662666020222,-47.9321177675685,54.11270244576904,11.539130996352071,-9.000493993808757,249.77428724267332,56.0587009287501
1,-8.606565005435987,-244.82714177598106,-47.49401365072823,54.28165475802869,12.031680225617515,-9.113380398433963,249.54717134318796,56.355180290115236
2,-8.221124238301693,-244.69069605734975,-47.06429162428501,54.450016167510064,12.502938471375174,-9.22783802644105,249.32470285802563,56.64634938356464
3,-7.844426622982942,-244.55838402446835,-46.647338341505375,54.61305659085927,12.94578873410288,-9.342093972328264,249.10886163351324,56.92577917968405
4,-7.480744834373539,-244.43125554015194,-46.24727582010267,54.76605184775681,13.353388768072557,-9.454424503368367,248.90152986687937,57.187131331590756
5,-7.134008953101905,-244.31029859759025,-45.86786167925102,54.90438468857373,13.719323072585079,-9.563201624537673,248.70445475290146,57.424297839950675
6,-6.807714484568178,-244.19642375568793,-45.512403430366234,55.02364424502599,14.037745059457954,-9.666934133128564,248.51921557470024,57.631535451064295
7,-6.504846957781319,-244.09045071928355,-45.18369022379169,55.119721869334946,14.303505006094648,-9.764301775023853,248.3471963999618,57.8035915326358
8,-6.22782522713327,-243.99309713911296,-44.88394422517382,55.18890080874631,14.512260210268801,-9.854181680644464,248.18956489334573,57.9358179922639
9,-5.9784645294663274,-243.9049694513926,-44.6147923554339,55.22793659901717,14.660564823910258,-9.935666859250574,248.04725723259978,58.02426965997704
10,-5.757959296808627,-243.8265556750761,-44.377257831561565,55.23412485124313,14.745937970261554,-10.008077082049088,247.92096896346126,58.06578375797797
11,-5.566884857036606,-243.75822036545145,-44.17177000730152,55.20535349673009,14.766909730239965,-10.070962895561516,247.8111517176142,58.05803778493263
12,-5.405216475677328,-243.70020208673648,-43.99819040482317,55.14013755594601,14.723045256850444,-10.12410373110494,247.71801575118113,57.99958431017572
13,-5.272363660986513,-243.65261366602707,-43.855852465755255,55.03763595180939,14.614947591343935,-10.16750111858544,247.6415380802468,57.88986264749351
14,-5.167217297485233,-243.6154452066333,-43.74361239582085,54.89765147713615,14.444239814320234,-10.201367913228466,247.5814756694812,57.7291888918916
15,-5.088207022128398,-243.58856954927148,-43.6599084683426,54.72061631204751,14.213527184359164,-10.226114266224611,247.53738283569763,57.518727002504825
16,-5.033366277792417,-243.57174968866926,-43.60282623359393,54.50756612241832,13.926340099640013,-10.242330871128724,247.508631861712,57.26044423036954
17,-5.00040259538109,-243.5646475887832,-43.57016729474337,54.26010571878278,13.587059129411731,-10.250769811110613,247.49443579071132,56.957054205780224
18,-4.98677082296563,-243.56683384545352,-43.55951967375787,53.98036876148732,13.200823897275301,-10.252323096311915,247.49387244390618,56.61195061820986
19,-4.989747245959578,-243.577797693541,-43.56832815753508,53.67097335715088,12.77342808501075,-10.247998727816293,247.5059088224018,56.22913387847895
20,-5.006502823285291,-243.59695697798352,-43.593963200646286,53.33497476568036,12.311203171750755,-10.238893958330474,247.52942521593818,55.81313259528371
21,-5.034174027904299,-243.62366793058183,-43.63378694402159,52.97581584926183,11.820893749487855,-10.226165476421501,247.56323856487802,55.36892117954348
22,-5.069929945148339,-243.65723485727534,-43.68521482617334,52.597275333336796,11.309527406144232,-10.210996563352818,247.60612486988893,54.901834421221686
23,-5.1110343560300535,-243.69692005260956,-43.745771252075194,52.203413477105144,10.78428224232107,-10.194561768661355,247.6568406499502,54.41747951020173
24,-5.1549015835479945,-243.741954382103,-43.81313791037735,51.79851453788364,10.252355063550379,-10.177990190457818,247.71414359165695,53.9216458299833
25,-5.199144953849027,-243.7915489946953,-43.8851936486983,51.38702563756063,9.720833157737255,-10.162328940583446,247.77681260986452,53.42021309432329
26,-5.241616847328947,-243.84490849526156,-43.960045380807195,50.973492317922805,9.196572353045074,-10.14850876085096,247.8436675125735,52.91905903536092
27,-5.280439541199778,-243.90124558810493,-44.03605022709293,50.562492001471625,8.68608380117474,-10.137313951231873,247.91358828628017,52.42396868832564
28,-5.314026420715072,-243.9597967826941,-44.111829710282905,50.158567435777776,8.195431670930153,-10.12935869315545,247.9855337287054,51.94054803787744
29,-5.341093602016898,-244.0198384134952,-44.18627707366493,49.766162713759236,7.730143662663123,-10.125071490453355,248.05855888082942,51.474145125020506
30,-5.360662420300736,-244.08070206227822,-44.25855862113554,49.389564496329214,7.295135963044465,-10.124688887232574,248.13183053238606,51.02978154738377
31,-5.372053529191044,-244.1417883928427,-44.328109567452564,49.03285066233072,6.8946539510067595,-10.128258968496247,248.20463993372977,50.61209668343303
32,-5.374873606335176,-244.202578296104,-44.3946244568185,48.69984795049473,6.532229613239402,-10.135654476627755,248.27641166763908,50.22530611423128
33,-5.3689959230588284,-244.2626401488469,-44.45804196188401,48.394099420503984,6.210656208712325,-10.146594713034457,248.3467075053685,49.8731747830131
34,-5.354536241602081,-244.32163208258658,-44.518523936319326,48.11884181577371,5.931980273773771,-10.16067477323719,248.41522418036746,49.55900450319297
35,-5.331825537194955,-244.37929854280023,-44.57642892491849,47.87699215334631,5.697510646204825,-10.177400137053557,248.4817844521556,49.28563451240659
36,-5.301380857121222,-244.4354610418664,-44.6322807837542,47.671142149329974,5.507843804457881,-10.19622425191623,248.5463215223022,49.0554529358656
37,-5.263875276717389,-244.49000370234936,-44.686733500748005,47.50355855892713,5.3629044005282465,-10.21658654671537,248.6088576160659,48.870416411379324
38,-5.22010754035778,-244.54285476423613,-44.74053367043086,47.376187289397336,5.261999395619421,-10.23794832561639,248.66947816588808,48.73207486313615
39,-5.1709717709108345,-244.59396560105773,-44.794482306205225,47.29065922570227,5.2038837647730745,-10.259824225406753,248.7283034329335,48.64159849542031
40,-5.117427674781312,-244.64328900020695,-44.849397685909764,47.24829599769076,5.186835396042346,-10.281807353204758,248.78545961186967,48.59980442178559
41,-5.060471856643855,-244.69075857755536,-44.90608067532218,47.25011431336053,5.208736563800914,-10.303586794356855,248.84105153604892,48.60718083738335
42,-5.001111016966672,-244.73627114712832,-44.96528353323624,47.29682790076834,5.267159160049007,-10.324956816124184,248.8951389763991,48.66390717871125
43,-4.9403378427454365,-244.77967350216352,-45.02768272981388,47.388846489105326,5.359450738538199,-10.345817720441186,248.94771808428666,48.76986923093996
44,-4.879110300029252,-244.82075439240046,-45.09385590530228,47.526271620292896,5.482818448951944,-10.366168849365302,248.99870879136438,48.924668634187384
45,-4.818334807407296,-244.8592417489676,-45.16426277004436,47.70888944234054,5.634408169811018,-10.386094655102534,249.04794819216895,49.127626723219024
46,-4.758853448872646,-244.89480469610652,-45.2392295451793,47.93616097636423,5.811376543164557,-10.405744993669876,249.09518938661162,49.377783082281645
47,-4.701435028865164,-244.92705972118367,-45.318936546311605,48.20721060359621,6.010954058681747,-10.425310937541708,249.14010508636215,49.67388954074276
48,-4.646769457074179,-244.95558046945987,-45.40340867419041,48.520813641967244,6.2304977515563165,-10.444997510609719,249.18229540484165,50.01440054133775
49,-4.595464768336103,-244.97991076077253,-45.49250872921472,48.87538390852035,6.467532483532722,-10.464994886004165,249.22129940323651,50.39746093016744
50,-4.548046087691164,-244.99958039258192,-45.58593354246903,49.26896218771443,6.719780246611371,-10.485449755339115,249.25660994697978,50.82089234837831
51,-4.504956000406542,-245.01412311666417,-45.683213026602225,49.69920662443212,6.9851774972377685,-10.506438728210162,249.28769127565985,51.28217961932853
52,-4.4665559877949,-245.0230960287295,-45.78371248913012,50.163386246287075,7.261881099129314,-10.527945689959285,249.31399859010494,51.778458806351445
53,-4.433128787734622,-245.02609956216602,-45.8866388213129,50.65837905525697,7.54826386413279,-10.549844991042352,249.33499896491801,52.30650889666492
54,-4.404881722194482,-245.02279723503963,-45.99105124792527,51.180676350623386,7.842900866476393,-10.571892133206022,249.35019286953732,52.862749270830456
55,-4.381951157023751,-245.0129342005787,-46.095877039587805,51.726395053166534,8.144547746815665,-10.5937232073633,249.3591354354015,53.44324515123602
56,-4.364408240569799,-244.99635357867567,-46.19993202230384,52.29129968770208,8.452112242286056,-10.614863682711116,249.36145643421523,54.04372299551878
57,-4.352265905483281,-244.97300961647719,-46.30194511927835,52.87083533147608,8.764620239878855,-10.634746290311284,249.356877891958,54.65959731392557
58,-4.345486925247791,-244.9429769672798,-46.400585757087455,53.46017234695213,9.081177734955503,-10.652736841593732,249.3452284242993,55.28600976228423
59,-4.343992685747804,-244.90645572931336,-46.49449285884932,54.05426319082884,9.400930124506761,-10.668166065976356,249.32645370241616,55.91788071818427
60,-4.347672244367058,-244.86377224020788,-46.58230432123805,54.64791104757112,9.723020241192613,-10.680365083624224,249.30062283551703,56.54997292819353
61,-4.356391154100735,-244.8153758652263,-46.662686224798854,55.23584945372351,10.04654647858628,-10.688701995418624,249.26793075676426,57.17696621402397
62,-4.369999434795036,-244.7618321133811,-46.73436135181118,55.8128314684323,10.370522349804464,-10.692617242289883,249.22869685140034,57.793541664509505
63,-4.388338039208679,-244.70381242513952,-46.7961366845149,56.37372636307399,10.693838897901891,-10.691655803748324,249.1833600927268,58.394473270866406
64,-4.41124324652932,-244.64208096265406,-46.84692941937456,56.913621307738104,11.015231494964308,-10.685494883615515,249.13247091514032,58.97472461844149
65,-4.438548613965395,-244.577478725466,-46.88579084844305,57.427925120797624,11.33325263892799,-10.673966301775142,249.07668001479888,59.529547975485066
66,-4.470084361468937,-244.51090535452718,-46.9119273993149,57.912470753354135,11.646252313482863,-10.657073178624222,249.01672430057752,60.054582801428246
67,-4.505674308118947,-244.44329913864868,-46.92471819284816,58.3636127677339,11.952367321702663,-10.63500061114011,248.9534103828936,60.54595028926027
68,-4.545130716544719,-244.37561599264333,-46.9237285782538,58.778315712460994,12.249520800900921,-10.608120045176491,248.88759626131818,61.00034017061198
69,-4.588247599956412,-244.30880841438486,-46.908719197112646,59.154229146030616,12.535432908362772,-10.576987139594156,248.82017212680603,61.41508583680361
70,-4.634793128218708,-244.24380551259534,-46.879650270572334,59.48974525889098,12.807643392864245,-10.542333160836472,248.75204130665966,61.78822400525895
71,-4.684501705463828,-244.18149509198588,-46.83668105976206,59.78403565855145,13.063546379060464,-10.50505027575053,248.68410232490086,62.118535734849615
72,-4.737066148249193,-244.12270853159683,-46.78016475133941,60.03706488892899,13.300437195825626,-10.466171411297703,248.61723285921192,62.40556651935456
73,-4.792130292491263,-244.0682088411202,-46.71063920399273,60.24957951465929,13.515570531278565,-10.426845539931175,248.5522760638495,62.6496243281296
74,-4.849282405518826,-244.0186818780189,-46.628813989292645,60.423072906811164,13.706228648844412,-10.388309319806833,248.49002933361822,62.85175562452341
75,-4.908049972466209,-243.97473034123064,-46.53555407382857,60.559727048033146,13.869797868240706,-10.351856014732162,248.4312352107401,63.01370042172286
76,-4.967896609736014,-243.9368699151156,-46.431860438920644,60.66233369931504,14.00385099372236,-10.318802605166784,248.37657389230782,63.13782830998729
77,-5.028221850439284,-243.90552686705755,-46.31884793892289,60.73419820082286,14.10623286451703,-10.290456049453805,248.32665672725707,63.22705818400083
78,-5.088364315894791,-243.88103649456158,-46.19772076527661,60.77903000950455,14.175145762469466,-10.268079795846297,248.28202018980141,63.28476512561571
79,-5.147608475626069,-243.86364201774649,-46.06974606680806,60.80082465516868,14.209231120277128,-10.252861818185107,248.24312004024557,63.314678417212455
80,-5.205194973246463,-243.85349374789746,-45.936226567933865,60.803741963463914,14.207643889931255,-10.245885519007933,248.21032566407567,63.320774812046
81,-5.260334396751915,-243.85064856209684,-45.79847330233614,60.79198514534839,14.170116068348888,-10.248104711579849,248.18391482492146,63.30717095602502
82,-5.312224303464767,-243.85506983118063,-45.65777974766001,60.76968484108518,14.097006206926403,-10.26032356344175,248.16406921081617,63.2780183832593
83,-5.360069168040359,-243.86662799840414,-45.515398700603455,60.7407916177777,13.989332207919576,-10.283181956005432,248.15087120759472,63.23740397819531
84,-5.40310269836596,-243.8851020468898,-45.37252312934344,60.70897987192688,13.848785300756678,-10.317146281568794,248.1443023477828,63.189258331867734
85,-5.4406117157064475,-243.91018213717774,-45.23027191399544,60.677565599779754,13.677723780962761,-10.362505304573228,248.14424385924906,63.13727403960025
86,-5.47196055715822,-243.941473684843,-45.08968090750942,60.64943999290463,13.479145865566972,-10.419370402842853,248.15047963299332,63.08483562335279
87,-5.496614742177996,-243.97850303978532,-44.9516992904601,60.62702018077855,13.256641846184538,-10.487679340694259,248.16270173335366,63.034962308415956
88,-5.514162486302675,-244.02072476649312,-44.81719081120913,60.612217617094245,13.014326576808427,-10.56720271831416,248.18051834003964,62.99026427854309
89,-5.524332588907454,-244.06753040155053,-44.68693915795723,60.60642367294704,12.756754158321767,-10.657552329040513,248.20346382482037,62.95291232814228
90,-5.527007293795267,-244.1182585300977,-44.56165645513036,60.610511168935425,12.488817365304516,-10.758190792666701,248.2310105849312,62.92462019204416
91,-5.522228954957958,-244.17220603646598,-44.44199380660569,60.62485005213245,12.215634818948395,-10.868442020256774,248.26258225902978,62.906638436899364
92,-5.5101997817800115,-244.22864036290628,-44.32855284024637,60.64933526200108,11.942429189854808,-10.98750228679935,248.29756794663604,62.8997587088077
93,-5.491274571857956,-244.28681252453518,-44.22189717270886,60.68342495336784,11.674399973398659,-11.114451883855887,248.33533697968878,62.90432730153646
94,-5.465947021059165,-244.34597054164226,-44.12256263515559,60.726187533250055,11.416594741240338,-11.24826745308179,248.37525371684845,62.92026734414611
95,-5.434830729071989,-244.405372937667,-44.03106514651766,60.77635630463148,11.173783206487485,-11.387835172789305,248.4166918436242,62.94710929084152
96,-5.398636277958074,-244.46430200417703,-43.94790532135812,60.832390765430084,10.950338793889237,-11.531965025931845,248.45904775731256,62.98402968251226
97,-5.358145768372873,-244.52207659794308,-43.87356914566484,60.89254365190145,10.7501325253191,-11.679406455827504,248.50175272272182,63.02989818827731
98,-5.314186073290353,-244.57806430051144,-43.80852430650536,60.95493258202443,10.576443822606501,-11.828865805692377,248.54428359047245,63.08333265368884
99,-5.267601958642057,-244.63169284771436,-43.753212098411176,61.01761475225475,10.431892246324987,-11.979025974192085,248.58617200215332,63.14276137020313
100,-5.219230168830475,-244.68246077840425,-43.70803531814055,61.07866283615612,10.318393218910424,-12.128568627923858,248.62701213313923,63.20649128843407
101,-5.169875504722211,-244.72994718811248,-43.67334312318583,61.13624025982722,10.23713946938919,-12.27619905498274,248.66646706011326,63.272780659013215
102,-5.120289789611684,-244.7738202814183,-43.64941424524208,61.18867435500693,10.18860838421661,-12.420673323735764,248.70427372280767,63.339914585917114
103,-5.071154484637863,-244.81384414158936,-43.636440012538955,61.2345262173518,10.172593798090555,-12.560826886238821,248.74024618698735,63.40628195550469
104,-5.023067601998416,-244.8498829066187,-43.63450832299503,61.27265609551751,10.188259220936278,-12.69560327643447,248.7742766320853,63.47045188965197
105,-4.976535382642478,-244.881901518778,-43.64358918598268,61.30228265745606,10.23420832708333,-12.82408126638927,248.8063333682437,63.53124718127307
106,-4.931968875566433,-244.90996244718545,-43.66352193379542,61.32303362570009,10.308567897467569,-12.945498832647953,248.83645531705042,63.58781124195265
107,-4.889685119460357,-244.93421816361226,-43.69400386133733,61.33498439455057,10.409078280227297,-13.059272486123394,248.8647426935265,63.639664251841495
108,-4.84991221342064,-244.95489956748582,-43.73457995799897,61.33868083192558,10.5331866648215,-13.165010815559135,248.8913440078673,63.68674388550153
109,-4.812797313978849,-244.9723009773551,-43.784633546518265,61.335142907021314,10.67813890166271,-13.262521399024383,248.91643993801355,63.72942652322287
110,-4.778416602820929,-244.98676267996632,-43.843378009317405,61.32584711185514,10.841066148769936,-13.351810501207618,248.94022505365308,63.768526260371495
111,-4.746786488300795,-244.9986521911072,-43.90985031381263,61.31268755277994,11.019063227849632,-13.433075178666948,248.96288862884498,63.805270987623466
112,-4.717875541927655,-245.00834521661525,-43.982907621547625,61.29791757525675,11.209256192139117,-13.506687590120555,248.98459572202768,63.84125685022161
113,-4.6916167581855515,-245.01620692785406,-44.06122867507516,61.28407531981333,11.408857258622579,-13.573171529467986,249.0054694065197,63.878384013570106
114,-4.6679196775093885,-245.02257385693332,-44.14332169645014,61.273897299692905,11.615205978196704,-13.633171528896543,249.0255747353145,63.91877751562212
115,-4.646681869748441,-245.02773667118672,-44.22754011525701,61.27022387924233,11.825796304805,-13.687415301971116,249.04490490497867,63.96469701034649
116,-4.627799336600907,-245.0319243386059,-44.312106689084075,61.275899729142914,12.038289973762781,-13.736670733904358,249.06337020214227,64.01843866047388
117,-4.611175531760911,-245.03529060987825,-44.39514575859808,61.29367142839082,12.250517169982642,-13.781699026438323,249.08079058556427,64.08223174729855
118,-4.596728807002711,-245.03790402606643,-44.47472270786682,61.32608375034395,12.460465801524455,-13.823205974767678,249.09689292444418,64.15813208079099
119,-4.584398081896666,-245.0397425478608,-44.54888919523623,61.375375950015155,12.666260851522175,-13.861793700267542,249.11131371842117,64.24791416203955
120,-4.574146440214997,-245.0406934004934,-44.615732318976335,61.443379533601245,12.866135379053368,-13.897915435822977,249.12360756268052,64.35296425904325
121,-4.565962317786657,-245.0405581119269,-44.673425595967885,61.53141943589515,13.058394879990804,-13.931836070648588,249.13326096582276,64.47417701002081
122,-4.559858071219448,-245.03906225608844,-44.72027951079059,61.64022109236984,13.241376944329348,-13.963601039351126,249.13971065045283,64.61185870344339
123,-4.555865991942739,-245.03586913923593,-44.75478944166216,61.769826375738596,13.413408436362776,-13.993015777949095,249.14236520948967,64.76564081069353
124,-4.554032167802038,-245.03059649366978,-44.775678966470814,61.9195216470769,13.572762718779208,-14.019637414248436,249.14062885982338,64.93440754541001
125,-4.5544088955534265,-245.02283515906223,-44.781936892678985,62.087781234450304,13.7176196484359,-14.04277966822488,249.1339260177273,65.11624117260808
126,-4.557046509710689,-245.0121687985578,-44.77284681078687,62.27222950752809,13.846031087788326,-14.061531141691681,249.1217255704155,65.30838848584663
127,-4.561985444839547,-244.99819386952717,-44.74800842325875,62.46962432493363,13.95589446167429,-14.074786308895069,249.10356396790462,65.50725127197002
128,-4.569249124081503,-244.9805391995673,-44.707350217481626,62.67586394214042,14.044936494830834,-14.08128767317787,249.07906643985143,65.7084026708259
129,-4.578838002477241,-244.95888453143573,-44.65113323343103,62.886018491079,14.110708765838243,-14.079676866291589,249.04796568140597,65.90663016403064
130,-4.590724918223723,-244.93297736488225,-44.57994582707437,63.09438595198075,14.150596152663939,-14.068552032245396,249.01011733884323,66.09600459303486
131,-4.604851845444941,-244.90264746514214,-44.49468950941632,63.29457126714712,14.161838652749134,-14.046528675074809,248.965511695447,66.26997325253775
132,-4.621128129809637,-244.86781860950254,-44.39655614843564,63.47958611600163,14.141566468102896,-14.012301243040515,248.91428119066413,66.42147394657137
133,-4.6394302356831805,-244.82851748277832,-44.28699705977278,63.6419661373468,14.086847681105063,-13.964703042692172,248.85670377832554,66.54306617657979
134,-4.65960290721924,-244.78487995234644,-44.16768478301299,63.77390218013963,13.994747329780665,-13.902762546105805,248.79320248769912,66.62707546589355
135,-4.681461496563948,-244.73715504179515,-44.04046862688384,63.86738239742062,13.862396235971175,-13.825754627371596,248.7243416839502,66.66574709639475
136,-4.704795137979256,-244.68570670878196,-43.907325355742536,63.91434242201199,13.687067563875766,-13.733245609204934,248.65082036242555,66.65140597938488
137,-4.729370505316997,-244.63101317060807,-43.770306662039246,63.90682121801577,13.466258813151704,-13.625131207624106,248.5734625024405,66.57661975867097
138,-4.754936044399784,-244.57366324004522,-43.63148528151764,63.83712034010293,13.19777677654371,-13.501666619720547,248.49320426849428,66.43436242534804
139,-4.781226716360171,-244.51434906069505,-43.492901739132215,63.69796425288141,12.879822868679085,-13.363488141648403,248.4110777989608,66.21817570716303
140,-4.8079693354670345,-244.45385476404155,-43.35651378978012,63.48265913574061,12.511076114508347,-13.211625745540486,248.3281914656704,65.92232531905644
141,-4.834888532022909,-244.39304085020834,-43.22415063599942,63.185247264056756,12.090770981079379,-13.047505899606536,248.24570676369925,65.54194884542346
142,-4.861713277527334,-244.3328244427326,-43.09747387273838,62.80065363877804,11.618767192159154,-12.87294363792906,248.16481230715794,65.07319161005503
143,-4.888183823770815,-244.27415591889056,-42.97794669167893,62.3248211312653,11.09560871778566,-12.690122654521316,248.08669567763832,64.51332651299474
144,-4.914058823794805,-244.2179927731426,-42.86681211916325,61.75483019444742,10.52256927993956,-12.501562203460436,248.0125140907295,63.860853681020465
145,-4.939122291219288,-244.16527194839995,-42.76508011708913,61.08899931174738,9.901681940623202,-12.310069951165172,247.9433650550509,63.115576050109986
146,-4.963189937410601,-244.11688217213887,-42.67352258608846,60.32696284136986,9.235750638341392,-12.11868065930936,247.8802583610768,62.27864770337385
147,-4.986114374115029,-244.07363790530076,-42.592674951928274,59.46972366836966,8.528341951430889,-11.930581583292138,247.82409074706587,61.35259281882738
148,-5.007788694508426,-244.0362563269235,-42.522843073052876,58.51967892203451,7.783755939833269,-11.74902657999786,247.7756244192006,60.34129423610235
149,-5.028147993943027,-244.0053384721666,-42.464114431732234,57.480617775186715,7.0069756552430995,-11.577241951224044,247.73547034212677,59.2499517195818
150,-5.0471684795619405,-243.98135534667622,-42.41637273886824,56.35769093743722,6.203595750296798,-11.418327884845407,247.70407695518523,58.085010863167
151,-5.064864051790924,-243.96463956596529,-42.3793151568052,55.15735195836286,5.379731465561503,-11.275159919658092,247.68172471535573,56.854064284950574
152,-5.081280648927304,-243.95538274183687,-42.352471453894964,53.88727104329981,4.54191007458488,-11.150295089108843,247.66852657266026,55.56572744460862
153,-5.096489071616162,-243.95363842997872,-42.3352246906891,52.55622289884853,3.6969476326076514,-11.045887273934163,247.66443414082988,54.2294922217005
154,-5.110577213395373,-243.9593300597549,-42.32683346696346,51.173951182192326,2.8518145944151447,-10.963615872639924,247.66924901873796,52.8555623490533
155,-5.123642522990752,-243.97226300839858,-42.32645607419673,49.751013318299115,2.013494436914726,-10.904631267184522,247.68263851698194,51.454675805304454
156,-5.135785251007993,-243.99213983831788,-42.33317683383661,48.29861057120013,1.1888397209424066,-10.869519741879826,247.70415488741054,50.03792013432101
157,-5.147102803443053,-244.0185775807793,-42.346034461483704,46.828409049829624,0.38443004391090924,-10.85828945912095,247.7332569409952,48.61654711769601
158,-5.157685399254599,-244.05112579552033,-42.36405176177936,45.352357596523476,-0.3935638605488206,-10.870377802369621,247.76933269447804,47.201793099417614
159,-5.167613097632181,-244.08928404065827,-42.38626561673927,43.88250823138424,-1.1395060053262187,-10.904679015245028,247.81172153101411,45.804710573990334
160,-5.176954046362576,-244.13251745105165,-42.4117561362762,42.43084410167904,-1.8484077131863592,-10.959589847363226,247.85973440144997,44.43601554414116
161,-5.185763606245733,-244.18026939952134,-42.43967381918563,41.00911877477592,-2.516024168522426,-11.033070059988681,247.91267085653027,43.105953733592145
162,-5.19408398855668,-244.23197064288914,-42.469263460599244,39.62870930337717,-3.1389326897637178,-11.122714219988566,247.9698321017796,41.82418711081201
163,-5.201944215116989,-244.28704479465813,-42.499883424558796,38.30048400586066,-3.7145906352941314,-11.225831176974252,248.03052968462762,40.59970055877921
164,-5.209360407531793,-244.34491035020287,-42.531019043076576,37.0346846093944,-4.241370948903364,-11.339527840218457,248.09408983194464,39.440727151332375
165,-5.216336474807916,-244.40497984777073,-42.56228941968658,35.84082146757434,-4.718573521912577,-11.460794200789715,248.1598538996197,38.35468950584914
166,-5.222865198556385,-244.46665707940448,-42.593447621394645,34.72758008266364,-5.146410875052727,-11.586586905185875,248.22717584179298,37.348154160924416
167,-5.228929612564782,-244.5293334996359,-42.62437483446348,33.7027372216299,-5.525967214377487,-11.713909048080952,248.29541793587646,36.42679596996262
168,-5.234504497748611,-244.59238506537454,-42.65506935827832,32.77308552127462,-5.85913076007927,-11.839884171413539,248.36394613037587,35.595370118228175
169,-5.239557754223061,-244.65517069318935,-42.68563133813632,31.944366442123545,-6.148500345983609,-11.961822712966503,248.43212633429545,34.85769037621222
170,-5.244051365233664,-244.71703336163262,-42.716244009933625,31.22121241720758,-6.397268480902616,-12.077279380779183,248.49932278166756,34.21661327019881
171,-5.247941694943621,-244.7773045836307,-42.74715206812588,30.60709978050089,-6.609084177480579,-12.184100216112121,248.5648992732629,33.674028724525876
172,-5.251179030018824,-244.83531248444592,-42.778637695226855,30.104314487154845,-6.7878997758829,-12.280458478598415,248.62822360059184,33.23085833775134
173,-5.253706527846115,-244.89039309591976,-42.8109949139526,29.713932813303977,-6.937806659878296,-12.364878874917029,248.68867486318317,32.887062814023615
174,-5.255458917731538,-244.94190388872914,-42.84450328602932,29.435819171069944,-7.062865171650397,-12.436249939923377,248.7456528715558,32.64166015923195
175,-5.256361328941911,-244.98923820611452,-42.8794025271338,29.26864282731724,-7.1669342149378386,-12.493824531534752,248.79858856512297,32.49275600664083
176,-5.256328516245574,-245.031839237381,-42.91587013797053,29.209914570878173,-7.253506045965449,-12.537208539354841,248.8469544333542,32.4375868328086
177,-5.2552645567446215,-245.06921243142364,-42.9540043797709,29.25604322284582,-7.32555162696349,-12.566338227740212,248.89027421630703,32.47257594562736
178,-5.253062850138793,-245.10093563312412,-42.99381462585167,29.402410521778215,-7.38538166731528,-12.58144722102524,248.92813147954354,32.59340117774059
179,-5.249606115633062,-245.12666657424643,-43.03522023844558,29.64346168894589,-7.434528076718119,-12.583024864528225,248.9601768561029,32.79507243872492
180,-5.244766200344553,-245.14614764951608,-43.07805781021635,29.97280819205861,-7.473649976122062,-12.57176832359574,248.98613384337202,33.07201682238053
181,-5.238403849572078,-245.15920822019447,-43.122095300416156,30.383338974040782,-7.5024676878392995,-12.548531156185504,249.00580316148975,33.41816885474896
182,-5.230368902122974,-245.16576499462266,-43.16705077018677,30.86733658390399,-7.519727337524164,-12.51427120575313,249.01906586903087,33.82706362283485
183,-5.220501492313651,-245.1658212326841,-43.2126132325504,31.416595054093126,-7.523197884442217,-12.470000571447006,249.02588560320453,34.29193081778083
184,-5.208634772157247,-245.15946552734857,-43.25846337507712,32.022536888604726,-7.509701522849891,-12.416740128077613,249.02631035507244,34.80578805551407
185,-5.194599482379853,-245.14687071613622,-43.3042923378706,32.67632711949898,-7.475177466223185,-12.355480536083784,249.0204740561607,35.36153215572646
186,-5.178230439640764,-245.12829310180607,-43.349817199163034,33.36898304189871,-7.414778189323811,-12.287150914732674,249.00859795429233,35.95202736876686
187,-5.159374711577407,-245.10407171144647,-43.394792266049336,34.0914789100213,-7.322996258862445,-12.212595508377879,248.9909913774954,36.57018985525112
188,-5.137901001287856,-245.07462694452738,-43.439015684192526,34.83484547878294,-7.193818853163301,-12.132557963750688,248.9680511720382,37.20906801457654
189,-5.113709646259476,-245.04045775577166,-43.48233133245876,35.59026465955063,-7.020905932058185,-12.047672351737635,248.94025896848095,37.861918413072225
190,-5.0867426706166174,-245.00213648866665,-43.524626506536286,36.34915959084596,-6.797786886211512,-11.958459769913661,248.90817548852942,38.5222769563286
191,-5.0569934220934725,-244.96030061186283,-43.56582647422086,37.10328011162312,-6.518069526457255,-11.865329194290021,248.8724313375234,39.1840245905619
192,-5.024515353676637,-244.91564096115883,-43.605887452874136,37.84478315399299,-6.175654543072973,-11.768581200630562,248.83371415034478,39.84144638545533
193,-4.989429435673112,-244.86888662509477,-43.64478970053913,38.566307193948845,-5.764948097583297,-11.668413246214216,248.79275250574784,40.48928258081957
194,-4.951929553698437,-244.82078713667832,-43.68253208834341,39.261039762939255,-5.281065076079032,-11.564925386388376,248.75029748045353,41.12277021885571
195,-4.912285123119471,-244.77209295446383,-43.71912885128605,39.92277714050806,-4.720015817665405,-11.458125609959064,248.7071029108657,41.73767435656467
196,-4.870840108367981,-244.72353530471125,-43.75460851269265,40.545975652602785,-4.07886981526496,-11.347934408914027,248.66390539377866,42.33030848615809
197,-4.828007796442813,-244.67580639145442,-43.78901448782303,41.12579438552987,-3.3558908292137417,-11.23418868626453,248.62140490989427,42.89754453320268
198,-4.784261113787533,-244.629540856246,-43.8224066521637,41.65812946341632,-2.5506389207638773,-11.116645565365447,248.58024680015131,43.43681347314519
199,-4.740118896731547,-244.58529926235974,-43.85486317493173,42.13964024393666,-1.6640360710753521,-10.994987028505678,248.54100573485243,43.94609809586266
200,-4.696129097383192,-244.54355430400162,-43.88648210096824,42.56776786546368,-0.6983933371676329,-10.868826503679497,248.50417228677753,44.42391973629116
201,-4.652850266384951,-244.50468033161093,-43.91738242217613,42.9407465388829,0.3426010865346597,-10.737718444895174,248.47014266446936,44.869320857576625
202,-4.61083278689264,-244.4689465758084,-43.94770461324719,43.25760772923204,1.4539320594712943,-10.601171601361674,248.4392120001438,45.281845115914045
203,-4.570601261266834,-244.43651417661843,-43.977610701164686,43.5181767553759,2.629343707822155,-10.458666171103866,248.41157133037524,45.661515809554245
204,-4.5326391746763575,-244.4074368833897,-44.00728379849591,43.723060315460316,3.8614582673852684,-10.309674561863481,248.38730814074165,46.00881241464247
205,-4.497376539664541,-244.38166517604245,-44.03692669533539,43.87362229849607,5.14192331175967,-10.153685138515955,248.36641016572835,46.324643531342495
206,-4.465180793250816,-244.3590536040688,-44.06675877283848,43.97194449822235,6.4615825537189515,-9.990228141394555,248.34877211321353,46.610313538089876
207,-4.436350871291321,-244.3393712860221,-44.0970103949996,44.02076899925524,7.81066503595981,-9.818902908751078,248.33420510097017,46.86748007568709
208,-4.411114143373451,-244.32231559886495,-44.12791415926369,44.023420241516924,9.178987234749322,-9.639405594737486,248.32244871283837,47.09810033771936
209,-4.389625754476762,-244.30752894155518,-44.159692892147426,43.98370686734987,10.556162297806454,-9.451556650185635,248.31318552765111,47.30436580309792
210,-4.371969906472313,-244.29461804120464,-44.19254489688998,43.90580588844551,11.93181035712712,-9.255327326848416,248.30605767687527,47.48862699500808
211,-4.358162714653641,-244.28317475565544,-44.2266274900301,43.7941338725854,13.295763759675886,-9.050864350135987,248.30068457927945,47.65331153422535
212,-4.348156408142365,-244.27279698176451,-44.2620401670616,43.653211318859164,14.63826128540841,-8.838511733811858,248.296680719687,47.80083981401683
213,-4.341844712603836,-244.26310822833952,-44.29880880333013,43.48752704195579,15.950125962259566,-8.618828546042922,248.29367230214956,47.93354297574555
214,-4.339069247521264,-244.25377457781707,-44.336872177698936,43.30140932982413,17.222921830166946,-8.392601304795408,248.29131174826,48.053587626251094
215,-4.3396267428157,-244.24451803047057,-44.37607184547262,43.09891004611343,18.449085859481436,-8.160849595167038,248.28928922922285,48.16291108586646
216,-4.343276864779092,-244.2351255590277,-44.41614602289337,42.88370683487206,19.622032149597224,-7.92482351625284,248.28734068398595,48.26317002153622
217,-4.349750436263733,-244.22545357182645,-44.4567277483844,42.65902721237862,20.73622649872652,-7.6859917627171495,248.28525206939193,48.35570418743457
218,-4.358757842472042,-244.21542783443144,-44.49734726555116,42.42759668551568,21.787230443654863,-7.446019550844871,248.2828598775002,48.44151576084375
219,-4.369997440576948,-244.20503919611463,-44.53743843681912,42.19161126979882,22.771714927416856,-7.206736131513371,248.2800482229343,48.52126355278588
220,-4.383163827317447,-244.1943357205816,-44.5763490397813,41.952733081981386,23.687444829802185,-6.9700921814572885,248.27674305996385,48.59527031619478
221,-4.397955831690647,-244.18341204753688,-44.61335486026164,41.712106222147426,24.533236588529068,-6.738107889163919,248.27290432351788,48.663540551127475
222,-4.414084071287769,-244.1723969705527,-44.64767739869474,41.4703890559284,25.308891929902334,-6.512813082543582,248.26851692689556,48.7257856555351
223,-4.431277866351642,-244.1614402293454,-44.67850473224737,41.22779833297081,26.015111267868356,-6.296181281863579,248.2635815124819,48.781453021943975
224,-4.4492912960553,-244.15069936193146,-44.70501478065318,40.984160384368195,26.653390665709235,-6.090060025758456,248.25810565023866,48.829755780443016
225,-4.467908219445686,-244.14032720612968,-44.726400079003795,40.73896493176463,27.22590646857206,-5.896100120361778,248.25209590339566,48.86970035729392
226,-4.486946127239773,-244.13046039385088,-44.741893180006606,40.4914177220851,27.73539185283125,-5.7156865712808065,248.24555094473908,48.90010978817772
227,-4.50625871624208,-244.121209076548,-44.75079187505298,40.2404891085045,28.185009586057838,-5.549873910307773,248.2384558174697,48.91964164536884
228,-4.525737126465204,-244.1126481942772,-44.75248348058552,39.98495667041746,28.578225212644472,-5.399328490193645,248.23077751952363,48.926800355873795
229,-4.545309884220283,-244.10481073027174,-44.74646754008477,39.723440909310185,28.918684658267022,-5.264280148838616,248.22246223819764,48.919944514110696
230,-4.5649416919828445,-244.09768342008357,-44.73237646826146,39.45443394804394,29.210099882862558,-5.144485464806797,248.2134346212279,48.89729050231482
231,-4.584631203413491,-244.09120526629826,-44.70999384895468,39.17632198623961,29.45614569231589,-5.03920464115347,248.20359938595308,48.856914299914656
232,-4.604407820917691,-244.08526900668232,-44.679270226768764,38.88740295534717,29.660370123542933,-4.947193843853047,248.19284538771208,48.796753714319166
233,-4.624327459491158,-244.07972547018673,-44.640336270686674,38.58590124490057,29.82611999395754,-4.86671453775897,248.18105206199112,48.714613312093825
234,-4.644467228482525,-244.07439057688265,-44.59351310638292,38.269981446530394,29.95648239653874,-4.795560966125177,248.16809796346763,48.60817407027126
235,-4.6649190937518705,-244.0690546312201,-44.53931942314318,37.937762832156544,30.05424226518507,-4.731106405463119,248.15387098718602,48.47500931742881
236,-4.685782725819181,-244.06349356399497,-44.478474739323964,37.58733591194461,30.121855656414965,-4.670368195497807,248.1382798258119,48.31260804029548
237,-4.70715783838139,-244.057481888124,-44.41189805731971,37.216782072754434,30.161438014611342,-4.610090767971305,248.12126629966843,48.11840618211637
238,-4.7291363523915795,-244.05080724365672,-44.34070115950558,36.82419705650871,30.174766323744198,-4.54684498055176,248.1028183096905,47.88982616610343
239,-4.75179472041605,-244.04328638004412,-44.26617607866297,36.40771888570942,30.163293661199692,-4.4771410802298215,248.0829831881041,47.624324510344024
240,-4.775186749384129,-244.03478220269784,-44.189776770888024,35.96556072821824,30.1281742572363,-4.397551677525744,248.0618810944682,47.31944702181337
241,-4.799337243382039,-244.0252211744756,-44.11309551165098,35.49604906115331,30.070296740310386,-4.3048402967927215,248.0397178629461,46.97289063840978
242,-4.824236704493852,-244.01461005099165,-44.037834826544014,34.997667280500714,29.990322854987063,-4.1960904815846884,248.0167964504677,46.58257051657628
243,-4.849837194802601,-244.00305075079638,-43.96577579964323,34.46910453681579,29.888728673147487,-4.068830185844749,247.99352596226805,46.14669046118801
244,-4.876049361636551,-243.990752178187,-43.898743427961584,33.90930902072865,29.765845311896054,-3.921146306125965,247.97042721274332,45.6638143325995
245,-4.902740623997225,-243.97803803248792,-43.83856943830106,33.31754423810592,29.621896481665097,-3.751784636937872,247.94813394475122,45.1329357297954
246,-4.9297346032099085,-243.965349981313,-43.787052824571106,32.69344620138489,29.457030723818445,-3.5602311472745303,247.92738913922688,44.553543117209934
247,-4.956812025507575,-243.9532459291594,-43.7459184497071,32.03707916461951,29.271346782784846,-3.346771195460813,247.90903621042784,43.92567769223634
248,-4.983713498843423,-243.94239336652606,-43.71677444073291,31.348987640706483,29.06491108077654,-3.112524077587034,247.89400520215497,43.24998167399424
249,-5.010144694023432,-243.93355788278458,-43.70106964880884,30.630242808621215,28.837766740265092,-2.859451120442726,247.88329429661675,42.52773523287813
250,-5.035784433712881,-243.9275869226606,-43.70005283007264,29.88248178895561,28.58993410473231,-2.5903363851850347,247.87794701445492,41.76088084000622
251,-5.060295979601555,-243.92538889950546,-43.71473520306808,29.10793851564932,28.321403259949264,-2.30873997889548,247.8790255153145,40.952034327227786
252,-5.08334148462832,-243.9279079422461,-43.74585776196536,28.309465148838832,28.032119590396725,-2.0189249984568516,247.8875805144487,40.104482438222455
253,-5.104599233638655,-243.9360948432587,-43.79386445952825,27.49054328877396,27.721963837924836,-1.7257601909569222,247.9046185610603,39.222167155361106
254,-5.123782961919859,-243.95087514322066,-43.85888225719963,26.655284631794792,27.390728440729195,-1.434601393630734,247.93106775646874,38.30965755739181
255,-5.140662230400024,-243.97311564061442,-43.94070896144312,25.808420974939352,27.03809216628047,-1.1511556494516744,247.9677433125366,37.37211029859121
256,-5.155082609801909,-244.00359078136384,-44.03880953110798,24.95528350217456,26.663595277232574,-0.8813325656104438,248.01531446765247,36.41521996435286
257,-5.166984363853025,-244.042950243779,-44.152321086431286,24.101771132967666,26.266617702752455,-0.6310879467330696,248.07427405836282,35.445160613033536
258,-5.176418430417007,-244.09168865523412,-44.280066333446875,23.25430753016642,25.846362867969173,-0.40626491388816427,248.1449115852042,34.46851982346081
259,-5.183558685767626,-244.15011800135775,-44.42057476879872,22.41978622226089,25.40184986347154,-0.21243758032858445,248.22729018540025,33.492226518953736
260,-5.188709658169921,-244.21834314400652,-44.57211090212276,21.605503178075164,24.93191645263864,-0.0547619713069603,248.32122776307588,32.5234736810337
261,-5.1923090539767545,-244.29624100650963,-44.73270866308493,20.819076082672225,24.435234997635888,0.0621616090047958,248.4262826562429,31.569636789748728
262,-5.194924716162637,-244.38344429680842,-44.900210986570876,20.06834958319275,23.910342724856097,0.1344110681124284,248.54174449784875,30.638188483985445
263,-5.1972459067870975,-244.47933093508652,-45.072313323028965,19.361285999022346,23.355686871355235,0.15884674841392984,248.6666311779186,29.736609611492934
264,-5.200069027244833,-244.58302047561128,-45.24660967560262,18.70584145408691,22.769684257794374,0.13319492988078654,248.79969291153776,28.87229662855021
265,-5.204278105068162,-244.69337871360375,-45.420639824082066,18.109828060498934,22.150793846958457,0.05610886033108508,248.93942433555466,28.05246527312761
266,-5.210820655947087,-244.80903139365435,-45.5919365831912,17.58076362811749,21.49759992048202,-0.07279381487248038,249.08408533123935,27.28405057279835
267,-5.2206797995288206,-244.92838750246264,-45.758072169294174,17.125711374449807,20.808902621758477,-0.25291780716845885,249.2317308990146,26.573603525042834
268,-5.234843609738867,-245.04967202235758,-45.916703061552326,16.75111320604947,20.083811786353145,-0.48270115031718963,249.3802498851447,25.927185168698152
269,-5.254272612812356,-245.17096737466133,-46.06561314098841,16.46262119906746,19.321839320596897,-0.7596497892629231,249.5274118051535,25.35025922381498
270,-5.279866264064421,-245.29026232708546,-46.20275513344804,16.264932763891093,18.522985055911413,-1.0803945765176055,249.67092061145854,24.84758500798257
271,-5.312429239442601,-245.40550691246153,-46.32629024827526,16.161635551806192,17.68781113034827,-1.4407688797790983,249.80847400945464,24.423112968900238
272,-5.35263844934649,-245.5146716813367,-46.43462553477672,16.155068460061603,16.817500537487813,-1.8359044840946097,249.93782664174148,24.07988591348188
273,-5.401011769537207,-245.61580921465873,-46.52644820212329,16.246205171829082,15.913896389519303,-2.2603430073452575,250.0568550240177,23.819949782222604
274,-5.457879562826136,-245.70711536608914,-46.60075607261583,16.434566573546256,14.979519463331922,-2.708159684774459,250.16362165656633,23.644278477617622
275,-5.523360116860009,-245.786987423442,-46.656883350508785,16.71816810215316,14.01756263443446,-3.1730962080165295,250.25643546322848,23.552717708810565
276,-5.597340103673436,-245.85407634972745,-46.694520941474856,17.093507480724114,13.031861873842544,-3.6486993578814415,250.33390568873347,23.54395300437037
277,-5.679461028597766,-245.90733039358548,-46.71373069862503,17.555597254820366,12.02684459266034,-4.128462329702774,250.39498653263473,23.615506866512654
278,-5.769112408856633,-245.9460276310186,-46.71495315914383,18.098044930934662,11.007457177723587,-4.60596572710468,250.4390100923097,23.76376932564948
279,-5.865432214447878,-245.96979554901307,-46.6990084453076,18.71318132206408,9.979074464709154,-5.0750151205058955,250.46570573868712,23.984064791077166
280,-5.967314970001008,-245.9786166513258,-46.667089988763806,19.3922350369067,8.947394596819937,-5.529771911924654,250.47520489209336,24.270756121689463
281,-6.073427788472533,-245.9728200490731,-46.62075067344273,20.12554817947326,7.9183231833958825,-5.964874126469147,250.46803110933044,24.617384433141094
282,-6.182234396213543,-245.95305983126136,-46.561880988544296,20.90282562705695,6.897850857321281,-6.375543728824361,250.4450761974016,25.01684057381781
283,-6.2920268955019605,-245.92028164261012,-46.49267892303212,21.71340804248156,5.89192825971491,-6.757677197590153,250.4075637007962,25.461561746562204
284,-6.400964647524086,-245.87567943647352,-46.415611653766746,22.546557195390296,4.906342282849775,-7.107916435267311,250.35700168293909,25.943744702331355
285,-6.507119315148554,-245.82064485860104,-46.33336951106366,23.391741249824058,3.946597181042502,-7.423697667463137,250.2951272647642,26.455565479293178
286,-6.608524790012174,-245.756712081514,-46.24881308193689,24.2389074727454,3.017803889075238,-7.703276782788135,250.2238457927956,26.989394939910003
287,-6.703230417087284,-245.68550109828539,-46.16491452157123,25.078730413645122,2.1245804954373235,-7.945730564505836,250.14516771410186,27.537999469170362
288,-6.789355684197493,-245.60866251907743,-46.08469423763698,25.902825034500204,1.270966334011406,-8.150934429428204,250.0611462670705,28.09471718704052
289,-6.865144484178098,-245.52782679631082,-46.01115421397349,26.703916472962565,0.46035171007392617,-8.319518529938138,249.97381898320114,28.653601853452045
290,-6.929017155884847,-245.44456045865616,-45.94720941992967,27.475960944184592,-0.3045750658923438,-8.452805213358278,249.8851556737147,29.20952913334658
291,-6.979618535508764,-245.36033129958946,-45.895619010468806,28.21421548179996,-1.021861958881111,-8.55273165619301,249.79701498121196,29.758262752975934
292,-7.015860009081741,-245.27648359373893,-45.858919329203815,28.915257466505615,-1.6903077687784875,-8.6217618965233,249.71111075016492,30.296480977092287
293,-7.036953154574329,-245.1942234067582,-45.83936102635619,29.57695783020149,-2.30945635440853,-8.66279254108748,249.62898850587547,30.82176643680872
294,-7.042432399408295,-245.1146130392211,-45.83885276608801,30.19841409870166,-2.879570405826214,-8.679056238965297,249.55201134187172,31.3325643278887
295,-7.032164672435942,-245.03857281735182,-45.858913784140334,30.779850793936205,-3.4015852310990335,-8.674026630163661,249.48135370347072,31.828115147850657
296,-7.0063454391883715,-244.96688807812268,-45.90063683955293,31.32249514730702,-3.877043702109976,-8.651327879766043,249.41800117469006,32.30836843391691
297,-6.965482243816626,-244.9002193590624,-45.96466218914716,31.828435857276652,-4.308014260856436,-8.614651130626752,249.36275450915738,32.77388367208585
298,-6.910368094183039,-244.83911424138324,-46.051162633574414,32.30047216409254,-4.696994688549408,-8.567679369498597,249.31623657201234,33.225724080113785
299,-6.842047374980035,-244.78401964096017,-46.15983957571947,32.74196008653497,-5.046805150916521,-8.514021436053229,249.27890120956198,33.66534860425202
300,-6.761776765040019,-244.73529341558796,-46.28993005251957,33.15666224722277,-5.360474798233412,-8.45715526963515,249.25104311968028,34.09450718276396
301,-6.670983260348046,-244.69321404527162,-46.44022459725351,33.54860703822089,-5.641126809243469,-8.400379981220306,249.23280763156615,34.51514383412896
302,-6.571221042636655,-244.6579870343503,-46.60909566905746,33.921961665657,-5.89186708101417,-8.346775980968772,249.2241991406651,34.929311131131264
303,-6.464128666264225,-244.62974675000243,-46.79453632113461,34.28092181325124,-6.115681642052112,-8.299172252298439,249.22508696868522,35.33909807347455
304,-6.351387866321214,-244.60855282685435,-46.9942084945304,34.62961856532658,-6.315347215680581,-8.260119970803808,249.23520775595875,35.74657154018168
305,-6.234685103267447,-244.59438114287616,-47.20549958337485,34.97204132718356,-6.493358232544577,-8.23187195294155,249.25416421009493,36.15372984824367
306,-6.115676663024848,-244.5871105430332,-47.42558504446277,35.31197423355043,-6.651872203998383,-8.216367744272292,249.28142102322784,36.562465883441426
307,-5.9959577953140775,-244.58650752776705,-47.6514944692921,35.65294315419747,-6.792673998682868,-8.215224357594064,249.3162997233005,36.97453698584168
308,-5.8770361287819295,-244.59221165093643,-47.88017892750741,35.99817078178671,-6.9171583971711375,-8.229732625193648,249.35797480684116,37.3915391536287
309,-5.760309472701153,-244.603724261577,-48.10857812539264,36.35053806244474,-7.026329408670257,-8.26085883713985,249.40547351649434,37.814883844975306
310,-5.64704801725745,-244.62040260418487,-48.33368648320715,36.71255096975392,-7.120814241616933,-8.309250948913666,249.45768110654552,38.2457763320327
311,-5.538380827925934,-244.64146045509838,-48.55261740664524,37.08631203172998,-7.20088949073011,-8.375248356017407,249.5133526304999,38.68519494964344
312,-5.435286436606235,-244.66597569969818,-48.762664849221736,37.47349607433755,-7.266516928170298,-8.458894163974463,249.57113147236666,39.133870671261654
313,-5.338587290217888,-244.6929046768981,-48.961360873861004,37.87532955947807,-7.3173861790857355,-8.559949024653296,249.6295741840002,39.59226643180439
314,-5.248947783889823,-244.72110275983246,-49.14652753359625,38.29257295075759,-7.352961565932886,-8.67790589738624,249.68718075022673,40.06055576952727
315,-5.166875573147227,-244.7493504943297,-49.31632120109136,38.725505903176725,-7.372530638953295,-8.812005442845722,249.74242920948706,40.53860084282821
316,-5.0927258814957845,-244.7763845827637,-49.469267533565045,39.173915738293175,-7.375252396751146,-8.961252087477678,249.79381352620757,41.025930677094316
317,-5.026708589760948,-244.80093288797903,-49.60428549714613,39.63709050687681,-7.360203820109481,-9.124431048499646,249.83988354126302,41.52172145488474
318,-4.968897929375427,-244.82175227930688,-49.7206992770855,40.11381875963854,-7.326423936458335,-9.300126767471975,249.87928555738947,42.02478155893447
319,-4.919244560986336,-244.83766757377342,-49.81823750857511,40.60239871234139,-7.272955107756988,-9.486743275914069,249.910801678095,42.533544677544896
320,-4.877589712590401,-244.84760928082818,-49.897020030391246,41.10065960309081,-7.198881541422809,-9.682527014041366,249.93338563692618,43.04607438823753
321,-4.843680876359883,-244.8506476453627,-49.957533158435744,41.60599760757716,-7.103365133716281,-9.885592517662287,249.94619280176525,43.56008315517334
322,-4.8171883379535165,-244.84602077062556,-50.000595199378395,42.115427749098565,-6.985678726248642,-10.093951137152015,249.9486024619123,44.07296765804052
323,-4.797721639358952,-244.8331553401611,-50.02731447994189,42.62565193514615,-6.845236834775671,-10.30554255362727,249.940231339167,44.58186095909431
324,-4.784845097451543,-244.81167943193645,-50.03904238522093,43.13314170899917,-6.681623967676352,-10.518268398835357,249.92093826868387,45.083700377095674
325,-4.778091759689636,-244.78142787039363,-50.0373236673279,43.634232688425065,-6.494620698910443,-10.730026927515057,249.89082089753225,45.57530825124153
326,-4.776975549289118,-244.74244130032378,-50.023845749904154,44.12522618473359,-6.284227574107617,-10.938747570475932,249.85020588446454,46.053481257665645
327,-4.781001637911238,-244.69496057107685,-50.000388235678095,44.60249239379745,-6.050686696666878,-11.142424325419105,249.79963439294013,46.515082819386244
328,-4.789675195045474,-244.63941800407284,-49.96877349518794,45.062569074582065,-5.794500551477564,-11.339147202409878,249.73984459634542,46.95713265571456
329,-4.802508659392639,-244.57642667379628,-49.93081899319037,45.50224997546374,-5.516447399178178,-11.5271311953785,249.67175243851204,47.376887823530836
330,-4.819027669867056,-244.50676813933248,-49.888291789150244,45.91865843057926,-5.217592515198017,-11.704742458505887,249.59643117074205,47.771910710402224
331,-4.838775849581463,-244.43137846465012,-49.84286547009324,46.309303233958836,-4.899294668219245,-11.87052154490172,249.51508956694832,48.1401210715209
332,-4.861318721219223,-244.3513321571201,-49.796079751468206,46.67211565687598,-4.56320743755118,-12.023203684795043,249.42904851293437,48.47983090629566
333,-4.88624704340324,-244.26782383646108,-49.7493031699049,47.00546795359782,-4.211275144190155,-12.161736094724642,249.3397158838352,48.789762384384936
334,-4.9131797524315735,-244.182147743212,-49.70369962638858,47.308174788998116,-3.845723285506439,-12.285292257106464,249.24855997968308,49.06905005002403
335,-4.9417665297165705,-244.0956753352904,-49.66019985128202,47.57947978231345,-3.469043474342612,-12.393283074935177,249.15708198465657,49.31722924344616
336,-4.971689857609551,-244.0098311357297,-49.61947898953201,47.819029910980014,-3.083973055294735,-12.485364814708564,249.06678785390997,49.534213203307175
337,-5.002666321207515,-243.926066763583,-49.58194141152235,48.02684094445777,-2.6934698173036558,-12.561443780699786,248.97915978556742,49.72026173576103
338,-5.034446923746341,-243.84583283501115,-49.54771363622365,48.203257390146085,-2.300682495925078,-12.621677684200579,248.89562715370164,49.8759446530573
339,-5.066816326785215,-243.7705483278801,-49.51664599615672,48.348910517020244,-1.908917976561868,-12.666473624800307,248.81753663965705,50.002103265824964
340,-5.099591120638091,-243.7015671929925,-49.48832337287072,48.46467766704358,-1.5216061833528558,-12.696482445952066,248.74612142974775,50.09981283937493
341,-5.1326173675524975,-243.64014248819868,-49.46208493305418,48.55164513143998,-1.1422635280819686,-12.712589015571622,248.68246975362746,50.17034797279082
342,-5.165767691086496,-243.58738903315643,-49.43705228024056,48.611075468882596,-0.7744555502453547,-12.715897826070636,248.62749364196438,50.21515146784564
343,-5.198938125947834,-243.54424638930186,-49.41216487489808,48.644378643261994,-0.4217591147237363,-12.707713298137042,248.58189945830745,50.235805806453364
344,-5.2320448622501505,-243.51144462969913,-49.38622111128018,48.653085225933395,-0.08772433689903385,-12.68951435985562,248.54616231027683,50.234005317465616
345,-5.265020988726868,-243.48947561942748,-49.35792318538764,48.63881949641388,0.22416370588653475,-12.662923252263695,248.52050664069873,50.211526828265036
346,-5.297813353509314,-243.47857227574994,-49.32592384142722,48.603270677679994,0.5105234766923351,-12.629668994707774,248.50489503890194,50.17019712694361
347,-5.330379658259178,-243.47869766213003,-49.288873189781754,48.54816155682469,0.7681157376297026,-12.59154640609069,248.49902672616557,50.11185667951194
348,-5.362685883236213,-243.4895450302822,-49.245464014314756,48.47521498216553,0.9938826486533637,-12.550371955817102,248.50234648544335,50.03832036208538
349,-5.394704154424328,-243.5105491809724,-49.1944742566569,48.386119806650356,1.1849873361744647,-12.507938005249327,248.51406412817195,49.951337104215746
350,-5.426411173872819,-243.5409087719984,-49.13480555477802,48.2824985459179,1.3388540930465298,-12.465967196317887,248.5331838982599,49.85255108459379
351,-5.457787229153359,-243.57961847133225,-49.06551681569137,48.16587933912324,1.4532093221505848,-12.42606884305919,248.5585425127738,49.743467473493375
352,-5.488815534698574,-243.62550916029596,-48.985852014220725,48.0376748720024,1.5261231318240587,-12.389699179547542,248.58885389667995,49.625425801685346
353,-5.519481356103636,-243.6772937497885,-48.89526191523665,47.89917083757823,1.55605114864597,-12.358127177653992,248.62275814028578,49.49958393388368
354,-5.54977025060868,-243.73361563888673,-48.79342011876064,47.7515261993698,1.541875757388817,-12.332407306876805,248.658871831693,49.366915252352825
355,-5.5796649408110595,-243.7930965416249,-48.68023441147336,47.595786789724684,1.482945753559679,-12.313360063952016,248.69583674719553,49.22822082454017
356,-5.609140671237228,-243.854380473062,-48.555854623643064,47.43291250566456,1.3791133649214726,-12.301560458254722,248.73236400108945,49.08415695102831
357,-5.638159108044528,-243.91617122659528,-48.42067795008908,47.263816679568386,1.230767720399448,-12.297334041187186,248.76727124711132,48.93527671853339
358,-5.666660877978924,-243.97726167739336,-48.27535204582122,47.08941442499821,1.038864007698814,-12.30075960884484,248.79951138456556,48.78208234970195
359,-5.694556911472756,-244.03655449130133,-48.12077537935967,46.91067526741096,0.8049476740138439,-12.311677430461042,248.82819228538,48.62508362170348
360,-5.721719008194077,-244.0930749712594,-47.95809364443512,46.7286745036893,0.531173071733132,-12.32970177106554,248.85258806133032,48.46485674895907
361,-5.747970371245055,-244.145977598458,-47.78869068175754,46.544637731210344,0.22031595254367442,-12.354236579744429,248.8721431357099,48.30209812162457
362,-5.77307705563777,-244.1945482453355,-47.6141723637994,46.35997389268822,-0.12422084738210949,-12.384493488820317,248.8864707949087,48.13766820231456
363,-5.796741287546942,-244.23820405274145,-47.4363422534033,46.17629379280655,-0.49840933697828854,-12.41951165403841,248.8953479754135,47.97262249687154
364,-5.8185975055679755,-244.2764926296004,-47.257168565932034,45.995412976656816,-0.8976069023652132,-12.458179335210366,248.8987078481812,47.80822843256278
365,-5.838211835112962,-244.30909165308552,-47.07874291019567,45.81933972003754,-1.316576515729902,-12.499257343242146,248.89663137056274,47.64596878334559
366,-5.855085576768583,-244.33580921790644,-46.9032321880155,45.65025035145496,-1.7495175932703892,-12.541404521222377,248.8893384289462,47.48753366157891
367,-5.868663151824062,-244.35658453910483,-46.73282566464736,45.49045499721786,-2.1901081890130887,-12.583205323749313,248.87717857931435,47.33480385811795
368,-5.878344706816709,-244.37148809267893,-46.569679512198164,45.342357048447695,-2.6315588112617267,-12.623199360115706,248.86062092774614,47.18982840803204
369,-5.8835031669990085,-244.38072016261725,-46.41586116951975,45.20840930359286,-3.066677716335173,-12.659912510750736,248.84024257323892,47.05479880735716
370,-5.883505057549427,-244.38460695506413,-46.273295825957426,45.09106909556894,-3.4879471459834295,-12.691888973880543,248.81671520269668,46.93202157258125
371,-5.87773410169758,-244.38359368497342,-46.143717322416116,44.99275405831257,-3.8876096704129592,-12.717723436230257,248.79078965630524,46.82389012462449
372,-5.865616546503966,-244.37823421773223,-46.02862571726636,44.91579973527673,-4.257763553008359,-12.736092537008684,248.76327844440377,46.73285651223317
373,-5.846647242308897,-244.36917700556904,-45.92925357279194,44.86242004899798,-4.590465813654755,-12.745784887543005,248.73503631596864,46.661403326508335
374,-5.820415542042459,-244.3571472363425,-45.84654261713752,44.83467165943794,-4.8778414403516575,-12.745729052352482,248.70693907765136,46.6120162117444
375,-5.786630026119715,-244.3429253049817,-45.781131814881185,44.834423273240404,-5.112197053578341,-12.735019012497286,248.6798609335166,46.58715747439041
376,-5.745140970549089,-244.32732196528775,-45.7333571061407,44.86333084613953,-5.286137303722481,-12.712936661134918,248.65465071462364,46.58924124606427
377,-5.6959594937004825,-244.31115088961343,-45.70326232180562,44.92281923611677,-5.392682322252885,-12.678970815804496,248.6321075949896,46.62061035426565
378,-5.639272475986855,-244.29519983365645,-45.690620174430826,45.014070235386775,-5.425384557351165,-12.6328321153902,248.6129572453902,46.683514517581635
379,-5.575452522719866,-244.2802020401108,-45.694961739405656,45.13801617179937,-5.37844327423749,-12.574463067752978,248.59782971975406,46.7800888565172
380,-5.505062306923958,-244.26680977890715,-45.715612459442134,45.295337614052784,-5.246814950309376,-12.504042473556277,248.5872405575012,46.91233119489679
381,-5.428852625563945,-244.25557193251007,-45.75173250159992,45.48646332013472,-5.026317816282558,-12.421983497848487,248.58157655573714,47.08207640237559
382,-5.347753588237208,-244.24691722887096,-45.802359320900585,45.71157053904734,-4.713728865788145,-12.3289248347991,248.58108736953795,47.29096619967068
383,-5.262858634608076,-244.2411440738689,-45.866450480242065,45.970584080769555,-4.306871662821359,-12.225714759822138,248.5858835007973,47.54041338059179
384,-5.175401523102543,-244.2384170977994,-45.942925030746,46.26317306655882,-3.804693119643229,-12.1133883621754,248.59594047059537,47.83156014105351
385,-5.08672696392139,-244.23876986507085,-46.030701986064386,46.58874482775771,-3.207327112671031,-11.993138779188605,248.61110837105244,48.16523098005185
386,-4.998256090378289,-244.2421129520285,-46.12873460985419,46.94643601323608,-2.516142474648479,-11.866283685088899,248.63112579852844,48.54188139991105
387,-4.911448372273276,-244.24824664272023,-46.23603938873167,47.33510166321372,-1.733772703756133,-11.734228591388504,248.655637249934,48.96154444854484
388,-4.827761778722861,-244.2568774882783,-46.35171869065204,47.75330383177193,-0.8641247866194683,-11.598428735093632,248.68421308486285,49.423778051193366
389,-4.7486129592195105,-244.26763775645819,-46.47497625659711,48.19930211028343,0.08763510748048743,-11.460351471468876,248.71637096374332,49.92761689842717
390,-4.6753389909414675,-244.28010644802916,-46.605124937895255,48.671048751076135,1.1151206752640856,-11.321441077137303,248.751597369102,50.47153300871776
391,-4.609161972265991,-244.29383023704247,-46.741586542513176,49.16619070160062,2.210790070541775,-11.183087657337891,248.7893675780067,51.05340863856668
392,-4.5511575819139445,-244.30834254584443,-46.883884263032236,49.682079729065066,3.3660359060562937,-11.046601492592748,248.82916241790886,51.67052396725936
393,-4.502228767107172,-244.32317909677377,-47.03162878991776,50.21579027063721,4.571299535418742,-10.913193739620395,248.87048038350824,52.319560267805336
394,-4.4630858776527385,-244.33788871076,-47.18449968537271,50.76414316102379,5.816207466195072,-10.783963935592482,248.91284420376658,52.996617556055696
395,-4.434234508377269,-244.3520387921241,-47.34222377212355,51.32373238124924,7.089726751194675,-10.659894214151244,248.9558016432597,53.69724438544335
396,-4.415971801000636,-244.36521574397423,-47.50455215213554,51.89095163958858,8.38033524176586,-10.54184953267623,248.99892109134927,54.41647673030795
397,-4.40839113808864,-244.37702134059538,-47.671237120808925,52.462017856178086,9.676201748903424,-10.430582612945809,249.04178319876186,55.14888273013404
398,-4.411394422596762,-244.38706669059215,-47.84200985587307,53.032989181439675,10.965370599796126,-10.326741842520498,249.08397034562307,55.88861021401928
399,-4.424710653952495,-244.3949657912288,-48.01655945141167,53.59977574246297,12.235944938620838,-10.230880200977856,249.12505602337768,56.629434161999576
400,-4.447919190451459,-244.4003307419025,-48.19451368452887,54.15814182215434,13.47626344906167,-10.14346343050269,249.16459623843102,57.364801574574436
401,-4.480475851886385,-244.40277032103302,-48.37542186996255,54.70369884090281,14.675065901083936,-10.064876122026144,249.20212467600828,58.08787181812651
402,-4.521739938402532,-244.40189278941244,-48.558740235201896,55.231889580042115,15.821643851194363,-9.99542498174669,249.23715254817634,58.79155157965899
403,-4.571000409004868,-244.39731271084713,-48.74382031769285,55.737965585688855,16.905973714885587,-9.935339084137182,249.26917301121586,59.46852504334337
404,-4.627499836925287,-244.3886607290939,-48.92990085106274,56.21696136773284,17.918830165392034,-9.884767288486755,249.2976691981657,60.111281511401565
405,-4.690455185574214,-244.37559493355596,-49.11610346935782,56.66367048993732,18.85187847300484,-9.843773215425722,249.32212458848667,60.712144110365045
406,-4.759074790854748,-244.35781265824696,-49.30143238243052,57.072629608714344,19.697745131482193,-9.812328351770239,249.34203461257633,61.26330420731816
407,-4.832571181382497,-244.33506199763497,-49.48477802597686,57.43811675958306,20.450066970727736,-9.790304059744072,249.35691879073192,61.756866554699265
408,-4.910169603226065,-244.30715270659286,-49.66492459835814,57.75416966448529,21.10351984998873,-9.77746350074745,249.36633306478137,62.18490992407417
409,-4.991112401023808,-244.27396636517844,-49.84056136029759,58.01462863470942,21.653828829681064,-9.77345465098856,249.36988218410607,62.53956711124353
410,-5.074659722944266,-244.23546573116212,-50.0102975505093,58.21320694055491,22.097762289898444,-9.77780560195801,249.36723204642107,62.81312678644127
411,-5.160087311054661,-244.19170311275315,-50.17268068895834,58.34358948254368,22.433112685906753,-9.78992321706387,249.358121790439,62.99815784049286
412,-5.246682358176617,-244.1428274404764,-50.326217849491755,58.39955840466692,22.658666496694607,-9.809096037234866,249.3423752498214,63.087654807316426
413,-5.333738500042754,-244.08908956292325,-50.46939922060305,58.37514214429604,22.774165552846064,-9.834502127927491,249.31991117284522,63.07520086025447
414,-5.420550950344409,-244.0308451807941,-50.60072307917209,58.264782536541105,22.780261468823674,-9.865222290478208,249.29075146207643,62.95514302734472
415,-5.506412626882531,-243.96855485458562,-50.71872133449208,58.063513144078144,22.678464423649665,-9.900258654478721,249.2550267111848,62.72277280810105
416,-5.590611926765168,-243.90278075923592,-50.821985069453696,57.76714102711328,22.47108708720966,-9.938558108956343,249.21297859902094,62.374504371219466
417,-5.672432638777254,-243.83418026136167,-50.909189844092396,57.37242371320497,22.161184182866904,-9.979039404612625,249.16495915955122,61.908042026996995
418,-5.751156358268007,-243.76349678790302,-50.97912073073797,56.87723320675739,21.75248808551894,-10.020622262470862,249.1114273701901,61.32252878383635
419,-5.8260676430019,-243.69154869333923,-51.03069700698443,56.280699544754654,21.249340912030323,-10.062256653104757,249.05294372424027,60.61866856581274
420,-5.896461920884404,-243.61921686443532,-51.06299615255828,55.583327655937104,20.65662362365235,-10.102950596328592,248.99016342469696,59.79881603613359
421,-5.96165584350338,-243.54743166014404,-51.075276417383826,54.78708298544463,19.979682667355362,-10.141795224341283,248.92382861733245,58.86702977228542
422,-6.020999503712263,-243.47715956624612,-51.06699696030425,53.89544323720336,19.224254710215384,-10.17798628213969,248.85475981029222,57.829086520165276
423,-6.073889776048264,-243.40938974274906,-51.03783454328491,52.91341533907344,18.396390180039784,-10.210841623612279,248.78384642689693,56.692456139272366
424,-6.119783953165047,-243.34512050273028,-50.987695994035974,51.8475181132147,17.502376645445374,-10.239814584225714,248.71203634960654,55.46623842374039
425,-6.158212804814242,-243.28534569723683,-50.91672600320162,50.70573207139507,16.548663459039563,-10.264503403191453,248.6403243245735,54.16106415801875
426,-6.188792218689638,-243.23104097085422,-50.82531016399413,49.49741835072787,15.541789396615084,-10.284657174558081,248.56973916062663,52.788963589057126
427,-6.2112327250264805,-243.1831498647741,-50.714073398626184,48.23320924173175,14.488315136311579,-10.300179101058342,248.50132972404876,51.36320609350323
428,-6.225346402959429,-243.1425697964421,-50.58387404462473,46.92487318205248,13.394762307870785,-10.311127990405975,248.43614981576366,49.89811529217387
429,-6.231050841057842,-243.11013806196254,-50.435793976449325,45.58515751491628,12.26756055384255,-10.317718863724918,248.3752421587991,48.408864228304324
430,-6.228369994817192,-243.08661812550483,-50.271125271443765,44.22761267473545,11.113003650480506,-10.320323226834397,248.31962187108294,46.911255437145655
431,-6.217432019454418,-243.0726864720956,-50.0913540410575,42.86640172501979,9.937215274277918,-10.31946906837624,248.27025983886716,45.421490783836205
432,-6.198464438152722,-243.0689201889423,-49.89814204104,41.51609937272954,8.746124476939837,-10.31584013574886,248.22806630228825,43.95593589882888
433,-6.171787222249911,-243.07578528666662,-49.69330652662968,40.19148477264444,7.545450353908395,-10.31027365516447,248.19387478855919,42.530883979661255
434,-6.137804444706096,-243.09362564286224,-49.47879859421014,38.90733259079918,6.3406948109369585,-10.303755500044279,248.16842635709094,41.16232366199252
435,-6.096995170223773,-243.1226523794461,-49.25668003018257,37.678206771585735,5.1371418666372435,-10.297411854520872,248.1523540048407,39.8657154728808
436,-6.049904225020602,-243.1629335451013,-49.02909854361461,36.5182610723514,3.939861704411635,-10.29249656398394,248.14616710726736,38.655780899571155
437,-5.997133396358051,-243.21438421078966,-48.798261251836024,35.44104966194292,2.7537177408042464,-10.290373507084004,248.15023599664065,37.54630729028161
438,-5.939333353559646,-243.2767574000914,-48.566406425577874,34.45935010478288,1.5833752179493057,-10.292493423964322,248.16477710635172,36.549970792939135
439,-5.877196185980357,-243.34963652007116,-48.335773735285926,33.585000115544325,0.4333101240938335,-10.300364748070248,248.1898393840315,35.67817855909283
440,-5.811448062859678,-243.43243009149404,-48.10857352340188,32.82874870884917,-0.6921824645099335,-10.315518227915835,248.225292850937,34.940930646647416
441,-5.742841272740189,-243.52436963511627,-47.88695589514952,32.20012180428802,-1.7889812311671887,-10.339465567595305,248.27082028620373,34.34670149235407
442,-5.672144893712645,-243.62451158472427,-47.67298055090402,31.70730198943432,-2.853132950890278,-10.37365292808295,248.32591305177112,33.90234050016519
443,-5.600133634767016,-243.73174406075722,-47.46858817896771,31.357022030373297,-3.880848306715294,-10.419410799959373,248.38987202276755,33.61299121213145
444,-5.527574906631002,-243.84479918081794,-47.27557394024143,31.15447186541989,-4.868498983894195,-10.477902348401077,248.46181438872904,33.48202867454537
445,-5.455214705007988,-243.96227121787527,-47.09556327159275,31.103219191765877,-5.812615759667053,-10.550072729394918,248.54068668418827,33.51101492795999
446,-5.383763178010303,-244.08264035223644,-46.92999004378579,31.205144297315293,-6.70988735181521,-10.636602010667193,248.62528382069567,33.699672969581165
447,-5.313880747387549,-244.20430114104914,-46.78007705411959,31.460390399236978,-7.557159927176481,-10.737864182733924,248.71427326775233,34.04587997125335
448,-5.24616551463597,-244.3255943295542,-46.646818866512746,31.86733127163996,-8.351437365288472,-10.853894348336222,248.806223039114,34.545680856279795
449,-5.1811425700889036,-244.44484035442875,-46.530967079272976,32.422558238460496,-9.089882559178092,-10.98436561705258,248.8996318783789,35.19332343230993
450,-5.119255750025469,-244.56037285646923,-46.43301816104201,33.12088864651088,-9.769820128122582,-11.128576621476366,248.9929600116632,35.98131613675948
451,-5.0608622854199465,-244.67057071532383,-46.35320404701073,33.955397793041385,-10.388740862627818,-11.285450021393668,249.08465903287433,36.9005091658048
452,-5.006230627432799,-244.77388749603472,-46.29148581847133,34.91747601895277,-10.944308050114953,-11.45354194841765,249.17319987986886,37.940199409474495
453,-4.955541543153605,-244.86887764764745,-46.247551076548106,35.99691224953303,-11.434365620728503,-11.631062069060317,249.25709835710546,39.088259181790065
454,-4.908892372846951,-244.95421923556648,-46.220815938184394,37.182004596875714,-11.856947859170262,-11.815903721788462,249.33493815620008,40.33128813085606
455,-4.866304128685056,-245.0287334251395,-46.210432676624656,38.45969775046465,-12.210290254315346,-12.005683324685709,249.4053917730091,41.65478692259759
456,-4.827730903593893,-245.09140134314293,-46.21530381057561,39.8157459068835,-12.492840908248347,-12.197787971435337,249.46724007958224,43.043350434118956
457,-4.793070876847791,-245.14137920881547,-46.23410301827905,41.23489912100901,-12.703271863150155,-12.389429907552097,249.51939148665392,44.48087748215077
458,-4.762178082780477,-245.1780126312022,-46.265302732137215,42.701110392627925,-12.84048982416887,-12.577706428492029,249.5609015381138,45.950793755930356
459,-4.734874075426988,-245.20085068794344,-46.307207776812945,44.19776062336965,-12.903646086502766,-12.759663641132118,249.59099341045624,47.43628469903961
460,-4.710958695657124,-245.20965989995304,-46.357994096294384,45.70789866876464,-12.892145933080394,-12.932362466078324,249.60907924141625,48.92053544733168
461,-4.6902193372525085,-245.20443763828166,-46.41575149900447,47.214493764512056,-12.8056582279815,-13.092945237907879,249.61478162610433,50.38697526183699
462,-4.672438392402322,-245.1854239768536,-46.47852928137855,48.700697323078394,-12.644126270408782,-13.238701283594914,249.60795409722405,51.81952388297223
463,-4.657398880915763,-245.15311059874708,-46.54438342561393,50.15011037689191,-12.407781085520611,-13.367129900416929,249.58869898063932,53.202836745114446
464,-4.644888567981303,-245.10824513392294,-46.61142382086216,51.54705193419638,-12.097158145599009,-13.475999186142145,249.55738074903735,54.522545137813495
465,-4.634703092473852,-245.0518293580731,-46.677859748542076,52.87682248664634,-11.713118067479456,-13.56339920959581,249.51463300954367,55.76548644728493
466,-4.626648706046748,-244.9851100574592,-46.74204182049984,54.1259561143382,-11.25687123786196,-13.627788104349424,249.4613576184848,56.91991883970373
467,-4.620545130601707,-244.90956197248988,-46.80249872407103,55.282454223184786,-10.730005716993912,-13.668029861080447,249.3987150403703,57.97571434239913
468,-4.616228787553923,-244.82686294108774,-46.85796747784363,56.335993970194515,-10.134517261780024,-13.68342285997954,249.3281058234978,58.924524304024224
469,-4.613556309315396,-244.73886204636324,-46.907416317033054,57.27810489591278,-9.472839930939415,-13.673718468099274,249.25114380747047,59.75991167648807
470,-4.612407966818877,-244.64754206038262,-46.95005972327384,58.102308224271525,-8.747875493853629,-13.639129297992131,249.16962222667757,60.47744548719902
471,-4.612690578728578,-244.5549776214842,-46.98536555934148,58.80421471174349,-7.963019758249698,-13.580326973178865,249.08547410140616,61.074754260900086
472,-4.614339578113573,-244.46329044227954,-47.01305486230676,59.38157867087851,-7.1221839457909475,-13.498429455620471,249.0007282873057,61.55153684686882
473,-4.6173200441475375,-244.37460266103668,-47.03309547332041,59.83430752686743,-6.229809358140868,-13.394978140285186,248.91746249605282,61.90953078205495
474,-4.621626595969197,-244.29098941314635,-47.045691055552936,60.164427655107396,-5.290873771570686,-13.271904999232852,248.83775463798793,62.152439644916484
475,-4.627282169179548,-244.21443177252584,-47.05126700717588,60.37600811879891,-4.310888248029048,-13.1314900860584,248.76363390228258,62.28582166128701
476,-4.634335890307689,-244.14677122552408,-47.05045438709554,60.47504430390812,-3.295883303555142,-12.976309799676157,248.69703293105974,62.31694215425457
477,-4.6428604229868204,-244.08966676601975,-47.04407246395712,60.46930353803838,-2.252383585450844,-12.809176605035617,248.63974227710045,62.25459250885615
478,-4.652949145622277,-244.04455567937688,-47.03311011636635,60.36813491674026,-1.1873703759434993,-12.633071464441842,248.59336824129778,62.108878485215804
479,-4.664713340845558,-244.01261913568294,-47.01870613931907,60.18224608534469,-0.10823139068916919,-12.451070919192192,248.55929520337156,61.890981265541946
480,-4.678279375741115,-243.9947536652183,-47.00212842277032,59.92345079307921,0.977302492467894,-12.266271367816461,248.53865349550597,61.612895671154746
481,-4.693785748838555,-243.99154934918926,-46.984751854756524,59.604392549555314,2.061233697883366,-12.081713461269622,248.53229361298568,61.287151409266336
482,-4.711379870169986,-244.00327525738606,-46.96803474171482,59.2382514171832,3.1353873288488905,-11.900309633219711,248.5407672498337,60.92652475320672
483,-4.731214447125844,-244.02987244246268,-46.95349360893702,58.83844256407278,4.191512571073186,-11.724777627918403,248.5643154417866,60.54374943764983
484,-4.753443320674916,-244.0709546204056,-46.94267633778347,58.4183163397038,5.221394523792075,-11.557582511023229,248.60286393663839,60.15123643675534
485,-4.778216538898755,-244.1258164421113,-46.937133588523714,57.99086999082299,6.216974210047198,-11.400889089855422,248.65602568558225,59.760812374754806
486,-4.805674409623182,-244.19344903194474,-46.93838841148825,57.56848055161935,7.170474056904018,-11.256526010235188,248.7231101112489,59.38348546259726
487,-4.835940299240806,-244.27256230970988,-46.94790402715435,57.162667044813865,8.07452586949206,-11.125962145509286,248.80313866370028,59.02924620985009
488,-4.869112072089487,-244.36161348637773,-46.96705002562559,56.78388824311692,8.922298168316477,-11.010295304047647,248.89486610296825,58.706908060485254
489,-4.905252273892808,-244.45884095545725,-46.99706763537364,56.4413802036038,9.707619612378096,-10.910252719594778,248.99680685957824,58.42399087023172
490,-4.944377433640669,-244.56230260254782,-47.039035087422675,56.14303584073917,10.425095008334576,-10.82620221899605,249.10726570558796,58.18664800545464
491,-4.986447169236239,-244.6699174065095,-47.09383426142026,55.89532707660465,11.070210104590418,-10.758172442208247,249.22437186215276,57.999635939583186
492,-5.031354007068263,-244.77950914291452,-47.16211968915843,55.70326860728226,11.639421118696097,-10.705880130951607,249.346115598654,57.866323606290464
493,-5.078914791073668,-244.88885097535263,-47.2442908125844,55.57042092434495,12.130224965767813,-10.668762366820443,249.47038632838408,57.78873737037356
494,-5.128864279393695,-244.99570971280016,-47.34046836941341,55.49892878142449,12.541206611344593,-10.646011725657992,249.59501119574506,57.76763619309554
495,-5.180851237870465,-245.09788858927007,-47.45047586710711,55.4895898220144,12.872060883722023,-10.636612591576517,249.71779324035785,57.80261042818047
496,-5.2344372282120535,-245.1932676052263,-47.57382713537365,55.54194682611859,13.123587335252736,-10.639377267634394,249.83654840593852,57.89219688145646
497,-5.289098334568778,-245.27984067937942,-47.70972089863233,55.6543962891636,13.297658138906973,-10.652980919266474,249.9491408558698,58.03400251212992
498,-5.3442301377585055,-245.35574906155452,-47.857043260326705,55.82430599284457,13.397160316153208,-10.675994721004555,250.05351624382374,58.22482953486834
499,-5.399156224743393,-245.41931068350718,-48.01437890308703,56.04813484426481,13.425914656327969,-10.70691685510236,250.14773278860338,58.46079563550172
500,-5.4531403733549375,-245.46904532880632,-48.18003152160688,56.32154935624758,13.388574475258439,-10.744201246997028,250.22999014187008,58.73744435106723
501,-5.505402294503981,-245.50369558691003,-48.352053418427964,56.63953245292851,13.290507918450267,-10.786284080670743,250.2986560010311,59.04984213953341
502,-5.555136529943896,-245.52224352280965,-48.528283424592935,56.99648161127187,13.137667894426746,-10.831608176606752,250.35229023340494,59.3926600906462
503,-5.601533900625617,-245.52392294235818,-48.706391648037545,57.3862946312364,12.936453961982156,-10.87864527294148,250.3896660964525,59.76023956348786
504,-5.643804789466759,-245.5082271462979,-48.88392922333572,57.80244258479076,12.693570596693801,-10.92591624195926,250.40978808396972,60.14664231858244
505,-5.681203416164338,-245.47491217367315,-49.058381202282945,58.23803073087838,12.415886189339783,-10.972009382817015,250.41190602126665,60.545686953641656
506,-5.713052049342968,-245.42399574961908,-49.2272207973525,58.68584934552587,12.11029682141012,-11.015597106047348,250.39552524867761,60.95097457929288
507,-5.738763904185713,-245.35575246058028,-49.38796326559028,59.138417383907246,11.783598299048998,-11.055451438724225,250.36041304279658,61.35590754229054
508,-5.757863486097947,-245.27070601910464,-49.53821783164877,59.588022523539486,11.44236917368043,-11.090458773668919,250.30660177761686,61.75370548532364
509,-5.770003423591461,-245.1696197510424,-49.6757362466102,60.0267613820569,11.092866670516015,-11.119634194519058,250.23438963643596,62.1374231047784
510,-5.774977229540531,-245.05348653345928,-49.79845688524631,60.44658364741751,10.74093671636732,-11.142135558280822,250.1443398457254,62.49997374555613
511,-5.772727741348735,-244.9235192249479,-49.904543679346055,60.83934363517178,10.391938675539533,-11.157277290362767,250.03727930173162,62.83416259365885
512,-5.763351168302671,-244.78114207333087,-49.9924195239508,61.19686244338873,10.050684962358753,-11.164543536996238,249.91429698398264,63.13273273707851
513,-5.747096793168833,-244.62798268997176,-50.06079384305425,61.51100336509271,9.721395346949311,-11.163599990344492,249.77674168288627,63.38842672192448
514,-5.7243625052636595,-244.46586321852055,-50.10868372435785,61.77376247859798,9.407665450922451,-11.1543034668095,249.62621757319596,63.59406538496945
515,-5.695686498233992,-244.29678873383457,-50.13542775312016,61.97737533251841,9.112448637819014,-11.136708253893614,249.46457553231784,63.742644674871975
516,-5.661735603153976,-244.12293096240717,-50.14069178244364,62.1144393759617,8.838050316251387,-11.111068335115293,249.29389818191382,63.82744989503443
517,-5.62329075461035,-243.94660603163973,-50.12446639934609,62.178050321827286,8.586133688998963,-11.077834798588603,249.11647734097056,63.84218538135275
518,-5.581229959500269,-243.77024580236443,-50.08705646350541,62.16194911806651,8.35773620497915,-11.037647972737913,248.93478353036065,63.781116199067476
519,-5.536508953167243,-243.59636310327684,-50.02906354125001,62.060674822285634,8.15329629916493,-10.991324078487287,248.75142800368403,63.63921715994498
520,-5.490139644688067,-243.42751170278794,-49.95136231708705,61.8697175880073,7.9726903098519974,-10.939836460287154,248.56911833669406,63.41232346257445
521,-5.443166522825793,-243.2662421050125,-49.85507221303118,61.58566527875094,7.815279646643488,-10.884291793691002,248.39060888637417,63.097276639043876
522,-5.396641345592296,-243.1150543378281,-49.74152550627972,61.20633698802199,7.679968274189804,-10.825902027685622,248.21864752763346,62.69205929568176
523,-5.351596598377854,-242.97634895987696,-49.61223322633348,60.730897001351266,7.565270336368292,-10.765953093057272,248.05592013723668,62.19591238373383
524,-5.309018353791632,-242.85237762321717,-49.46885005553747,60.15994350200354,7.469387302693712,-10.705771513213213,247.90499439630906,61.60942943107639
525,-5.269819293581411,-242.74519463175952,-49.31313933264535,59.49556752351838,7.390293472193628,-10.646690007282142,247.76826456369278,60.93462325399758
526,-5.23481275468633,-242.65661095676984,-49.146939050278135,58.74137911919122,7.3258281308042505,-10.590013038379416,247.64789885413447,60.17496200435529
527,-5.2046887400262,-242.58815210934097,-48.9721295029201,57.9024992275755,7.273792198372761,-10.53698308031648,247.5457909494859,59.33537278849317
528,-5.179992912693333,-242.5410211483341,-48.790603068593704,56.98551705665835,7.232046838609223,-10.488748195056445,247.46351701817608,58.42221232516545
529,-5.161109681798611,-242.5160679205044,-48.604236490366624,55.99841385437316,7.198611207044758,-10.446331376093813,247.40229941779364,57.44320506336059
530,-5.14825052303623,-242.51376540548722,-48.41486587163093,54.95045465101894,7.171756241815419,-10.410602048220731,247.36297800610848,56.407349830185304
531,-5.1414485522533395,-242.53419381460375,-48.22426438840339,53.852050024008946,7.150091193466115,-10.382250127855295,247.34598972226667,55.32479650219151
532,-5.140560060406342,-242.57703289353122,-48.03412259214714,52.714590305602115,7.132639536163801,-10.36176312818634,247.35135687326766,54.206694555690696
533,-5.145273287363648,-242.64156271863146,-47.84603126800473,51.55025513686496,7.118901068205497,-10.349406892070544,247.3786844138024,53.06501585551538
534,-5.155124238825102,-242.7266731747252,-47.6614670298723,50.371802037232946,7.10889739042721,-10.345210578326787,247.42716644187797,51.91235484240867
535,-5.169518887414056,-242.8308822351963,-47.48178092423604,49.19233871996991,7.10319850962948,-10.34895648608331,247.49560207689797,50.76171038034927
536,-5.187760658312125,-242.95236304427036,-47.30819020540576,48.025085040561905,7.102929023647421,-10.360175237555868,247.58242073859606,49.62625474281107
537,-5.209081670763391,-243.08897955039413,-47.141773307196225,46.8831314302179,7.109753191839451,-10.378146821216683,247.68571656310564,48.51909628443994
538,-5.2326758183961966,-243.23833008067413,-46.98346800141233,45.7792012466696,7.125839130838268,-10.40190800999707,247.80329132422344,47.453043064319026
539,-5.257731524954458,-243.3977978693856,-46.83407273366622,44.72542459758277,7.153803294068207,-10.430266643818017,247.9327048513831,46.44037495917468
540,-5.283462028439956,-243.56460722142705,-46.6942510509294,43.73313078438167,7.196637205697572,-10.461823154011793,248.07133159443723,45.492631535140454
541,-5.309131379156146,-243.73588370160783,-46.56453886837392,42.81266546519063,7.25761911219978,-10.494999481608344,248.21642167561413,44.62042202172239
542,-5.334074918623843,-243.90871646602142,-46.44535410663741,41.97323696171531,7.340213779471224,-10.528075183725544,248.36516447119055,43.83326216236878
543,-5.357713672871197,-244.0802206225757,-46.337008031999716,41.22279411641336,7.447964029646939,-10.559230069036285,248.51475251721251,43.13944076514158
544,-5.379562684476868,-244.24759744934858,-46.2397175490843,40.56793615464552,7.584377720670357,-10.586592249021411,248.66244347178042,42.54591684665052
545,-5.39923376703161,-244.40819051317237,-46.15361774690924,40.01385340999453,7.752813772334932,-10.608290102132747,248.80561809258492,42.05824665039276
546,-5.416433539250203,-244.55953614842554,-46.07877404507033,39.564296623165696,7.956370647445074,-10.622506327575438,248.94183261127472,41.680538637195006
547,-5.430957909291537,-244.69940721745422,-46.015193186608705,39.22157183844035,8.197780467126622,-10.627532032578724,249.0688643238445,41.415433818539874
548,-5.442684348199319,-244.82584948666428,-45.96283212213532,38.986557696378526,8.479311657048964,-10.62181870323178,249.18474958398787,41.26410854225602
549,-5.45156320515337,-244.93721027444366,-45.92160370584898,38.85874208754444,8.802682665601862,-10.604025957802302,249.28781367379818,41.22629697372237
550,-5.457608992038597,-245.03215921351728,-45.89137821527568,38.83627550489691,9.168988911678577,-10.573063127136292,249.37669221430778,41.30033086382085
551,-5.460892153276806,-245.10970104151878,-45.871980052806464,38.91603878255529,9.578644776988584,-10.528122951189399,249.45034389820074,41.48319455053307
552,-5.461531506275255,-245.16918041806795,-45.86317959156799,39.093723085463544,10.031342134958054,-10.468706066201111,249.50805450995523,41.77059336632864
553,-5.459687343733491,-245.2102789833676,-45.86468093954582,39.363920017881405,10.526026495541064,-10.394635457042025,249.54943255365055,42.157033687247385
554,-5.455555052981337,-245.23300518270975,-45.87610724080098,39.720219669848774,11.060891285522885,-10.306060577441606,249.5743972625246,42.635912839084675
555,-5.449358962811936,-245.23767760870035,-45.89698580389676,40.15531445540526,11.633390147925104,-10.203451364022573,249.58316010506465,43.19961710155319
556,-5.441346080408603,-245.22490262385017,-45.92673574122907,40.66110677064667,12.240266539619597,-10.08758290838175,249.57620098162258,43.83962620094819
557,-5.43177960160394,-245.19554686698257,-45.96466083255322,41.22881879095694,12.877599386863022,-9.959512073469007,249.55424016043042,44.54662293740219
558,-5.4209325220770355,-245.15070515262943,-46.009949811293126,41.849103095501846,13.54086315641194,-9.82054774706775,249.5182068346044,45.31060690205153
559,-5.409082050110325,-245.09166448688595,-46.06168516552717,42.51215323422023,14.225000467490611,-9.67221663313368,249.4692052186479,46.12101158148891
560,-5.396505570706529,-245.01986541870062,-46.11886021889845,43.20781382202033,14.924505315059834,-9.516226476859655,249.40847937312907,46.96682451004804
561,-5.3834786500364,-244.9368624075806,-46.18040329139472,43.92569021295881,15.633514995069426,-9.354428444375866,249.33737823561145,47.8367104602728
562,-5.3702751842879,-244.84428504477097,-46.24520740260429,44.65525821152884,16.345908775627432,-9.188780097336373,249.25732242478057,48.719137879426206
563,-5.3571694326390045,-244.74380180274812,-46.3121640445549,45.38597457338916,17.055411193904177,-9.021310069790752,249.1697742268529,49.60250884439095
564,-5.344439379125809,-244.63708763134207,-46.38019959165637,46.10738921584482,17.755697634742507,-8.854085191659365,249.07621181914274,50.47529272669924
565,-5.332370666345103,-244.52579625605716,-46.44831269445849,46.80926010995283,18.440499620229534,-8.689180385476902,248.97810828048532,51.32616355812992
566,-5.321260239697962,-244.41153749970016,-46.515610629595706,47.48167181575118,19.103707002794984,-8.528651134861564,248.8769153357632,52.14414080661348
567,-5.3114188077160795,-244.2958593673024,-46.58134233072365,48.11515858023643,19.739464027979675,-8.37450767771874,248.77405115817555,52.91873295549611
568,-5.303171289736687,-244.18023407659734,-46.64492588506778,48.70083265495553,20.34225617192027,-8.22868944834397,248.6708910122772,53.64008284967675
569,-5.2968546778086925,-244.06604685888635,-46.70596864586014,49.23051753825118,20.906984970247,-8.093037941478276,248.5687592397821,54.299112950931445
570,-5.292813170137074,-243.95458640813877,-46.76427867082756,49.69688384632472,21.429028778441655,-7.969266337746683,248.46892125363613,54.88766718104281
571,-5.291390862967463,-243.84703634079528,-46.819866810240036,50.09358277765221,21.90428832671549,-7.8589249526113765,248.37257480319613,55.398644116813855
572,-5.292922570257138,-243.74446770507782,-46.87293933695574,50.41536966670457,22.329216781862566,-7.763362643775089,248.28084054671248,55.8261146573298
573,-5.297723467682885,-243.64783313851632,-46.92388150685286,50.658208979421715,22.70083471692774,-7.683685424944328,248.19475260917318,56.16541673419737
574,-5.306078247777934,-243.55796352061734,-46.973232859031015,50.81935272156228,23.01673102404638,-7.620714450034055,248.11525012302334,56.413220576803475
575,-5.3182303149829995,-243.4755678335015,-47.0216554165635,50.897386338940755,23.27505149219981,-7.574946141777552,248.04317067807,56.56756028209785
576,-5.334371296494358,-243.40123646189738,-47.0698962651222,50.89223913049363,23.474477499202333,-7.546517511798193,247.97924618714828,56.62783039626088
577,-5.354630934131562,-243.33544749481274,-47.11874628394353,50.805159267354995,23.614197963138363,-7.5351796584563955,247.92410106853487,56.59474923975388
578,-5.3790673601526535,-243.27857497486562,-47.16899699801293,50.638656143427745,23.693878273098647,-7.540282067772875,247.8782520766903,56.47029325167586
579,-5.407657843132328,-243.2308976765288,-47.221397496057456,50.3964146204894,23.713630221705834,-7.560769745750845,247.8421087521762,56.25760831988423
580,-5.440290237726984,-243.19260695642723,-47.276613132193106,50.083186666166334,23.67398679084662,-7.5951944373202815,247.81597338408304,55.960904729956944
581,-5.476755498957696,-243.1638124703027,-47.33518748363178,49.704666033388165,23.575884894447622,-7.641740266941438,247.80003958070154,55.5853420788426
582,-5.516741699510419,-243.14454501393027,-47.397508965016875,49.26735125135222,23.4206579820595,-7.69826312293551,247.79438898553252,55.13690954526086
583,-5.559830061578965,-243.13475635388818,-47.46378361566574,48.778401583664376,23.21003902414603,-7.762342159585628,247.79898629574205,54.6223056769733
584,-5.605493628573903,-243.13431657535378,-47.534015703082446,48.24549002548867,22.94617304788353,-7.831341119223033,247.8136734151175,54.04882069383385
585,-5.653099311027373,-243.1430099975478,-47.607997696687946,47.676657035609416,22.631637154656637,-7.902476885355419,247.8381640727709,53.42422342214896
586,-5.701914039449295,-243.1605308805102,-47.6853106965442,47.08016851786665,22.269464876627776,-7.972892682797014,247.87204032071335,52.75665436995206
587,-5.75111559356212,-243.18647993952706,-47.76533555151069,46.464381348510564,21.863170924372234,-8.039733449083089,247.91475195678058,52.05452593708853
588,-5.799808373406225,-243.2203623277541,-47.84727389355044,45.83761922104239,21.416771979731955,-8.100220961264009,247.96561937371698,51.32643012726518
589,-5.84704398408763,-243.2615875284752,-47.93017745167114,45.208060683506915,20.934799278487667,-8.151726292091672,248.0238399476913,50.581053369975024
590,-5.891846114739665,-243.30947157452377,-48.012983439196645,44.583640163458384,20.422299260659344,-8.19183717674586,248.08849793798169,49.827097332496884
591,-5.933238897672384,-243.36324201127587,-48.09455354842172,43.97196179693397,19.884819402636246,-8.218417998478207,248.15857781138126,49.073204112522426
592,-5.9702777152925295,-243.42204588085005,-48.173714174812694,43.38022522323527,19.328377330563228,-8.229660390956331,248.23298078074862,48.32788408479437
593,-6.002081167416749,-243.48496074364897,-48.2492959299282,42.81516226218016,18.759412318908886,-8.224122880536326,248.3105441697357,47.599444942022785
594,-6.027862591550427,-243.55100850209422,-48.32017111600382,42.28298346609002,18.184719221973264,-8.200758505853054,248.39006308074633,46.89592099909985
595,-6.0469592714185145,-243.61917164087157,-48.38528838328905,41.789333717048514,17.611365746114405,-8.15892991875809,248.4703137944111,46.22500241286697
596,-6.058857440980798,-243.68841139483933,-48.443704156901966,41.339256110446875,17.046594721291342,-8.098412046825626,248.55007829514565,45.59396440592997
597,-6.063211475233051,-243.75768717625883,-48.4946105897893,40.937163250956964,16.49771361931968,-8.019382923328182,248.62816917809837,45.00959677211684
598,-6.059856242791567,-243.8259763301313,-48.5373597417123,40.586814864451505,15.971973999487972,-7.922403722277376,248.7034539369233,44.47813394659159
599,-6.048812366238462,-243.89229311306175,-48.571483409037754,40.29130046577133,15.476443936464138,-7.808389373274149,248.77487742891657,44.0051859348189
600,-6.030284843954882,-243.95570590110253,-48.59670772443131,40.05302588248216,15.017876860765012,-7.678571406903859,248.8414813834674,43.59567059446214
601,-6.004655843031821,-244.0153520372112,-48.612961612360536,39.873702802592696,14.6025805580442,-7.5344549413451265,248.90242022251778,43.25374821851275
602,-5.972472404593311,-244.07045024418852,-48.620378561093744,39.754341142410325,14.236290246357186,-7.377771980200228,248.95697304004608,42.98276000764454
603,-5.934429565014842,-244.12031094449023,-48.619291751742516,39.69524475611385,13.924049675011423,-7.210433387420993,249.00455210329747,42.78517268577925
604,-5.891349352435933,-244.16434503922008,-48.61022302575356,39.69601163623528,13.670104083223903,-7.034481910980348,249.04470853127035,42.6625320168507
605,-5.844156392430547,-244.2020716798096,-48.593866352303614,39.75554014142079,13.47780858047741,-6.852048347840343,249.07713583077418,42.61542816776948
606,-5.793851232816501,-244.233125329352,-48.57106654733952,39.87204287251603,13.349555005242145,-6.665312407010284,249.10167176677166,42.64347566330013
607,-5.7414826801953165,-244.25726204211884,-48.54279416599062,40.04306961601911,13.286719599868942,-6.476469184754808,249.11829872064536,42.745310135659956
608,-5.688120349351355,-244.2743645535081,-48.51011768677447,40.26554037336208,13.289632998666685,-6.287701581420081,249.12714239496194,42.918603321060495
609,-5.634828381847466,-244.28444560041365,-48.474174170202396,40.535789019152084,13.357573170105052,-6.101158510948264,249.1284685575085,43.16009695405538
610,-5.582641016826127,-244.2876489009517,-48.43613944515766,40.84961767501206,13.488781151711724,-5.918938295247615,249.12267748985013,43.465655455109
611,-5.532540420951885,-244.28424737103654,-48.39719862497098,41.20236148804756,13.68049867862674,-5.7430761263255645,249.11029589109552,43.83033662670329
612,-5.485436889798303,-244.27463840190782,-48.35851751114258,41.588963184806005,13.92902611397085,-5.575534012186881,249.09196617099227,44.24847899221494
613,-5.442151275706466,-244.25933629196447,-48.32121533837073,42.004056540106376,14.22979845827729,-5.4181913928894545,249.0684333019869,44.71380396701955
614,-5.403399404879474,-244.23896211324862,-48.286339414020006,42.44205771108762,14.577476741984446,-5.272834734037668,249.04052960031842,45.21953074573554
615,-5.369778377343798,-244.21423136623858,-48.25484241012937,42.8972631609749,14.966051900883523,-5.141144823965487,249.0091579217698,45.758501575453884
616,-5.341754907995256,-244.18593981214133,-48.22756315271502,43.3639526040878,15.388958301928817,-5.024681066154438,248.9752738155589,46.323314911973554
617,-5.319656106363811,-244.1549479291291,-48.20521156936833,43.836495093207134,15.839194300576473,-4.924862633768195,248.93986720492646,46.906463810734564
618,-5.3036631772597485,-244.12216445505797,-48.18835805409417,44.309456101696185,16.3094474430066,-4.842946879629883,248.90394410190322,47.50047679227484
619,-5.293808411006796,-244.08852935124472,-48.17742707367728,44.777703211901525,16.792222136980104,-4.780005855641746,248.86850865198554,48.09805831714034
620,-5.289975593534561,-244.05499628355767,-48.17269452266765,45.236507725968046,17.279967817406593,-4.736902145124856,248.8345455065799,48.69222583223475
621,-5.291903743787779,-244.02251455927762,-48.1742881737465,45.68163912474329,17.76520584032277,-4.714265380337082,248.80300233463083,49.276440070773965
622,-5.299193972140808,-243.9920105243341,-48.18219057506043,46.10944892503873,18.240653538540368,-4.712470791475597,248.77477235230796,49.84472499877618
623,-5.3113192347500116,-243.96436863940218,-48.19624392863326,46.51694034315152,18.699344010449675,-4.73162099697142,248.75067699638586,50.39177369526523
624,-5.327636781303282,-243.9404126250472,-48.21615675506338,46.90182042850895,19.13474023399963,-4.771532121448308,248.7314490877575,50.91303667701635
625,-5.3474031538439215,-243.92088712900335,-48.241512320129885,47.262532005232096,19.540842004533673,-4.831725278908554,248.71771692508253,51.40478975717695
626,-5.369791694698584,-243.90644041476963,-48.2717787736105,47.59826375752151,19.912284054803834,-4.91142443850376,248.709989787807,51.86417939270968
627,-5.393912579293652,-243.897608666652,-48.30632084356969,47.90893796253232,20.244423610805075,-5.009561592248432,248.7086453991826,52.28924450475913
628,-5.418835292868232,-243.89480258752448,-48.34441293862072,48.19517651842685,20.533415626687855,-5.124789897234795,248.71391997655655,52.67891478405173
629,-5.443613211628624,-243.89829694050675,-48.38525367982262,48.45824685894103,20.77627403230425,-5.255505082383595,248.72590149693949,53.03298635968144
630,-5.467309654356184,-243.90822356289016,-48.427982015369025,48.69999003198161,20.970917476251284,-5.399874938736497,248.7445267034265,53.35207634992737
631,-5.489024608506602,-243.92456823887764,-48.47169494564542,48.922733741561814,21.11619821858916,-5.555876175354995,248.76958221140262,53.63755830308393
632,-5.5079213728342085,-243.94717167688955,-48.515466543477125,49.129193648276804,21.21191301900594,-5.721337353435463,248.800709871785,53.891481005128426
633,-5.523252480311899,-243.97573462435787,-48.55836765397336,49.322366756491974,21.258795084815237,-5.893986109504706,248.83741628734995,54.11647364780779
634,-5.534384301722901,-244.0098268318619,-48.599485586525084,49.50542124427734,21.25848639485331,-6.071498571920969,248.87908605263138,54.31564089005875
635,-5.5408196471724995,-244.04889924540558,-48.63794323990864,49.681587490886514,21.213490035995093,-6.251548829694399,248.9249979849818,54.49245181696702
636,-5.542217535394178,-244.09229859958805,-48.6729173034808,49.85405515712508,21.12710263964716,-6.4318565032535275,248.9743434473063,54.65062707607555
637,-5.538409127203382,-244.13928355616946,-48.7036553533567,50.025880820787556,21.00332761309062,-6.610230812521785,249.02624586379596,54.79402841664145
638,-5.529408699324384,-244.18904162853067,-48.729491758440155,50.19990978677017,20.846770580579708,-6.784609954273208,249.07978063837544,54.9265543802358
639,-5.515418590487206,-244.2407062685011,-48.74986231054525,50.37871434244714,20.66251920252196,-6.953095026889372,249.1339948192767,55.05204500759262
640,-5.496827315905733,-244.29337363695115,-48.76431739395119,50.56454913270893,20.456010262252153,-7.113978143828547,249.1879259830339,55.17419730052309
641,-5.474200475270334,-244.34611874239357,-48.77253332443605,50.75932279659033,20.23288753471796,-7.265764752136319,249.24061994810216,55.29649205967778
642,-5.448264654498418,-244.39801076154046,-48.77432128859877,50.964583849973025,19.998854403679985,-7.407190513259847,249.29114703521134,55.42213185831744
643,-5.4198851782608575,-244.4481273736101,-48.769633192903626,51.18151825466619,19.759525431109747,-7.537233360909336,249.33861660520165,55.55398950447917
644,-5.390039120536031,-244.4955678958388,-48.758563696437086,51.41095623813294,19.520281117071388,-7.655121446571498,249.38218956902446,55.69456644013615
645,-5.359785247499516,-244.5394650571254,-48.741347735019545,51.65338650652615,19.286129947340463,-7.760337589952712,249.42108862441808,55.84596094502428
646,-5.330232541828099,-244.57899545509804,-48.71835301419613,51.90897665326566,19.061581537040485,-7.8526206332747135,249.45460620796754,56.00984643548021
647,-5.302508767442914,-244.61338901413473,-48.69006732336345,52.17759902662302,18.850534287903923,-7.931963851886994,249.4821104844457,56.18746034855528
648,-5.277730305942011,-244.64193796651517,-48.65708105812518,52.45886152510676,18.656180516877313,-7.998610346266557,249.503049993107,56.379604045513375
649,-5.256974268881265,-244.66400595690635,-48.6200659174243,52.75214279443507,18.480931462350537,-8.05304513535416,249.51695775323535,56.586653904288404
650,-5.241253639832622,-244.67903781016355,-48.57975124604059,53.056631126187,18.326363891110415,-8.095983524014159,249.52345566309566,56.80858331181642
651,-5.231495927567004,-244.68657028821355,-48.53689979409855,53.3713660098594,18.193189238812487,-8.128355308050342,249.52225986695544,57.044994638255496
652,-5.228525559836818,-244.68624380016698,-48.49228465023702,53.69528085213164,18.081245434027498,-8.151284551625587,249.51318739958185,57.29515959836431
653,-5.233050032240482,-244.67781459237435,-48.44666875640929,54.02724501887897,17.989510897501543,-8.166064983005187,249.4961639141725,57.55806587067406
654,-5.245649609876028,-244.6611665552022,-48.40078785919661,54.366103240506014,17.916139679947907,-8.174131409436285,249.4712318033461,57.832467595297885
655,-5.266770133702112,-244.63632156140415,-48.35533719173904,54.71071061632361,17.85851622213545,-8.17702783831901,249.43855768906332,58.11693742826179
656,-5.296718256252717,-244.60344725299828,-48.31096172150491,55.05996188046445,17.813327754608213,-8.176373129216005,249.39843816333192,58.40991809676844
657,-5.335658327267431,-244.56286137691396,-48.268249441046805,55.41281407646416,17.77665195704768,-8.173825008894466,249.35130276822235,58.70977173068611
658,-5.383610260110387,-244.51503203582672,-48.22772692174385,55.7683022112456,17.744057230147558,-8.171043275322727,249.29771341718182,59.014825563474666
659,-5.440448040230683,-244.46057352254556,-48.18985623243184,56.12554785056371,17.710712778462785,-8.169653099831738,249.23835974129824,59.32341293776429
660,-5.505898975173218,-244.40023777204604,-48.15503236894077,56.483761066481364,17.6715055800242,-8.171209510824081,249.17405022264276,59.63390897763221
661,-5.579544157709018,-244.33490186964042,-48.12358052568361,56.84223665618289,17.621161173045035,-8.177164341947325,249.1056994187439,59.944760778495684
662,-5.660820782236375,-244.26555235968468,-48.09575279070352,57.20034601486385,17.554365061609253,-8.188837093770188,249.03431193607844,60.25451242023924
663,-5.7490268545960355,-244.19326720017332,-48.071724086421604,57.55752633481332,17.465881535717106,-8.207391223976114,248.9609639577328,60.561825430765296
664,-5.8433284901486715,-244.1191961479431,-48.05158743804859,57.91326883236461,17.350666902636966,-8.233817238400155,248.88678311994175,60.86549544707596
665,-5.942769567670037,-244.04454026248126,-48.035348989337734,58.26710746958777,17.20397454921799,-8.268923521319572,248.8129274996027,61.16446572890868
666,-6.046283255028094,-243.9705311585821,-48.02292353496111,58.61860924599437,17.02144981798428,-8.313335152966895,248.74056448369922,61.45783795664018
667,-6.1527050104783925,-243.89841059243113,-48.01413157083489,58.967366752301274,16.799213232595555,-8.367500164341273,248.67085029379635,61.74488051655082
668,-6.260787017847488,-243.8294108562359,-48.00869892083475,59.312993386407534,16.53393104283291,-8.431701968383482,248.6049108490708,62.02503430781072
669,-6.369214372450899,-243.7647362407907,-48.00625986584887,59.655121374476906,16.222872416803522,-8.506076227909443,248.54382442064448,62.29791596939688
670,-6.476623438234794,-243.70554552813277,-48.006364373195765,59.993402438778084,15.86395301521464,-8.59063019594808,248.4886061757129,62.56331828614508
671,-6.581622580983355,-243.65293517502144,-48.00848957040437,60.327510659784565,15.455765187957946,-8.685262533756564,248.44019431972387,62.82120744747038
672,-6.682815111747162,-243.60792263538437,-48.012055159922745,60.65714695458348,14.997595551304688,-8.789781744097162,248.39943723933453,63.07171692606135
673,-6.778823975479578,-243.57142922546777,-48.016442105932036,60.982044719152924,14.489431103086925,-8.903921655929746,248.3670809256469,63.31513805905852
674,-6.8683175765094,-243.54426211603302,-48.02101362838595,61.30197644075703,13.931955247214146,-9.027352840045296,248.3437560716289,63.55190781774571
675,-6.95003607813203,-243.52709545088393,-48.025137306046226,61.61676128732434,13.326535151939302,-9.15968938277818,248.3299645961257,63.7825945639929
676,-7.022817493763334,-243.52045116092518,-48.02820696326875,61.92627378367687,12.675201788790115,-9.300491059238725,248.32606587863546,64.00788278231724
677,-7.085622919896966,-243.52468059687956,-48.029663042882916,62.23045383146464,11.980623749249672,-9.449261563082747,248.3322635358791,64.2285579665048
678,-7.1375603445495726,-243.53994844545073,-48.02901035992975,62.52931862846127,11.246075461778872,-9.605443974889358,248.34859394255838,64.44549310761109
679,-7.1779065459302265,-243.56622042077942,-48.02583242809496,62.82297737030115,10.47539980489799,-9.768415020599019,248.37491778147432,64.65963845917109
680,-7.2061266265362205,-243.60325598753877,-48.019801823245025,63.11164967253834,9.672964554437861,-9.937479845204889,248.41091572721885,64.87201618982382
681,-7.221890682023163,-243.65060699061215,-48.010686204403505,63.39568818926013,8.843611858942158,-10.111868950496897,248.45608901887155,65.08372097440339
682,-7.225086978695576,-243.7076226099779,-47.998349702600876,63.67560493277549,7.992600111183137,-10.29073858250806,248.5097652406777,65.29592654125183
683,-7.215830858240297,-243.77346055061315,-47.982749542737956,63.95209960016987,7.1255380729816755,-10.473175254863119,248.57110915565937,65.50989694847001
684,-7.194468497656232,-243.8471038310793,-47.96392804872326,64.22608720956025,6.248311689814278,-10.658204385737633,248.6391379567022,65.7270002932422
685,-7.161574682348047,-243.92738201191784,-47.94200056200824,64.49872186866948,5.367004516743734,-10.844802346451429,248.71273986651144,65.94872197349642
686,-7.117943895395857,-244.01299534526555,-47.91714019258912,64.77141357767414,4.487813000989987,-11.031910698178532,248.79069474952342,66.17667456921747
687,-7.064574312771983,-244.10254025646395,-47.889560629511706,65.04583536698591,3.6169580378518473,-11.218451152173413,248.87169540082107,66.4126016849196
688,-7.0026447949325865,-244.19453478547524,-47.85949839691414,65.32391850106922,2.7605942850828393,-11.403339880319262,248.95436843688805,66.65837343395584
689,-6.933485650176327,-244.28744301661348,-47.827195920440126,65.60783384190421,1.9247187627774245,-11.58550014663856,249.03729412255595,66.91597155152382
690,-6.8585446079248324,-244.3796979853202,-47.79288657295597,65.89995788968102,1.1150803335188144,-11.763872670465034,249.11902490151556,67.18746250724492
691,-6.779349822247987,-244.46972298069014,-47.756782522476456,66.20282272084958,0.3370917537478819,-11.937423561027927,249.1981027640805,67.47495764881079
692,-6.697471714421232,-244.5559515436256,-47.71906576591028,66.51905015280796,-0.4042539007261222,-12.10515007892084,249.27307587601868,67.78056047223431
693,-6.614485185852321,-244.6368468013589,-47.67988233004923,66.85127193386073,-1.1044605179526332,-12.266084927496312,249.3425151434801,68.1063025461936
694,-6.53193342700122,-244.7109210342594,-47.639339390851035,67.20203938770817,-1.759597926837478,-12.419300249230654,249.40503158855606,68.45407122311927
695,-6.451294311198251,-244.77675646904524,-47.59750501596638,67.57372743665367,-2.366360500881383,-12.563912898786505,249.45929549222507,68.82553374080857
696,-6.373950113125891,-244.83302819248692,-47.55441029035935,67.96843895367174,-2.9221133863752606,-12.699092761462738,249.50405816746328,69.22206330983849
697,-6.301160987913441,-244.8785297289494,-47.51005365890891,68.38791568247484,-3.4249246349812466,-12.824075826631276,249.53817688663813,69.64467302594682
698,-6.23404240591217,-244.91220116439752,-47.46440735176496,68.8334613994373,-3.8735820664948997,-12.93818341645343,249.56064283707616,70.09396283407729
699,-6.17354668322424,-244.93315881133807,-47.41742572049984,69.30588160364154,-4.267594448846068,-13.040848422696698,249.57061109621156,70.57008333849157
700,-6.120448830655693,-244.94072459740826,-47.36905522095119,69.8054419839043,-4.607177457317149,-13.13164866063388,249.5674308035761,71.07271817514984
701,-6.07533700774166,-244.93445298073624,-47.31924565318608,70.33184558469341,-4.893225753691625,-13.210346625944199,249.5506733109872,71.6010843038332
702,-6.038607829349635,-244.91415339053287,-47.26796212544042,70.88422649218265,-5.127273319809271,-13.27693418066231,249.5201562554849,72.15394745958231
703,-6.010466655640586,-244.87990679855244,-47.21519706537066,71.46115646163774,-5.311444834057215,-13.331680078330097,249.47596206514524,72.72964859894209
704,-5.990932855071468,-244.83207572575168,-47.16098147962474,72.06066044955526,-5.448401344744528,-13.375177770997926,249.41845006595608,73.3261367193908
705,-5.979849882325153,-244.77130753063685,-47.10539460187383,72.68023747828352,-5.541283696824033,-13.408390590745082,249.34826187288405,73.94100388944189
706,-5.976899836333162,-244.69853113123446,-47.0485711029719,73.31688443307053,-5.59365704351347,-13.4326911321331,249.2663200475357,74.5715194816381
707,-5.981621973880714,-244.61494738797367,-46.99070512710147,73.9671219416938,-5.609459331789301,-13.449891473507675,249.17382008873173,75.21466212625188
708,-5.99343456328184,-244.52201323386905,-46.93205050480338,74.62702306230089,-5.592955968437391,-13.462260825827789,249.07221569641456,75.86714946867656
709,-6.011659536338987,-244.42141935666507,-46.87291661349599,75.29224680113403,-5.548702029611205,-13.472527395950843,248.96319699654254,76.52546714300595
710,-6.035549489472956,-244.31506102406064,-46.81365961047078,75.95807924636884,-5.481512417702364,-13.483861762053449,248.84866125575152,77.18589923642595
711,-6.064316469953231,-244.2050017549129,-46.75466917043868,76.6194851587312,-5.396439339335323,-13.49983985665848,248.73067579876738,77.84456273824229
712,-6.097161627030595,-244.09343007700843,-46.69635130496569,77.27117219743702,-5.2987554557550665,-13.524384650907104,248.61143344406716,78.49744802559157
713,-6.13330440973089,-243.98261040765388,-46.63910817902424,77.90766880613205,-5.193940146341991,-13.56168671513782,248.4932016065997,79.14046653590404
714,-6.172009799739747,-243.87482981791632,-46.583316021860604,78.52341549544784,-5.0876656375735845,-13.61610487721006,248.37826695491955,79.7695057434513
715,-6.212612193638257,-243.7723428459645,-46.5293023421733,79.1128681415094,-4.985779399032305,-13.692049146169305,248.26887792936745,80.38049068451988
716,-6.254534915657674,-243.6773166160516,-46.47732381135254,79.67061111089569,-4.89427928213281,-13.793848914411777,248.16718755373049,80.96945070373569
717,-6.297304747200269,-243.59177851184586,-46.42754634488496,80.19147750143064,-4.8192783522301905,-13.925610210735806,248.07519900597538,81.53258980509521
718,-6.340561101456023,-243.51756873332258,-46.380028946208974,80.67067344777115,-4.766957095442853,-14.091066453401092,247.99471650557822,82.06635887164907
719,-6.384059468829957,-243.4563002038804,-46.334712697716164,81.10390317905781,-4.74350151309434,-14.29342773111716,247.92730417646465,82.56752795373681
720,-6.427668637628678,-243.40932825342068,-46.291415896859434,81.48749132562018,-4.755026486317475,-14.535234037497167,247.87425542886356,83.03325679129881
721,-6.471361244137187,-243.37773199625062,-46.249835727412986,81.81849896672722,-4.807484712493804,-14.818217963212007,247.8365747947663,83.46116182003125
722,-6.515197626798147,-243.3623082323214,-46.209556064292805,82.0948302528725,-4.9065624885226455,-15.14318205320591,247.81497294875683,83.8493782620191
723,-6.559303631330066,-243.3635772822316,-46.170060262347526,82.31532719710432,-5.057564591366649,-15.509895456209751,247.8098741380494,84.19661660069248
724,-6.603843625169214,-243.38179892754673,-46.13074737177221,82.4798512787478,-5.265291372170537,-15.91701375126388,247.82143397472598,84.50221366849632
725,-6.648990367149889,-243.41699589379184,-46.09095026653994,82.58935152342741,-5.5339118078400125,-16.36202496297133,247.8495648445766,84.76617941755174
726,-6.694893596230372,-243.46898203676014,-46.049954508072574,82.64591940466232,-5.866836575833017,-16.841223770087055,247.8939659871837,84.9892408863805
727,-6.741649301255853,-243.53739238337167,-46.00701712319165,82.65283112499482,-6.266595266197057,-17.34971483350438,247.9541553653367,85.17288480344625
728,-6.7892715723175305,-243.62171234159652,-45.96138472510624,82.61457761844386,-6.734721707367371,-17.881445138878536,248.02950064923016,85.3193997453068
729,-6.837668696808146,-243.721303741276,-45.91231061229642,82.53688206642055,-7.27165112310271,-18.429264362587706,248.11924701345043,85.43191790909336
730,-6.886624793679688,-243.83542590601624,-45.8590707005066,82.42670393802618,-7.876632428863561,-18.985011565080768,248.22254000162164,85.51445547408646
731,-6.935787827432185,-243.96325062657505,-45.800978335721645,82.29222768299398,-8.547658300865615,-19.53962598818038,248.3384423914821,85.57194934000987
732,-6.984664357287788,-244.1038706434904,-45.737398156346735,82.14283341314297,-9.28141465223819,-20.08327936395012,248.4659447224318,85.61028692639361
733,-7.032620908101784,-244.25630202773215,-45.6677591941705,81.98904647070484,-10.073249995519504,-20.605526925138353,248.6039699022727,85.63632497041755
734,-7.078891428581011,-244.41948160857729,-45.591567256967,81.84246295537494,-10.917164193095914,-21.095474251574874,248.75137301547116,85.65789314812932
735,-7.122589967563616,-244.59226117509442,-45.508416296099675,81.71564913401002,-11.805815527380148,-21.541957199820363,248.9069379490837,85.68377895466077
736,-7.162727546294481,-244.7734004092852,-45.4179981030121,81.62201395724051,-12.730544827085195,-21.93373242566296,249.0693726094676,85.72369139163045
737,-7.19823231221374,-244.96156035533107,-45.32010957652242,81.57565523029201,-13.681415393375213,-22.25967635536049,249.23730433662237,85.78820219509753
738,-7.227972344543937,-245.1552987910142,-45.21465703146732,81.59118094525526,-14.647267572529186,-22.50899075397946,249.40927674264182,85.88866419314874
739,-7.2507807211960404,-245.35306833787078,-45.101657329360926,81.68350772100952,-15.61578700514625,-22.67141309842912,249.58374874412237,86.03710672239384
740,-7.265482489681169,-245.55321772453348,-44.98123569547587,81.86763832881633,-16.57358582096351,-22.737429675456582,249.7590961593991,86.24610794319864
741,-7.270923045962889,-245.75399638872622,-44.853619920398316,82.15842020176649,-17.50629628066885,-22.698488717111875,249.93361598104227,86.52864366187342
742,-7.265997263887717,-245.9535625124444,-44.71913052042582,82.57028694694064,-18.398676586460887,-22.547210085297483,250.1055333158535,86.89791223162213
743,-7.249678624916545,-246.1499945142249,-44.57816666059315,83.11698537595663,-19.23472889102142,-22.277587159948148,250.27301095241046,87.36713548896104
744,-7.22104753518141,-246.34130585936157,-44.43118825587967,83.8112914300715,-19.99783002568645,-21.8851757802298,250.43416146398886,87.94933652489861
745,-7.179317924590119,-246.52546276233738,-44.27869539359358,84.66471944976304,-20.670876099723227,-21.36726445496264,250.58706160188822,88.65709626875366
746,-7.123861173851008,-246.70040406386596,-44.121206734431226,85.68723031110473,-21.236442723764885,-20.723019750939187,250.72976853926994,89.50229217449392
747,-7.054226587826397,-246.86406243087148,-43.95923870355861,86.88694480403527,-21.676963017622455,-19.95360089322078,250.86033742710504,90.49582352627183
748,-6.97015809101086,-247.0143860784559,-43.79328715946199,88.26986908202787,-21.974925690217997,-19.06223814040697,250.97683976506596,91.64732882041054
749,-6.871607388476173,-247.14936034661153,-43.6238129824113,89.83963894307863,-22.113095261225823,-18.05427029140984,251.07738219425357,92.96490115882222
750,-6.758744227002109,-247.26702860070742,-43.4512327036862,91.59728905858455,-22.074755845610333,-16.937137598357083,251.1601254078461,94.45480749158247
751,-6.631964409942244,-247.36551207816495,-43.27591485582348,93.54105214991668,-21.84397883477103,-15.720327347724956,251.22330295209503,96.12121693898672
752,-6.491895875433343,-247.44302853076115,-43.09818219106491,95.66619182213859,-21.40591342778515,-14.415270495904249,251.26523981407485,97.9659426212411
753,-6.339402665531225,-247.49790980665057,-42.91831943403113,97.96487169900671,-20.747097494588335,-13.035189155255797,251.28437088776118,99.98820086765531
754,-6.17558630373311,-247.528618751024,-42.73658590964028,100.42606293190615,-19.855784775196714,-11.59489650389934,251.2792595761356,102.1843916466031
755,-6.00178414190889,-247.53376581431104,-42.553232175320495,103.03549204992254,-18.72228288371436,-10.11055271634197,251.24861675962993,104.5479044788755
756,-5.81956456182034,-247.512125535117,-42.36851957963796,105.77563120116888,-17.33929494094297,-8.599382506078127,251.19132011438336,107.06895462673963
757,-5.630719247564802,-247.46265282915718,-42.18274143159121,108.62573277469814,-15.70225596536936,-7.079361568781641,251.10643349882486,109.73445462196365
758,-5.437252813846238,-247.38449898925322,-41.9962442658939,111.56190997033008,-13.809653584294379,-5.568880455333547,250.99322606897863,112.52792599950344
759,-5.2413698242807145,-247.2770274857307,-41.80944762144583,114.55726407677668,-11.663321429787592,-4.086395124407667,250.85119094588964,115.42945545112767
760,-5.045458839283359,-247.13982990825284,-41.62286083839683,117.58205820960549,-9.268692990814033,-2.6500736212506935,250.68006351038738,118.41569872641938
761,-4.852072833849749,-246.97274261220562,-41.437095577022546,120.6039363701873,-6.635003786087889,-1.2774480308472382,250.47983964370036,121.45993482393393
762,-4.663905254400188,-246.77586475793746,-41.25287299275992,123.58818623089373,-3.775430390941367,0.01491988341846928,250.2507943913626,124.5321726340726
763,-4.4837611077890065,-246.5495783600151,-41.071024723589716,126.49804422410081,-0.707155960398085,1.2117520025911395,249.99350149625826,127.59931238712514
764,-4.314522672375764,-246.29457065872842,-40.89248710548564,129.29504235294803,2.5486465476376314,2.2993399648306094,249.70885399232594,130.6253650548479
765,-4.159109616113277,-246.01185866917046,-40.71828841831053,131.9393975477761,5.966920137601736,3.2657989699876797,249.39808566726776,133.571734146225
766,-4.020433503808676,-245.70281524052024,-40.54952947917907,134.3904461078404,9.518922581497447,4.101284978051472,249.06279277604241,136.39756585692314
767,-3.9013468808378904,-245.36919534972364,-40.38735841246505,136.6071273612362,13.172519334272602,4.798171512108596,248.70495487590222,139.0601748196317
768,-3.804587325102898,-245.0131605805092,-40.23294080008619,138.5485215585567,16.892568558123113,5.351182613784482,248.3269529574657,141.51555315091477
769,-3.7327170959780562,-244.63729883150978,-40.08742666845324,140.1744465257239,20.641393301251057,5.757478824824219,247.93158219832762,143.71896943690868
770,-3.6880593354041973,-244.24463551765038,-39.951916024036095,141.4461151522617,24.379333163094394,6.01669351934856,247.52205594570302,145.6256611805075
771,-3.67263216715702,-243.8386322554625,-39.827424911278804,142.32685109741408,28.065365371613172,6.130917619689455,247.10199731689366,147.19161880308735
772,-3.688082366598771,-243.4231694743602,-39.71485402707831,142.78285341151943,31.657783158666355,6.104631821464241,246.67541527174544,148.37445186211656
