time,ax,ay,az,gx,gy,gz,accmagnitude,gccmagnitude
0,30.939682336190522,-250.11125440501917,-57.93019156399062,-2.470681759494762,17.197294067607174,-7.319624453154922,258.59087347342,18.641784850463477
1,30.874734593803076,-250.1584139784621,-57.92723175575547,-2.923819659147384,22.35248729685475,-7.298206913711261,258.6295111639674,23.733663458313515
2,30.811598533943346,-250.206541742934,-57.92811928695494,-3.3657091298512642,27.518640963123538,-7.265640955094225,258.6701084097905,28.834879703653478
3,30.748198896566148,-250.2540544883889,-57.9326885747325,-3.795164662541264,32.66928454309533,-7.222210144543852,258.7108425969566,33.91964871853159
4,30.682541487419407,-250.29935196750947,-57.94073176139038,-4.2111043684291705,37.779139773516384,-7.168211602500516,258.74987647358256,38.96336225262358
5,30.612781176423017,-250.34085558908723,-57.951999234300544,-4.612555536302174,42.82447086134597,-7.103944218393284,258.7854040200707,43.94292621193697
6,30.53728019290243,-250.3770460188032,-57.96620157250746,-4.998671181070724,47.783386025877284,-7.029699116491252,258.81569437470085,48.83705203303818
7,30.454654513700163,-250.4064990436564,-57.98301320280026,-5.368757691283728,52.63608360449503,-6.945752996438576,258.83913298668347,53.62649555526979
8,30.36380688393085,-250.42791920101914,-58.00207778802558,-5.722312430247716,57.36503773012326,-6.852364982760361,258.85425934317186,58.29423866412603
9,30.263945741043287,-250.44017078824163,-58.0230149973491,-6.059069313915333,61.95512068416937,-6.749777439449059,258.8598007343467,62.82561088253499
10,30.154590043279107,-250.4423060161927,-58.04542799611635,-6.3790499330506805,66.39366130934555,-6.63822088175338,258.85470168234235,67.2083501721147
11,30.035560717015855,-250.43359017017997,-58.06891089548669,-6.682617501350259,70.67044110343943,-6.5179227173897925,258.83814882081043,71.43260425794307
12,29.906960094152886,-250.4135235589449,-58.093055530053576,-6.9705306055774,74.77763160931002,-6.389119169872876,258.80959103891746,75.49087561550743
13,29.76914129773195,-250.38185978056825,-58.11745716677025,-7.24399332184729,78.70967837674165,-6.2520694369166225,258.7687545817001,79.37791476759001
14,29.622670023936667,-250.3386195964498,-58.1417189650087,-7.5046977663621774,82.46313810591026,-6.107070890837233,258.7156526745535,83.09056773813127
15,29.46828147965745,-250.28409962339876,-58.165455159462475,-7.754854679681994,86.03647664574665,-5.954473896194346,258.6505892316253,86.62758445865478
16,29.306835313050186,-250.21887511728283,-58.18829304079936,-7.997207362775677,89.42983635439226,-5.794694652838442,258.5741563015803,89.98939567770212
17,29.13927124837492,-250.14379625000387,-58.20987389428836,-8.235024378409213,92.64478191454377,-5.628224504177746,258.48722503246216,93.17786649572149
18,28.96656786058639,-250.05997743195604,-58.22985315061036,-8.472067097375012,95.68403396935001,-5.455634500092494,258.39093007113166,96.19603500765733
19,28.78970655117084,-249.96877942786125,-58.247900126511425,-8.712529522765188,98.55119985709615,-5.277574683177938,258.2866474854508,99.04784465633493
20,28.609642356952282,-249.8717842780277,-58.26369787737527,-8.960949784315792,101.25051029242023,-5.094768447571196,258.175966534746,101.73787878143979
21,28.427282727069127,-249.77076331291198,-58.276943778994216,-9.222094952703815,103.78657014093854,-4.908003180276479,258.0606558449379,104.27110550492566
22,28.24347480077079,-249.66763876598793,-58.28735141114746,-9.500822972984787,106.16413053613314,-4.7181190333335845,257.9426246767148,106.65264052372277
23,28.05900104111665,-249.5644396745846,-58.29465410969688,-9.801927221584531,108.38788851851416,-4.52599799920936,257.82388003209337,108.88753455962078
24,27.874582441635095,-249.46325299509388,-58.29861025533183,-10.129970305077574,110.46231912544918,-4.332555480554958,257.7064804357805,110.98059111938514
25,27.690888040211867,-249.36617120220973,-58.299010081294774,-10.489114299861619,112.39154342676088,-4.138736289872743,257.59248744134936,112.93621886380252
26,27.508549188705967,-249.27523807621077,-58.29568358994182,-10.882954861573632,114.17923442830502,-3.9455164887784857,257.4839162560055,114.75832134245111
27,27.32817687649232,-249.1923947693854,-58.28850907882916,-11.31436665642051,115.8285611215924,-3.7539117003911184,257.3826872136805,116.4502252101646
28,27.150380285325838,-249.1194283698113,-58.27742173648392,-11.785367363212497,117.34216933824273,-3.564991605451709,257.29057992503186,118.01464640025912
29,26.975784640745573,-249.0579249800779,-58.26242172887017,-12.297006910510778,118.72219661979311,-3.3798994206860717,257.2091917161198,119.45369222480406
30,26.80504641538822,-249.00922895980912,-58.2435811729576,-12.84928750412994,119.97031720003172,-3.1998743683031736,257.13990160236983,120.7688961583806
31,26.63886411962943,-248.97440962941204,-58.221049424911726,-13.441118355377245,121.08781250918848,-3.0262745189471825,257.0838407289542,121.96128123060036
32,26.477983270696473,-248.95423642855667,-58.195056216363106,-14.070307015180143,122.07566229380973,-2.860596959708381,257.0418699749984,123.0314474640639
33,26.323194574738043,-248.949163178351,-58.16591233970704,-14.733587165486034,122.934651323864,-2.704492065759488,257.01456516930597,123.97967849038851
34,26.17532481665001,-248.95932164005995,-58.134007760865735,-15.426680900899601,123.66548654391944,-2.5597687957408817,257.0022100115867,124.80606219140626
35,26.035220441252317,-248.98452403014667,-58.09980714287479,-16.144392069901393,124.26891936145287,-2.4283883861700377,257.00479635134934,125.51061989844071
36,25.903724376195157,-249.02427365963132,-58.06384275020987,-16.880726115130887,124.74586764557856,-2.312444524036537,257.0220310558593,126.09343843243417
37,25.78164725852394,-249.0777825289144,-58.026704642282965,-17.629031011267553,125.09753208091831,-2.214128955048667,257.0533484213261,126.55479922738087
38,25.669734739237963,-249.14399458203036,-57.9890281223464,-18.3821533537756,125.32550190731314,-2.135682502467421,257.09792702380935,126.89529907731472
39,25.56863282540367,-249.22161339386503,-57.95147870226549,-19.132603444729835,125.43184586134048,-2.0793326171354543,257.15471006929994,127.11595777698456
40,25.478853285973635,-249.30913326300234,-57.914735296890164,-19.872723365474553,125.4191853176603,-2.0472198061181826,257.2224286045914,127.2183090904429
41,25.400741094924612,-249.4048729255165,-57.87947273163829,-20.594852471504865,125.29074803923675,-2.0413164664964603,257.2996272642149,127.20447290775508
42,25.334445767273102,-249.50701131438382,-57.84634470103187,-21.291485410058147,125.05040229042206,-2.063342609954114,257.38469243315427,127.07720783331033
43,25.279898236797102,-249.61362491245674,-57.81596799390184,-21.95541855527604,124.7026720866899,-2.1146835871494067,257.4758827338854,126.839944521073
44,25.23679461585293,-249.72272627457056,-57.78890828648207,-22.579881592082582,124.25273494983875,-2.196315169940761,257.5713616298071,126.49680072474105
45,25.20458781766246,-249.8323032571522,-57.76566742679808,-23.158651800080683,123.70640375849466,-2.3087411777757962,257.6692317827143,126.05257931088413
46,25.182487683497058,-249.94035843050455,-57.74667208906483,-23.686149391989705,123.07009425213438,-2.451948165315355,257.7675706977034,125.51275051599046
47,25.16946996934269,-250.04494808605847,-57.73226387590745,-24.15751308461367,122.35077959998584,-2.625380522532441,257.86446714326735,124.88341965961004
48,25.16429427229255,-250.14422021240625,-57.722691198013145,-24.568655923992512,121.55593331504586,-2.827937823825148,257.95805782506665,124.17128148497925
49,25.165530662019837,-250.236450832058,-57.71810348294456,-24.916302136228175,120.6934617568665,-3.057994612899373,258.04656382711113,123.38356233975223
50,25.17159439996228,-250.32007817055919,-57.71854841893109,-25.198006217986997,119.77162750688143,-3.3134411993714963,258.12832640787417,122.52795147217654
51,25.180787692622655,-250.3937341941383,-57.7239729148921,-25.412155446849642,118.79896493462559,-3.59174260279906,258.20184175364676,121.61252268796063
52,25.19134700783675,-250.45627298267917,-57.73422817641103,-25.557956527447526,117.7841892304566,-3.890011637746322,258.2657941214054,120.64564742965095
53,25.201494175824408,-250.50679518793365,-57.74907885711974,-25.63540649354811,116.73610003709057,-4.205091395628209,258.3190864656455,119.63590004257395
54,25.209489307373786,-250.54466761139528,-57.768215844285265,-25.64524767645841,115.66348059804443,-4.5336420846140895,258.3608673267728,118.59195569738093
55,25.213683408977868,-250.569536884776,-57.79127198339485,-25.58890685466289,114.5749931353639,-4.872227310197154,258.3905526364692,117.52248130192785
56,25.21256842919823,-250.5813363791623,-57.81783988737816,-25.468419704303965,113.47907107743099,-5.217395357207265,258.4078411833398,116.43601988358941
57,25.204822413068097,-250.5802857478076,-57.84749079969138,-25.286343194363095,112.38380885162547,-5.565751793621106,258.4127227060919,115.34086939042102
58,25.18934756988699,-250.56688286940363,-57.87979326903331,-25.04566025379416,111.2968502086492,-5.9140206670953335,258.40547789634354,114.24495753501759
59,25.165299418366306,-250.54188837450602,-57.91433027650392,-24.749682465015024,110.2252763393125,-6.259092619044867,258.38667000462146,113.15571497449093
60,25.13210575633154,-250.50630338589096,-57.95071357648083,-24.401957359194988,109.17549528189683,-6.598059323686748,258.357128261925,112.07994960330075
61,25.089474934477703,-250.46134152985238,-57.98859435744258,-24.00618690006173,108.15313430612822,-6.928234694459929,258.317923892235,111.02372499405641
62,25.037393643280637,-250.40839656956584,-58.02766975463367,-23.566162894328155,107.16293716605368,-7.247164196328324,258.2703399438143,109.99224611367876
63,24.9761150050293,-250.34900709254936,-58.06768514454417,-23.08572343792676,106.20866834641352,-7.55262426808055,258.21583639169893,108.98975539601028
64,24.906138146472934,-250.284819594128,-58.10843250182302,-22.56873230146028,105.29302661129164,-7.84261424308567,258.1560119918484,108.0194420360517
65,24.828180643190787,-250.2175511426817,-58.14974537538322,-22.01908067482897,104.41757025016231,-8.115343275051597,258.09256429795215,107.08336699394098
66,24.743145335355255,-250.14895262860134,-58.1914911783306,-21.44070825709807,103.58265643734215,-8.369214682829194,258.02724911349236,106.18240575084616
67,24.6520830724347,-250.08077334553317,-58.233561484112094,-20.83763859408532,102.78739711320449,-8.602809887605762,257.96184040891296,105.31621043561064
68,24.55615299156157,-250.01472731229623,-58.27586097431706,-20.21402207625087,102.02963373047498,-8.814873784203122,257.89809139541944,104.4831925594393
69,24.456581984017017,-249.9524614121657,-58.31829568143366,-19.574179260960165,101.30593302470969,-9.004302997090512,257.8376971272192,103.68052722826145
70,24.35462504739053,-249.89552527720807,-58.36076120503137,-18.922637198629054,100.61160563366039,-9.17013801934828,257.7822588694931,102.9041793280055
71,24.25152823908684,-249.84534297161483,-58.403131560926475,-18.264152141122448,99.94074893681695,-9.31155973411215,257.7332505880613,102.14895181791263
72,24.148495881433075,-249.80318680656734,-58.4452491629609,-17.603713275632416,99.28631498275912,-9.427890344336065,257.69198814515266,101.40855597344674
73,24.046663403298016,-249.77015380582603,-58.4869161684221,-16.94652384639628,98.64020384836843,-9.518598370102515,257.65960188377124,100.67570320743353
74,23.947076676954435,-249.74714532509108,-58.52788721158588,-16.297958058638038,97.99338218892159,-9.58330713673815,257.6370131753309,99.94221789635
75,23.85067802537124,-249.73485021124847,-58.5678635467242,-15.663494271057866,97.33602604345361,-9.621806030760917,257.62491533071443,99.19917034534339
76,23.758298418201072,-249.7337318008719,-58.606488773724294,-15.048626885752174,96.6576861732954,-9.634063677053433,257.6237591661043,98.4370285879306
77,23.670654882367906,-249.74401902687657,-58.64334647038186,-14.458760831743888,95.94747341152427,-9.620242035931055,257.63374347441703,97.64582716334661
78,23.58835190550464,-249.76570191106612,-58.6779601130122,-13.899093574672001,95.19426076873172,-9.580710230910626,257.65481065120946,96.81535042389964
79,23.511885622572336,-249.79853175422465,-58.709795615476104,-13.374490244795362,94.38689842142557,-9.516056748008275,257.686647745046,95.93532736901689
80,23.441649775688933,-249.8420263505197,-58.73826666687513,-12.889357828969553,93.5144372189736,-9.427098549273204,257.72869320023636,94.99563452422449
81,23.377942727090705,-249.89548051859276,-58.762742849294874,-12.447524441225491,92.56635597622589,-9.314885653242094,257.780149507006,93.986502989877
82,23.32097511850997,-249.9579821963067,-58.782560340582236,-12.052129470063917,91.53278752032561,-9.180699902421644,257.8400019177713,92.89872543645045
83,23.270878037210007,-250.02843431059682,-58.797034891095905,-11.705529897315682,90.40473814903044,-9.026047016311951,257.9070433507025,91.72385845077768
84,23.227711703870124,-250.10558251599218,-58.80547671189752,-11.409227274332254,89.17429480844184,-8.852641612223023,257.97990548883746,90.45441521867102
85,23.19147474539273,-250.18804855898665,-58.807206911750725,-11.163818700002846,87.83481401074832,-8.662385572326858,258.05709576028613,89.08404315410404
86,23.16211408638183,-250.2743684215805,-58.80157510856921,-10.968973716257006,86.38108647239176,-8.457340805035988,258.1370392936294,87.60768092644288
87,23.13953534421575,-250.36303362901546,-58.78797772688704,-10.823437478863097,84.80947182615688,-8.239697961183376,258.21812415817186,86.02168955980503
88,23.123613313751637,-250.45253342174072,-58.765876292032615,-10.725059073697658,83.11799863079669,-8.011742926034575,258.2987474624152,84.32395297363712
89,23.114201821880478,-250.54139517059383,-58.73481491428275,-10.670842575785937,81.30642625944957,-7.7758228863833825,258.3773595195145,82.51394450247412
90,23.111142162627992,-250.6282206013488,-58.69443627524592,-10.657017473152328,79.37626698413224,-7.534313526379052,258.45250349160074,80.5927574823881
91,23.114269578981368,-250.71171603629773,-58.64449574141972,-10.679124453747868,77.33076849483196,-7.2895885425775,258.5228486414044,78.5630997482581
92,23.123417691370374,-250.79071576177657,-58.58487354075925,-10.732112281649668,75.17485900276927,-7.043992265457307,258.5872163033358,76.42925366552298
93,23.13842118506289,-250.86419854446018,-58.51558508125095,-10.810441484296886,72.9150588535934,-6.799815772552978,258.6445986420389,74.19700499501324
94,23.15911737483339,-250.931298056687,-58.43678945760456,-10.90819075601508,70.55936412622617,-6.559276520751722,258.69417100150525,71.87354536766536
95,23.185347453966486,-250.9913084522885,-58.34879610014649,-11.019162410347016,68.1171088726901,-6.324501247251747,258.7352991101701,69.46735430371527
96,23.216958283091312,-251.043686525705,-58.25206945189786,-11.136984023432674,65.59881327493588,-6.0975116699310945,258.76754258113397,66.9880673891859
97,23.253805484714185,-251.08805178028823,-58.14723147214055,-11.255204600819098,63.01602492869341,-5.880212290212165,258.7906560141381,64.44633729444152
98,23.295758423637295,-251.1241854113882,-58.035061581556405,-11.367384911727148,60.381159701712555,-5.674379342985067,258.80458863598886,61.85369373193456
99,23.342707376991253,-251.15202883473415,-57.916493407813164,-11.467182680351783,57.70734722192952,-5.481649746728419,258.8094829683713,59.222407209342585
100,23.39457281067623,-251.17168206511442,-57.79260747930146,-11.548433809242031,55.0082841746364,-5.303508932825165,258.80567261285825,56.56535964226788
101,23.451316220833785,-251.18340195973752,-57.66461896787919,-11.605230661447909,52.29809650819756,-5.141276732957723,258.793678908836,53.8959228168074
102,23.51295156330006,-251.18760003497118,-57.533859750227656,-11.631997782115661,49.5912097290203,-4.99609099068795,258.774205922706,51.22784370966102
103,23.57955599373336,-251.1848392724881,-57.40175442940767,-11.62356456021019,46.90222498774895,-4.868889100533468,258.74813300068286,48.57513408791567
104,23.65127859214771,-251.17582913518456,-57.269790489746896,-11.575233512425681,44.245797742695615,-4.76038818012694,258.7165040445591,45.95196078712762
105,23.72834598580219,-251.16141794988863,-57.139483358067686,-11.482842352815506,41.6365154624502,-4.6710650130255305,258.68051276647464,43.37253267803301
106,23.811064192704205,-251.14258185617808,-57.012337669241525,-11.342817925088255,39.0887710975862,-4.6011372285828935,258.64148337529167,40.85098060994111
107,23.899816361701664,-251.12040963730254,-56.88980636981064,-11.152220452098998,36.61662987225125,-4.55054738223392,258.6008463671743,38.40122753975387
108,23.995056220400716,-251.09608291899647,-56.77324941633514,-10.90877733416476,34.23368819609724,-4.518951650257607,258.5601092961328,36.03684749211636
109,24.097296989289383,-251.0708514380422,-56.66389379346033,-10.61090671771238,31.952924982620125,-4.505714740143599,258.5208225966347,33.77091371557207
110,24.20709550398629,-251.04600338615523,-56.56279650703402,-10.257731992062991,29.786547212764702,-4.509912322112912,258.48454080735695,31.615838163493247
111,24.325031530365596,-251.02283128769304,-56.470812189488484,-9.849089017569048,27.745833109532366,-4.530341815200555,258.4527800034281,29.583206079450363
112,24.451682739305614,-251.0025944461228,-56.38856693000501,-9.385528085874142,25.84097771277626,-4.565541758536608,258.4269728444731,27.683610888826248
113,24.587596281983114,-250.98647955167908,-56.31643975350214,-8.868312296165756,24.080946810361567,-4.613819346566053,258.4084231910849,25.926495632053744
114,24.733258175843428,-250.97556142356234,-56.254552781869826,-8.299413277910759,22.473345867144918,-4.673285095132762,258.3982625526131,24.32000762940006
115,24.889061799047553,-250.97076597838338,-56.202770667838884,-7.681504242117321,21.024310618844467,-4.741893092362747,258.3974106558591,22.870872841547303
116,25.055276826528345,-250.9728373756869,-56.16070951501583,-7.017949505625134,19.738425345481907,-4.8174849069054675,258.4065422091926,21.584295564970255
117,25.23201998949054,-250.98231098545014,-56.12775510520133,-6.312789154380919,18.618673641548508,-4.897835024463286,258.42606155997805,20.463887908311822
118,25.419229089793966,-250.99949347612724,-56.103089736407036,-5.570717512878598,17.666424955128274,-4.980695719319698,258.45608650056676,19.511632199086172
119,25.616641712065668,-251.02445097995943,-56.08572641806063,-4.797054509602664,16.8814584743144,-5.063839546195471,258.49644202685585,18.72787824393364
120,25.82377999126917,-251.0570059200023,-56.07454875562246,-3.9977096303033686,16.262024273948477,-5.145098083017997,258.5466643927814,18.111376253079808
121,26.03994256817676,-251.09674266763037,-56.068354627501144,-3.1791386091520373,15.804940134230831,-5.222396043132473,258.6060153266573,17.65934519478704
122,26.2642045326715,-251.14302176825632,-56.06590160813083,-2.3482930577616936,15.505721157380432,-5.293780288882135,258.67350578963925,17.36757529649722
123,26.495425778991745,-251.19500203705766,-56.06595195489183,-1.5125627661723888,15.35873819152186,-5.357443561278837,258.74792816520727,17.230562296181947
124,26.732267786115727,-251.25166939022117,-56.067314931875764,-0.6797095524711538,15.357400026653616,-5.411742931619795,258.82789529400924,17.241669857288024
125,26.973218400397126,-251.31187090568116,-56.06888442975249,0.14220936124932676,15.494353318769724,-5.455213174556919,258.9118844048882,17.39331536557168
126,27.21662382017303,-251.3743524055965,-56.069670305351806,0.9449310207688136,15.761693327816136,-5.486575507566171,258.99828386035836,17.677173285575908
127,27.460726709397605,-251.43779784529306,-56.06882252805648,1.7200920453766115,16.151178023741547,-5.5047423932718305,259.0854407436955,18.08438954884692
128,27.70370911345659,-251.50086887535002,-56.065647943833184,2.4593516554349595,16.654438073918953,-5.50881927085959,259.17170752451335,18.6058001777566
129,27.943738534212695,-251.56224301354584,-56.05962009261991,3.1545336011752982,17.26317568900308,-5.498104124829855,259.25548620926804,19.232147510789062
130,28.17901521425511,-251.62064896335062,-56.05038289684151,3.7977869064366745,17.96934618705025,-5.472085737223638,259.33526852945425,19.95428791521927
131,28.40781852481061,-251.67489786295596,-56.03774913296868,4.381763736454791,18.76531730611735,-5.430441347838365,259.4096709624087,20.76338564241446
132,28.628550402705667,-251.72390966420747,-56.02169449781218,4.899810796634845,19.644002604704596,-5.373034272548665,259.47746376413824,21.651088359691716
133,28.839773999036577,-251.76673431890083,-56.00234793191129,5.3461686051975335,20.598966612106732,-5.299911786081087,259.5375936460295,22.609680751652057
134,29.04024603605369,-251.80256785638664,-55.979978744559844,5.716171004192521,21.624500641552903,-5.2113032784605196,259.5892001300046,23.63221333931262
135,29.228941765657954,-251.83076366686072,-55.95498100876577,6.006435651448238,22.715669282694687,-5.107618392351902,259.63162586485464,24.71260426593871
136,29.405071787208904,-251.85083932127307,-55.927855662463934,6.215035159927641,23.868328482755704,-4.989444568140254,259.6644212334214,25.84571222828515
137,29.568090241025867,-251.86247913881732,-55.89919076431409,6.341638132657677,25.079116800550885,-4.857543151543536,259.6873434930485,27.02737905015779
138,29.71769411576093,-251.86553260769534,-55.869640384485095,6.38760969308288,26.345421937525906,-4.71284296060375,259.7003506201164,28.254440753232334
139,29.853813753103218,-251.86000877719817,-55.839902655073324,6.356062363421988,27.665325091491354,-4.556430041316359,259.7035900900862,29.524706564496253
140,29.976595130233072,-251.84606684854697,-55.810697579658004,6.251850362881894,29.03752605516804,-4.389532365003259,259.69738300421864,30.836906213010888
141,30.086374975834683,-251.82400329701386,-55.78274527219051,6.081503475312711,30.461252248758747,-4.213498479189099,259.6822041468094,32.19060706097588
142,30.183650069412987,-251.79423591171923,-55.75674527247948,5.853100261798012,31.93615502853096,-4.029769596946834,259.65865863890656,33.5861039432767
143,30.269042210280986,-251.75728520570834,-55.73335745872884,5.5760841326837465,33.462196709418,-3.8398452546964648,259.6274559078136,35.024285892058295
144,30.343260437232722,-251.7137537879649,-55.71318494974203,5.261029208772134,35.03953178992904,-3.6452434185267473,259.5893818099101,36.50648499824253
145,30.40706218747817,-251.66430448038926,-55.69675932334929,4.919365641857185,36.66838578933703,-3.4474566702243985,259.5452699274365,38.034313295359546
146,30.46121518058908,-251.6096381548602,-55.684528400502764,4.56307588541402,38.34893483221669,-3.247906745882151,259.4959732401312,39.60949363436637
147,30.506461849973867,-251.55047239033448,-55.6768466655686,4.20437417336807,40.08118868935298,-3.0479001447593026,259.4423374593423,41.23369012810718
148,30.54348807932914,-251.48752201724986,-55.673968171787294,3.8553812160272383,41.86487952878084,-2.848587712467308,259.38517722588006,42.908343081431305
149,30.57289781497563,-251.4214824108314,-55.67604169486403,3.5278051145569775,43.699358237246265,-2.6509310067532432,259.3252561342022,44.63451257899144
150,30.595194797071866,-251.3530161256741,-55.68310802218024,3.232638106625829,45.58349984482995,-2.45567789305346,259.26327127436616,46.412734171593975
151,30.61077214704532,-251.2827432226567,-55.69509946162552,2.9798773005016006,47.51561928386303,-2.2633492305591174,259.199842734293,48.24288939994823
152,30.61990988303414,-251.21123539930988,-55.711841736778474,2.7782762016411677,49.493398424237505,-2.0742377667614575,259.13550821432887,50.12409323146928
153,30.62277974654105,-251.13901377530388,-55.733058368438336,2.6351326239867197,51.51382508185739,-1.8884195647583402,259.0707225610992,52.05459989892309
154,30.619456175020236,-251.0665499699689,-55.75837751868515,2.5561174340978003,53.57314454449289,-1.7057775437427154,259.00586172889774,54.03172817111345
155,30.6099319037813,-250.9942699644247,-55.787341182165925,2.545147371061523,55.666824127476325,-1.5260360680846894,258.9412304753611,56.0518067856569
156,30.594136497958583,-250.92256010564665,-55.81941658521247,2.6043038574139605,57.78953134504207,-1.3488049657698842,258.87707293924115,58.11014061712032
157,30.571956080207084,-250.85177445153735,-55.8540096744377,2.7337983300230357,59.935126439984145,-1.1736308561730666,258.8135850937457,60.20099811560368
158,30.543252634611594,-250.7822425131812,-55.89048056016245,2.9319832839874977,62.096670259454896,-1.0000532146735115,258.75092793917554,62.317620630888925
159,30.50788152850635,-250.71427638470385,-55.92816064998382,3.1954069930968196,64.26644876195915,-0.8276622582255306,258.6892402366209,64.4522543958675
160,30.465706274439945,-250.64817633003568,-55.96637098199348,3.518908762760123,66.43601565269243,-0.6561555758273077,258.6286496563802,66.59620604187661
161,30.41660999939674,-250.58423414849176,-56.00444102414005,3.895750625974095,68.59625462611851,-0.48539046630171817,258.56928145896745,68.73992241191627
162,30.360503539714397,-250.522734008091,-56.041726993878534,4.317780680324115,70.7374624138678,-0.3154291499122401,258.51126418907995,70.87309509267754
163,30.297330503630832,-250.46395080743363,-56.07762860102045,4.7756228485690935,72.84945334282041,-0.14657435280132555,258.45473224045,72.9847895547197
164,30.22706999892476,-250.4081464132621,-56.111603088206145,5.258887763876514,74.92168543680057,0.020606816075511968,258.39982546317435,75.06359810991309
165,30.14973793232638,-250.35556428687315,-56.14317558333742,5.75639971515216,76.94340724938372,0.18527231145090933,258.346686201745,77.09781507153494
166,30.065387783719704,-250.30642307655722,-56.171945076610285,6.256435030323471,78.90382360372611,0.3463090490339222,258.29545427934914,79.07563153803378
167,29.974111569307063,-250.26090973921086,-56.197585777256485,6.746967746449181,80.79227725362598,0.5023518480826589,258.24626050622504,80.98534611885216
168,29.876041451323008,-250.21917267580326,-56.21984416300094,7.215918742477177,82.59844218915973,0.651817397620305,258.1992193078512,82.81558668648367
169,29.771352224420067,-250.1813152610199,-56.238532584339175,7.651404588106439,84.312522975486,0.7929524983136029,258.15442106306756,84.55553694869862
170,29.660264713132424,-250.14739006590779,-56.253520662211365,8.04198215730878,85.92545334622567,0.9238950057827167,258.11192472363496,86.1951604954762
171,29.543049937259564,-250.11739402707946,-56.26472585199938,8.376884603613798,87.42908654599766,1.042745029900801,258.0717512515964,87.72541425935925
172,29.420033793715692,-250.09126480558675,-56.27210446380088,8.64624371765005,88.8163698141046,1.1476431134365004,258.0338783699455,89.13844322601122
173,29.29160200658045,-250.06887862211758,-56.27564418883867,8.84129319387233,90.08149596332734,1.2368514181001964,257.99823711242476,90.42774879930312
174,29.1582051582217,-250.05004996153846,-56.27535886844546,8.954547173587036,91.22002618081842,1.3088334847294152,257.9647107000567,91.58832443183537
175,29.020363625339584,-250.03453365602937,-56.27128591561081,8.97994880699925,92.2289798439915,1.362327999844224,257.9331363144066,92.61675388318865
176,28.878672130227347,-250.02202987767134,-56.26348645071378,8.912984543240837,93.10688912126365,1.3964122527908092,257.903310269099,93.51126959576638
177,28.733803391778704,-250.01219241453506,-56.25204783098188,8.750761287172796,93.85381819315725,1.4105515899294165,257.8749968194972,94.27177095136545
178,28.586510123254023,-250.0046402545186,-56.2370879036085,8.492045201400868,94.47134885404913,1.4046320681682953,257.84794040734795,94.89980433196061
179,28.437624510136892,-249.9989720116219,-56.21876010124909,8.137262515135582,94.96253583533584,1.3789745569130758,257.82188060263513,95.39850871603967
180,28.28805440571858,-249.99478223874084,-56.19725847135165,7.6884640460980185,95.33183628589771,1.3343296466886672,257.7965685341159,95.77253182904448
181,28.138775784901526,-249.99167838595193,-56.17282184024645,7.149256169559646,95.58501838063688,1.2718538575012068,257.771783380885,96.02792254592048
182,27.9908213591699,-249.98929719907153,-56.14573647212412,6.52470167874984,95.7290539594881,1.1930687739845456,257.7473476070189,96.1720052708235
183,27.845265545837616,-249.98731960626415,-56.116336729933884,5.821194423577541,95.77199942321755,1.0998057850124034,257.7231399307478,96.21324139210364
184,27.703206198369283,-249.98548340549567,-56.08500337070939,5.046311846815695,95.72286793873619,0.9941399414006105,257.6991053271274,96.16108174275676
185,27.565743696106225,-249.98359324510952,-56.05215923210233,4.20864956414418,95.59149460405622,0.8783169701251432,257.67526158469366,96.0258125572825
186,27.433958153244717,-249.9815275320336,-56.01826219389775,3.3176419265802557,95.38839494858968,0.7546776693178336,257.6517021189149,95.81839606464992
187,27.308885602168843,-249.9792420731644,-55.98379542296568,2.3833720901511044,95.12461630089426,0.6255837634808911,257.62859494741224,95.55030590372185
188,27.1914940442214,-249.97677043169182,-55.949255053793514,1.4163746291972947,94.8115812806333,0.49334885840274756,257.6061779366984,95.23335714154739
189,27.082660269416344,-249.97422110411782,-55.9151356361866,0.4274333266650323,94.46092293776316,0.36017746871527306,257.5847505888313,94.87953080162904
190,26.98314833363588,-249.97177173525668,-55.88191386051368,-0.5726234258497163,94.08431176562263,0.22811428326814817,257.5646627806069,94.50079337174385
191,26.893590533235546,-249.96966079361917,-55.85003119181466,-1.5731270983902945,93.69327585181688,0.0990049763673009,257.54630108674576,94.1089126581
192,26.81447159451637,-249.96817742831578,-55.81987609837789,-2.5637704120534965,93.2990167022936,-0.02553094992055278,257.53007360631403,93.71527248551197
193,26.746116588672425,-249.96765048114216,-55.79176660381314,-3.5348019656222593,92.91222462028347,-0.14411555707563986,257.5163944439495,93.3306899509556
194,26.688682876434473,-249.96843770277488,-55.7659339871603,-4.477209571559652,92.54289869654589,-0.25561704139938746,257.5056690696506,92.96523997274504
195,26.642156285929772,-249.97091608895073,-55.74250859386693,-5.382887069579777,92.20017724509735,-0.35914503286331423,257.49828167130124,92.62809251730573
196,26.60635170631212,-249.97547393589906,-55.72150882584887,-6.244779067532112,91.89218481681252,-0.4540386268434006,257.4945853272103,92.32736805950212
197,26.580918199078788,-249.98250476087324,-55.70283439612024,-7.0569982982692,91.62590176297276,-0.5398493923436439,257.4948953805984,92.07001658167464
198,26.56534850662071,-249.99240272972258,-55.68626484121465,-7.814911123285883,91.40706170015014,-0.6163215805617563,257.49948586518474,91.86172475938696
199,26.558992525335242,-250.0055587917521,-55.67146403926843,-8.515188057862568,91.2400811062009,-0.6833714945493431,257.508588316653,91.706854888279
200,26.561074017923126,-250.0223564419381,-55.65799105289186,-9.155817848214443,91.1280236699092,-0.741067536317516,257.5223919102458,91.6084175884445
201,26.570709661060064,-250.04316597278967,-55.64531706185923,-9.736085403569557,91.07260005737677,-0.789611909284019,257.5410436714628,91.5680784999964
202,26.586929521578,-250.06833624610422,-55.632847579371386,-10.256515608218443,91.07420168532212,-0.8293244088007654,257.56464754756104,91.5861972740866
203,26.608698199636713,-250.09818336318025,-55.61994865075876,-10.718786572659008,91.13196520245029,-0.8606282646156804,257.5932613754467,91.66189544203633
204,26.634936025201764,-250.1329760848964,-55.605975411674756,-11.12561712294037,91.24386295505695,-0.8840376821060186,257.6268911878338,91.79314847160957
205,26.664539707714003,-250.1729183856455,-55.59030131622667,-11.480634182134985,91.40681392695069,-0.9001465997570682,257.665482804405,91.9768966531582
206,26.696401748064613,-250.21813002307061,-55.57234651196438,-11.78822606896114,91.61680952711343,-0.9096182007263232,257.7089111645064,92.20916941632765
207,26.72942788818259,-250.26862636705226,-55.55160411619451,-12.053387554734595,91.86904905695128,-0.9131747983059924,257.7569682643772,92.48521815739986
208,26.762552018662205,-250.32429888100845,-55.52766341347049,-12.281561826620306,92.15808053177325,-0.9115877894983658,257.80935077859755,92.79965347239191
209,26.79474826556124,-250.38489757114095,-55.50022916405179,-12.47848351316565,92.47794349652611,-0.9056674213392933,257.8656484379698,93.14658360205236
210,26.825040316652757,-250.45001651734412,-55.46913626785586,-12.650025940512114,92.82231130646298,-0.8962521552985777,257.92533408770186,93.51975167568723
211,26.8525083494988,-250.51908345365806,-55.43435906610223,-12.802055045520165,93.184630898549,-0.8841974732847518,257.98775624881677,93.9126698754013
212,26.87629417690696,-250.5913543451503,-55.39601473182063,-12.940291948003422,93.55825835711303,-0.8703640876217674,258.05213504933675,94.31874893701522
213,26.895605378445456,-250.66591388209318,-55.35436052400957,-13.070186001763583,93.93658862640778,-0.8556057293783598,258.11756245329894,94.73142149920444
214,26.90971916388838,-250.74168262802732,-55.30978503176325,-13.196800062578792,94.31317759012637,-0.8407569650182984,258.18300761052103,95.14425773704151
215,26.917986553577155,-250.8174312305294,-55.262793796243365,-13.324709598302697,94.6818544918776,-0.8266217387653659,258.24732787068103,95.55107151847645
216,26.91983730290958,-250.89180176797538,-55.21398986389341,-13.45791705201054,95.03682240401534,-0.8139634667568703,258.30928569706646,95.94601508276592
217,26.91478591287,-250.9633360306899,-55.16404993765772,-13.599782574632231,95.37274425447407,-0.8034974810804657,258.36757146194515,96.32366004868304
218,26.902438972254448,-251.03051024365303,-55.11369687584113,-13.75297194375211,95.68481187683638,-0.7958864519152482,258.4208318287859,96.67906251098081
219,26.88250384855813,-251.0917753244861,-55.063669390072114,-13.91942223883178,95.96879575184627,-0.7917391393007793,258.46770302213207,97.00781017712481
220,26.85479837398979,-251.1456012529681,-55.01469001977415,-14.100325665931665,96.22107364346289,-0.791612472907587,258.5068477935128,97.30605001855866
221,26.819260776659586,-251.19052364482837,-54.96743282279095,-14.29613180670652,96.43863721071703,-0.7960165734014866,258.53699446002105,97.57049577161716
222,26.775958816890142,-251.22519031744017,-54.92249254093315,-14.506568472125425,96.61907680677348,-0.8054219880637657,258.5569761359778,97.79841572761124
223,26.725096960629926,-251.24840560030816,-54.88035708964192,-14.730681203008114,96.76054594837673,-0.8202681679516342,258.5657682520397,97.98760248155354
224,26.667020451627675,-251.25917039198433,-54.84138507790655,-14.966891192426713,96.86170830805483,-0.8409720507856495,258.5625226714734,98.13632761021948
225,26.602215346033404,-251.2567164166726,-54.80578976247593,-15.213070943601354,96.92167148292194,-0.8679355076905019,258.54659711056735,98.24328555039328
226,26.531303978266077,-251.24053368760013,-54.773630401982736,-15.466636318805708,96.93991300151744,-0.9015503669072998,258.5175790606634,98.30753202325741
227,26.455035874835527,-251.21039076205506,-54.74481143617193,-15.724652873689555,96.91620472716863,-0.9421997430697883,258.47530391722887,98.32842289993309
228,26.374274646423178,-251.16634784106586,-54.719089364581635,-15.983953666345368,96.85054181770906,-0.990254459673745,258.4198674155647,98.30555926560487
229,26.28998170260215,-251.10876296064632,-54.69608672191749,-16.241265213221276,96.74308174154642,-1.046063467332655,258.35163259292864,98.23874367095853
230,26.20319770179406,-251.03829143464313,-54.67531219132771,-16.493337968758127,96.5940976741868,-1.1099373994517339,258.27123134257573,98.12795131298725
231,26.115022538156037,-250.9558785512452,-54.65618567828226,-16.737077580768894,96.40394903349772,-1.182124854262403,258.17956041213284,97.973318285146
232,26.026594489114682,-250.86274552352737,-54.638067070950555,-16.969673128855266,96.17307004851543,-1.2627816670375,258.07777165670353,97.77514716042955
233,25.93906896974981,-250.760368870184,-54.620287405965875,-17.188718481861752,95.90197523039737,-1.351934246062606,257.9672565066332,97.53392813574784
234,25.853597164096247,-250.65045358693,-54.60218119335384,-17.392322734936304,95.59127865716698,-1.4494388418399824,257.84962477585333,97.25037198439757
235,25.771304643905403,-250.53490053235834,-54.58311866877004,-17.579205458804847,95.24172239133235,-1.5549393037514292,257.7266779809483,96.92544943302912
236,25.693270004397608,-250.41576845864034,-54.56253671111751,-17.748772430845854,94.85420838976299,-1.6678264194253414,257.6003773273216,96.56043060396146
237,25.62050358197191,-250.295231225281,-54.53996713018361,-17.901167877548172,94.42982809626653,-1.7872022761604003,257.47280661370377,96.15691804718531
238,25.55392644935136,-250.17553098717468,-54.51506104524432,-18.037300145157698,93.96988453368903,-1.9118531395735023,257.3461305620655,95.71686765389398
239,25.49435005653307,-250.0589284234074,-54.4876081493276,-18.158839003341992,93.47590298233021,-2.040234068031739,257.22254937369183,95.24259322243006
240,25.44245702748192,-249.9476512262023,-54.45754976052141,-18.26818421831012,92.94962797076005,-2.170467906518884,257.104250490662,94.7367523203565
241,25.39878366309726,-249.84384207412455,-54.42498471972359,-18.36840637034284,92.39300601404783,-2.3003604795641572,256.99335857676033,94.20231301405923
242,25.363704653020413,-249.74950724488525,-54.39016749564543,-18.463161997716977,91.80815511580985,-2.427432774960441,256.89188471656394,93.64250279975923
243,25.337420483386712,-249.66646696356008,-54.353498386028576,-18.55658598414653,91.19732343466467,-2.5489697696666767,256.8016758769362,93.0607425896568
244,25.319948166927677,-249.59630860780086,-54.315506427456235,-18.65316469506322,90.56284064557238,-2.662084425469394,256.7243658612415,92.46056983133064
245,25.311116190783306,-249.54034412648429,-54.276826367625404,-18.75759377288863,89.90706626778167,-2.7637943661615982,256.66132939404895,91.84555564787846
246,25.310564793247178,-249.49957355555406,-54.238171555238665,-18.874624816047078,89.2323394191494,-2.851107881073838,256.61364161304004,91.2192211395127
247,25.317752656208125,-249.4746570949016,-54.20030470546034,-19.008905494236874,88.54093399963246,-2.9211152295393816,256.58204583414664,90.58495761816124
248,25.331970739292824,-249.46589828775882,-54.16400830959599,-19.164818062801423,87.83502226225266,-2.971080821151523,256.5669324722457,89.94595462839494
249,25.35236325938974,-249.47324009903107,-54.13005621497242,-19.346321727471132,87.1166483266145,-2.9985317732921666,256.56833117863215,89.30513836516575
250,25.377954888313365,-249.49627436148467,-54.099187668179084,-19.556804790147414,86.38771174731659,-3.0013385954673684,256.58591685311,88.66512182370091
251,25.407682527312677,-249.534263606523,-54.072084778242974,-19.798952826126683,85.64996002829825,-2.977784264114308,256.61902865735453,88.02816692916561
252,25.44042987795568,-249.5861731123647,-54.04935389475156,-20.074639118596302,84.90498810639706,-2.9266186773799796,256.6666999058661,87.39615808223223
253,25.475063331353116,-249.650710426731,-54.03151094837078,-20.38484301837611,84.15424237089823,-2.8470963811140733,256.727696089191,86.77058604141352
254,25.51046799234039,-249.72636974795958,-54.01897049748371,-20.729600665545195,83.3990267888259,-2.7389964749211573,256.800558368683,86.15254086548487
255,25.545582699190046,-249.81147906316178,-54.01203808548802,-21.10799061376093,82.64050918919936,-2.602624635532833,256.88365034986606,85.54271277880761
256,25.579432821071805,-249.90424841558647,-54.01090549139419,-21.51815457271722,81.87972665116607,-2.4387981397016962,256.9752063802343,84.94140026316651
257,25.61115966578803,-250.0028179244379,-54.0156485013856,-21.95735112877307,81.11759004876689,-2.2488156098658405,257.07337986671155,84.34852529870452
258,25.640045612010418,-250.1053042652354,-54.0262269154292,-22.422038314829933,80.35488887030118,-2.0344139682762137,257.1762902281905,83.76365629277232
259,25.665534480071173,-250.20984432367126,-54.04248663320506,-22.90797955126818,79.59229821127188,-1.7977157413126899,257.2820671628423,83.18603967485217
260,25.68724696327281,-250.31463470947327,-54.06416384866128,-23.410366895410583,78.8303901668669,-1.54117029039363,257.38889094710873,82.6146412764308
261,25.704991027425173,-250.4179658628093,-54.09089158784453,-23.92395570103506,78.06965166749687,-1.2674926437897636,257.4950275745112,82.04819842168895
262,25.71876709211944,-250.51824977501275,-54.12220893187132,-24.443205558623465,77.31051020645981,-0.9796033385180195,257.5988578332604,81.48528320936677
263,25.728767690340156,-250.6140409241614,-54.15757314730963,-24.962423535674027,76.5533680966258,-0.6805721042775933,257.69889994568666,80.92437691314724
264,25.735371289861227,-250.70405066898434,-54.196374606662054,-25.475907012684633,75.79864500125967,-0.3735674174871483,257.79382594411845,80.36395483843091
265,25.73913006072458,-250.78715573574942,-54.237953998311916,-25.9780845717779,75.04682753144215,-0.061813049960427836,257.882472267213,79.80258029413044
266,25.74075152903829,-250.86240148350907,-54.28162109374382,-26.463654233247496,74.29852370019157,0.2514481138960325,257.96384507637515,79.23900551132216
267,25.74107423438122,-250.92900052308897,-54.32667429537937,-26.927718715161514,73.55451908095942,0.562983416904356,258.03712069225634,78.67227642433011
268,25.741037728086717,-250.98632721150074,-54.37242020606,-27.365917283764492,72.81583079958713,0.8695938893515367,258.1016415232383,78.1018373704373
269,25.74164755924025,-251.03390862659927,-54.41819244141334,-27.77455324405695,72.08375512245347,1.1681331940320772,258.15690796373985,77.52763110971442
270,25.743936320144503,-251.07141281288432,-54.463368892428846,-28.1507153380057,71.35990446750286,1.4555236914151448,258.2025669595982,76.95018923870583
271,25.748922304856634,-251.09863531827554,-54.507386716500825,-28.492390445103254,70.64623018980004,1.7287713855586464,258.23839822330194,76.37070815549261
272,25.757567696671522,-251.11548524183914,-54.549754478925585,-28.79856417166301,69.94502841527971,1.9849814811360236,258.2642993434825,75.79110621895593
273,25.770738258872978,-251.12197207556937,-54.59006103918156,-29.0693052851851,69.25892732885708,2.22137611827404,258.2802711377856,75.2140584953342
274,25.789166260018714,-251.118194464863,-54.62798098483896,-29.30582957354666,68.59085542878225,2.4353155913720705,258.2864044657691,74.6430063072643
275,25.813418028476384,-251.10433166848745,-54.66327665663329,-29.510538632133237,67.94399118102157,2.624324007448668,258.2828694035239,74.0821395699265
276,25.84386729088891,-251.0806380897771,-54.695797021339985,-29.687029328610567,67.3216952407092,2.7861198816646033,258.26990730664653,73.53635062712846
277,25.880675301118476,-251.04744086279624,-54.725473811799226,-29.840070277760166,66.72742705397918,2.918651609916959,258.24782593131255,73.01115909486305
278,25.923778594745485,-251.00514015680378,-54.752315513728846,-29.975542590118543,66.16464831332631,3.0201371356788664,258.2169974886921,72.51260818722393
279,25.972884941024255,-250.95421167366058,-54.77639994661608,-30.100343436363556,65.6367164255987,3.0891064705005933,258.17785933380765,72.0471341584315
280,26.027477699705553,-250.89521078011794,-54.797866275170165,-30.222252550218972,65.14677176766551,3.1244450802816393,258.1309169409039,71.6214117467299
281,26.08682833673337,-250.82877772749208,-54.8169072024451,-30.349763560883915,64.69762291800097,3.1254356088643367,258.07674876505786,71.24217968652931
282,26.150016380345008,-250.75564329625345,-54.83376183096096,-30.491883810647014,64.29163420837216,3.091795073636921,258.01601237599385,70.91605133165751
283,26.21595572606538,-250.67663393632583,-54.8487093321225,-30.65790785291134,63.930619891698456,3.023704564449213,257.9494508816684,70.64931615121499
284,26.283425992678524,-250.59267521442547,-54.862063268918924,-30.857170958647117,63.61574905292155,2.921828599153707,257.8778983248516,70.44773831167353
285,26.351107580928833,-250.50479231433076,-54.87416624677962,-31.098789602050616,63.34746514158327,2.7873216522125186,257.80228263155686,70.31635874649565
286,26.41761915279837,-250.41410651855944,-54.88538450717555,-31.39139610071257,63.12542366758507,2.6218200105383667,257.7236248612375,70.25930705376243
287,26.481556348312775,-250.3218269311615,-54.896102093473964,-31.742874516549726,62.948451129155465,2.4274180270346615,257.6430338436275,70.27962928376276
288,26.541530591262564,-250.22923705940178,-54.90671432987239,-32.16010476444781,62.814527598128194,2.2066289687601808,257.5616956628458,70.37913722325146
289,26.596206838786088,-250.13767624373094,-54.91762058744031,-32.64872173975175,62.72079459471602,1.9623318346454004,257.48085786172413,70.5582842063777
290,26.644339255969744,-250.0485163425594,-54.929216599003894,-33.21289618717208,62.663589008835054,1.697706548259445,257.4018087197936,70.81607183606329
291,26.684804087658087,-249.96313447971184,-54.941886793064086,-33.855143942582885,62.63850292314683,1.4161606719269084,257.3258524226725,71.1499912977
292,26.716629312759267,-249.88288293775344,-54.955997151977705,-34.576169983247105,62.64046828964561,1.1212511904536286,257.25428124682054,71.55600216136642
293,26.739020865086363,-249.8090574042227,-54.97188895820373,-35.37475331097121,62.66386453466562,0.8166049816418212,257.18834599273055,72.02855067551002
294,26.75138528278134,-249.74286480667735,-54.989873552275235,-36.247678007802094,62.702646373781675,0.5058413710294715,257.12922588277087,72.56062858079234
295,26.753348659973888,-249.68539195351585,-55.01022799287974,-37.189714850246474,62.75048846407618,0.19249975009345086,257.07799907123433,73.1438724709475
296,26.74477175951855,-249.63757613622673,-55.0331913516618,-38.19365667552723,62.80094302609587,-0.12002528028021728,257.03561481781503,73.76870272841072
297,26.725761124099943,-249.60017874265102,-55.0589613189356,-39.25040929543269,62.84760624862693,-0.42853933485778534,257.0028682568674,74.42450009381004
298,26.696676008697544,-249.5737628066308,-55.08769083622042,-40.349138196196314,62.884289183169145,-0.7300929111090618,256.9803785794003,75.09981704117
299,26.658130974795462,-249.55867532386745,-55.119484550577916,-41.47746960368745,62.90518892212785,-1.022014599420433,256.96857136866197,75.78262033274164
300,26.610994036744923,-249.55503510513245,-55.15439493546372,-42.62174278149805,62.90505600621164,-1.301932846024836,256.96766578709264,76.46056032791722
301,26.556380244446206,-249.56272684901919,-55.192417956883546,-43.76730869018079,62.87935407059588,-1.5677870569024146,256.977667231503,77.12126169696677
302,26.495640417321304,-249.58140190482342,-55.23348827664366,-44.89886837576563,62.82440765494026,-1.8178296044290738,256.9983658746927,77.75262909072609
303,26.430344476216305,-249.61048583268953,-55.27747423414521,-46.00084270529054,62.73753391186877,-2.0506209408907083,257.02934118627593,78.34316009453393
304,26.36225868516132,-249.6491924325307,-55.324173145027096,-47.05776341057382,62.617153750948056,-2.2650203795822335,257.06997215534915,78.88225657957416
305,26.29331627699065,-249.69654355725794,-55.373307597686605,-48.05467397252361,62.46287786435088,-2.4601750551450223,257.11945264317984,79.3605245306696
306,26.225581350813155,-249.7513938558757,-55.424523304314256,-48.977527858932056,62.27556321436199,-2.635509134737674,257.17681114843515,79.77005178460776
307,26.161206446733612,-249.81245958209615,-55.477388788248376,-49.813571206667014,62.05733607164706,-2.790714680046934,257.24093425418044,80.104653096781
308,26.102384708771645,-249.8783506403479,-55.53139699427651,-50.55169728716875,61.81157875085158,-2.925744837531858,257.31059307172256,80.3600727586153
309,26.051297977587943,-249.94760501570568,-55.585968914262956,-51.18276091670364,61.54287888252652,-3.0408093487553707,257.3844720167233,80.53413663573188
310,26.01006246429283,-250.01872461366509,-55.64045947636376,-51.69984221482929,61.256942267096434,-3.1363717359760446,257.4611991998249,80.62684780728401
311,25.98067381456097,-250.09021139700795,-55.6941661337601,-52.09845068149938,60.96047276201691,-3.2131469599132396,257.53937763388456,80.64042266350802
312,25.964953388195298,-250.16060266768338,-55.74634071369253,-52.37666243246978,60.661024861095946,-3.272097955219483,257.61761644778124,80.57926705072914
313,25.964497507687078,-250.22850441365617,-55.7962050714143,-52.53518560540298,60.366836282794054,-3.314429305716639,257.6945613535099,80.44989458591792
314,25.98063133719073,-250.29262172914744,-55.84297085412963,-52.57735138492183,60.08664877751267,-3.3415764198839755,257.7689236365181,80.26079142088962
315,26.01436895835142,-250.3517853905517,-55.88586318644337,-52.50903066383894,59.82952543425981,-3.3551888334591147,257.8395068945793,80.0222334003416
316,26.066381053536528,-250.40497384180898,-55.92414744347071,-52.33847888495768,59.60467205672604,-3.3571066377743484,257.9052307629498,79.74606265022362
317,26.1369713463096,-250.45133021460182,-55.957157686005104,-52.07611396953163,59.42126879151722,-3.349329495170719,257.96515107160684,79.44543114901695
318,26.226062650906524,-250.4901744964439,-55.98432496003151,-51.73423437454595,59.28831629094225,-3.3339782695117446,258.01847624444065,79.13451884802713
319,26.333193127364495,-250.5210113416181,-56.005203548642285,-51.326686154438946,59.21449847960544,-3.313249971071197,258.0645800714901,78.82823349848383
320,26.45752304794386,-250.5435341392305,-56.01949336267498,-50.868489297746805,59.20806171206051,-3.2893674437264657,258.1030110943347,78.54189858150463
321,26.597851908355523,-250.5576258266018,-56.02705691169148,-50.37543444771931,59.276708117723146,-3.264525898724143,258.1334987317795,78.29093479045947
322,26.75264511611044,-250.5633567015219,-56.027929667256835,-49.863661415828545,59.42749966503071,-3.240838874519576,258.15595606608355,78.09053971108408
323,26.92006899130284,-250.56097928779428,-56.02232307842739,-49.34923082093823,59.666769213210074,-3.220286354705907,258.17047906363223,77.95537000195574
324,27.098032564639585,-250.55092021281712,-56.01061998318811,-48.8476999021758,60.00003548173809,-3.204667576130016,258.1773419891758,77.89923057040104
325,27.28423462849614,-250.53376904324747,-55.993362640545364,-48.37371306736935,60.431920121922786,-3.1955605676818144,258.1769888597676,77.93477574592501
326,27.476214635304462,-250.51026404222137,-55.9712340561584,-47.94061689497962,60.96606657780763,-3.1942897692828187,258.1700209111026,78.07322793672532
327,27.67140627864929,-250.4812748253507,-55.945033653889666,-47.56010797302146,61.60506195631712,-3.2019022730731947,258.1571801676511,78.3241194781168
328,27.867192804120663,-250.4477819115064,-55.91564861602365,-47.24192020996352,62.35036454521896,-3.2191523956553367,258.13932930404616,78.69506328288271
329,28.06096317905287,-250.41085324530727,-55.884022364940556,-46.99355640393818,63.202240757231664,-3.246493564550451,258.11742810094023,79.1915575392506
330,28.25016822271403,-250.3716179518729,-55.85112171849238,-46.82006734927925,64.15971595707637,-3.2840760354608878,258.0925069823845,79.81682918941479
331,28.432375689542916,-250.33123781392274,-55.81790426587304,-46.72388097175845,65.22054371806193,-3.3317488478270247,258.0656383316734,80.57172038842407
332,28.60532307505249,-250.29087714417173,-55.78528751984888,-46.7046840492849,66.38119753395597,-3.3890646798357618,258.0379064339828,81.4546216610549
333,28.76696662339778,-250.25167185021402,-55.75412140565736,-46.759359839817144,67.63688795407401,-3.455286806139107,258.01037698079296,82.46145501535366
334,28.91552483269781,-250.2146985849909,-55.725165561803415,-46.88198605029668,68.981606624061,-3.5293980676355807,257.9840671232065,83.58570970595748
335,29.049514786084572,-250.18094493363927,-55.699072623993665,-47.063898581653724,70.40819692224237,-3.6101124921784984,257.9599170531362,84.81853247759946
336,29.16777980705212,-250.15128160848323,-55.67637812268454,-47.293826879338106,71.90844898004494,-3.6958908278969664,257.93876401234184,86.14887282045738
337,29.269507142237853,-250.12643765338453,-55.65749701004612,-47.558106048342424,73.47321518125591,-3.784961645946294,257.92131954680724,87.56368204619255
338,29.354234632824465,-250.10697969579178,-55.64272632233608,-47.840968825578095,75.09254107776827,-3.875349728097111,257.9081507779415,89.04816298455005
339,29.421845730682147,-250.09329627253214,-55.63225308800515,-48.12491693400104,76.75580621897629,-3.9649131330205925,257.89966640919073,90.58606497026102
340,29.472552751501656,-250.08558817009882,-55.62616623254249,-48.391166484473985,78.45186964220296,-4.051389703731431,257.8961080884177,92.16001668492093
341,29.506868841984943,-250.08386555720512,-55.62447095235254,-48.62015651811625,80.16921553832407,-4.132452977546316,257.89754759697746,93.75188748658711
342,29.52556970875951,-250.0879524079435,-55.62710397456943,-48.792104341160574,81.89609564900931,-4.205776606419436,257.90389012101673,95.34316626546004
343,29.529646751773843,-250.09749830706787,-55.633948316989354,-48.887586877834735,83.62066603406069,-4.269105559161097,257.9148835790935,96.91534577615629
344,29.52025388254739,-250.11199724698406,-55.644846470783754,-48.888124509096535,85.33111679653896,-4.320331632611328,257.93013365488827,98.45029996439598
345,29.49865085845396,-250.13081251243557,-55.659611199530836,-48.7767430567049,87.01579405140808,-4.3575702499259075,257.94912380901127,99.93064208947446
346,29.466146245615707,-250.1532062456366,-55.67803336503946,-48.53849061082638,88.66331375782134,-4.3792352280861655,257.97123913541014,101.34005233799853
347,29.42404307418956,-250.17837193692432,-55.69988643576461,-48.16088840001681,90.26266694643215,-4.384108099873255,257.9957926376115,102.66356490673407
348,29.37358994063864,-250.20546808634506,-55.72492767498982,-47.634298386508895,91.8033154930813,-4.371398595487656,258.02205253811303,103.88780606495234
349,29.315939827532926,-250.2336516195374,-55.75289642868368,-46.95219436656995,93.27527724495799,-4.340793045623182,258.0492695978112,105.00117655573551
350,29.25211829342227,-250.2621100314309,-55.78351033556659,-46.11132787812551,94.66919927659683,-4.292487868412452,258.0767038175719,105.99397398717458
351,29.183001959085747,-250.29009140767448,-55.81646052627801,-45.11178507455174,95.97641835735854,-4.2272060093468475,258.1036500360807,106.85845355458288
352,29.109307448455386,-250.31693145180512,-55.851406876578395,-43.95693578404657,97.18900817697319,-4.1461951591950985,258.1294618304857,107.58882829902875
353,29.031590256193585,-250.34207660217066,-55.8879741537096,-42.65328100424141,98.29981338270176,-4.051207643881497,258.1535729585512,108.18121291095615
354,28.950252524985356,-250.36510235355146,-55.92574956066437,-41.21020976790665,99.30247106425838,-3.944462917107031,258.17551548456726,108.6335176908974
355,28.86555844822311,-250.38572598970785,-55.96428188502767,-39.63968033066832,100.19142108976337,-3.8285944722959058,258.1949337255783,108.94530162061396
356,28.777655904932814,-250.4038130350637,-56.0030823260361,-37.9558436826343,100.9619077154155,-3.706583636764653,258.2115932121656,109.1175955251989
357,28.686602908552047,-250.4193768146272,-56.04162715794834,-36.17462923039941,101.60997607033929,-3.581683061114717,258.2253839512328,109.15270787450393
358,28.592397471196282,-250.43257063361392,-56.07936258331126,-34.313312983983195,102.13246814926286,-3.4573327588274227,258.2363174404353,109.05402659701141
359,28.495009550176196,-250.44367242219238,-56.11571222107953,-32.39008771937413,102.52702344206924,-3.3370713470760682,258.2445172336627,108.82583006974124
360,28.3944138770761,-250.45306232700338,-56.15008753954371,-30.423652519510725,102.7920890614007,-3.2244448407369393,258.2502034588051,108.47311910952651
361,28.290622678768862,-250.46119450418743,-56.18190126370589,-28.43283603459133,102.92694324174174,-3.1229151248211147,258.2536724010497,108.0014794955155
362,28.183717523705116,-250.4685649865328,-56.2105835351075,-26.436263983939014,102.93173461411601,-3.035770127333647,258.25527283440704,107.41698164057902
363,28.073879663839794,-250.47567780623274,-56.235600466528744,-24.45207714315894,102.8075379931133,-2.9660376406241133,258.25538106858085,106.72612087443048
364,27.961418254100515,-250.48301158172674,-56.25647467691614,-22.497701692962828,102.55642580783757,-2.9164045725546757,258.2543766910399,105.93579875390417
365,27.84679578035819,-250.49098860507928,-56.27280735985428,-20.589669760879243,102.18155300856176,-2.8891431113091643,258.2526208013053,105.05334320357102
366,27.73065000287835,-250.49994818538937,-56.28430141832585,-18.743484649152773,101.68725246015448,-2.8860449203110523,258.25043825094326,104.08656335699114
367,27.613811752764292,-250.51012569783128,-56.2907851524919,-16.97352289701618,101.07913748694571,-2.9083641538265605,258.2481050956249,103.04383376078941
368,27.497317947477246,-250.52163845703623,-56.29223583634964,-15.292964113899178,100.36420816323172,-2.956769878824278,258.24584211196907,101.93420194729202
369,27.38241916000846,-250.53447908616818,-56.28880222531944,-13.713739419047727,99.5509578802884,-3.031308396294684,258.24381472877167,100.76751300253191
370,27.270581047004,-250.54851644473672,-56.28082467103095,-12.24649014915045,98.64947647505593,-3.131375923913733,258.24213904855293,99.55454442660384
371,27.163479068837283,-250.56350352478822,-56.26885124114388,-10.900529971882781,97.67154573751439,-3.2557021120027243,258.24089295449096,98.30714420192882
372,27.06298628383985,-250.57909123811885,-56.2536481970282,-9.683805411368695,96.63072250997264,-3.4023449110114012,258.2401308533139,97.03836457915826
373,26.971154449734254,-250.59484680207802,-56.236203389973056,-8.602851869482148,95.54240400918688,-3.5686973389446117,258.2399004902221,95.762583771955
374,26.89018901635701,-250.61027538199647,-56.21772151061545,-7.662744386132613,94.42386961531855,-3.751506637132175,258.24026034405784,94.4956076619112
375,26.82241874159596,-250.62484362118752,-56.19961061197116,-6.867044507836645,93.2942933128785,-3.946906137730086,258.24129620850704,93.25474386187251
376,26.770260679604274,-250.63800371701637,-56.18345991611495,-6.217746597852729,92.174721296318,-4.150459947053935,258.243135725484,92.05884110952836
377,26.73618130152657,-250.64921688523316,-56.1710095235897,-5.715228557534989,91.08800997812189,-4.357220318141459,258.24595995274194,90.9282879573089
378,26.722654527702456,-250.65797533735397,-56.16411312320866,-5.358213047956812,90.05872076345106,-4.561797329017556,258.2500114317586,89.88496607773763
379,26.732117411248076,-250.6638221157739,-56.164695088968195,-5.143745728750473,89.11296945512211,-4.758440155719951,258.25559849747134,88.95215518230603
380,26.766924093965425,-250.6663682463461,-56.174703514279614,-5.0671966334647855,88.27822991557984,-4.941128828355335,258.26309570961286,88.15438845388489
381,26.829298489617912,-250.66530677476192,-56.196060837927654,-5.122289515514626,87.58309346358918,-5.103674945070225,258.2729403981834,87.51725935899968
382,26.92128601290688,-250.66042341688356,-56.23061375453571,-5.30116189984069,87.05698726207288,-5.239829457086073,258.28562547373656,87.06718259161556
383,27.044704696184535,-250.6516037399605,-56.28008403524042,-5.594455924612966,86.72985654838573,-5.343395347144835,258.301688828925,86.83111359939474
384,27.201096287082184,-250.63883694374184,-56.34602170232064,-5.991437294954174,86.63181687116928,-5.4083428003283025,258.32169980009206,86.83623255604805
385,27.391678260444188,-250.6222163968243,-56.42976174018196,-6.4801373232264545,86.79278340521049,-5.428924311976624,258.3462432287876,87.1095996433006
386,27.617297885686305,-250.60193708788603,-56.53238524861998,-7.047511547859454,87.2420847976183,-5.399787100790878,258.3759016366007,87.67778898306506
387,27.878389492383246,-250.57829007225553,-56.654685720711754,-7.679608040587787,88.00806883161627,-5.316080215737423,258.41123590748305,88.56650851756784
388,28.174935947073305,-250.5516538432998,-56.79714099210286,-8.361739235860075,89.11770661139207,-5.173553867826639,258.4527646866704,89.80021273757913
389,28.50643518176382,-250.52248235741027,-56.95989135425423,-9.078652791230436,90.596201212436,-4.9686487796502465,258.50094248395146,91.40171466433651
390,28.87187246586408,-250.49128927468692,-57.14272433407797,-9.81469935630123,92.46660602659446,-4.698573683456805,258.55613629604676,93.39180310953611
391,29.269699044244316,-250.45862799907914,-57.34506669578143,-10.553997842328736,94.7494574601633,-4.361369469570026,258.6186005892993,95.7888710314653
392,29.697817796968568,-250.42506738496286,-57.56598426161279,-11.280601405332765,97.46242619684428,-3.9559588894639317,258.6884507707717,98.60856069283973
393,30.153576671502737,-250.391163408039,-57.804190068957155,-11.978669404395868,100.6199908536455,-3.4821811558849833,258.76563568491895,101.86343117696822
394,30.633770703788525,-250.35742753206137,-58.05806108465171,-12.632651681042338,104.23313751079172,-2.9408111993453496,258.84991003231755,105.56265355468697
395,31.134653403737246,-250.32429293243123,-58.325663213052806,-13.227491411999146,108.3090883204893,-2.3335636462606786,258.94080790761393,109.71173863150322
396,31.651958135475095,-250.29208019291127,-58.60478382911164,-13.748851479789145,112.85106227301067,-1.663081760170896,259.0376189611048,114.31230183929357
397,32.18092992467497,-250.26096447856312,-58.8929706940732,-14.183366901579129,117.85807129131292,-0.9329117034304852,259.1393689499197,119.36186957505024
398,32.716367911163125,-250.23094634013876,-59.18757589747145,-14.51892263491917,123.32475508772714,-0.14746258704005594,259.2448065100527,124.85373111791833
399,33.252678437393705,-250.20182813406288,-59.48580337887415,-14.744952447108416,129.2412584281697,0.6880471372958598,259.35239775710073,130.7768399866368
400,33.78393849425722,-250.17319760494073,-59.784758600306546,-14.852750960316948,135.5931543558596,1.5676563454549426,259.460329860953,137.11576800786537
401,34.30396890577848,-250.144419625468,-60.08149905328012,-14.835787929322132,142.3614164247427,2.484740327574979,259.566524178605,143.850714383107
402,34.806416250713276,-250.11463654353327,-60.373084465486805,-14.690011634770388,149.52244215553858,3.432101551092158,259.6686589851777,150.95757077595957
403,35.28484216673092,-250.08277710975057,-60.65662582310518,-14.414127147929356,157.04812892087952,4.402071210381405,259.7642013855847,158.4080420858533
404,35.732818406454975,-250.047573638849,-60.92933265829476,-14.009835121920139,164.90600250781722,5.386620521844371,259.85044771194896,166.169821360685
405,36.144025814006866,-250.007586979316,-61.18855838623593,-13.482017569171816,173.0593979279656,6.377480583757082,259.9245716773731,174.20681646125485
406,36.51235528281671,-249.96123896313344,-61.43184364907825,-12.83885863676125,181.46769180904758,7.366269479813833,259.9836796684117,182.47942577606852
407,36.83200878176112,-249.90685209234726,-61.65695756331783,-12.091890529286486,190.0865859224553,8.344625158645973,260.0248726240982,190.94486049705455
408,37.09759868356834,-249.84269615600562,-61.86193654122555,-11.255957320596885,198.86844193100046,9.304342473552799,260.04531385247265,199.55751154470246
409,37.30424378409129,-249.76704125565956,-62.04512003135005,-10.349092327414994,207.76266800018828,10.23751261344875,260.0423018717367,208.26935988754562
410,37.44766043822679,-249.67821641291792,-62.205182121404576,-9.392307841972178,216.7161581940591,11.136662982188302,260.0133469807418,217.0304294143267
411,37.52424716731108,-249.5746725827506,-62.341157561131574,-8.409299111654713,225.6737853535018,11.994895391377057,259.95624982832436,225.78928145296427
412,37.531161067869206,-249.45504849618877,-62.4524605226629,-7.426067215422484,234.57894734857604,12.806020281413756,259.8691798106974,234.49354939136472
413,37.46638448146703,-249.31823731302885,-62.53889434867851,-6.470467618277542,243.37416521248446,13.564684683816417,259.75075070942245,243.09051064137122
414,37.32878060536506,-249.16345169441982,-62.600650594013665,-5.571692486295951,252.00172973482393,14.266491854872685,259.60009067874694,251.52769143727855
415,37.1181369320182,-248.99028478153963,-62.63829584879419,-4.759695346794947,260.4043906631741,14.908110880518239,259.4169036546282,259.7534977364293
416,36.83519561342953,-248.79876474006676,-62.65274520724429,-4.06456672490373,268.5260798669137,15.487374861438106,259.20151955402844,267.7178629379273
417,36.481670092407306,-248.58940086588495,-62.64522184437379,-3.515869536379339,276.3126569412245,16.00336630930802,258.9549311439147,275.3729005550371
418,36.0602475642029,-248.3632195607053,-62.61720293456714,-3.1419437457078705,283.7126631387598,16.456488055501143,258.67881598576014,282.67354774522323
419,35.57457691615811,-248.12178868372666,-62.57035301524999,-2.969191243406098,290.67806748704766,16.84851740156308,258.3755422784939,289.5781840005113
420,35.02924171964047,-247.86722889295618,-62.506446795919466,-3.0213538527211226,297.1649876041872,17.182640570025928,258.048157735681,296.0492084471163
421,34.42971773959995,-247.60221068602124,-62.42728427100837,-3.31879953574003,303.13436709924724,17.463463862237163,257.7003609173278,302.05355912021304
422,33.78231444170269,-247.32993601054585,-62.33460174248523,-3.8778339964062405,308.55259152975987,17.696997470127396,257.3364547698977,307.563158252314
423,33.094100168484964,-247.05410362786623,-62.22998290762463,-4.710056776126689,313.3920256282448,17.89060787922628,256.961282581953,312.55526898176265
424,32.3728109655177,-246.77885795494848,-62.114774417987114,-5.821782381762577,317.63145580308736,18.05293542689647,256.5801471758632,317.01275084428266
425,31.626743415633605,-246.50872183301402,-61.99001020097512,-7.2135477789518605,321.25642368112267,18.193774776881618,256.19871486255164,320.92420384581294
426,30.8646323119074,-246.24851442999298,-61.85634837230672,-8.879727620279487,324.25943867901475,18.323917564735595,255.82290635302408,324.28399378058697
427,30.095514614331428,-246.00325616829807,-61.71402383160907,-10.808277787742513,326.6400603129042,18.454958005202407,255.45877736752203,327.0921547630839
428,29.32858186645129,-245.7780631615139,-61.56281869883499,-12.980626094377383,328.404844164481,18.599063746362813,255.11239210831425,329.35416864297065
429,28.573024001288474,-245.5780341340379,-61.40205167896421,-15.371726157566137,329.5671489584239,18.768715737631265,254.78969305879036,331.0806248901062
430,27.837868127389743,-245.40813311496393,-61.23058633270349,-17.950286413639983,330.14680584206326,18.97642237675839,254.4963706797216,332.2867684220638
431,27.131816349470178,-245.27307125495048,-61.04685726170557,-20.679180984784598,330.169654507052,19.234414686354008,254.23773644104637,332.99194648779036
432,26.463086876801334,-245.17719092256706,-60.848912587464476,-23.516042804524155,329.66695413102195,19.554330680652907,254.0186023048455,333.2189689653814
433,25.83926263145125,-245.12435492359546,-60.634470843778494,-26.414032448124374,328.67468016605125,19.946898339488012,253.84316939721612,332.9933991715786
434,25.267151383175047,-245.11784339331777,-60.4009903219344,-29.322769031174722,327.2327207244008,20.421627589976616,253.71492827462092,332.34279445291224
435,24.752661176880448,-245.16026070150625,-60.14574880131253,-32.189402808567785,325.38398866354487,20.98652223546505,253.63657292574712,331.29591736728696
436,24.300694469797616,-245.2534545783546,-59.86593143315344,-34.95980303101843,323.1734673465444,21.64782270005136,253.60993044177692,329.8819390608175
437,23.91506390386867,-245.39844955532826,-59.55872440314088,-37.579829410940086,320.6472093713117,22.40978970738284,253.635908091911,328.1296564383281
438,23.598431985289086,-245.59539659174416,-59.22141193358408,-39.996651468363396,317.85130839004387,23.27453764232253,253.71445924663055,326.06674403026756
439,23.352276173952365,-245.84354030757012,-58.85147416681814,-42.16007738430043,314.8308646644055,24.241924496806792,253.84456908137267,323.7190603317399
440,23.176880079178627,-246.14120458491465,-58.44668340715481,-44.02385307147441,311.6289653838759,25.309503145778873,254.02426027283963,321.1100270800735
441,23.07135070626018,-246.48579662476274,-58.00519604071657,-45.54689312365869,308.2857010387857,26.472536358786463,254.25061814913832,318.2600985554798
442,23.033661091755715,-246.87382908269663,-57.525637265031875,-46.69440802395069,304.8372391936471,27.724075464853293,254.51983421871324,315.1863364975541
443,23.060717220684328,-247.30095976672266,-57.00717562619269,-47.438896118341475,301.31497674591327,29.05509996922139,254.8272668064043,311.9021045345833
444,23.148447737466594,-247.76204849501852,-56.44958429219525,-47.760973867579565,297.74479110406963,30.45471277049781,255.1675175957739,308.4168940212803
445,23.291914508338795,-248.25123088744974,-55.85328604019274,-47.6500232427304,294.14640955506235,31.910383131267185,255.5345230265195,304.7362907165319
446,23.485441498180798,-248.7620088961533,-55.219379286194695,-47.10464041923434,290.53291419835887,33.40822740402755,255.9216595602282,300.8620885710369
447,23.722758740282206,-249.28735768962758,-54.54964327926635,-46.13287492563773,286.91039699530353,34.9333158415003,256.32186176728595,296.79255283854536
448,23.997157544366836,-249.81984815855728,-53.846521722624125,-44.75225307811323,283.2777757191035,36.4699926890355,256.72775205583196,292.5228298141975
449,24.30165263560822,-250.35178388358986,-53.11308531911139,-42.989583998909445,279.6267772105397,38.00219617432941,257.13178068337663,288.04549511929855
450,24.629146698880675,-250.87535090223943,-52.35297488211477,-40.88055094938536,275.9420898546224,39.51376499140384,257.52637443130845,283.3512271761212
451,24.972592828259234,-251.38277803604902,-51.570327647647694,-38.4690951795168,272.20168301063313,40.98871852069272,257.9040919728369,278.4295878388883
452,25.32515064235482,-251.86650489485777,-50.76969024168927,-35.80660390755212,268.37728741482726,42.41149948400573,258.2577835254412,273.2698882870933
453,25.68033227776888,-252.31935392153602,-49.9559223321246,-32.95091822150117,264.43502732635005,43.76717004208599,258.58075179374526,267.8621152726298
454,26.032135058518364,-252.73470196186864,-49.13409523362022,-29.965180549425085,260.3361924001816,45.04155533306492,258.8669104410206,262.1978906581614
455,26.375158296698263,-253.10664597002673,-48.309389571230746,-26.916544934768677,256.0381349753875,46.221331815114134,259.1109354880521,256.27143593857915
456,26.70470230967864,-253.4301568507478,-47.486995582041025,-23.874776789028832,251.4952766006784,47.29406120131842,259.30840438133,250.0805130603723
457,27.016848247878215,-253.7012153477575,-46.67201890311768,-20.91077209912837,246.66020593999826,48.248173994290525,259.4559172689847,243.6273131144197
458,27.30851773185662,-253.91692441187593,-45.86939395723033,-18.095029080936314,241.4848483819325,49.07290943860522,259.55119540953774,236.91926503872213
459,27.57751172186354,-254.07559350520992,-45.08380645347514,-15.496107671750437,235.92168552053863,49.75822098268903,259.5931525429556,229.96973710341646
460,27.82252858900682,-254.17679158308175,-44.31962613054158,-13.17911370022341,229.92500024523838,50.2946580315366,259.5819362667218,222.79860469778242
461,28.04316200754534,-254.2213668576363,-43.58085065668252,-11.204244896135748,223.45212076359192,50.67323589690839,259.51893779409716,215.4326590786231
462,28.239879910034084,-254.21143280377424,-42.871061496096786,-9.625435221668148,216.46463487015995,50.88530645803691,259.4067698206288,207.90583366157787
463,28.413986172731164,-254.15032116219464,-42.193392547165985,-8.489132603552456,208.9295445143424,50.92244214295784,259.2492135113895,200.2592274740183
464,28.56756683937579,-254.04250389997418,-41.55051246942651,-7.83324320724928,200.8203304164297,50.77634537244568,259.0511368121275,192.54090968700984
465,28.703422610481876,-253.89348725214307,-40.944621736740636,-7.6862728332806345,192.1178971809505,50.438794502054286,258.81838741686465,184.80549465057535
466,28.82498918885529,-253.70968208173625,-40.377465369983206,-8.066692500141613,182.81137103967419,49.90163554788834,258.5576647694495,177.11348343432132
467,28.936247017885638,-253.4982557000872,-39.85036189871997,-8.982550407306437,172.8987250712234,49.15682670142346,258.2763762758886,169.53037545477633
468,29.041621993584513,-253.26697080514344,-39.36424843700946,-10.431346034367689,162.38721064043193,48.19654002795641,257.9824832946146,162.1255623689074
469,29.14587880865963,-253.02401729434655,-38.91974093317758,-12.400174324449345,151.29357899871462,47.01332198754409,257.6843424345206,154.97102596562797
470,29.254008689061717,-252.77784250599453,-38.517207745485926,-14.866139323171733,139.64408338140973,45.600311609406006,257.39054735142304,148.13987193028396
471,29.371113503920743,-252.53698509047143,-38.156853843165784,-17.797028061941912,127.47425912868586,43.95151231147054,257.1097757726649,141.70474138120449
472,29.502288604543143,-252.30991730151288,-37.83881231722659,-21.152227519408562,114.82848676015642,42.062110506736516,256.85064601690334,135.73615108365718
473,29.652507121488984,-252.10490002323877,-37.563239586385436,-24.883860499325213,101.75934994430065,39.92883134203415,256.6215868001517,130.30082033816842
474,29.826508593988784,-251.92985422536867,-37.330410633131166,-28.938110249027517,88.32680641574396,37.55031928093524,256.4307235090184,125.46004695180505
475,30.028694643176188,-251.792251676543,-37.14081069768183,-33.25669848824354,74.59719480901973,34.927528910892946,256.2857832642865,121.26819591693226
476,30.263034031996348,-251.69902666685547,-36.995220050971234,-37.778477199791375,60.64210404033813,32.06410950651849,256.1940200208734,117.77136224346198
477,30.53297900263765,-251.6565093522236,-36.89478879875045,-42.441091197796716,46.53713434169177,28.966765738393505,256.1621598279674,115.00626385946276
478,30.84139424250672,-251.670380305001,-36.84109914772317,-47.182666281897724,32.36058037762455,25.64557667600926,256.196365374542,112.99941177612331
479,31.19049911807033,-251.74564499989552,-36.83621305720064,-51.943476716410636,18.192067089085803,22.11425598240803,256.302218102469,111.76659312088645
480,31.58182293659186,-251.88662624322518,-36.88270356275981,-56.6675457757996,4.111168107693623,18.390337910121414,256.4847154224778,111.31268876339621
481,32.01617209760395,-252.09697194207124,-36.983668364425796,-61.30413416146719,-9.803965096140354,14.495276287423003,256.7482799209267,111.6318319949701
482,32.49360728541141,-252.3796751620369,-37.14272466214908,-65.80907333796512,-23.47793758660916,10.45444699588537,257.0967769980491,112.70789923648199
483,33.01342851905545,-252.7371032079514,-37.36398459627612,-70.14590448607466,-36.83938605873406,6.297048319644181,257.53353720890556,114.51530931792473
484,33.57416602057715,-253.17103251238672,-37.65201077587047,-74.28678898637533,-49.82217498445234,2.055897802737881,258.06137969449367,117.02009557441966
485,34.173575403927906,-253.68268642405326,-38.011751238298835,-78.21316297938242,-62.36649703453453,-2.232871347943027,258.6826334707083,120.18120536160497
486,34.80863637109338,-254.27277344402813,-38.44845307824983,-81.9161160712579,-74.41986333104117,-6.530207031421491,259.39915389630136,123.95197447770083
487,35.47555469540466,-254.9415238195133,-38.967554337150744,-85.39648199020422,-85.93797063410962,-10.794617189402363,260.2123321698501,128.28171890236928
488,36.16976772562687,-255.68872247307033,-39.57455476498979,-88.66463648990754,-96.8854333514781,-14.982717071600295,261.1230960442846,133.11738289135818
489,36.88595406759963,-256.51373610427004,-40.274867482901826,-91.74000505821796,-107.23636858897052,-19.049829271650157,262.13190014701166,138.40518096824744
490,37.618048612282436,-257.41553227136865,-41.07365486291495,-94.65029042600789,-116.97482279529477,-22.95062039846369,263.23870459520884,144.09217226042486
491,38.35926468745099,-258.3926886064071,-41.97565285207437,-97.4304378899117,-126.09502923312587,-26.63975865006881,264.44294121530794,150.1277093419761
492,39.10212570049422,-259.44339105131314,-42.98498859231241,-100.12136510174192,-134.60148666547715,-30.072577646838134,265.7434676255331,156.46471020455553
493,39.83850905805959,-260.5654209164262,-44.10499659877392,-102.76849181180563,-142.50885135567407,-33.20573330406147,267.1385105083276,163.06071068068675
494,40.55970530653706,-261.7561313891335,-45.33803886937491,-105.42011334485971,-149.84163687066413,-35.99784199681902,268.6256002977023,169.87866491599618
495,41.256495339740574,-263.012414727728,-46.685334031712145,-108.12566854388237,-156.63371942557634,-38.410089693000224,270.20150009392256,176.8874727049038
496,41.919248169205154,-264.33066180726297,-48.14680011622745,-110.93395797992262,-162.9276507839166,-40.406803127050466,271.8621319554282,184.06222425719292
497,42.538041084692225,-265.7067159781322,-49.72091507837625,-113.89137120538958,-168.77378613538045,-41.95597547117808,273.6025038801353,191.3841650504686
498,43.10280299040687,-267.135823247698,-51.40459900758958,-117.04018275352304,-174.22924078203536,-43.02974032003181,275.41664069835605,198.8403956051355
499,43.60348030572919,-268.61258048620914,-53.1931220174346,-120.41697553698067,-179.35669635136958,-43.604789178188476,277.2975216401872,206.42333275859784
500,44.03022315447453,-270.13088281308,-55.08004187574405,-124.05124742112882,-184.22308385979503,-43.662729117608265,279.2370266018444,214.12996960234315
501,44.373587788797394,-271.6838708818073,-57.057175276809254,-127.96425222505019,-188.89817672054957,-43.19037889502184,281.2258924331269,221.9609801456393
502,44.62474954103026,-273.26387872159853,-59.11460614220084,-132.16812016695292,-193.45313157779515,-42.180003521573575,283.25368017217903,229.91972166336924
503,44.77571933151362,-274.8623831096759,-61.24073340881509,-136.66529427514536,-197.95901851700418,-40.629488941824924,285.3087540881341,238.0111920501412
504,44.81955605919259,-276.469955986475,-63.422359462453166,-141.44830776148157,-202.48538414862864,-38.54245998580231,287.37827353869636,246.24100033128926
505,44.750567094139136,-278.076222111994,-65.64481883118913,-146.49991249054435,-207.09889035823622,-35.92834594037109,289.4481989625109,254.614404693027
506,44.56448947475049,-279.6698250458539,-67.89214512227039,-151.79355116363527,-211.86206754766764,-32.80239868916601,291.5033138673752,263.1354636253956
507,44.258645109638145,-281.2384056287097,-70.14727262654772,-157.29414728126875,-216.8322141171996,-29.185668118089744,293.5272654609403,271.806332785533
508,43.83206413929762,-282.76859823643906,-72.39226771114873,-162.95916932554888,-222.0604646317305,-25.10493823303495,295.5026274125799,280.6267246525783
509,43.285571573314456,-284.2460507406218,-74.60858425662119,-168.73991071700155,-227.59103879002535,-20.592625284323475,297.41098875446926,289.59353200944935
510,42.6218334095088,-285.65547398817154,-76.77733703960241,-174.58291641100735,-233.46067310106716,-15.686636495390804,299.23307281415515,298.7006017263187
511,41.84535965649502,-286.98072573115843,-78.87958701793013,-180.43148173287193,-239.6982277994048,-10.430185302219506,300.94888932339643,307.93863387428496
512,40.962462925628685,-288.2049325555148,-80.89663271054218,-186.2271501136874,-246.3244533739826,-4.871556861216018,302.53792165417855,317.2951740341035
513,39.98117243395345,-289.3106516403752,-82.8103019901885,-191.9111439148081,-253.35189448743972,0.9361837391728025,303.97934956802555,326.7546643743012
514,38.91110443358473,-290.2800722233996,-84.60323838031353,-197.42567544235587,-260.7849045996128,6.935548606973216,305.25230596962564,336.2985215397775
515,37.76329148223904,-291.0952546822523,-86.25917532130961,-202.71510122915433,-268.61974295390263,13.065057272516391,306.33616417360986,345.9052156761242
516,36.54997474271656,-291.73840339073024,-87.76319110868388,-207.7268985553906,-276.8447271321349,19.25974679257872,307.21085042999056,355.550333316862
517,35.284365542723165,-292.19216790865147,-89.10193678967627,-212.4124559227547,-285.4404189579577,25.451766935466907,307.85717496924434,365.2066153647502
518,33.98038443339589,-292.439965401052,-90.26382964121291,-216.72767690558365,-294.37982834357507,31.571063542706995,308.2571734891889,374.8439683526986
519,32.65238757198789,-292.46631545515214,-91.23920605518468,-220.63339947493768,-303.62862749062543,37.54615056502757,308.39444980219963,384.4294517619618
520,31.314891095387544,-292.2571769981111,-92.02042963343118,-224.09563220711235,-313.1453753045853,43.30496826827301,308.25450954638217,393.9272464610632
521,29.982304079000183,-291.8002762111542,-92.6019529294728,-227.0856072216337,-322.881757885836,48.77582191840502,307.82507477752046,403.2986100039668
522,28.668679655733076,-291.0854143429009,-92.98033439444568,-229.57964963645875,-332.7828550865776,53.88839214580943,307.0963700114173,412.50182472112647
523,27.3874919599545,-290.1047450278969,-93.15421526288127,-231.55886658520907,-342.78744567521676,58.574805265251086,306.0613716547454,421.49214562523883
524,26.151444009295524,-288.8530119577271,-93.1242636922573,-233.00866632568713,-352.8283654149251,62.77074895251726,304.7160144231301,430.221758350875
525,24.97230890936841,-287.3277394711593,-92.89309489606687,-233.91812945341772,-362.83293410387137,66.41661554938291,303.05935011214956,438.63976313269933
526,23.86080429457748,-285.5293707285749,-92.46517612082657,-234.279268350775,-372.72346957879455,69.45865159960638,301.0936558553142,446.6922085441664
527,22.826497860999385,-283.4613503751351,-91.84672431879503,-234.08622558288934,-382.4179083374563,71.85008798694022,298.8244906237733,454.322206646335
528,21.877740191090528,-281.1301507289692,-91.04560261740134,-233.33447450790428,-391.8305527132879,73.5522206672111,296.260700067837,461.4701670520682
529,21.02161985845142,-278.5452424392987,-90.07121951177635,-232.02009350885083,-400.87296229590027,74.53540823654501,293.4143708605687,468.0741890346065
530,20.26393516647834,-275.7190121979428,-88.93443239817996,-230.13918700189652,-409.45500180003086,74.77995027927108,290.30073652779,474.0706467279752
531,19.609176919826663,-272.666631369633,-87.64745497435783,-227.68752048951364,-417.48604868122203,74.27681015786543,286.93803736370245,479.3949921563951
532,19.0605173410422,-269.40588023869554,-86.22376655883033,-224.6604232450815,-424.8763518482521,73.02814785861509,283.3473374650337,483.9827847875166
533,18.61980148461796,-265.9569329375288,-84.67802077207169,-221.0529918974416,-431.5385188194656,71.04763262649318,279.55230221873177,487.7709361410516
534,18.287539031800755,-262.34210811873623,-83.02595120521546,-216.86060366606813,-437.3890943950773,68.36051114077695,275.5789397976051,490.6991364383135
535,18.062895928827146,-258.58559022885487,-81.28427235858427,-212.07972255060992,-442.35018170880807,65.0034144496379,271.4553104023265,492.711410743533
536,17.94368676930076,-254.71312597972414,-79.4705748798499,-206.70895871189984,-446.3510484837864,61.02389523492891,267.2112071401628,493.75773757453396
537,17.92636999259388,-250.75170031520494,-77.603214619635,-200.75032307886337,-449.3296585260354,56.4796956795874,262.87781245435616,493.7956553009714
538,18.00604882674644,-246.72919580820513,-75.70119502268055,-194.21060702287306,-451.2340707311536,51.437754865007356,258.48733381401956,492.7917809057669
539,18.176481460762755,-242.67403903387898,-73.78404188932141,-187.10281059768266,-452.0236539223722,45.972972998525826,254.07262198229859,490.723170585133
540,18.430104192409008,-238.6148371206357,-71.87166881520918,-179.44754129103708,-451.6700740275241,40.16675770397305,249.66677474150737,487.5784602258364
541,18.758071243371788,-234.5800073658287,-69.98423102464152,-171.2743070195622,-450.15801907729764,34.10538491003761,245.30272856313454,483.35873415347396
542,19.150314582365983,-230.5974023800767,-68.14196523239093,-162.62263083533173,-447.485636615594,27.8782132452751,241.01284034767943,478.07808148154356
543,19.595626497204258,-226.69393256550202,-66.36501380777979,-153.5429196196519,-443.6646672787347,21.57579595140137,236.82846096638013,471.76381042199455
544,20.081766795756813,-222.89518693602193,-64.67323279155076,-144.0970248801383,-438.72026764781606,15.287937972859377,232.77950198188597,464.45630209395347
545,20.595595353808296,-219.22505270826065,-63.08598490789621,-134.35844142127215,-432.6905251698098,9.101748150810376,228.89399684665617,456.2084971223452
546,21.123229394341,-215.7053340974385,-61.62192023441267,-124.41210018124622,-425.6256781864805,3.0997374498624337,225.1976583176841,447.08502124993976
547,21.650223709909007,-212.35537149104843,-60.29874834052097,-114.35372549849694,-417.5870649906479,-2.641986322022405,221.71343485892743,437.16097059349323
548,22.161771274463042,-209.19166358482425,-59.13300631272208,-104.28874417901206,-408.64583696897114,-8.055379189566292,218.46107034489367,426.5203925899695
549,22.642921228883974,-206.22749697765337,-58.139827178587,-94.3307529058858,-398.8814813469072,-13.081933378961036,215.45667326642499,415.2545138392882
550,23.07881073824864,-203.47258986698495,-57.33271308658468,-84.59957031507815,-388.3802076490136,-17.673923827782254,212.71230366327111,403.459779353047
551,23.45490653370595,-200.93275853757882,-56.72331753166508,-75.21891895642307,-377.2332577913757,-21.795398539017956,210.2355879308158,391.23577777951516
552,23.757251213485645,-198.60961701761443,-56.32124103416302,-66.31379904728487,-365.535202280692,-25.422890159276506,208.02937324345825,378.6831331414526
553,23.972708865298436,-196.50032146040343,-56.13384478519454,-58.00762944093412,-353.3822842917375,-28.545833718102003,206.0914344538175,365.9014452106068
554,24.089204454748113,-194.5973715361195,-56.166086666339844,-50.41924103541707,-340.87086971027566,-31.166682584430024,204.41424696307118,352.9873580384102
555,24.09595172073303,-192.88848150678157,-56.42038375993237,-43.659813811841786,-328.0960550115578,-33.30072129555558,202.98483933656001,340.03282989101945
556,23.983664972749985,-191.35653379849794,-56.896505108656754,-37.829850995644506,-315.1504765687715,-34.97558004534761,201.7847394704385,327.12366855742016
557,23.74475107726497,-189.97962779600545,-57.59149806183473,-33.01628281148407,-302.12335499764396,-36.230461337556,200.7900279000618,314.3383842828606
558,23.373478878680807,-188.7312362119387,-58.499650962749556,-29.28978825250179,-289.0997966755565,-37.11509465118422,199.97151127483238,301.74739886971315
559,22.86612418760464,-187.58048055711055,-59.6124941304426,-26.702416376320745,-276.1603619395476,-37.688439980280414,199.29502790866871,289.4126342726484
560,22.221089243946523,-186.492535706559,-60.91884010285349,-25.285578966822115,-263.38089619670825,-38.01716584372012,198.7218954107362,277.3874879546963
561,21.43899624980153,-185.4291711859897,-62.40486299141655,-25.04847416839477,-250.832606939331,-38.17393176869948,198.20950759666832,265.7171861071612
562,20.522755201482774,-184.3494337037312,-64.0542155828475,-25.97698637966198,-238.5823571128544,-38.235509199966735,197.7120842929864,254.43949024552126
563,19.477606814253605,-183.21047184668024,-65.84818156527314,-28.03309202645355,-226.69313410045135,-38.28077814095971,197.181573504875,243.5857182815929
564,18.311141732583213,-181.96849990800055,-67.76585904747242,-31.154784712422316,-215.22464447822102,-38.38863952837956,196.56870089784593,233.182028546985
565,17.03329735818932,-180.5798936040238,-69.78437045488037,-35.25651755172443,-204.23397834954602,-38.63588534737825,195.82415674855378,223.25090497049214
566,15.656333498532,-179.00240604245636,-71.87909299155676,-40.23014593938968,-193.77628395974912,-39.09506975724092,194.89990555930967,213.81277406918315
567,14.19478769483339,-177.19648782869515,-74.0239033132911,-45.94634110511023,-183.90539353666495,-39.83242494828124,193.75059859199905,204.88767968601715
568,12.665410577422133,-175.1266907467724,-76.19143006627952,-52.2564338374892,-174.67434464738284,-40.90586502269144,192.33506486755817,196.49693930773986
569,11.087080903875126,-172.7631301118092,-78.35330859319455,-58.994638968572644,-166.1357473089842,-42.36311982553774,190.61785184363853,188.66470598682426
570,9.4806990028729,-170.08297681884753,-80.4804333525768,-65.98060473196338,-158.34195510127188,-44.24003833865566,188.5707831913707,181.41936208467806
571,7.869056190219593,-167.071946593242,-82.54320538163648,-73.02222706652081,-151.34500818719494,-46.55909807805158,186.17449812182093,174.79467518112529
572,6.27667654007462,-163.72575123230746,-84.51177438234129,-79.9186673850361,-145.1963271889259,-49.328153052559976,183.41993480887623,168.8306527047458
573,4.729626463782796,-160.0514747422395,-86.35627756070024,-86.46351324583067,-139.94614913953467,-52.53944838300665,180.30971961611323,163.5740404053319
574,3.255287030766539,-156.06883608578607,-88.04707999781742,-92.44802469102353,-135.64271018546512,-56.16892474261142,176.85942388877385,159.0784210801125
575,1.8820838562043212,-151.81129969579422,-89.5550239630988,-97.66441469816729,-132.33119434205963,-60.17583041901044,173.09865092833485,155.40388436262043
576,0.6391696237291268,-147.3269950024631,-90.8516970979816,-101.90912022262165,-130.0524831340936,-64.50265306726735,169.0719174171112,152.6162560261063
577,-0.44394511531776737,-142.67940690721775,-91.90973146668922,-104.98603059015667,-128.84175655482133,-69.07537727748986,164.83929579562871,150.78589572482244
578,-1.337816296245594,-137.947800218464,-92.7031464665193,-106.70965201063612,-128.72701004980732,-73.80406829578229,160.47678644346897,149.98609426039548
579,-2.013547934148267,-133.22734243758862,-93.20774794828161,-106.90819942243338,-129.7275634569312,-78.58377715730857,156.07639060251012,150.291123469129
580,-2.4433312681363595,-128.62889113016436,-93.40159337899813,-105.42661770028482,-131.85264428794028,-83.29575860725616,151.74585684740902,151.7740113541146
581,-2.6010396579310173,-124.27841480947946,-93.26552846285631,-102.12954120466273,-135.10012809131013,-87.80899073364684,147.60807585855014,154.50412990338796
582,-2.462875020575265,-120.31602008494683,-92.7837944290552,-96.90420180197319,-139.45551250480327,-91.9819841311715,143.80010057703683,158.54469172927813
583,-2.008058707673181,-116.89456286491202,-91.94469761366572,-89.66328955720684,-144.8911899119358,-95.66486828285248,140.47177176320537,163.9502540593073
584,-1.2195561409079232,-114.17782764588571,-90.7413248324199,-80.34775689091246,-151.36606829068734,-98.70174306000385,137.7839328853742,170.76432563206183
585,-0.0848202604092202,-112.33826644619802,-89.1722803538851,-68.92953700276722,-158.82557292496577,-100.93328303460258,135.90622361270232,179.01716517713496
586,1.403465813247411,-111.55429792140582,-87.24241381852029,-55.414123221901434,-167.20204447117524,-102.19958098034022,135.01444842375423,188.72385076743606
587,3.246671118554926,-112.00717778126489,-84.96350361380445,-39.84293109776786,-176.41553187803584,-102.34321406476903,135.28752622158655,199.8826882900062
588,5.43955248352556,-113.87746381284394,-82.3548572368805,-22.295342893574293,-186.37496180249826,-101.21251161261517,136.90403840128022,212.47401490711366
589,7.969674755001945,-117.3411123275758,-79.44378936898234,-2.890317228652531,-196.9796494985912,-98.66499693815885,140.03840638505002,226.45943980251417
590,10.816948504495882,-122.56525714134322,-76.26594006470644,18.212563366723288,-208.12110030542686,-94.57096779016585,144.8567448225496,241.7815502263907
591,13.95331795725939,-129.70373666199814,-72.86539961871537,40.81273596565392,-219.68503719648544,-88.81717085732966,151.5124528413179,258.3640970747785
592,17.34262987315493,-138.89244891583866,-69.29461287759418,64.66911327801824,-231.5535801813962,-81.31051609141477,160.14162227703144,276.11266259986
593,20.940710125469206,-150.24462826308525,-65.61404336078841,89.50145643069479,-243.6074992130167,-71.98176673497716,170.85835815530777,294.91580459499716
594,24.695668922575706,-163.8461509847225,-61.89158592975696,114.99274237585807,-255.72846418841087,-60.78913107568168,183.75012228308265,314.64666661554185
595,28.54844836091579,-179.7509893798504,-58.201725345087574,140.79256985829718,-267.8012228515891,-47.72167213508655,198.87322484849278,335.1650411618972
596,32.43361778993027,-197.9769446003973,-54.62444626439158,166.52160841060748,-279.71564808106,-32.80244175933407,216.24860029747737,356.3198699989694
597,36.28041385420449,-218.50179615182233,-51.243907551846405,191.77705199142517,-291.36860801462683,-16.091235991144263,235.85801130310824,377.95216055585564
598,40.014013424117806,-241.26000999225437,-48.146900165416454,216.13899438926276,-302.66562377140247,2.313140598701654,257.64082763979667,399.8982878276419
599,43.557018952209255,-266.1401469113724,-45.4211138402823,239.17759880674723,-313.52228857978577,22.271222213025037,281.4915249473968,421.993636313699
600,46.831126989440406,-292.98310792264556,-43.15324386518764,260.46089055378314,-323.8654277852763,43.60196768834761,307.25804160217325,444.0765160366755
601,49.75894194886811,-321.58134344996313,-41.426975665662546,279.56296122596257,-333.63398110012844,66.0827146938626,334.7411201207717,465.9922614301331
602,52.26588957148173,-351.6791381556483,-40.320891339412256,296.0723372859898,-342.77958699269846,89.45012941367223,363.694742834419,487.59739391406384
603,54.2821788456377,-382.9740636709048,-39.9063479930864,309.6002384450827,-351.2668453368985,113.40226844479919,393.8277503206848,508.763701470959
604,55.74475764700557,-415.119667504802,-40.24538194454172,319.78843521253907,-359.07322991955976,137.60184936738645,424.806705497601,529.3820655991314
605,56.599205671793044,-447.72943793691115,-41.38869521063681,326.3164141639383,-366.1886193683938,161.6807951152491,456.2600362935538,549.3658523143101
606,56.801507680963255,-480.3820514722488,-43.37378129186841,328.9075768831916,-372.6144161608709,185.24607516356738,487.78345520475784,568.6536836850803
607,56.319650255207804,-512.6278712752285,-46.223246396961365,327.3342358660432,-378.3622307349371,207.88681547266034,518.9466147559765,587.2114224178339
608,55.13498620542857,-543.9966219789255,-49.94338019806017,321.4212281790538,-383.45212208519274,229.18259215783124,549.3009140682036,605.0332346066114
609,53.243312981596446,-574.0061189728898,-54.52302716394237,311.04804398102146,-387.9104068496415,248.71276477229628,578.3883241154764,622.1416428775105
610,50.65561572469864,-602.1718801658767,-59.93280554987857,296.149458751468,-391.76707393247574,266.06664750807664,605.7510494123562,638.5865394127643
611,47.39843285801995,-628.0173977695031,-66.12471590439046,276.7147597546122,-395.0528683790313,280.85426312458844,630.9417943509917,654.4431891565588
612,43.51381267032612,-651.0848000702888,-73.0321736220088,252.78576192501015,-397.7961327724052,292.71737633309266,653.5343563311079,669.8093096127539
613,39.05884281037193,-670.9455919914265,-80.57048981707392,224.45390796921828,-400.019512744522,301.34046130563223,673.1342285081821,684.8013560232349
614,34.1047500302291,-687.211132014023,-88.63781183038631,191.85683220817236,-401.73664228331825,306.4612225707338,689.3888656895547,699.5501608598923
615,28.735583836913847,-699.5424849586162,-97.11652029672267,155.17482447433966,-402.94892417020543,307.88026104261155,701.9972506871887,714.1960690842519
616,23.046514155848374,-707.6592880559028,-105.8750652589784,114.62764286006842,-403.64251465170196,305.4694598857696,710.7183980408344,728.8836783511628
617,17.141789123019407,-711.3472841979658,-114.77021015420625,70.47207559087705,-403.78561596456206,299.178663073249,715.378449967825,743.756252062616
618,11.132414076113823,-710.4642132681066,-123.64964039608476,23.000531686340132,-403.32618231064134,289.0402395081175,715.8760577041968,758.9498488140663
619,5.133625655202349,-704.9438105863518,-132.35488378713293,-27.459250734585044,-402.1901566536518,275.1711741479302,712.1858007169842,774.5872268405116
620,-0.7377560631560172,-694.7977389877829,-140.72448372064767,-80.54353012074318,-400.28037252382893,257.7724089908706,704.3594748293543,790.7716406854327
621,-6.366011426117371,-680.1153734188761,-148.59736230903061,-135.85132404345325,-397.476267055408,237.12527105509977,692.5251735992675,807.5807317206697
622,-11.639159515333928,-661.0614574428874,-155.81630713621675,-192.94322462576073,-393.634549582945,213.5849659774708,676.8841884340094,825.0607955527192
623,-16.451480821304575,-637.8717512586481,-162.23151010678603,-251.34101122589132,-388.59095041788225,187.57127243387538,657.7058533101228,843.2217640838741
624,-20.70586989341412,-610.8468814931373,-167.70407910063116,-310.52881714824,-382.1631385515852,159.55672666576297,635.3205502603948,862.0332596521354
625,-24.31597959276253,-580.3446755652209,-172.10943428687142,-369.9564961532395,-374.15484894863994,130.0527195003501,610.1111635766015,881.4220683356504
626,-27.208131824071963,-546.7713121414205,-175.34049388969484,-429.04561900790713,-364.361203042484,99.5940273824634,582.5033187003319,901.2713460130104
627,-29.32297911987423,-510.5716426931195,-177.31055147829647,-487.19824931836075,-352.57514185721715,68.72236053906107,552.9547652140761,921.4218109107943
628,-30.616907902945517,-472.21903976774405,-177.95574944107327,-543.8083479201426,-338.5948216162701,37.9695403664119,521.9442650617991,941.6750763181692
629,-31.063178585493077,-432.2051097962142,-177.2370606543111,-598.2753770644828,-322.2317499820138,7.840923508529185,489.9603317996564,961.799125500246
630,-30.6527999335392,-391.0295773304971,-175.14170126587706,-650.0194478056193,-303.31937228059326,-21.200319491510463,457.4901393793796,981.5357350362766
631,-29.395134637543876,-349.1906085826259,-171.68391108414193,-698.4971923662399,-281.7217576658024,-48.74748248341384,425.00888448349616,1000.6094440359323
632,-27.318229167163757,-307.1757990198595,-166.90505432662334,-743.2174557321525,-257.34199254950664,-74.46259928751526,392.9698488796218,1018.7374880916612
633,-24.468853905891216,-265.4540051490651,-160.87301325487132,-783.7558911851917,-230.12987051365988,-98.08619967179432,361.79537082946564,1035.640005902789
634,-20.91223040620621,-224.46815588592526,-153.68087092960658,-819.7676142774053,-200.08848090380346,-119.44409380520747,331.86889912335465,1051.049805359312
635,-16.731413325327157,-184.62913459648857,-145.4449056985825,-850.9972147877904,-167.27934548954474,-138.45082899154625,303.5282697782067,1064.7210495056077
636,-12.02628753148739,-146.31077917109207,-136.30194606240875,-877.2856308214667,-131.8258317742813,-155.10959278773214,277.06031212328435,1076.4363780388771
637,-6.912138255603823,-109.8460048523454,-126.40615694837639,-898.5736229620414,-93.91467499575626,-169.50849716267848,252.69685600843601,1086.0121852561144
638,-1.5177558703674208,-75.52401448025815,-115.92534538422998,-914.9018097880944,-53.79555648128334,-181.81335774555805,230.61217499620247,1093.301987457396
639,4.016951530859531,-43.58852566397242,-105.03688554148134,-926.4074041553553,-11.778799504222425,-192.25726564801388,210.92186377882655,1098.1979907521945
640,9.543843894624256,-14.23691666238871,-93.92337193608927,-933.3179049217218,31.76865868074568,-201.12742123140305,193.68311506990722,1100.6310882066566
641,14.909909620241304,12.379825169759851,-82.76811713668022,-935.9420551736758,76.42878888896202,-208.7498442022365,178.89633457367137,1100.5695679384148
642,19.961040317880066,36.156474640771805,-71.75061777228022,-934.6583949909628,121.73921673056208,-215.4726796704022,166.50801278333384,1098.016813514268
643,24.546121077012167,57.0323755221161,-61.04211972909876,-929.90173957457,167.2009144077044,-221.6488785524799,156.41475663932525,1093.0082482588684
644,28.521302834422208,74.98978121135453,-50.80141832236883,-922.147924383223,212.28656975189816,-227.61904424184303,148.4683673761042,1085.6077415533182
645,31.754297548510877,90.05180263029314,-41.171029312975925,-911.8971905129624,256.4493894854011,-233.6952124892013,142.48182846191136,1075.9036765496544
646,34.12852229229067,102.2800089952698,-32.27386018576642,-899.6566359822608,299.1321264529193,-240.14627479051254,138.23603857261892,1064.0048807696044
647,35.54691564451155,111.77170108379806,-24.21049798608772,-885.9222217761646,339.7761613699867,-247.18567112895894,135.48709351209237,1050.0366385256095
648,35.93525798918694,118.65685613634157,-17.057210914124944,-871.1608820527955,377.83051968413724,-254.96186737413169,133.97389553912024,1034.137027245464
649,35.24484492261042,123.09473136359989,-10.864736224982238,-855.7933345003157,412.7607600823965,-263.55199810461363,133.4258557210606,1016.4538387662817
650,33.454388347523384,125.27011069194567,-5.657896748159681,-840.1782111407598,444.05772260083506,-272.9589013478927,133.5704585458907,997.1423513135848
651,30.571051712491236,125.38918703184305,-1.43605302161906,-824.5981251453501,471.24615607380895,-283.11160462669324,134.1404782563013,976.3641963900278
652,26.630563030060443,123.67508886698722,1.8256400421795997,-809.2482491950265,493.8932427893618,-293.8691508026748,134.88067039354098,954.2875049416632
653,21.69639056887237,120.36308292607012,4.174239379117592,-794.2279006707271,511.6169968383884,-305.02748754396424,135.55380494659232,931.0884107459088
654,15.858010166485691,115.69551052420799,5.676379557100661,-779.5355086459019,524.0944392393263,-316.32899568772444,135.9459533540112,906.95383883061
655,9.228338181347585,109.91653974077204,6.415113359332373,-765.0671875306732,531.0693678375105,-327.4741084599371,135.87098457119714,882.0853328230634
656,1.940447320474405,103.26683555992544,6.486350634509905,-750.6189828809195,532.3594686377064,-338.13438392549307,135.17426066767808,856.7035120991364
657,-5.856280371892711,95.97826375320908,5.995020730722427,-735.8927086517502,527.8624770575695,-347.96634519713007,133.73554660944225,831.052633247003
658,-14.000383314093488,88.26875149545437,5.051083759253946,-720.5051744143617,517.5610992830154,-356.62540308126177,131.47116064778143,805.4046817025741
659,-22.32274249426954,80.3374290743226,3.76551572069662,-704.0005045595796,501.52644047525354,-363.7792245642264,128.33539250759702,780.0624386867213
660,-30.651011285081456,72.36017336607672,2.246390956796064,-685.8651716526824,479.9197468283108,-369.11999918479626,124.3212106711838,755.3610409709977
661,-38.81388804448458,64.48566590082248,0.5951804945597016,-665.5452980732199,452.99233995442705,-372.3751674399107,119.460272981964,731.6676566083612
662,-46.64509551625149,56.83206734726864,-1.0966241739894123,-642.4657242746954,421.0836939400445,-373.3162932167491,113.82225060587716,709.379020847023
663,-53.98696449654028,49.48439715021094,-2.7504650332486427,-616.0503001697952,384.6176701397666,-371.76587329531634,107.5134754578805,688.9167004686143
664,-60.69355324390442,42.49269265217674,-4.303167901148678,-585.7428279158145,344.0969790722577,-367.6019759409844,100.6749248656178,670.7200747018162
665,-66.63326578319129,35.871006651385535,-5.708825462968671,-551.0280678618373,300.09598309026677,-360.7606876837472,93.47956310830887,655.2371341107688
666,-71.69095984864637,29.597286022083622,-6.940067927716617,-511.4522136506732,253.2519898623525,-351.2364250898257,86.12906634433398,642.9133056202861
667,-75.76955804573926,23.614156868971037,-7.988694975469397,-466.6422482715511,204.2552162225205,-339.08023889545376,78.84996469531553,634.1786126133604
668,-78.79119379056873,17.830623921221765,-8.86566043155078,-416.3236118339332,153.83762358229308,-324.39630184325887,71.88924266841005,629.4335727985917
669,-80.69793665153861,12.124673522106473,-9.600417344711019,-360.3356450260153,102.76083777348978,-307.33682791517873,65.50944654973303,629.0343206213877
670,-81.45214971904129,6.346750468010082,-10.23964585391191,-298.644319433223,51.803367159393964,-288.0957176003384,59.98335482300241,633.2775119385129
671,-81.03653457363312,0.3240590370097592,-10.845399861006953,-231.35182548252578,1.7473253712212897,-266.901259318947,55.5882752164462,642.3856226579019
672,-79.45391765681518,-6.134381958900063,-11.492721734033516,-158.7026581650019,-46.63514608339312,-244.0082389022764,52.60004005548789,656.4932857580635
673,-76.72682603228097,-13.232020972167984,-12.266787548517156,-81.0859177599789,-92.59556926544546,-219.68981493689066,51.28678062604377,675.635318406379
674,-72.89689158350674,-21.1785036657843,-13.2596588315838,0.9663728618096374,-135.4227517463178,-194.22950640366142,51.902571427876985,699.7370699992238
675,-68.02411173761726,-30.182981807039823,-14.566730051484976,86.7850402333607,-174.45614840446325,-167.91361025405655,54.681046308760735,728.6076715444563
676,-62.18598295673154,-40.44714971625627,-16.282973594017022,175.57362606684458,-209.098755278795,-141.02432159103606,59.82909990821665,761.9366861112804
677,-55.47651138271261,-52.15817215204252,-18.499095154170796,266.42224132788357,-238.82930278481768,-113.83377043711698,67.5207987111299,799.2945486045775
678,-48.00509367845517,-65.48167944744016,-21.29772187540437,358.3251850285842,-263.21348747317955,-86.59912038478436,77.8916352239405,840.1370420451562
679,-39.89525057660241,-80.55501364928821,-24.749752378711694,450.20197796966977,-281.913955415334,-59.558800540112166,91.0332651604717,883.8138908190077
680,-31.28318634572278,-97.4809129459469,-28.91100065904045,540.9213283653114,-294.6987307497998,-32.92986865185252,106.98887010959322,929.5813653492056
681,-22.31614013453995,-116.32182060644014,-33.81926312604835,629.3274104355577,-301.44777303011153,-6.906435959929203,125.74928666471799,976.6185956495435
682,-13.150491196796912,-137.094998963846,-39.49192872849426,714.2677085945941,-302.1573494843288,18.340971532842495,147.25003796612958,1024.0470951287652
683,-3.949580710738827,-159.76861872927537,-45.92423587732782,794.6215730984751,-296.9419272887555,42.66528067244103,171.36939596709897,1070.9528181054625
684,5.118780704083868,-184.2589792289233,-53.088257540092975,869.3285624421488,-286.03333246288656,65.942154475467,197.927592915008,1116.4099350012698
685,13.885138429450082,-210.42899611146785,-60.93266913912028,937.4156231965593,-269.77699147307254,88.0688802640721,226.68728788719153,1159.505424431067
686,22.18155347862104,-238.0880697512969,-69.38332481454646,998.0221816457116,-248.6251708391993,108.96303557164075,257.35537728181185,1199.3635576549514
687,29.845075871824434,-266.99341996824967,-78.34463769911156,1050.4222883881064,-223.12725560714725,128.5610717533614,289.5862155070441,1235.1693829373366
688,36.72148609528264,-296.8529406811561,-87.7017295403259,1094.043056738192,-193.91725167254705,146.8169073367865,322.9862829188472,1266.1903918802677
689,42.66923078988988,-327.32959163178816,-97.32328410943283,1128.478756906417,-161.69884812292028,163.70056394554877,357.1203021095531,1291.7956503751566
690,47.56344877407742,-358.047303315247,-107.06500771507751,1153.5000620537517,-127.22851801756386,179.19681410381483,391.51876091536843,1311.4717889486692
691,51.29995375121421,-388.5983253826232,-116.77357094482983,1169.0580850500785,-91.2972478538595,193.30375371968597,425.68675090892776,1324.835361316893
692,53.79901361899036,-418.5518974563134,-126.29088233401056,1175.2829941788737,-54.71154368899502,206.03117655974484,459.11397412752945,1331.6411924623092
693,55.00874657117279,-447.46406480300226,-135.45853051550225,1172.4771517135362,-18.274350002524034,217.3986252032212,491.2857104767612,1331.7864520061664
694,54.90794424366152,-474.8884019523431,-144.12222744677769,1161.102884773731,17.233559448541858,227.43302578600174,521.6944776965414,1325.3103147501479
695,53.50813425028283,-500.3873490805173,-152.13608967003253,1141.7651824206068,51.07127392105724,236.16587379664819,549.8520596973075,1312.3892197388654
696,50.85470974748223,-523.5438127391785,-159.3666045887367,1115.189826743876,82.5541896593094,243.63000949116918,575.3015313200409,1293.3279189429963
697,47.02698243816303,-543.9726374695426,-165.69614312248544,1082.1977096623446,111.06895556761332,249.85609030642792,597.6288711261782,1268.5467126575172
698,42.13705730716074,-561.3315217556762,-171.02589937469781,1043.6763462973393,136.0867101767606,254.86892838668706,616.4737323611739,1238.5654840116101
699,36.32748118493584,-575.3309370955678,-175.2781637530253,1000.5498409056258,157.17440749113143,258.6839140820291,631.5389417225828,1203.9853416844626
700,29.767680634011853,-585.7426218931118,-178.39786968698175,953.7487543762977,174.00402423837357,261.303788848979,642.5983238607886,1165.4688222413954
701,22.649274162512206,-592.4062704990532,-180.35339462253964,904.1814200281873,186.3594378678441,262.7160554306405,649.5025126046219,1123.719654409397
702,15.18041454725274,-595.2341231339116,-181.1366381179235,852.7082156869217,194.14077260520583,262.89131003118314,652.182506179651,1079.463026847716
703,7.579382304925065,-594.2132757892048,-180.76243587515813,800.1201010237077,197.3660379307195,261.78274432637517,650.650841990117,1033.4271472624314
704,0.06770285682542072,-589.4056551102846,-179.2673926203523,747.1223809979405,196.16993743744572,259.3269928529495,645.000390429991,986.3266882995418
705,-7.136909196829353,-580.945725877537,-176.70822767213576,694.324210372773,190.79980745847942,255.44639775941573,635.4008816663246,938.8485350738612
706,-13.827467481363797,-569.0361054777613,-173.15972704833112,642.2338877893511,181.60874508042616,250.05264121162787,622.093374070438,891.6400921435319
707,-19.81419490412782,-553.9413423020225,-168.71238881322415,591.2595742602489,169.04608823391848,243.05157610861943,605.3829423480219,845.3002559518899
708,-24.93030072167347,-535.9801697494684,-163.46983838583117,541.7147537389302,153.645501952849,234.3489875426199,585.6299065902003,800.3729998669344
709,-29.036830254808077,-515.5165761507438,-157.54608160179677,493.82754072960915,136.01099730798978,223.85695278859893,563.2399442909567,757.3433643492682
710,-32.026418843152186,-492.95003890513885,-151.06265788729806,447.752819040371,116.80126239250025,211.50044033909867,538.6534324421176,716.6355180191007
711,-33.82584301539141,-468.7052647987013,-144.14575471729924,403.5861505496161,96.71272030337887,197.22379563989526,512.3343622786429,678.6124737903613
712,-34.397324470131935,-443.22176285430584,-136.92334659612294,361.3784100322883,76.4617496816441,180.99679510969213,484.75915859633136,643.5770117485158
713,-33.738601243747006,-416.9435541611287,-129.52242435501068,321.1501706700651,56.766511762046335,162.82000083949308,456.40571936772,611.7733713175631
714,-31.88183144754257,-390.30929633976103,-122.06638028574544,282.9049761647911,38.32882804493437,142.72920599299832,427.7429686185341,583.3893211102637
715,-28.89143591251146,-363.7430691867238,-114.67260973391012,246.64078400719362,21.816548909789326,120.79881661813643,399.221185365484,558.5582891903224
716,-24.861016527208864,-337.6460330101292,-107.45038092443141,212.35904608624992,7.846847578983638,97.14406318436292,371.2633342495054,537.3613339864831
717,-19.909508070611302,-312.38913283155176,-100.499014010432,180.0710992229668,-3.029136190432264,71.92197229945421,344.2575808319672,519.8288486669318
718,-14.176734753131656,-288.30698081178525,-93.90639934710221,149.80175441556355,-10.339896619687433,45.3310573511138,318.55112818266747,505.94200595831046
719,-7.818550098158329,-265.6930068334151,-87.74787446222753,121.59017989618381,-13.705030705314522,17.60971074555655,294.4454628968672,495.63404923641906
720,-1.001741025476212,-244.79592411321795,-82.08546884981212,95.4883502704095,-12.844243598119755,-10.966694492994412,272.19304925361047,488.79160417368746
721,6.10112603468894,-225.8175142573799,-76.96751483545268,71.55746876273902,-7.583619277659158,-40.08995494479132,251.99546123641608,485.256216202835
722,13.316748099921488,-208.91169577056684,-72.42861102842444,49.862858048053894,2.1410361281476504,-69.42436057088464,234.0028955189626,484.82631598043014
723,20.475864173360424,-194.18480317180408,-68.48991307513214,30.467861872480967,16.283874809920725,-98.61306705806302,218.31496679783643,487.2597877651292
724,27.41763739631895,-181.69697190618592,-65.15971622115067,13.427312508998583,34.691699836290134,-127.28534249233279,204.98265252609022,492.27727278230026
725,33.993534745794356,-171.46449822396985,-62.434287042155745,-1.2188962659616112,57.10954783430588,-155.0644691164754,194.011228679789,499.5662852916954
726,40.070625764321676,-163.46302371562328,-60.298898100659216,-13.451632823660917,83.18893753523137,-181.5760466956228,185.36402173835057,508.78615630865556
727,45.53424848403498,-157.63138138260518,-58.72901882470318,-23.277318398818124,112.49847292602627,-206.456424971321,178.96679365472497,519.5737553276907
728,50.29001496822804,-153.87593392865182,-57.69161786572163,-30.731348433422095,144.53642154021895,-229.36099033156225,174.71257523116387,531.5498832427935
729,54.26515030902006,-152.07523532501,-57.14653582201708,-35.87992138131702,178.7448396267922,-249.97204490924207,172.46676839037056,544.3261872500859
730,57.409177621521465,-152.08485351802744,-57.04789165280103,-38.820177865432285,214.5247854580804,-268.0060418546874,172.07234888476987,557.5124228256908
731,59.693977701399874,-153.74220495072223,-57.345490458250296,-39.67868274830551,251.25214791981364,-283.21997507503323,173.35501728288224,570.7238758221445
732,61.11326555917059,-156.87126937613027,-57.98620399908001,-38.60840554347079,288.29361756907275,-295.41676204288444,176.12816647436634,583.5887535576046
733,61.681537017051284,-161.28707479436798,-58.91529839891216,-35.78445997217926,325.0223396544257,-304.44950121741664,180.19755707112012,595.7553517660278
734,61.43254707218966,-166.79986558453774,-60.077686340805855,-31.3989420691159,360.83281195866147,-310.2245282129381,185.36561653777258,606.8988012879465
735,60.41738799724005,-173.2188904558204,-61.419084152721794,-25.65525185429541,395.154624347741,-312.7032346368063,191.43530234004433,616.7271953143329
736,58.70223941922828,-180.35576939283595,-62.88705766467523,-18.76229383639985,427.46468187687685,-311.90264889855285,198.21349270444264,624.9868993636187
737,56.36586518473494,-188.02741927041671,-64.43194461770854,-10.928927835817136,457.29760984851123,-307.89480857405005,205.5138897917892,631.4668579918709
738,53.496932977744436,-196.05853548438725,-66.00764556451686,-2.3589886529284296,484.2541075805941,-300.80497911904433,213.159438460629,636.0017392567418
739,50.191232643466854,-204.283641357168,-67.57227925519459,6.752881030858596,508.007096584926,-290.80879427122704,220.98427883437265,638.473801339207
740,46.54886817690577,-212.54872821075514,-69.08870191616721,16.22442554214629,528.3055949426284,-278.12840988839463,228.8352624077967,638.8134223948549
741,42.671496500964324,-220.7125171215087,-70.5248921531966,25.887927087333107,544.9763376695604,-263.0277758905819,236.57306954676696,636.9982987040705
742,38.6596834199773,-228.64737877042631,-71.85420427855802,35.591322521693414,557.9232469130872,-245.80714124853046,244.07297116188283,633.051380839317
743,34.610443061974685,-236.239950682961,-73.05549290568487,45.19836766221515,567.1249304771333,-226.79691548909545,251.2252792992148,627.0376769299338
744,30.615021102618638,-243.39149172964443,-74.11311130915301,54.58798974091462,572.6304481261946,-206.35101760535764,257.93553076688187,619.0601014828146
745,26.75697374003967,-250.0180123175611,-75.01678617219467,63.65301264728462,574.5536294362222,-184.83984968798532,264.124445289183,609.2545841374177
746,23.11058392361006,-256.0502155550933,-75.76137259440256,72.2984669073068,573.0662529311992,-162.6430376609864,269.72769567645895,597.7846728024092
747,19.739644271257603,-261.4332801773202,-76.34649572279747,80.43970563190598,568.3904032887158,-140.14208466945533,274.6955226367113,584.8358686698141
748,16.696623109181676,-266.12651065999967,-76.77608872232675,88.00053895035606,560.7903124987531,-117.71308364125377,278.99222156669725,570.6099172967748
749,14.022216817991573,-270.1028742923586,-77.05784049183119,94.91157454172739,550.5639651130568,-95.71963435284287,282.5955233471596,555.3192532177568
750,11.745278780387071,-273.34843951083116,-77.20257013100574,101.10891440017588,538.0347120650098,-74.5061069982586,285.4958861498095,539.1817600521478
751,9.883103133731376,-275.8617248538408,-77.2235483310084,106.53331259373323,523.5430974935507,-54.39138863086001,287.69571073772937,522.4159688335575
752,8.44203053064867,-277.6529637644931,-77.13578830008811,111.12985015654922,507.439063277928,-35.66324063406155,289.2084878672291,505.23677851922923
753,7.418333481228698,-278.7432874603336,-76.9553303752448,114.84813526216443,490.0746597810443,-18.573384179987304,290.05788341523817,487.85174728070376
754,6.799330890591768,-279.1638264734047,-76.69854512099883,117.64299246220939,471.79736029918973,-3.333415951655753,290.27676501314505,470.4579730082012
755,6.564675415131504,-278.9547313257678,-76.38147956549375,119.47556642055004,452.94405125906434,9.888362115970592,289.9061733816592,453.2395572265878
756,6.6877535955422305,-278.1641140837175,-76.01927022906989,120.31473505206199,433.8357493915738,20.969137486340937,288.9942421930466,436.36562805193455
757,7.137137790149742,-276.8469151028206,-75.625644457393,120.1387054881766,414.77307927501033,29.83276935731633,287.5950719930573,419.9888839327411
758,7.878030965586685,-275.06370287243266,-75.21252788369964,118.93665455453889,396.0325282079012,36.449948108359294,285.767566205719,404.24460978008113
759,8.8736502801523,-272.8794190202378,-74.78977051655225,116.71027394872745,377.863479645548,40.83734710306475,283.5742400912702,389.2501105158327
760,10.08650269238633,-270.3620847208206,-74.36499741916606,113.47508913620356,360.4860117076076,43.055806374319744,281.0800163470409,375.1045046147635
761,11.47951494196005,-267.58148857633114,-73.94358299322802,109.26143911471459,344.0894342956284,43.207609774812326,278.3510236107695,361.88882234477745
762,13.016990448787364,-264.6078791784085,-73.52874117757545,104.11502908856507,328.8315277047477,41.4329367684466,275.4534162229254,349.66635961784385
763,14.665376187998486,-261.51068761668756,-73.12171777342807,98.09699638082336,314.838437295037,37.905587185540035,272.4522348435127,338.48324712217254
764,16.393832768547217,-258.3573057962945,-72.72206589284887,91.28345869183933,302.20517231977897,32.82809208823278,269.4103275400719,328.36920377698937
765,18.17461028976502,-255.2119454797666,-72.32798167511574,83.76454134752511,290.9966515673405,26.42633651218459,266.38734976015763,319.3384517552005
766,19.983240713236672,-252.1346007304158,-71.93667542393688,75.64290568307068,281.24923322503577,18.943830201065847,263.4388595195713,311.39077599728995
767,21.798564196025175,-249.1801333004455,-71.54475334800317,67.03182375668698,272.97266093789835,10.635770122936185,260.61552159970023,304.51271355061084
768,23.60261192468304,-246.39749684637997,-71.14858694903752,58.052864664177505,266.1523527254276,1.763042835381884,257.9624318775205,298.67885718485365
769,25.380371426118316,-243.82911196097265,-70.74465045795844,48.83327404620112,260.75195499837565,-7.413685159520732,255.51857032745843,293.8532541021719
770,27.119462165750953,-241.51040010533922,-70.32981115955037,39.50314007702673,256.71608118581526,-16.639645655308428,253.31638884971144,289.99087510952324
771,28.809749608674615,-239.46948073278762,-69.90156245870736,30.19244569469572,253.9731540665985,-25.671281811128647,251.3815378754176,287.0391235921479
772,30.442924996977098,-237.72703220589855,-69.45819453381623,21.028108000884323,252.4382732062387,-34.2810764768137,249.7327334922888,284.93934844043065
773,32.01207608770727,-236.29631341770656,-68.99890183422737,12.131102111419942,252.01603404703195,-42.26179425295209,248.38176436056352,283.6283220191252
774,33.51127126662965,-235.18333931417615,-68.52383017731724,3.613759188401483,252.60323291332517,-49.430056929295155,247.33363483921752,283.03964410890296
775,34.93517615469901,-234.38719994013167,-68.03406874698095,-4.422681961233955,254.09140182822762,-55.629195371627134,246.58683768608734,283.1050355909899
