time,ax,ay,az,gx,gy,gz,accmagnitude,gccmagnitude
0,14.136750386592505,-245.07354174894039,-21.510002724470926,56.95857868231825,-0.32687684244216747,-16.66683523369856,246.43639431715283,59.50992813560036
1,14.24701209327025,-245.16742640157406,-21.16220639422937,55.9415633248988,-0.9256945048076173,-16.144191738947082,246.51278502581962,58.39214936391799
2,14.34718734951666,-245.25788940502224,-20.846601240205494,54.90608662633777,-1.5500998107477617,-15.599606140254007,246.5871347791081,57.24273484461875
3,14.437708042136693,-245.34540013342902,-20.563266037549123,53.85407883875594,-2.194722840546386,-15.035773480980165,246.65995824584562,56.06407562504669
4,14.519096567709383,-245.43044198116942,-20.311983479796893,52.78720645396676,-2.853625733852339,-14.455503179549513,246.73177053474748,54.8586053373288
5,14.591941028684833,-245.51349287891549,-20.09226612139902,51.70686922621984,-3.520335489643076,-13.861691821966055,246.80306766618864,53.62882176906111
6,14.65687360417039,-245.59500682959438,-19.903382782467236,50.61421199758834,-4.187874109143642,-13.257302317724712,246.87430831677827,52.377319577540746
7,14.714553036783567,-245.6753972695656,-19.744384778714313,49.51015154611668,-4.848785952376186,-12.645350084087559,246.9458976606748,51.10683335263463
8,14.76565169166109,-245.75502309466594,-19.614131214555858,48.39541811156332,-5.495163117372393,-12.028896433340847,247.01817412362632,49.82028962792217
9,14.810847038012994,-245.83417811856648,-19.511312388218844,47.27061060626453,-6.1186705719319745,-11.411048718147192,247.0913997386034,48.520865764445844
10,14.850816774669005,-245.91308463369737,-19.434470310750942,46.13626382641638,-6.710573637169233,-10.794966138154717,247.1657546500178,47.21205294712791
11,14.886236296718781,-245.99189155998283,-19.38201568244164,44.99292528455854,-7.261771167558036,-10.183869510405918,247.24133612218085,45.897719896946086
12,14.917776922904114,-246.0706773028381,-19.352241392527024,43.841238666379326,-7.7628383066720135,-9.58105281588482,247.31816208372493,44.58217339374126
13,14.946103369304293,-246.14945695103944,-19.343333403553594,42.68203049718896,-8.204082931472424,-8.989894002357252,247.3961788144507,43.270211443706515
14,14.971869288025635,-246.22819293916666,-19.353380446307987,41.51639649214678,-8.575619748665723,-8.413862373829161,247.47527193612868,41.9671650090619
15,14.995710073939968,-246.3068078416893,-19.380384187321273,40.34578426440242,-8.867465447109767,-7.856519943756338,247.55527944704306,40.6789246468055
16,15.018232454369137,-246.38519765213013,-19.422271430123477,39.172069473820954,-9.069657399220135,-7.321514422422326,247.63600523128468,39.4119490935902
17,15.040000690793121,-246.46324389301728,-19.476909451110952,37.9976229832286,-9.17239723802143,-6.812562125187285,247.7172314466529,38.1732536805144
18,15.061519636284414,-246.5408232520796,-19.54212485732166,36.82536702190178,-9.166219277999375,-6.3334200483588186,247.79872851872403,36.970377348589885
19,15.083215368436864,-246.6178139840249,-19.61572571140356,35.65881858744111,-9.042182218423257,-5.887847560501303,247.88026200096274,35.81132778946407
20,15.10541453929766,-246.69409883751814,-19.695526362376913,34.502118211320834,-8.79208088926602,-5.479559378690811,247.96159609074815,34.704504666700345
21,15.128323860276689,-246.769564666635,-19.77937436957749,33.36004176299482,-8.408673047865292,-5.112172475599911,248.04249400560255,33.658600910212165
22,15.1520112242216,-246.84409916086807,-19.8651788763591,32.23799233921907,-7.885914573520895,-4.789150091783548,248.122715698526,32.682481849231756
23,15.176389879386853,-246.91758526320308,-19.950939711806104,31.14196874177372,-7.21919505659715,-4.513746051345907,248.20201351094914,31.785041727276386
24,15.201206907890441,-246.98989380975289,-20.03477646176693,30.078506847554266,-6.405564916526467,-4.2889521829032065,248.28012630932676,30.97503722060725
25,15.226037121370945,-247.06087474667822,-20.114956816711146,29.054590520372628,-5.4439448856666415,-4.117450972084586,248.35677246801163,30.260898187952638
26,15.250283378998464,-247.1303470964034,-20.189923612116388,28.077529701972285,-4.335308935735078,-4.00157472520448,248.4316418777704,29.65051710775175
27,15.273184166299849,-247.19808781040103,-20.258319993337825,27.154804918635183,-3.0828323834118554,-3.9432715928541127,248.50438711391416,29.151020438775532
28,15.293828932523764,-247.2638198179283,-20.319012001523934,26.29387950296639,-1.6919978343741513,-3.94407792994976,248.57461403670203,28.768527273136417
29,15.311181175440712,-247.32719992128753,-20.37110766943981,25.501983139847063,-0.17065268297784658,-4.005095836939364,248.6418723894434,28.507902880156998
30,15.324108756566597,-247.38780760042923,-20.413971580705322,24.78587265529018,1.4709869983871406,-4.126974436757452,248.7056473313169,28.37251679323451
31,15.331420589284733,-247.4451361206093,-20.44723389573335,24.1515780475458,3.2203901952460514,-4.309893469248185,248.76535315874312,28.364016720218626
32,15.331908646038835,-247.49858746055676,-20.47079307948815,23.604143423237687,5.062825093785267,-4.5535480481628925,248.8203306029321,28.48213056324171
33,15.324394044540917,-247.5474724710924,-20.484811856637087,23.147373598102696,6.981534994630515,-4.8571338440889225,248.86984899885488,28.724509065714273
34,15.30777572634952,-247.5910173393888,-20.489706163200097,22.78359755017265,8.957975679604624,-5.219332436374833,248.9131142938867,29.086620952165624
35,15.281079968728855,-247.6283768630403,-20.486127088950617,22.513459652830807,10.972111952801654,-5.638297013039958,248.9492832994863,29.561710854501726
36,15.243508745608125,-247.6586543368149,-20.474936115234627,22.33574873685884,13.0027689026973,-6.111638930299871,248.97748390583956,30.140827900988008
37,15.19448482728101,-247.68092726653379,-20.457174382960822,22.24727365530302,15.028031180167757,-6.636415879752441,248.9968404249949,30.812929750676677
38,15.133691491959501,-247.69427779082878,-20.434027175593602,22.242792274338303,17.02568142688443,-7.209122538396875,249.00650293517054,31.565063288945858
39,15.061104819155883,-247.6978265045273,-20.406785116202375,22.314998798422668,18.973667073603774,-7.825684512967521,249.00567934667367,32.382619379089505
40,14.977016769733062,-247.69076816463007,-20.37680367636153,22.454572177898804,20.85058321286378,-8.481456118217867,248.9936687213745,33.249655286858456
41,14.882047638970981,-247.672407500739,-20.345462521589848,22.650286156144883,22.636158311355736,-9.171222213604294,248.96989413683514,34.149275035898555
42,14.777146964673742,-247.64219314833167,-20.31412606925659,22.889179348833604,24.311729281549702,-9.889204159870586,248.93393320097138,35.06405530336605
43,14.663582539414644,-247.59974768657122,-20.284106456138844,23.156781612593033,25.860692835192193,-10.629069944731807,248.88554430621315,35.97650257809681
44,14.542917756877006,-247.54489195963592,-20.256629884507813,23.43739089446225,27.26892092513093,-11.383948513754401,248.82468692582896,36.869526081716955
45,14.41697800901184,-247.47766225484372,-20.232807025021035,23.714392893983145,28.525129303742062,-12.146448246852488,248.75153465389153,37.72691035945127
46,14.287807149879074,-247.3983193667042,-20.21360781212388,23.970614396618295,29.62118972515934,-12.908679396907138,248.6664801329087,38.533771544391634
47,14.15761519499052,-247.30734902292517,-20.19984059325901,24.188700190206827,30.552378035336417,-13.662280260157624,248.5701314330274,39.27698212630592
48,14.028718577081005,-247.20545367777046,-20.192135297894676,24.35150311850937,31.31755220846829,-14.398446961063009,248.46329995397957,39.94555055092074
49,13.903474528077894,-247.09353637848292,-20.190930263288195,24.442477022319697,31.919256160796635,-15.107967020794959,248.34698062547236,40.530943983951204
50,13.784211511133943,-246.97267816995884,-20.196462626115345,24.44606291218008,32.363746799018784,-15.7812572665549,248.2223259747459,41.02734487600421
51,13.673158040651176,-246.8441110682042,-20.208762570766158,24.3480594641411,32.66094317019817,-16.408407025952766,248.0906162400605,41.43183430826174
52,13.57237255309122,-246.70918881407536,-20.227652024147957,24.135969610471314,32.82429774757154,-16.979227866925424,247.95322792267294,41.744497288604286
53,13.483676993117585,-246.56935738526084,-20.252748549357253,23.799315513804526,32.870590878059005,-17.48331135807699,247.81160294108767,41.96844715783387
54,13.40859635741523,-246.42612670127238,-20.283475199402886,23.32991462482721,32.81965037437549,-17.910096434473996,247.66721997829447,42.10976816302803
55,13.348305743900704,-246.28104429905554,-20.319076894767882,22.722109995949765,32.69399927046995,-18.248947986146455,247.52156889440462,42.17737721277591
56,13.303585714276668,-246.13567121178934,-20.358643453141863,21.972948707625747,32.51843589039073,-18.489248263609248,247.3761284484646,42.182807916444425
57,13.274786103360064,-245.99155997303998,-20.401138754782863,21.08230318555361,32.319551569607434,-18.620502587370424,247.2323471646569,42.13992216703565
58,13.261797817874356,-245.85023450120545,-20.445434747159783,20.05293124044342,32.12519259106929,-18.632460582753993,247.09162690608827,42.06455662018568
59,13.264031719780279,-245.7131714000651,-20.49034822760881,18.890471699792005,31.963874164014065,-18.515253668999993,246.95530840667945,41.97411332129428
60,13.28040354975924,-245.581781860864,-20.53467784736957,17.603373439978572,31.864155604316586,-18.25954877894935,246.82465761156612,41.88710537047005
61,13.309324166823261,-245.45739295903329,-20.577238768375068,16.202756492708424,31.853987285189323,-17.85671728128812,246.7008513048637,41.82266989208487
62,13.348695067586418,-245.34122688144467,-20.616892855761314,14.702204767141227,31.960041376098946,-17.29901687495151,246.5849603278353,41.80006169435115
63,13.395909866771513,-245.23437667011754,-20.65257300236459,13.117490833793976,32.207039741214196,-16.57978291749486,246.47792884242327,41.83814178608606
64,13.447862897493765,-245.13777750733306,-20.68330094180615,11.466234164733747,32.617093447552094,-15.693624358595981,246.3805486215705,41.95487524437776
65,13.500966322695037,-245.05217337342737,-20.708198551396066,9.767495282076826,33.209069023027894,-14.636618325663251,246.29342821481427,42.16685277163259
66,13.551177284182508,-244.97807997458776,-20.726493126045998,8.041309590923591,33.99799688780122,-13.406496617655074,246.21695794471754,42.488849748056936
67,13.594036740070571,-244.9157459616,-20.737517503554514,6.308166438852717,34.99453728452855,-12.002817048479693,246.15127284931208,42.93343581807642
68,13.624721679835206,-244.86511542448565,-20.740706283060405,4.588441242747559,36.20451858835775,-10.427112796254788,246.0962166820491,43.51064712264567
69,13.63811216116991,-244.8257953202091,-20.735589579197086,2.9017913181039057,37.62856209516079,-8.683013608210883,246.0513107617141,44.22773216251974
70,13.628873944325615,-244.79703176827638,-20.721785643897327,1.2665291813984447,39.26180618960458,-6.776333791647189,246.01573170851947,45.088980778055344
71,13.591556495898315,-244.77769891885217,-20.69899325534711,-0.3010096926318377,41.093741037608716,-4.715123306561534,245.98830180050456,46.0956436096622
72,13.52070506473327,-244.76630336748207,-20.66698414582487,-1.7870847463997792,43.10816256677402,-2.509679855729137,245.96749486749692,47.24594647995333
73,13.41098463100866,-244.76100604683748,-20.625595107113522,-3.1811316623225494,45.283251634189504,-0.1725214643429389,245.95145952077058,48.53520045942914
74,13.25731287044772,-244.75966238751855,-20.57471897431221,-4.476283656033536,47.59178122636467,2.2816795462483084,245.93806033255396,49.95600424807045
75,13.054998829826124,-244.7598804270741,-20.51429359086375,-5.669809184107543,50.001451572873094,4.8361991930896995,245.92493646160136,51.49853137903208
76,12.799883713541773,-244.75909551062608,-20.444288089652932,-6.763443750828283,52.475350336279114,7.4723983511537515,245.90957621656895,53.150891058211734
77,12.488479951403331,-244.7546593112586,-20.36468619340189,-7.763596019203017,54.9725325825986,10.169890052451827,245.88940517944545,54.89954848648465
78,12.118104469824612,-244.7439401228618,-20.275466535370924,-8.681412091502471,57.44871297875426,12.90673432153709,245.86188477292507,56.72978840273222
79,11.687001781537464,-244.72443072862987,-20.176580227736604,-9.532686447279383,59.85706050213099,15.659657267695884,245.82461753232602,58.62620432822766
80,11.194452225690608,-244.69385964591845,-20.0679262033985,-10.337613425740086,62.14908371989097,18.404291119570214,245.7754548713941,60.57319544870482
81,10.640860620960101,-244.65030126468727,-19.949325257472704,-11.120379106582506,64.27559221948745,21.115431846096058,245.71260289466338,62.555453028013666
82,10.02782084924538,-244.59228036404795,-19.820494094417462,-11.90859972860831,66.18771697472863,23.767311010386738,245.6347218322859,64.55841854916032
83,9.358152403788221,-244.51886667004044,-19.681020975672084,-12.732619095549587,67.83796943857716,26.333878617010956,245.54101490713924,66.56869640599146
84,8.635905640191206,-244.42975547344827,-19.530344836706647,-13.624683447260253,69.1813162412728,28.78909398413244,245.43130285643613,68.57440501739754
85,7.86633339174348,-244.3253308610114,-19.36774008033004,-14.61801771233224,70.17624387339981,31.107222118911345,245.3060809296372,70.56545184781778
86,7.055827742717977,-244.20670881291667,-19.19230960590265,-15.745831560763689,70.78578594922833,33.26313369188584,245.1665559516637,72.53372010309764
87,6.211821931779128,-244.07575822327607,-19.00298885715235,-17.040286855952495,70.97848477976555,35.23260740667396,245.0146618950028,74.47315782909871
88,5.342658417711669,-243.93509870517622,-18.798563589311176,-18.531459614200852,70.72925915619585,36.992634110389545,244.85305322313772,76.37976366540389
89,4.4574251105322915,-243.78807470905514,-18.577703501622516,-20.246329249422033,70.02015153083309,38.52172208141016,244.68507590287757,78.25146746757004
90,3.5657628178450307,-243.63870591761219,-18.339012789630292,-22.20782584307594,68.84093018178986,39.80020235599566,244.51471634357807,80.08790827338473
91,2.6776481767023155,-243.49161415426113,-18.081097179338062,-24.433962839103636,67.18952529604128,40.810531673136595,244.3465286928848,81.8901164364488
92,1.8031576679013033,-243.35192734855244,-17.80264542272983,-26.937078435099,65.07228188597394,41.53758873275286,244.1855411126678,83.66011085833038
93,0.9522195379504731,-243.22516155355692,-17.502521881001524,-29.72320450951935,62.50401670885465,41.96895722567638,244.0371420018028,85.40042578560033
94,0.13436135656930692,-243.11708257520044,-17.17986583587639,-32.791577618878435,59.50787066802661,42.09518688538376,243.90694759611358,87.11358444913718
95,-0.6415385707357645,-243.03354940970848,-16.834192495960984,-36.13430278904724,56.11495260195462,41.910022053666864,243.80065291485622,88.80153906396252
96,-1.3674875544510734,-242.9803424235789,-16.465490244205004,-39.736177756364405,52.363775199670236,41.41058630275483,243.7238686708196,90.46509873587055
97,-2.0365943496085155,-242.96298006502604,-16.074308563736782,-43.57468299793651,48.29948927975028,40.59751175024319,243.68194754317759,92.10336890758599
98,-2.64325655188093,-242.98652875799675,-15.661831408755543,-47.62014105039133,43.972928861953335,39.47500294107688,243.6798040348571,93.71322807502312
99,-3.1833123503217835,-243.0554113388239,-15.229931616256318,-51.83604677351437,39.43948614247484,38.050827502519724,243.72173284690797,95.28886923834624
100,-3.654150350710787,-243.17321991353955,-14.781203151782039,-56.17956786996835,34.757842353774215,36.336228985039504,243.81123125443725,96.82143436777756
101,-4.054772182110123,-243.34253944228337,-14.318969248750612,-60.602211761462286,29.988587228261938,34.34576105226427,243.95083144032495,98.2987694841572
102,-4.385803685823181,-243.56478875011996,-13.847265645256066,-65.05065068891739,25.192766034127615,32.09704616062493,244.14194917721147,99.70532529289832
103,-4.649451899893808,-243.84008589523424,-13.370799239955355,-69.46769171261603,20.430398514025367,29.610465858130272,244.38475553713667,101.02222336493321
104,-4.8494069795052495,-244.16714468355454,-12.89488366969311,-73.79337241585672,15.759018168857004,26.908793672237483,244.67807825556142,102.22750060635983
105,-4.990690495136313,-244.54320849460547,-12.425354313433186,-77.96615705236343,11.232282891177412,24.016785027969654,245.01933885214385,103.29653551813666
106,-5.079453871996072,-244.96402655008325,-11.968465745553235,-81.92420229534008,6.898708670032242,20.960741398420218,245.4045306494412,104.20264919148981
107,-5.122732800662092,-245.4238764640789,-11.53077479238622,-85.60665737870436,2.8005766273043604,17.76806756566165,245.82824157347287,104.91786312166397
108,-5.128165161329737,-245.91563541374504,-11.119012466932853,-88.95496087772001,-1.026940301718511,14.466841196725689,246.28372413954875,105.41378598352124
109,-5.103681365194923,-246.43090050091465,-10.73994837583861,-91.91409598405195,-4.556391322402504,11.085412806840921,246.76301327986732,105.66259367405573
110,-5.057177064835974,-246.9601568297782,-10.400251621255114,-94.43376789172326,-7.768371786725979,7.652051590072846,247.25709064703753,105.63806199480197
111,-4.996178961497602,-247.49298962738223,-10.106352556501927,-96.46947058412499,-10.6515379628859,4.194648667786553,247.75609184561733,105.31660962339512
112,-4.92751497567084,-248.0183345666395,-9.864309853313603,-97.98341551637361,-13.202306113117176,0.7404843613382953,248.24955088045016,104.67831035691371
113,-4.857000378727984,-248.524758495694,-9.679687134627631,-98.94530092947781,-15.424243065798324,-2.683939341049093,248.72667414632394,103.70783747925829
114,-4.789151585137424,-249.00076119277279,-9.557442864384353,-99.3329072360382,-17.327169160449237,-6.053005313446301,249.1766346802895,102.3953087343553
115,-4.726939070808963,-249.4350876967002,-9.501836263742877,-99.13251054166139,-18.926007440389487,-9.342035848044594,249.58887630189983,100.73700694472207
116,-4.671590179786973,-249.817040357239,-9.51635094436679,-98.33911252286096,-20.239424546824004,-12.527308307265029,249.9534168302346,98.73595808486508
117,-4.622451315797102,-250.13678011507739,-9.603637022291679,-96.95649030640804,-21.28831826555529,-15.586047976777715,250.2611399075245,96.40235502245979
118,-4.576917174858307,-250.38560763170034,-9.765471819882393,-94.9970744644222,-22.09421356554116,-18.49641607837865,250.50406605574193,93.75382070421145
119,-4.530432347133381,-250.5562165525262,-10.002738777164168,-92.48166656601533,-22.677632964380283,-21.23751146674215,250.67559525241506,90.81550895375733
120,-4.476567954540485,-250.6429131202374,-10.315423764416677,-89.4390098078391,-23.05650816025767,-23.78940381919012,250.77071525147193,87.62004412400523
121,-4.40717314831852,-250.64179828929403,-10.702627566181508,-85.90522713636928,-23.24469829127884,-26.133214231634902,250.78617182248797,84.20730268202819
122,-4.312598374543911,-250.55091023114016,-11.162592851748807,-81.92314126346129,-23.25067623565278,-28.25125617707155,250.7205988380048,80.62404072131258
123,-4.181984425205273,-250.3703265030616,-11.692743470411434,-77.54149057483099,-23.076438405467407,-30.127245871512837,250.57460754295175,76.92337191802606
124,-4.003608604957126,-250.10222594951395,-12.289733596642199,-72.81405468634168,-22.716685835752884,-31.746586311682503,250.35083516764584,73.16410111328602
125,-3.765277080396466,-249.75091035688382,-12.949504391030517,-67.79870369950497,-22.15831524282529,-33.09672368294301,250.0539530539335,69.40991986941151
126,-3.4547507452446986,-249.3227850314974,-13.667346482322225,-62.55638624304573,-21.380248258841217,-34.16756864737482,249.69063369458053,65.7284721811443
127,-3.060190677364083,-248.8262963320387,-14.437967314224867,-57.1500732147352,-20.353615457927607,-34.95196854848119,249.2694750309992,62.19030105707491
128,-2.570608420780288,-248.27182341175705,-15.255562735963302,-51.64367656779448,-19.042299480093984,-35.446210323135105,248.8008796331644,58.8676897441139
129,-1.9763059292580298,-247.67152133787633,-16.11389200526268,-46.10096497283032,-17.40382909884609,-35.65052847050484,248.29688631249286,55.833414471644055
130,-1.2692901169181108,-247.0391133262437,-17.006354821505802,-40.58449995908581,-15.390604084017198,-35.56958832865119,247.77095227540832,53.15942815559672
131,-0.44364761901165445,-246.38963093779145,-17.926068366390854,-35.15461652032396,-12.951419753104846,-35.21291262836276,247.23768500698432,50.91549622450821
132,0.5041333894534022,-245.739102698036,-18.865941761537595,-29.868470779189536,-10.033250621664296,-34.59521922250671,246.71252465881153,49.16780680008292
133,1.5749056801390418,-245.10419378538327,-19.818744974411377,-24.77917405492886,-6.583244784261103,-33.73664019859457,246.21137987192594,47.97757839324607
134,2.766678961799681,-244.50180219123433,-20.77716912065091,-19.93502777283661,-2.5508745627459253,-32.662797085159426,245.75022270014654,47.39968954549683
135,4.074516188546005,-243.94861984062936,-21.733875424071524,-15.378867673550703,2.109815660098,-31.404713060340725,245.34465137502522,47.481356689978064
136,5.490514422128256,-243.46067014828043,-22.681530888984938,-11.147519752571359,7.437926904396917,-29.99855034182977,245.0094326522046,48.260888893357794
137,7.0038717527932794,-243.05283603123277,-23.612829961088327,-7.271365533040343,13.463453191899385,-28.485168688280698,244.75803805278306,49.76655082488534
138,8.601039066617396,-242.73839436142046,-24.520502855120384,-3.774011643802073,20.20512543550007,-26.909508666731277,244.60219028859404,52.01556787493412
139,10.265952932522596,-242.52857414335722,-25.397312538109016,-0.67205857096358,27.66841790636528,-25.319810633540815,244.55143743547305,55.01330926839765
140,11.980343637219137,-242.43215625520804,-26.23604345169223,2.025034536833445,35.84378226641315,-23.766686941582545,244.61277289959972,58.75268565134347
141,13.724110400140948,-242.45513235121805,-27.029485928585142,4.314988920174468,44.70517120909321,-22.302070543499546,244.7903188723144,63.21379633875141
142,15.475754022408289,-242.60043953499186,-27.770420923042217,6.202645701495982,54.2089090446098,-20.978067877531288,245.08508984148176,68.36385774326139
143,17.21285563925971,-242.867785707088,-28.451610110893366,7.69979984574436,64.29296004996347,-19.84574782826495,245.49485085649803,74.15743834736453
144,18.91258888190984,-243.2535779294557,-29.06579653125805,8.824921257896285,74.87663705133167,-18.953901839988458,246.01408249346176,80.53701715610374
145,20.55225176376944,-243.75096251881126,-29.605720623960543,9.602755495831207,85.86078255884193,-18.34781300357718,246.63406062960988,87.43387227837889
146,22.109804171712458,-244.3499808965775,-30.064155720482105,10.063797344563271,97.12844305575271,-18.068074029041888,247.3430542432417,94.76929462157095
147,23.56439699477173,-245.03783981507277,-30.4339658651594,10.243632097027705,108.54604417812902,-18.149495221724916,248.1266388581438,102.45610924047286
148,24.896879533022872,-245.7992888772855,-30.708187474728618,10.182141831672743,119.96506100886523,-18.62014362001384,248.96811740091192,110.40047434769698
149,26.09027278397568,-246.6170926803118,-30.880134967791825,9.922577376137145,131.2241640017444,-19.500553017308206,249.849034563468,118.50391606038791
150,27.130197480040273,-247.47257989178934,-30.943529183226413,9.510501197717629,142.15180753810665,-20.803141392221338,250.74976572152957,126.66554627298177
151,28.00524733227146,-248.34624756611564,-30.8926461795212,8.992612438775872,152.5692152103935,-22.53186713826016,251.6501575027547,134.78440223573517
152,28.707299719159227,-249.2183963241325,-30.72248294115411,8.415472859897573,162.29370407502472,-24.682148413477435,252.53019451941194,142.761840030874
153,29.231757881267402,-250.0697707445083,-30.42893571068316,7.8241612315649975,171.14227973316153,-27.241061067779373,253.37066565558197,150.50391045456777
154,29.577720383376207,-250.8821793362207,-30.008986115683488,7.260892819308498,178.9354254463727,-30.187820220143617,254.1538034949253,157.9236447525825
155,29.74807503293189,-251.63906948554322,-29.46088985921061,6.763648860446766,185.50100167306616,-33.49453900331135,254.86387166610425,164.94317890628383
156,29.749515497536173,-252.32603444639238,-28.78436236349943,6.364867257474936,190.67816746412393,-37.12724565694786,255.4876766904136,171.4956484360104
157,29.59247960309684,-252.93123162268964,-27.98075528918137,6.090249276942645,194.3212322051389,-41.04712744449903,256.0149831846134,177.5267908946246
158,29.291008913474666,-253.44569423531945,-27.053217200795437,5.957737217581943,196.30334539445698,-45.21195730549394,256.4388141675838,182.99620040775122
159,28.862529871554113,-253.86352220345594,-26.0068307864538,5.9767144067209985,196.51993345874376,-49.57764747183766,256.75562198254454,187.8781876861933
160,28.3275575681647,-254.18194273765502,-24.848718073325045,6.147471481258101,194.89179566977208,-54.0998644565812,256.9653200262357,192.16220951138152
161,27.709324028028387,-254.4012366168368,-23.588104255560456,6.460972191712756,191.36777557529882,-58.73563285930445,257.07117096195833,195.85284327842544
162,27.033333722807438,-254.52453227720042,-22.236330388626406,6.898938878279393,185.9269297909268,-63.4448520120966,257.0795332815086,198.9692944608712
163,26.326849968034825,-254.55747652213086,-20.8068056141492,7.4342634905405385,178.58012272408774,-68.19164994040074,256.9994748573763,201.5444378484235
164,25.618317150436347,-254.50779751454672,-19.314890981738934,8.03173577700719,169.37098430310613,-72.94550361708558,256.84226918525906,203.62340737103682
165,24.93672551023344,-254.38478215648104,-17.77770938433266,8.64906724592046,158.37617860928464,-77.6820632759428,256.62079680483976,205.26176462623673
166,24.310927493501424,-254.198695335488,-16.21387944301278,9.238178724156485,145.70494483139896,-82.38363180068053,256.34888023333104,206.5232931002405
167,23.76891741087362,-253.96017224175822,-14.643175011896119,9.746711278977374,131.49788817196057,-87.0392676907793,256.0405850245939,207.47748328087224
168,23.337089116247064,-253.67961665349745,-13.0861160270097,10.11971442891856,115.92501675528243,-91.64450088818634,255.7095218436363,208.19679244495256
169,23.039489429142336,-253.36663767247353,-11.563500580576404,10.301460685617592,99.1830403692878,-96.20067321962746,255.36818460145344,208.75378021960233
170,22.897087849069955,-253.02955506691364,-10.095892255692752,10.237330203319512,81.49196702586374,-100.71393744494965,255.02735788787388,209.218235054758
171,22.92708552587382,-252.67499943139111,-8.70308061540425,9.875703003731868,63.091052975133934,-105.19396906861236,254.6956234006094,209.65441555650153
172,23.14228818631024,-252.3076279942592,-7.4035358976073,9.169789311641564,44.23418039192708,-109.65246171124099,254.37898992678365,210.11853269822996
173,23.550568514176035,-251.92997027452225,-6.21388105689214,8.079322573348668,25.184754275705647,-114.10148900073173,254.08066483099125,210.6565933913428
174,24.154443180493278,-251.54241030270694,-5.148405047206347,6.572037193831603,6.210226258218596,-118.55182315542883,253.8009773299662,211.30271269119712
175,24.950788203814735,-251.14330432768233,-4.218640489017002,4.6248564894470015,-12.423631909616022,-123.01130257616667,253.53745566816946,212.07798179403056
176,25.930713392636488,-250.72922529095848,-3.433026568197621,2.2247276058289014,-30.45856871398143,-127.48333796668052,253.28505214579124,212.98995340616707
177,27.079612093688194,-250.29531816964237,-2.7966742630965467,-0.6309404300301548,-47.6496591638924,-131.96563910268284,253.0365021365568,214.0327768655663
178,28.377396396502032,-249.83574392520276,-2.3112459970843373,-3.9342531944443135,-63.7709212377079,-136.44923288894168,252.7827961597893,215.18798426844393
179,29.798920666418358,-249.3441847426393,-1.974955847517383,-7.667209881811904,-78.62058379652532,-140.91782837234706,252.51373826284566,216.42589705722156
180,31.31458821227375,-248.81437994540792,-1.782689889620717,-11.802443930549895,-92.02585040098255,-145.34756652247216,252.218559876109,217.70759117669874
181,32.89112744197573,-248.24066059232234,-1.7262396667409328,-16.304260256587213,-103.84701329759073,-149.70717259437603,251.88655607465148,218.98732963216858
182,34.49251552998084,-247.6184512163328,-1.7946358106117477,-21.12988763772615,-113.980788168908,-153.95850773531402,251.5077107112543,220.21534626147934
183,36.081020034206034,-246.94470931789343,-1.9745640205058503,-26.230857150176863,-122.36276192230216,-158.05749526612817,251.0732780434439,221.34084569808587
184,37.618322582795365,-246.21827706673864,-2.250842236777322,-31.554418480566955,-128.96887122240196,-161.95537674673164,250.57629129014015,222.31507293325234
185,39.06668406420787,-245.44012525265308,-2.6069360299769806,-37.044914262815624,-133.81585736660386,-165.6002344913012,250.01197315132532,223.09430200380683
186,40.39010797999067,-244.6134767052066,-3.025489001818875,-42.6450467203264,-136.9606728667104,-168.93870181771703,249.37802965146017,223.6425973798976
187,41.555457987149595,-243.7438045837986,-3.4888462718344613,-48.296988976323064,-138.4988465139536,-171.91777144308745,248.67481624410956,223.9342137095572
188,42.53348730158145,-242.83870920713804,-3.9795516896763883,-53.94331338404724,-138.56184627662864,-174.48660744653415,247.90537314003546,223.95551926618455
189,43.29974155606922,-241.9076845927788,-4.480802996573581,-59.52772906287515,-137.31351195263528,-176.59826788767688,247.07533453763693,223.70635445309844
190,43.83530263983631,-240.96179207949234,-4.976853366060259,-64.99563864880538,-134.9456604366275,-178.21125337425312,246.19272332712393,223.20076704159058
191,44.127348374128665,-240.0132629820405,-5.453351919223967,-70.29453855725225,-131.67299420476337,-179.29081077674192,245.26764847622854,222.46709830730236
192,44.16951088403024,-239.0750549049417,-5.897619226597283,-75.37429672664439,-127.72746705123274,-179.80993967601418,244.31192625257674,221.547427027449
193,43.9620247571051,-238.16038702378677,-6.298856214040427,-80.18734638230026,-123.35227939027162,-179.75007044857614,243.3386485012056,220.49640969995266
194,43.51166431741992,-237.28227852312622,-6.648286523415349,-84.6888340938728,-118.79568766414583,-179.10140516611688,242.3617215268658,219.37958346415616
195,42.831477331022796,-236.453111762853,-6.939233604950313,-88.83675617454608,-114.30481760199888,-177.8629335843584,241.39539797122367,218.2712211434945
196,41.940329860891836,-235.68423793397278,-7.167134861806061,-92.5921104378018,-110.11966851526293,-176.04215463722335,240.45382163267675,217.25184418170662
197,40.86228357795314,-234.98563842631376,-7.329496119007442,-95.9190816663165,-106.4674852212512,-173.6545478144313,239.55060183863088,216.4055083616483
198,39.62583249753283,-234.36565050799322,-7.425790607077115,-98.78526999226737,-103.5576558485949,-170.72284787216765,238.69843034176847,215.8169791779252
199,38.263030646436775,-233.83076170348767,-7.45730760816512,-101.16196274687294,-101.57726862064793,-167.27618031291166,237.90875021854887,215.56890934472463
200,36.808545237226355,-233.38547362013216,-7.426956905699889,-103.02444293453969,-100.68743031953036,-163.34911435314774,237.19148300786546,215.73912144424503
201,35.298671307571105,-233.0322329786665,-7.339036069647125,-104.35232167499315,-101.0204155913502,-158.98068554678517,236.55481738093732,216.39808565780683
202,33.770343557188056,-232.77142540709897,-7.198968284211758,-105.12987777353045,-102.67768182695848,-154.21343299083395,236.00506017622126,217.60666726235206
203,32.26017952079748,-232.60142625098405,-7.013018932079973,-105.3463849106554,-105.72875114072698,-149.0924873040388,235.54654884109362,219.41420226539213
204,30.803585379398175,-232.51870212767875,-6.787999578100797,-104.99640566204444,-110.21093066512543,-143.6647364218336,235.18162315721693,221.8569431125782
205,29.433951660504505,-232.5179570025941,-6.530968318349298,-104.08003156745829,-116.1298161658361,-137.97808757098167,234.91065342865275,224.9569005811034
206,28.181960945910642,-232.59231700621436,-6.248935567603836,-102.60304966661236,-123.46050255415143,-132.08083620373856,234.73212193588955,228.72109335966306
207,27.075023819299997,-232.7335488742721,-5.948584145796641,-100.57701824237918,-132.14940853860506,-126.02114651856084,234.6427542863983,233.1412038499045
208,26.1368530883289,-232.93230762701748,-5.636011937409791,-98.01923794614599,-142.11661147165978,-119.84664349623117,234.63769721788364,238.19362769976513
209,25.387180268000204,-233.17840976484794,-5.316504477131292,-94.95260900688976,-153.25858229052375,-113.6041129162455,234.71073933006343,243.83989563778186
210,24.84161274641951,-233.4611287055363,-4.994343714143787,-91.40537069596974,-165.4512090439428,-107.33930323948172,234.85457101680953,250.02743929339948
211,24.511625023086914,-233.7695093215971,-4.672658127598759,-87.41072529538629,-178.5530004093329,-101.09682117525861,235.06107944458262,256.6906676846712
212,24.404672797149733,-234.09269820268494,-4.3533184209569535,-83.00635497094581,-192.40836728163524,-94.92011086654871,235.32167371290137,263.7523176411622
213,24.524414519123194,-234.42028562172655,-4.036882130567649,-78.23384551356514,-206.85089029520583,-88.85150469623275,235.62763428784544,271.1250392434731
214,24.871021558811172,-234.74265414488474,-3.722589442423337,-73.13803519120114,-221.706493278811,-82.93233165301628,235.97047944853173,278.71317603664164
215,25.44155564038533,-235.05132758196578,-3.408411239796916,-67.76630939776194,-236.79645635668146,-77.2030670915458,236.34234002925575,286.4146990298063
216,26.230390771834486,-235.33931280383248,-3.0911490399343977,-62.16786210520453,-251.94021691528246,-71.70350581645882,236.73633246547013,294.12325315699127
217,27.229656570665988,-235.6014260476398,-2.766585166720555,-56.392943383280226,-266.9579212121899,-66.47293897595108,237.14691925798195,301.73027484330936
218,28.429680604475514,-235.83459472465208,-2.429680191989789,-50.49210889126421,-281.67270334413934,-61.550314447933154,237.57024549193406,309.1271395359896
219,29.81940898303063,-236.0381253597435,-2.074813197931036,-44.51548302724167,-295.9126810970925,-56.97436034335419,238.00443989612987,316.20729852265794
220,31.386786777810915,-236.2139280157898,-1.6960587462951098,-38.51204326859913,-309.5126695277346,-52.783652003511484,238.44986897776977,322.86836514004256
221,33.11908275183766,-236.36668736218854,-1.2874927827269087,-32.52893002966857,-322.31562273845634,-49.016604455025075,238.90933297437064,329.0141116298632
222,35.00314627463077,-236.50397057277323,-0.843518324844637,-26.610784697084835,-334.17382203775924,-45.711374668233844,239.3881928578204,334.5563394116605
223,37.02558816644374,-236.6362627477634,-0.3592008317968306,-20.799118531494898,-344.9498344910967,-42.90566108215447,239.89441866959655,339.41658741336295
224,39.17288153120073,-236.7769217596569,0.1693973997976952,-15.131716498926814,-354.51726993972375,-40.636391675669586,240.438551270148,343.52764544356234
225,41.43138320876623,-236.9420463228928,0.7448947550460562,-9.642082063418853,-362.76136723670504,-38.939296307592194,241.0335721170406,346.8348426148112
226,43.78728097934924,-237.1502534980373,1.3682908233917832,-4.358930611800497,-369.5794420734278,-37.84836390265146,241.69467870686162,349.2970847241803
227,46.22647578515437,-237.42236455350368,2.0387010567000745,0.6942603005212027,-374.88122958262943,-37.39518998380157,242.43896656336594,350.88761934528185
228,48.73441178941643,-237.78100095827196,2.7531365076297303,5.499636703288293,-378.5891549984376,-37.60822472415346,243.28502192952087,351.5945131591386
229,51.29586990227981,-238.25009513393198,3.506338925200136,10.045285192753912,-380.6385650342002,-38.511935925837506,244.25243246042666,351.42083265940767
230,53.8947423122758,-238.85432334827334,4.290680174313917,14.325479521894673,-380.9779512444424,-40.12590505528531,245.36122608359688,350.38452663744096
231,56.513806491627776,-239.6184707255135,5.09613305468384,18.340858095223425,-379.5691943164144,-42.46387768146127,246.63125071602545,348.51801646989804
232,59.1345171412214,-240.56674076319743,5.910318256525456,22.098535321278273,-376.3878547623046,-45.53279245124872,248.08150969444893,345.8675077559291
233,61.736833753304516,-241.7220239644763,6.718629435946868,25.612149389867426,-371.42353065101344,-49.33181522026093,249.72946959698513,342.4920438319243
234,64.29910008479746,-243.1051421438496,7.5044352452071985,28.901846228159833,-364.68029673028656,-53.85140728009126,251.59035857741625,338.46232776617336
235,66.79799004308833,-244.73408657861322,8.249353769697194,31.994194277990374,-356.17723155484754,-59.07245886744907,253.6764743716711,333.8593443263459
236,69.20853240557304,-246.62326952078797,8.933591439129952,34.92201802000508,-345.9490301601912,-64.96552122706913,255.996521856293,328.772816908075
237,71.50422436968923,-248.78280976638118,9.536335359978441,37.72413102427726,-334.046689653249,-71.4901721775025,258.5550005425698,323.29953641977687
238,73.65724098467798,-251.21787392156855,10.036185488188414,40.4449431619881,-320.5382442519881,-78.59455109070835,261.35166257066027,317.54159973100036
239,75.63874393444651,-253.9280954231989,10.411611402084612,43.13391287275792,-305.5095153326758,-86.21509917939002,264.38106133119516,311.60459476914036
240,77.41928895655289,-256.9070929893723,10.641417724349566,45.84481514172395,-289.06483148424127,-94.27653975881412,267.63220953820576,305.59576801318303
241,78.96932650695588,-260.1421088314198,10.705202428958891,48.63479964815316,-271.3276639320206,-102.69213047871499,271.0883632856535,299.6222082690348
242,80.25978527976116,-263.61378457174715,10.583793273601003,51.56322135841781,-252.44111447509943,-111.3642151946941,274.7269453110579,293.7890784514332
243,81.26272315284598,-267.29608948144624,10.25964929788389,54.69023721496748,-232.56818681597724,-120.18509703456166,278.5196165296197,288.19792486023675
244,81.95202545646423,-271.1564117347123,9.717216593125656,58.075176968348345,-211.891768405618,-129.03824631044793,282.4325003327893,282.94509134405985
245,82.30412656320458,-275.15581926418395,8.94323030300883,61.77471306706387,-190.61424920198166,-137.79984738987474,286.42655964458334,278.12026398219695
246,82.29872795388576,-279.24949258964733,7.926957999914104,65.84087326311123,-168.9567064994468,-146.34067776251695,290.4581224582661,273.80517060345096
247,81.91948422246891,-283.38732749039883,6.660383116023455,70.31895942395293,-147.15759162821746,-154.5283006849122,294.47954736669396,270.0724586016102
248,81.15462800366294,-287.5147004223595,5.1383308062822,75.24545586009171,-125.47086518795673,-162.2295403261243,298.4400162828581,266.9847739418328
249,79.99750569191978,-291.5733841858243,3.358542079673183,80.64602873974815,-104.1635427850829,-169.31319564246584,302.2864371766033,264.5940635764687
250,78.44699818111008,-295.5025957172088,1.3217046750842358,86.53373275751841,-83.51263292936986,-175.65293662960943,305.96443540124477,262.94112195017044
251,76.5078046410881,-299.2401522362353,-0.9685495274631607,92.90754940842396,-63.801472302448815,-181.13031446632652,309.419408220886,262.05539877278846
252,74.19057249939532,-302.72370662979944,-3.5056710045370965,99.7513798513933,-45.31549000811408,-185.6378057686754,312.5976137367584,261.9550786651221
253,71.51186327232503,-305.8920283062779,-6.2802351716069245,107.03360156240933,-28.337460189488908,-189.08180130081504,315.44726293480664,262.6474331171844
254,68.49395137189232,-308.6862922707006,-9.27999619843212,114.70727019629712,-13.142329822222456,-191.3854418106421,317.9195823809669,264.1294318513261
255,65.16446080771647,-311.0513373069805,-12.48995095803612,122.71100705155123,0.008266195969341032,-192.4911989448867,319.9698153844682,266.3885851982687
256,61.55585208461768,-312.93685432884223,-15.892415838189374,130.9705619143774,10.87166878327386,-192.36309801251312,321.5581313992138,269.4039725318593
257,57.70477811465066,-314.2984685060499,-19.467122255700236,139.40098685981232,19.229885972133108,-190.98848201781124,322.65041721617695,273.1473949895962
258,53.65133334475167,-315.09868382804467,-23.191338585706355,147.9093056307164,24.89514767193907,-188.37922306238212,323.21892920090386,277.58457464871344
259,49.43822435614205,-315.3076661736906,-27.040026807703686,156.39752148536834,27.71515151192242,-184.57229818941912,323.24279329614734,282.67630894016645
260,45.10989290643564,-314.9038501780945,-30.98604168386324,164.76577820246803,27.57782386417391,-179.62966249549518,322.7083482693123,288.3794813772587
261,40.711623886915035,-313.87436530162137,-35.00037879470274,172.91547688335427,24.415422098673147,-173.63737345013502,321.6093369091022,294.6478312044257
262,36.288670919084,-312.21528628144523,-39.05247515394079,180.75215658207847,18.207812550754305,-166.70394715338728,319.94695840063054,301.4323983819935
263,31.885431043235542,-309.93172127265365,-43.11056249766441,188.18796965205883,8.984774553862128,-158.95795923374925,317.72980165931625,308.68158783063376
264,27.544697019451768,-307.0377564038206,-47.142069301491816,195.1436213857736,-3.172795156215918,-150.54493857938206,314.9736829974492,316.34083696411244
265,23.307011416783954,-303.5562776377999,-51.114063994423525,201.54969424818535,-18.132871071571795,-141.6236384037359,311.7014117346753,324.35191935344864
266,19.210141239832993,-299.5186897744686,-54.99372924183424,207.34733389029265,-35.71353348707839,-132.361803110675,307.9425044260705,332.6519687126716
267,15.2886853267237,-294.9645486257113,-58.74885556943668,212.48833008704221,-55.685454114246,-122.93157799823624,303.732862834474,341.172353743057
268,11.573818946250368,-289.9411165803573,-62.34834181679214,216.93467384926046,-77.77558506439405,-113.50472944174054,299.1144234267156,349.8375679054901
269,8.09317109302726,-284.50284490481914,-65.76268984326322,220.65770686646917,-101.67194989409974,-104.24785398456193,294.13477802626517,358.56431216569536
270,4.870820722254376,-278.7107792702031,-68.96448146476492,223.6369983529243,-127.02938578923838,-95.31775493342309,288.8467574044265,367.26093919342145
271,1.927389744402725,-272.6318792673964,-71.9288265696165,225.85908729815444,-153.47604473058323,-86.85715497290234,283.3079631065798,375.8273947378068
272,-0.719795806273179,-266.3382390797137,-74.63377248340122,227.31621744933236,-180.62043171691235,-78.99089437101767,277.5802286193953,384.1557412321902
273,-3.056508490080809,-259.9061957662853,-77.06066569913749,228.00517202663903,-208.0587417137571,-71.8227386063476,271.7289897483054,392.1312893315559
274,-5.0714182705768325,-253.41531410123775,-79.19445786562748,227.92628977135263,-235.38225500375918,-65.43288905025227,265.8225460635331,399.6343056748212
275,-6.75591658493252,-246.94724256104575,-81.02394828202975,227.08271775111908,-262.18456332091785,-59.876257970217864,259.93120039683885,406.5422186764162
276,-8.103989117178344,-240.58444346944725,-82.54195511519104,225.47993265007105,-288.06842571908066,-55.181536576822566,254.12627125892658,412.73221381754945
277,-9.112152937590205,-234.40881067854772,-83.74540748582082,223.12554273806032,-312.6520911498468,-51.35105374557814,248.47898297959475,418.0840966330706
278,-9.779464738700254,-228.50019919320997,-84.6353510446205,220.02936740480953,-335.5749701851788,-48.36139471466324,243.059249224223,422.48330270287516
279,-10.107597885144461,-222.93490140574858,-85.21686124795914,216.20377895167275,-356.50258618475925,-46.16472452555721,237.93437606437448,425.82394469448946
280,-10.10097785232541,-217.7841130266247,-85.49886150910692,211.66428066450504,-375.13078144543334,-44.69074097326089,233.1677200228799,428.01180162010894
281,-9.76695897344905,-213.1124377716923,-85.49384754298771,206.43028460316663,-391.18919235941513,-43.84916674630726,228.81734387012867,428.96717048449983
282,-9.116020579391604,-208.9764829921629,-85.21752395590026,200.52604124487948,-404.4440366374319,-43.532680243426505,224.93471789867561,428.62751239024107
283,-8.161957754321891,-205.42359833216398,-84.6883637795926,193.98166128945113,-414.7002739805058,-43.62017885862306,221.5635164131144,426.94983256700283
284,-6.922041009582878,-202.49080600802014,-83.92710569743005,186.83415868076105,-421.8032092259144,-43.9802666996755,218.7385579346181,423.91273678017257
285,-5.41712000034162,-200.20396468426406,-82.95620686282417,179.12843483927278,-425.6396049213,-44.47486008791866,216.48493326571696,419.5181062448878
286,-3.6716487388681722,-198.5771997968058,-81.79927128518503,170.91811887448296,-426.1383601412509,-44.962808254274,214.8173585712551,413.7923311963848
287,-1.7136134091251873,-197.6126223860869,-80.48047458295906,162.26617849373125,-423.2707962656426,-45.30343304637697,213.7397816675041,406.78704158006633
288,0.42565134602533294,-197.30034701075098,-79.0240053634567,153.24522229452404,-417.0505708550026,-45.359899943984274,213.24525954355275,398.57927390782663
289,2.711766208690314,-197.6188079729083,-77.45354169168279,143.93742631531046,-407.5332204088363,-45.002343000824034,213.31611452699698,389.27101801313944
290,5.10773351283702,-198.53536243974645,-75.79177836800233,134.43403555165176,-394.8153144330308,-44.110678216314916,213.92436601752036,378.9880976433605
291,7.574482332980621,-200.00715938965027,-74.06001737459381,124.83441333544036,-379.0331892668395,-42.57705297478084,215.0324247208054,367.8783552620564
292,10.071522422591755,-201.98224494878994,-72.27783013727455,115.2446362669087,-360.361222201497,-40.30789316667209,216.594027192245,356.10913393654465
293,12.55769137315366,-204.40086797595686,-70.46279646565883,105.7756578649841,-339.00960538046036,-37.225523880569526,218.55538068482682,343.86407679972456
294,14.991974274196208,-207.19694488984882,-68.63032153210115,96.54108842423794,-315.2215848427244,-33.26935349001063,220.85648211003468,331.339295757064
295,17.334370839429305,-210.29963959358517,-66.79352934251791,87.65466012594403,-289.27014226354925,-28.396623951561338,223.43257039877733,318.7389939475758
296,19.546781569139217,-213.6350126844807,-64.96322893772117,79.22746398706398,-261.4541144245932,-22.582741693268076,226.21566853958046,306.27065888632063
297,21.593882158724075,-217.12769380034794,-63.14794792452524,71.36505797809266,-232.09376690168875,-15.821213246298793,229.13616995646922,294.1399731460005
298,23.443954149523154,-220.70253190500028,-61.354026723002946,64.16455341166775,-201.52586242316127,-8.123217521966698,232.1244236486097,282.54561488843444
299,25.069639985023375,-224.28618049528848,-59.58576600872353,57.711789785049845,-170.09828923689747,0.4831477474543178,235.1122736400788,271.67413959973334
300,26.448592448883513,-227.8085780460305,-57.84561908076062,52.078707115915684,-138.16433897872815,9.953904393341906,238.03451075361832,261.69514508895685
301,27.563991970168185,-231.20428847062905,-56.13442019867218,47.32101983914818,-106.07674534073053,20.230474486754552,240.83019853141275,252.75692229537262
302,28.404910325784545,-234.4136719382741,-54.451639345810754,43.47628783333534,-74.18161285675535,31.241160830038652,243.4438402975082,244.98278304380452
303,28.96650563866818,-237.38386288548426,-52.79565353484815,40.56246835663807,-42.81237823478909,42.902785766134755,245.82636077595743,238.46823139209107
304,29.250040965102105,-240.06953908927946,-51.16402477617019,38.57701768127469,-12.28395411186552,55.122447903917184,247.93588295782612,233.27910728717129
305,29.262726711694796,-242.43347270745994,-49.553775136563715,37.49659290266932,17.112793573515344,67.79935692334715,249.7382884593649,229.45078116804928
306,29.017395037248612,-244.44686086735643,-47.96164987434408,37.27738262238682,45.116088379341306,80.82670645135384,251.20755695675558,226.98841981641132
307,28.532021664657954,-246.08943963519803,-46.38436058662552,37.856070226616445,71.49767121563838,94.09354443383991,252.32588727149036,225.86828367445165
308,27.829116538836153,-247.34939110602662,-44.818801791867976,39.15140634714856,96.06649477508266,107.48660025284082,253.08360931453097,226.03996128724495
309,26.935009047350526,-248.22305886916357,-43.26223625425123,41.06633965481136,118.6715872948808,120.89202898012266,253.4789022238736,227.4294028872864
310,25.87905595871292,-248.71449198900567,-41.71244633611308,43.490629734231476,139.20401313652417,134.1970363470102,253.5173393463957,229.94258477829644
311,24.69280105771177,-248.83484166251674,-40.16785060399105,46.30384478485864,157.59788478185058,147.29135352214047,253.21128501156116,233.46961912822687
312,23.40911500884199,-248.6016377950001,-38.6275867949246,49.37863226986756,173.83040936256526,160.06853838399397,252.57917130127208,237.88911902716882
313,22.061342561260954,-248.0379748524057,-37.091563890931056,52.584143667534356,187.92098182403802,172.4270889595877,251.644685228614,243.072634739014
314,20.682482021762578,-247.17163735589622,-35.560487102281236,55.78949543861038,199.92936516988885,184.2713641224286,250.4358977235122,248.88899209505348
315,19.304419007255806,-246.03419502563463,-34.035859827859866,58.86715630904577,209.95302466036682,195.5123155964771,248.98436531276806,255.20838566796513
316,17.957232846361773,-244.66009570134997,-32.519966278464885,61.69616411664053,218.1237060254114,206.06804315368586,247.32423325240202,261.9061052312006
317,16.668589833374487,-243.08578091791063,-31.015837683840676,64.16509151840465,224.6033665251782,215.8641912419231,245.49136532755765,268.86580158904667
318,15.463233253550909,-241.3488448401495,-29.527204036903214,66.1746967054506,229.57958124227662,224.8342099257912,243.52252106766272,275.98222503012846
319,14.362576045711677,-239.48725268604164,-28.058432322602172,67.64021130951201,233.26055509046682,232.91950582611406,241.4545962848469,283.16339487007855
320,13.384398274061885,-237.5386301841262,-26.614451342555594,68.4932319032731,235.86987402540882,240.06950961858553,239.32393804820848,290.33218093287746
321,12.542648245616103,-235.5396312581692,-25.200662673909537,68.68319352188678,237.6411275910493,246.24168560628937,237.1657406986915,297.42729708322884
322,11.847343168725919,-233.52538720454925,-23.82283695483179,68.17841361978446,238.81253009234644,251.40150599320523,235.0135254736283,304.4037231057873
323,11.304562833131437,-231.5290373273493,-22.48699462524214,66.96670331253293,239.62166007345863,255.522407855671,232.89870295167538,311.232584435574
324,10.916528089055232,-229.58133844117458,-21.19927063692091,65.05555026991296,240.30042792981698,258.58574468097174,230.85021498787145,317.9005296440137
325,10.681755037344274,-227.71034882355806,-19.96576350436207,62.47188480784529,241.07036990392172,260.58073732359315,228.89425107114423,324.40865362489984
326,10.595275707845346,-225.9411810539099,-18.792370182828634,59.26144788664217,242.13835405691327,261.5044222800609,227.0540330276764,330.77102087737705
327,10.648916222173929,-224.29581772169783,-17.684609384608265,55.487786755308406,243.692770776239,261.3615893152518,225.34966167314482,337.0128489490944
328,10.831623599631543,-222.7929841687972,-16.647436964668177,51.230910424255654,245.90026744799547,260.1646963971191,223.7980192993562,343.1684173938275
329,11.129832322068857,-221.44807309533283,-15.685057896531921,46.585642460740885,248.90307409720512,257.9337478741733,222.41272260529593,349.27877235242636
330,11.527861654290739,-220.27311689406366,-14.80074006924473,41.659712476334846,252.8169537541848,254.69612181410744,221.204121744258,355.3893006024974
331,12.008334679915755,-219.27680490467733,-13.996635583365835,36.571630128489105,257.72979784008055,250.4863343082442,220.1793424817171,361.547249314678
332,12.552610043127624,-218.46454414805024,-13.273615353744656,31.448386613815085,263.70087318417416,245.34573223921586,219.34236979528814,367.79926879654045
333,13.141217344618225,-217.83856313247392,-12.63112266161652,26.423028539274604,270.7607137710974,239.32211121531338,218.69417222052203,374.1890551687569
334,13.754286972055276,-217.3980587914115,-12.067050919688915,21.632147838486127,278.91163711310145,232.46926140379261,218.23286663550326,380.7551677521708
335,14.371964997649208,-217.1393865451202,-11.577650388780985,17.213329473780092,288.1288521340461,224.8464499126412,217.9539230301179,387.529091223279
336,14.974803886110926,-217.0562929981705,-11.157467928837189,13.302596641997118,298.3621126472089,216.51785339233206,217.8504082638038,394.53360487730447
337,15.544120306165237,-217.14018996081208,-10.799323117232497,10.031891517575543,309.5378582666768,207.55195819598487,217.91326696716712,401.7815107213433
338,16.062312401019437,-217.38046735437536,-10.494323347362187,7.526628274267005,321.5617733808799,198.02094747713633,218.13163664610425,409.27475897995373
339,16.513130369359818,-217.76484122235786,-10.23191995172518,5.903353997455494,334.32168496277563,188.00009485685942,218.4931927989874,417.0039943645053
340,16.881895911312494,-218.2797317162321,-10.000006983010753,5.2675518116188575,347.6907118031212,177.56718279539544,218.98451863748303,424.94852978846933
341,17.155667828660196,-218.91066485235933,-9.785063999573099,5.711618827917622,361.5305717448819,166.80196083036452,219.59149308723678,433.07673714015624
342,17.32335289101212,-219.64269128419684,-9.57234404079753,7.313049227313786,375.6949503089904,155.78565480594497,220.29969038221665,441.34682850021085
343,17.375763133604078,-220.46081526462137,-9.346107860049665,10.132849971847678,390.0328342338597,144.60053358432668,221.09478472870288,449.7079869538268
344,17.30562301230029,-221.35042710673181,-9.089905167578884,14.214213459623315,404.391717118124,133.32953498794097,221.96295390923333,458.10179474718046
345,17.10753206556729,-222.29773257070724,-8.786902884423332,19.581468134851402,418.6205915073,122.05594830807927,222.89127607264098,466.46389849250914
346,16.777890598873928,-223.29017267405553,-8.420259111646256,26.23932478444739,432.57265208269473,110.86314692692248,223.86811424313638,474.7258465705772
347,16.31479715806913,-224.3168274235456,-7.973539685420373,34.17243298338998,446.10764743257346,99.83436151819504,224.88348323608568,482.81703247148386
348,15.71792707689734,-225.36879680433174,-7.431171937917014,43.3452587198682,459.0938322314619,89.05248186936892,225.92939358915675,490.666678798677
349,14.988401155649106,-226.43955193356115,-6.778927803547879,53.702290387674985,471.40948647438853,78.59987361681709,227.00016670925118,498.2057991681186
350,14.128652593111125,-227.52524852738838,-6.004425857612137,65.16857583552704,482.94398287759407,68.55819523165123,228.09271464322921,505.36907858931374
351,13.142298781649947,-228.6249937237368,-5.097639425380757,77.65058785008578,493.5983971750677,59.00820053840939,229.2067766978213,512.0966167344714
352,12.034022725172475,-229.74105591592914,-4.051395857517094,91.03740932689053,503.28566865957094,50.02951283377205,230.34510364451748,518.3354826872159
353,10.809466911823371,-230.87900576772023,-2.861850714581775,105.20222272612263,511.9303300816149,41.700358106571855,231.5135786451227,524.0410344924836
354,9.47514067518827,-232.04777529919414,-1.528919910787626,120.00408181532431,519.4678372525442,34.09724671102005,232.7212626282243,529.177962499385
355,8.038340601018989,-233.25962125372652,-0.056652561587631184,135.28993801286978,525.843539716823,27.29459488625144,233.9803510332041,533.7210225596191
356,6.507082570904117,-234.52997930705885,1.5464727509835912,150.8968897449221,531.0113448443617,21.364279517535834,235.3060290460067,537.6554340017838
357,4.890043705786965,-235.87719742336952,3.2673451240136573,166.65462172185156,534.9321386876891,16.3751212360642,236.71621404593483,540.9769281986042
358,3.196512799768157,-237.32213999768643,5.0881275257947784,182.3880019232126,537.5720379552738,12.392292064653391,238.23117716224817,543.6914465916191
359,1.4363487108454358,-238.88765925070308,6.986285740636536,197.91980658005244,538.9005585040927,9.47664412221749,239.87304049546495,545.8145021787217
360,-0.3800526456492315,-240.5979361889804,8.934751252031514,213.07354623880767,538.8887967683879,7.683955442333435,241.6651522037216,547.3702353372929
361,-2.2417808825417054,-242.47769960662998,10.902226128568051,227.6763676687711,537.5077309594774,7.064088121909224,243.6313475740976,548.3902125127797
362,-4.137420546773137,-244.5513374634605,12.853634057455086,241.56200574985897,534.7267573570576,7.660053460862038,245.79510977082643,548.9120330393449
363,-6.055043968223615,-246.841920219846,14.750716857520421,254.57375571816922,530.512581476038,9.506979358761864,248.178648871892,548.9778227903184
364,-7.982183944412191,-249.37016030022008,16.552770287218163,266.5674289383839,524.8285818501996,12.630977906340801,250.80192203776048,548.6327008723741
365,-9.905782993311606,-252.1533358094071,18.217507023319616,277.41424509616667,517.6347533624769,17.047916413106947,253.6816212249888,547.9233050383014
366,-11.812117050529054,-255.20420988996997,19.702028494648697,287.0036013746877,508.888316251249,22.76210304670265,256.8301577343748,546.896452003401
367,-13.686693567654105,-258.5299796329705,20.963881004570066,295.2456461610028,498.5450465958978,29.76490844105349,260.2546750443561,545.597991260001
368,-15.514126944032597,-262.1312902228715,21.962165612901458,302.07357263286275,486.56134631586787,38.0333565269757,263.9561228366322,544.0718877204399
369,-17.277997919554,-266.00135096543835,22.65866596740964,307.44553780451713,472.89702850695784,47.52873075156074,267.92842585281363,542.3595428406272
370,-18.960707713098707,-270.1251899269435,23.018954062718795,311.3461068340896,457.5187504345867,58.19525483965429,272.15778116765705,540.4993390506478
371,-20.543341983852773,-274.47908301439173,23.013431230730298,313.78712193549245,440.4039845037246,69.95891921522397,276.6221165711556,538.5263710356365
372,-22.0055636973499,-279.03019136795587,22.61826101840585,314.8079009404586,421.5453792589755,82.72653404289372,281.29074096502507,536.4723114756148
373,-23.325557158449868,-283.7364378804831,21.816152285225517,314.4746827272857,400.95532960570756,96.38509655078309,286.12421497056056,534.3653491705916
374,-24.480047277716974,-288.5466495684643,20.59695496837643,312.8792553292669,378.6705492410805,110.80156293779453,291.07446638181096,532.2301343092137
375,-25.444418150718825,-293.4009874478564,18.95803756613153,310.136727508489,354.7564197618076,125.82311294212276,296.08517074850545,530.0876689978624
376,-26.192953026716893,-298.2316793692012,16.904424392235413,306.3824360691999,329.3108810587344,141.27798737598567,301.09241209420964,527.9550911244758
377,-26.699213672217844,-302.9640636460834,14.448681730211078,301.7680193337638,302.4676276046979,156.9769651610551,306.0256322368437,525.8453163890265
378,-26.93657108377085,-307.51794203592516,11.610554692203717,296.4567316839895,274.39838650400264,172.7155265090825,310.8088690746489,523.7665269281455
379,-26.87889156881372,-311.809229543038,8.416370359655751,290.61812360602994,245.31407688237996,188.27672310779866,315.3622742808902,521.7215246425928
380,-26.50137239832987,-315.7518754529271,4.898236999621038,284.42226379227185,215.46468654531589,203.43474502094853,319.6038888365059,519.7070008824825
381,-25.781509655468476,-319.2600149866725,1.0930827056816779,278.0337308487637,185.13774938680902,217.9591383828502,323.45164055474754,517.7128074783088
382,-24.700168092479085,-322.25029452006515,-2.9584119551959263,271.6056472743854,154.6553625958718,231.61958926775787,326.8255115498489,515.7213414296493
383,-23.242709752212477,-324.64429672268824,-7.212925684882664,265.2740620822285,124.36974187612127,244.191149327565,329.6498066664053,513.7071701832298
384,-21.40012611748641,-326.3709771613288,-11.625589759963118,259.1530045821507,94.6573712200979,255.45974038686327,331.8554383099349,511.63702031262517
385,-19.17010919344388,-327.3690130783633,-16.151005570411346,253.3305236688051,65.9118581257799,265.2277409838682,333.3821315186774,509.4702264088835
386,-16.557991931730758,-327.58896021012305,-20.744141104367056,247.8659875767938,38.53565439570401,273.3194309324888,334.1804479803972,507.15969120011323
387,-13.577489210170265,-326.9951160977652,-25.36107799697068,242.78884391676408,12.930847283597798,279.5860535635087,334.2135307196646,504.6533503562262
388,-10.251177684947885,-325.56699902525355,-29.959599368686305,238.09893129337243,-10.510733463110522,283.91025243467993,333.4584828642908,501.89607712651764
389,-6.610665495617935,-323.30037020209124,-34.49962532539077,233.7683051820325,-31.417809985254262,286.2096524717835,331.90731348574127,498.8319118930145
390,-2.6964194570293936,-320.20775158038384,-38.9435148680188,229.74441466865306,-49.450036373770345,286.43938620978014,329.5674090078246,495.40646463067793
391,1.4427636774941097,-316.31841999168654,-43.25625900027189,225.95436719493586,-64.30812051575977,284.59341407487756,326.46151706162306,491.5693169761608
392,5.7506354736430945,-311.6778867595797,-47.405590741478264,222.30996122506298,-75.74332234273756,280.7045514481898,322.627257543414,487.2762482970755
393,10.16469770296264,-306.34689765911844,-51.36203531198057,218.71315380988554,-83.5659516008,274.84318990328467,318.11620013378797,482.49112838630055
394,14.617684068764373,-300.4000089821194,-55.09891979872615,215.06165175711538,-87.6524915764313,267.1147782466466,312.99256664006634,477.1873548133198
395,19.03926296330433,-293.92381016007437,-58.59235744472555,211.25435650439456,-87.95099868486321,257.65620215071993,307.3316289172727,471.3487577279419
396,23.357891335863567,-287.0148712370509,-61.8212180723776,207.19643981269732,-84.48447590430551,246.63126125622574,301.217878275529,464.9699410857528
397,27.502743004500264,-279.77749480479616,-64.76709332502573,202.80387083767496,-77.3519927237495,234.22548409384214,294.7430407588294,458.0560725016609
398,31.405632405462264,-272.3213481046267,-67.41426332800543,198.0072514574777,-66.72742371176604,220.64054151376064,288.0040060821259,450.6221734342238
399,35.00285675722104,-264.75904366562753,-69.74966978202632,192.75484697397317,-52.855795526257005,206.08851851522977,281.1007284528065,442.69199702038225
400,38.23688570469969,-257.2037279581564,-71.76289908718556,187.0147270654478,-36.04735757085939,190.78628436139948,274.1341470849427,434.2966105419075
401,41.0578372307764,-249.7667288040868,-73.44617748543001,180.77596112396623,-16.66961175367817,174.95016531166226,267.2041647480431,425.4728189570015
402,43.42469123149816,-242.55530497859286,-74.79437812289922,174.0488454618634,4.8623604191176595,158.7910784414824,260.40771542549123,416.26157073509125
403,45.30620662669463,-235.6705361072171,-75.80503740681266,166.86417779286322,28.096859234226518,142.510234979282,253.83694751903104,406.7064754354795
404,46.68152298546775,-229.20538741906262,-76.47837543061668,159.27163538946073,52.557358181422074,126.29547329879792,247.57754667264766,396.85253616489723
405,47.54044221253305,-223.24298157306578,-76.81731301606578,151.33735452564997,77.7546544530601,110.31823988672105,241.70722144491387,386.7451648293953
406,47.88339901258185,-217.8551078785111,-76.82747636924236,143.14084663826932,103.19892350331241,94.73120424892355,236.2943748549215,376.4295107983159
407,47.721140127662885,-213.10099691841896,-76.51717958950786,134.77141732401213,128.41126140925286,79.6664720775269,231.39698433826607,365.9500998665241
408,47.07414147960577,-209.02638507517673,-75.89737539384417,126.3242744873117,152.93435420078856,65.234349880025,227.06171110744,355.35075345017714
409,45.97179921546961,-205.66288839585823,-74.98156559313053,117.89651939884568,176.34197927935915,51.52261229582891,223.3232570072915,344.6747387306515
410,44.4514351598082,-203.02769876742906,-73.78566520448211,109.58320852604952,198.24711500390413,38.596228183087874,220.203982835924,333.96508852624135
411,42.55715933919128,-201.12360790155827,-72.32781741846237,101.47365601537525,218.30850593422863,26.49751039375039,217.71379704410677,323.2650240189121
412,40.33863228096734,-199.93935653572663,-70.62816045188994,93.64811935876686,236.23559970952311,15.246664029352845,215.85031790992826,312.61841302845977
413,37.849768067008405,-199.4502978061115,-68.70855102494187,86.17497759137039,251.79183486861143,4.842716183613597,214.5993057829645,302.0702003830802
414,35.14741601400476,-199.61935515942767,-66.59225232714698,79.10847609294164,264.7963157447969,-4.735185476209766,213.93535487323518,291.66675435156236
415,32.29005472614253,-200.3982467507891,-64.3035965694409,72.48707815348244,275.12396012830055,-13.52611884302503,213.82282653214034,281.4560835436963
416,29.336527634327222,-201.72894048066183,-61.867633507887696,66.33243356559976,282.70424724566544,-21.58539824149398,214.21699850660582,271.48789173165875
417,26.34484461001093,-203.5452972024449,-59.30977681313311,60.64895014732237,287.51872742083555,-28.98228133709613,215.0653979002827,261.81345314114304
418,23.37107021153029,-205.77485464733425,-56.65545988358561,55.42393571218571,289.59748013755603,-35.79741782540609,216.3092800845906,252.48530692096412
419,20.468315528648684,-208.34070150239262,-53.92981150214195,50.6282652340261,289.0147235953883,-42.12010099206024,217.8852117853208,243.55678522472385
420,17.685847122949014,-211.1633898408779,-51.15735962866841,46.21751999679922,285.88378577259357,-48.04539700279315,219.7267140398103,235.08140283738697
421,15.06832303129018,-214.16283459409374,-48.361769029080975,42.13354135735739,280.35164429252086,-53.67123674997772,221.76591967691982,227.11214586851264
422,12.655162270248269,-217.2601507540081,-45.5656158918607,38.306340311123385,272.59323038640844,-59.09555965873859,223.9352003989943,219.70070155944632
423,10.480050877586597,-220.37938225182242,-42.790200291166684,34.656304312499955,262.8056720738519,-64.41359726711937,226.16872030494466,212.8966704336999
424,8.570584291156328,-223.4490807552926,-40.055395282920294,31.09664381126212,251.2026253263327,-69.71537671013783,228.40387560205056,206.74679657606487
425,6.948042827281254,-226.40369788513797,-37.37952957398285,27.536021836059653,238.0088121379145,-75.08351129678202,230.58258424759964,201.29424330865388
426,5.627294329961744,-229.18476058041384,-34.77929923859774,23.88130992511309,223.45485413145815,-80.5913286208014,232.65239439216347,196.57793194206437
427,4.61681594523281,-231.7418064872371,-32.26970308117512,20.04041230778874,207.77246244601727,-86.3013678855112,234.5673867520806,192.6319526116089
428,3.918825560666359,-234.0330640871804,-29.863996138355187,15.925097489312808,191.19002142004425,-92.26425916315696,236.28885323248826,189.48505003337218
429,3.5295126782315474,-236.025870501112,-27.573656514844508,11.453772790315416,173.92858630635564,-98.51797971581308,237.78574193387925,187.16018418447499
430,3.4393582010959567,-237.69682816331647,-25.408362083201197,6.5541337760056,156.1983042123731,-105.0874674739049,239.0348667291029,185.67416646236217
431,3.6335327072012933,-239.03170953284305,-23.37597523292187,1.1656178004397566,138.19526201813338,-111.98456013075176,240.02088751052307,185.03737512745462
432,4.092363225934376,-240.0251263964881,-21.4825354915878,-4.7584100721117455,120.09876380763393,-119.20822057699604,240.7360746265509,185.25355858970354
433,4.791859230957684,-240.67998688667376,-19.73226119246699,-11.2488090328109,102.0690415098804,-126.74500575265564,241.17987767526128,186.3197399474701
434,5.7042892528712965,-241.006768945067,-18.12756231617474,-18.319218138172676,84.24540407488334,-134.5697362506064,241.35832453009567,188.22623986375748
435,6.798799950286052,-241.02264352783376,-16.669067223270126,-25.965073215590913,66.74483103349081,-142.64632762986918,241.28328114798947,190.95683659487804
436,8.042069662024868,-240.75048425953085,-15.35566629933665,-34.16313055878777,49.66101469386847,-150.92875058437068,240.97160624337326,194.4890815395604
437,9.398988576610233,-240.21780230808793,-14.184575593625043,-42.871526641083854,33.06385112486553,-159.36209477783726,240.4442371117113,198.79478607298188
438,10.833357701303774,-239.45564574245927,-13.151423307259353,-52.03038330516223,16.99937372783448,-167.88371893235626,239.72524351256004,203.84069058195624
439,12.308598531240055,-238.49750135471413,-12.250361416998926,-61.56294590595543,1.4901154680126274,-176.42447622367607,238.84088536096357,209.5893192548947
440,13.788464545340117,-237.378233845081,-11.474203833989826,-71.37721943164566,-13.464121985774426,-184.91000809333295,237.81870697921892,216.00001409947453
441,15.237744584259936,-236.13309261989116,-10.814591382102464,-81.36804658453114,-27.885120498698132,-193.2621007377151,236.68669606978753,223.03012905937464
442,16.622947138498404,-234.7968107067171,-10.262182577171405,-91.41955384214043,-41.81475158853272,-201.40009691123083,235.47252986165384,230.63635077740977
443,17.912953788385572,-233.40281398081865,-9.806867690141775,-101.40787781136963,-55.313170531140116,-209.24235188747252,234.20292459585636,238.7760978552968
444,19.079629556099082,-231.982552484668,-9.438001904865072,-111.20407529421111,-68.45673205791472,-216.70771727572958,232.9030981214667,247.40893700944503
445,20.098377827287184,-230.56495945717413,-9.144651638716267,-120.67711643892292,-81.33565970103629,-223.7170307202255,231.59634923497615,256.4979438635481
446,20.948627879048743,-229.17603806366026,-8.9158464781893,-129.69686083952948,-94.05149940915186,-230.1945841021061,230.30375182604445,266.0109295213775
447,21.614243942271987,-227.83857103821387,-8.740827900116443,-138.13692099608681,-106.71438767539642,-236.06953849013948,229.04395721075034,275.9214524856579
448,22.08384604087077,-226.57194479985117,-8.60928509479261,-145.87732566911282,-119.44016563652465,-241.2772514650239,227.83309452278783,286.2095395476013
449,22.351034533594117,-225.3920772140987,-8.511567763403349,-152.80690684692814,-132.3473735353872,-245.7604821111794,226.68475682816296,296.8620491177242
450,22.414512449168967,-224.31143692503613,-8.438865776478684,-158.82534767927905,-145.55416432641175,-249.47044115102173,225.6100596383715,307.87262567026704
451,22.278102454213503,-223.33914179650847,-8.383346264749061,-163.84484403557323,-159.1751804742063,-252.36765823203558,224.61775846533672,319.24121349321206
452,21.95065848272951,-222.4811242612994,-8.338240264089826,-167.79134843070756,-173.31844338383118,-254.42264479537639,223.71441276968616,330.97312028335284
453,21.445875352698362,-221.74035220653315,-8.297873361140816,-170.6053811351443,-188.08230964621856,-255.61633869739808,222.90458498200286,343.0776447470295
454,20.78200274589213,-221.11709528915492,-8.257637524110864,-172.24240892189107,-203.5525517745933,-255.94032535081897,222.19106503060706,355.5663059972682
455,19.981472457541663,-220.60922799896008,-8.213904122069907,-172.67280706050775,-219.79962283924937,-255.39683912408867,221.57511266225788,368.4507351415308
456,19.070449702972663,-220.21256208495225,-8.163880929805835,-171.88143487222513,-236.87616390878708,-253.9985574161452,221.05671149455546,381.74030991002724
457,18.078320493195747,-219.92120195818168,-8.105418692203314,-169.8668690973851,-254.8148102335414,-251.76820737722264,220.63483002370225,395.4396301992542
458,17.03712766758201,-219.72791731960027,-8.0367755257453,-166.64035166734817,-273.62634692941407,-248.73801097545322,220.30768567574768,409.5459448465018
459,15.980968094806538,-219.62452754809385,-7.9563499410447065,-162.2245180744319,-293.29825833492276,-244.94899778323088,220.07300844847103,424.0466471980062
460,14.94536294163642,-219.60229233933487,-7.862395423925743,-156.6519784228555,-313.7937082023706,-240.45021675672308,219.92830077026258,438.9169591723351
461,13.966612050021599,-219.6523027404339,-7.752731088380911,-149.96382499557436,-335.0509810739008,-235.29787877978964,219.8710899484437,454.11792095161235
462,13.081142609535213,-219.76586622595164,-7.624463682486805,-142.20813787071475,-356.98340848101316,-229.55446082299082,219.89916915352336,469.59479625318136
463,12.32486151670969,-219.9348790727864,-7.473736117498684,-133.43855406868101,-379.47979631029307,-223.28779989994604,220.01082255933517,485.27599106354825
464,11.732520025976019,-220.15217921976944,-7.295516817983145,-123.71295622622297,-402.40536117087163,-216.5702005412235,220.2050302421441,501.0725667368923
465,11.337098520814886,-220.41187303430894,-7.083442782484703,-113.09232425774661,-425.60317380148564,-209.47757384735462,220.48164873406466,516.8784072500467
466,11.169218545278648,-220.7096297817716,-6.829727564802429,-101.6397785331732,-448.89609680162084,-202.08862025320283,220.8415635636654,532.5710764837999
467,11.25658873712851,-221.04293795270655,-6.525143600394542,-89.41982687439355,-472.08919250881854,-194.48406262874545,221.28681055263687,548.0133758353434
468,11.623491052565146,-221.41131792541753,-6.159086367123746,-76.49781161766107,-494.97256464741713,-186.74593153234193,221.82066304546737,563.0555859904822
469,12.290313689797813,-221.81648576320578,-5.719725653542252,-62.93953868433134,-517.3245845067158,-178.95690043258315,222.44768265723013,577.5383499614444
470,13.27313745967961,-222.2624632473992,-5.19424664793298,-48.81105946990277,-538.9154394445366,-171.19966573039915,223.17373150536233,591.2961285834638
471,14.583383018584884,-222.75562948840755,-4.56918064024945,-34.17856945848564,-559.5109294715372,-163.55636468836917,224.00594419083373,604.1611359251782
472,16.227527141168302,-223.30470972649175,-3.830821863184373,-19.1083852876379,-578.8764274992006,-156.10802395626433,224.9526580727822,615.9676416268109
473,18.206896665794925,-223.92069744071614,-2.965723521800833,-3.6669643220821735,-596.7809110234095,-148.9340320617853,226.02330080840449,626.5565105501419
474,20.51754856546387,-224.61670673751496,-1.9612625975087519,12.079063193449045,-613.0009676968715,-142.1116306864756,227.22823478109552,635.7798373790575
475,23.15024363836513,-225.40775310603348,-0.8062597052414763,28.06287085788938,-627.3246745188138,-135.7154214025668,228.57855880923853,643.5055249778067
476,26.090519520103264,-226.31046190891846,0.5083628705638966,44.21743355641676,-639.5552504894786,-129.81688637653122,230.08586830481076,649.6216505926055
477,29.318866005076934,-227.34270546918398,1.9889048407035284,60.47554802922569,-649.5143859198907,-124.48392290974981,231.76197586447606,654.0404637595805
478,32.81100192675176,-228.5231714634062,3.63821589645484,76.76987103872855,-657.0451586815082,-119.7803923337667,233.61859525464024,656.7018647089749
479,36.53824816197319,-229.8708676878525,5.455052907431215,93.03296444141951,-662.0144592684308,-115.76568384353038,235.66699303447433,657.5762231361228
480,40.4679860971297,-231.40457114946005,7.433492763308192,109.19733506769673,-664.3148633026751,-112.49429374969269,237.91761368164373,656.6664154631845
481,44.56418576337756,-233.14223261474623,9.562427811772887,125.19546011098646,-663.8659118743636,-110.01542046090161,240.3796858538878,654.0089842488625
482,48.78798346277053,-235.10035083079654,11.825170247726046,140.95979543475482,-660.6147853628303,-108.37257465384845,243.06081901647187,649.6743547687719
483,53.09828560837894,-237.2933333091244,14.199190220063196,156.4227738245074,-654.5363828137089,-107.60320181654276,245.9666009021977,643.7660785402521
484,57.45237410739327,-239.73286265379397,16.65600991579308,171.51681126283546,-645.6328444689041,-107.7383107973437,249.10020711294246,636.4191094175993
485,61.80648914184259,-242.42728866976026,19.161272366869778,186.1743501486552,-633.9325782830076,-108.80209827667204,252.46203451600022,627.7971532215413
486,66.11636757023996,-245.38106656751816,21.6749991679269,200.32797744040087,-619.4888713550253,-110.81155656086344,256.04936970286076,618.089165503845
487,70.33771910594113,-248.59426029830533,24.152045813830384,213.91066152012968,-602.3781835957651,-113.77605183663968,259.85610253441206,607.5051029640958
488,74.42662763439739,-252.06212757030963,26.542757118113567,226.85615283899682,-582.6982332511316,-117.69686271666379,263.8724928825394,596.2710612940866
489,78.33987127354241,-255.77479983852726,28.793818276174854,239.09958912627903,-560.5659916957127,-122.56667484319536,268.08499651889593,584.6239548372525
490,82.03516179483613,-259.71706693787223,30.84928971444354,250.57833577064903,-536.1157075509584,-128.36903618426294,272.47615406195376,572.8059102273061
491,85.4713114060174,-263.8682722392807,32.65180607093144,261.23307636551505,-509.49707681467675,-135.07778846677658,277.0245450634097,561.0585557843887
492,88.60834204653068,-268.2023203432958,34.14391167800693,271.009148440224,-480.8736655243099,-142.656501503212,281.7048075880204,549.617389698812
493,91.40755857807828,-272.68779555818134,35.26949707749113,279.85809645808047,-450.4216740582469,-151.05794743948724,286.48772194782657,538.7064021165843
494,93.83161206613526,-277.28818600141466,35.97529391148113,287.73938969862013,-418.3291075079357,-160.22365982398267,291.3403556819,528.5331089254782
495,95.84458248748864,-281.962205410139,36.21237966460427,294.6222281636842,-384.7953851652963,-170.08362688455904,296.22626565854335,519.2841288524535
496,97.41211144645318,-286.664203023948,35.93763980011736,300.48733685214785,-350.03138526882896,-180.5561689882873,301.10575266623084,511.12140196090377
497,98.50161457510163,-291.3446516472127,35.11513329570452,305.32862964328314,-314.2598807132147,-191.5480469389481,305.9361644579338,504.1791094957261
498,99.08260005646143,-295.95070550506495,33.717308761978394,309.15461089839005,-277.7162801137781,-202.95484096450738,310.67224522783505,498.5613160008115
499,99.12711411742958,-300.4268227377628,31.726022369910236,311.9893780963874,-240.64954946095955,-214.66163063520125,315.2665329481791,494.34031894646137
500,98.61032644543795,-304.71545186563645,29.133315692096495,313.873094525462,-203.3231555783631,-226.54399426720175,319.66981047673323,491.5556627599119
501,97.51125845131607,-308.7577863905827,25.941921063637167,314.861818944055,-166.01584630250295,-238.4693332972305,323.83162100540386,490.21375634916933
502,95.81364551232622,-312.4945956036193,22.165473726185954,315.02661009528634,-129.02206580427986,-250.29851326258247,327.70086201396094,490.28802792490063
503,93.50691143385718,-315.8671412471191,17.828423062675203,314.4518676601103,-92.65179831728572,-261.8877988739566,331.22647302349947,491.71955852158663
504,90.58722024549553,-318.81818787130425,12.965648686307784,313.2329254441967,-57.22964071182644,-273.0910465860425,334.3582300193799,494.4181543658693
505,87.05855813901233,-321.29310919202857,7.6218000478837835,311.4729727994718,-23.092924143312167,-283.76210434242387,337.0476530796048,498.26384403318906
506,82.9337879716622,-323.2410838659507,1.8503897859267568,309.27944008748096,9.411263126624817,-293.7573551469936,339.2490239163599,503.1088132188934
507,78.23561134490292,-324.6163626297964,-4.287319398144839,306.7600364032627,39.93025696919424,-302.93832939869657,340.9204976379424,508.7798115644374
508,72.99736963120597,-325.37957580824065,-10.723587832373978,304.01866653819616,68.11125612030862,-311.1743015162098,342.0252793523454,515.081077183773
509,67.26361582452728,-325.4990372473392,-17.38558250130588,301.1514743043129,93.60801236824607,-318.3447805113831,342.5328228615887,521.7978223492994
510,61.09039361417011,-324.95198950038554,-24.196823138638944,298.2432571895647,116.08869967211514,-324.3418028335432,342.41999740748236,528.700307518258
511,54.54516826377439,-323.7257273350177,-31.078647840775652,295.36447091384287,135.2448159723701,-329.0719392505731,341.6721609535374,535.5485017878474
512,47.70636545562452,-321.8185338187685,-37.9516626871062,292.56899297895785,150.8008905515359,-332.4579352172961,340.2840762146744,542.0972886456348
513,40.66248919997187,-319.2403662059661,-44.73714771314357,289.89274746036693,162.52468396341214,-334.4399153087654,338.2606092783285,548.1021298868003
514,33.5108081457632,-316.0132375685,-51.35839817168068,287.3532191596675,170.23748274385824,-334.9760966326025,335.6171600038869,553.3250516231014
515,26.35562064563855,-312.17125376823645,-57.741984351919804,284.9498158656861,173.82401672405064,-334.0429744550834,332.37978739960346,557.540769418651
516,19.306131544768697,-307.76028252818196,-63.81891526595039,282.66498326780516,173.24147342593122,-331.6349667705572,328.58501015585927,560.5427314966363
517,12.47399620989049,-302.83725013548724,-69.52569192705384,280.4659439583788,168.52706113976583,-327.7635333628876,324.27928031952115,562.1488370447867
518,5.970608063536341,-297.4690796650709,-74.80523570537937,278.3069204132062,159.80358668550966,-322.4558169748568,319.5181445538804,562.20658654593
519,-0.0957765642439832,-291.7313009575538,-79.60767730839963,276.1317076396437,147.28256938451602,-315.75288538027274,314.3651210175395,560.5974449162532
520,-5.622969192684999,-285.70637624941855,-83.8909929793315,273.87647741097703,131.26450976779307,-307.707678751898,308.8903301896256,557.2402444910526
521,-10.517720513167953,-279.4817964362882,-87.62147677208955,271.47271536899007,112.13606605342702,-298.382783238571,303.16892541452313,552.0935188933036
522,-14.698415447000999,-273.1480116900716,-90.7740411352588,268.85020893587733,90.36405476939004,-287.8481575823709,297.279374216008,545.1567331164528
523,-18.097479916584884,-266.79626643686333,-93.33234227885494,265.9400143978979,66.48637118310566,-276.17893501728906,291.3016449643127,536.4704495562921
524,-20.663398437797326,-260.51641214668695,-95.288731537995,262.6773346270875,41.10010452729787,-263.4534087590922,285.31535537356865,526.1155320063737
525,-22.362258174970513,-254.39477171372386,-96.6440386576448,259.0042359560186,14.8472855297904,-249.75128820566283,279.3979395564707,514.2115279762784
526,-23.178755773560994,-248.51212641180214,-97.40719714123831,254.87212683983836,-11.601165562190268,-235.15228732840583,273.6228890136763,500.91437671951377
527,-23.116626845521637,-242.9418906299647,-97.59472539470688,250.24391605159704,-37.5626339973697,-219.7350795620962,268.0581200695922,486.41356689705634
528,-22.19848332137612,-237.74853105575963,-97.2300804827955,245.0957677002716,-62.36045092270711,-203.576627189064,262.76451596592267,470.92882393516373
529,-20.465069859266,-232.98627609588527,-96.34290405370301,239.41837645937645,-85.34128624746982,-186.7518694653212,257.7946861571433,454.7063588746605
530,-17.973975712183545,-228.69814874330768,-94.96818242766153,233.21769963138937,-105.89164584248729,-169.33373365185784,253.19197834079583,438.01467332667073
531,-14.797861256350293,-224.9153426269025,-93.14534487555373,226.51510224230796,-123.45290111147634,-151.3934172780058,248.98977040355769,421.13989835848264
532,-11.022277196258273,-221.6569475253164,-90.91732547126537,219.3468954988123,-137.5343767912882,-133.00087855100503,245.21105988769608,404.380650443797
533,-6.7431681834706785,-218.93001807050484,-88.32961426296825,211.76327561012297,-147.72413305338418,-114.22546481766855,241.86835813777256,388.04241145786125
534,-2.0641607976106386,-216.72996833621255,-85.42932262175867,203.8266974306938,-153.69719262005813,-95.1366063616765,238.96388551255677,372.43147640236464
535,2.906261347473548,-215.04126572140083,-82.26428539804739,195.60974420789358,-155.22107631004607,-75.8045045570148,236.4900534580001,357.84855623177464
536,8.057594753228807,-213.8383898875997,-78.88221911470768,187.1925794661426,-152.1586164245836,-56.300749235242435,234.43020924631045,344.5821683169282
537,13.280071182975771,-213.08701632443078,-75.3299513232169,178.66008794350367,-144.4681133859608,-36.698809335975824,232.75961021835056,332.9019886466478
538,18.467246131844913,-212.74537938865092,-71.65273202748811,170.09882761357918,-132.20098504156059,-17.07435234969768,231.44658691882694,323.0523733383253
539,23.518347781213535,-212.7657665091559,-67.89363415161347,161.593922745339,-115.49712901228517,2.494639447880794,230.45384902668073,315.24627875170415
540,28.34032699693476,-213.09609374685508,-64.09304656127121,153.2260282788838,-94.57827586957164,21.927975225738262,229.73988469275358,309.6598167628973
541,32.8495635108243,-213.68151299164703,-60.2882601690564,145.0684892828312,-69.73965440066453,41.14359089137058,229.2604028361513,306.4276726839692
542,36.9731988921267,-214.4660026800215,-56.51314514755228,137.18480742315967,-41.34031957192197,60.05810760550901,228.9697690588533,305.63958688457035
543,40.650082809159485,-215.3938969487233,-52.79791529596524,129.62651081639584,-9.792509226351225,78.58759557035486,228.82238899180277,307.33805759720815
544,43.83133468610378,-216.41131243664677,-49.16897429408365,122.43150553914677,24.44960229313641,96.64851359158642,228.77399779455249,311.5173639171728
545,46.480537338979325,-217.4674372216788,-45.64883796642947,115.62296712123364,60.90139558707891,114.15878429236432,228.78282070543665,318.12393977484766
546,48.57359179043297,-218.51565234596012,-42.25612660538974,109.20880907757797,99.05920616494316,131.03895575639882,228.81057645422283,327.058059464192
547,50.09827270767036,-219.5144628283383,-39.00562165677427,103.18174349109796,138.4113279087143,147.21339348783013,228.82330259355004,338.17673161472237
548,51.05353151190856,-220.42822181636637,-35.90838147787033,97.51992637464902,178.44835506206394,162.61144248927474,228.79198909108771,351.29764770470473
549,51.44859907998395,-221.22763846993948,-32.97191122343404,92.188158370558,218.67264446699394,177.16849839435258,228.6930136651214,366.2039963330985
550,51.30194208355119,-221.89006721321488,-30.200382014238397,87.1395895739731,258.60673093380944,190.82692929665154,228.50837923566272,382.64993564407166
551,50.64012637049514,-222.3995830130237,-27.594894314163575,82.3178564365254,297.80058189219386,203.53679656197096,228.22576038465994,400.3665120818504
552,49.49663742230103,-222.7468541288525,-25.153779840722777,77.65955989101225,335.83763031964304,215.2563337350578,227.83837169847087,419.0678218257662
553,47.91070207195914,-222.92883009112882,-22.87293538640694,73.09697858798894,372.3395748763736,225.95215742559702,227.34467613731837,438.4572291471943
554,45.9261479159269,-222.94826825130892,-20.746180886817115,68.56090111438198,406.9699809534131,235.5992018538069,226.7479560190988,458.2334806257454
555,43.59032800454207,-222.81312682870902,-18.76563334865408,63.983457524656124,439.4367541878916,244.18038803429275,226.0557726915354,478.09658272345746
556,40.9531292235148,-222.535855660679,-16.922088060470962,59.30083396485565,469.4935876661646,251.68605760038878,225.2793433105381,497.75333989005054
557,38.06607391628279,-222.13261759266888,-15.205398618374385,54.45576443366309,496.9405047299825,258.11321827730933,224.43286412296533,516.9224787057207
558,34.98151633646221,-221.6224734968211,-13.60484724686635,49.39971016498003,521.6236305728854,263.46466137676566,223.53280914088046,535.3393083818348
559,31.75192901224248,-221.0265623311433,-12.109496516768505,44.09465865096933,543.4343275592139,267.7480199157582,222.59723116073854,552.7598873394031
560,28.429269375238775,-220.36730461598444,-10.708513243545378,38.514499209238274,562.3078218834041,270.9748379256184,221.6450889388385,568.9646782251953
561,25.06441411499806,-219.6676534393417,-9.39145569333414,32.64595769298836,578.2214340995977,273.1597168558251,220.69562024663452,583.7616792314925
562,21.706647606003916,-218.95041192956478,-8.148516503375909,26.489096421374008,591.1925053252573,274.31959432230974,219.76777581003088,596.9890188141596
563,18.403191321340927,-218.23763050902335,-6.970715723499433,20.05740395593375,601.2760872850768,274.47319523317606,218.8797241871288,608.516995853679
564,15.19876321232131,-217.5500917188052,-5.850040675668802,13.377511447598597,608.562440676065,273.6406773912701,218.048432928177,618.2495406770125
565,12.135159211013688,-216.9068855394322,-4.779531556646312,6.488578022306385,613.1743651351399,271.84347496443235,217.2893273424051,626.1250669465543
566,9.250852765082628,-216.32507433169806,-3.7533136947040715,-0.5586114511379262,615.2643673221972,269.10432557029003,216.61602517065944,632.1166825933548
567,6.580612229131981,-215.81944390305443,-2.766579054816635,-7.702794637040692,615.0116625649657,265.4474517418954,216.04014348801297,636.2317313566913
568,4.155139781868306,-215.40233562125727,-1.815520934192845,-14.873586673652687,612.6190006574207,260.8988564378353,215.57117308303555,638.5106457918974
569,2.000738913213516,-215.08355367469886,-0.897226765862877,-21.993003353012476,608.3093074447623,255.4866857342062,215.21641510715995,639.0251075157657
570,0.13901978538147916,-214.8703412484324,-0.00953454260131989,-28.977113007155985,602.3221397490503,249.24161005053847,214.9809746766371,637.8755298253312
571,-1.413347490470463,-214.76741936399776,0.8491413814094317,-35.73777456099209,594.9099606242196,242.19717794135806,214.8678061720761,635.1879000589867
572,-2.6448222660606424,-214.777082299065,1.680009355585323,-42.184415431000154,586.3342534653854,234.39010299480654,214.8778051512174,631.1100424694823
573,-3.5491176347065756,-214.8993436969421,2.484118655506855,-48.22580022126134,576.8615056786631,225.86045379001226,215.0099419662353,625.8073851918916
574,-4.12525380614859,-215.13212750129745,3.262590994832648,-53.77174147786541,566.7591038533076,216.6517281063824,215.2614321940216,619.4583353035883
575,-4.377537003937511,-215.47149761143683,4.016858897197779,-58.734708614919526,556.2911911981337,206.81080465689962,215.62793875652198,612.2493824219958
576,-4.315462459585015,-215.91191970814526,4.7489034945581725,-63.03130104210106,545.7145435855418,196.38777770870897,216.10380018402793,604.3700628947482
577,-3.9535420587240457,-216.446548172658,5.461483069695342,-66.58356575205715,535.2745229779604,185.4356912984402,216.6822789719233,596.0079233061172
578,-3.3110588950581907,-217.06753046795893,6.15834254479169,-69.32015613058898,525.2011670879747,174.01019951078624,217.355823446768,587.3436240903109
579,-2.41175230130711,-217.766320812238,6.844393470798239,-71.17734462679351,515.7054729391145,162.16918656609664,218.11633602397546,578.5463219406272
580,-1.283437814702931,-218.5339946674934,7.525854053431703,-72.09991419422268,506.9759305747393,149.9723844735058,218.95544042611874,569.7694638574028
581,0.04243294098961524,-219.3615558512842,8.210339403348213,-72.04195990466702,499.175362141976,137.48102631144326,219.86474070487395,561.1471164700868
582,1.5312671662653885,-220.24022915827973,8.906893500814164,-70.9676319276803,492.4381209812206,124.75756984086999,220.83606598025418,552.7909419562305
583,3.145875022297924,-221.1617331418532,9.625956184261057,-68.85184454700429,486.8677046212555,111.86551966061363,221.8616965694876,544.7879165385198
584,4.847057053835272,-222.1185298312861,10.379260542271368,-65.68096452133982,482.5348338330075,98.86936736141416,222.93456929130014,537.1988691307687
585,6.594228479098732,-223.10405026686945,11.179658157907504,-61.45347808961623,479.4760462680382,85.83465918120227,224.04846180729777,530.0578962355177
586,8.346073392902346,-224.11289652421198,12.040871670701742,-56.18062166690561,477.69284713085267,72.82819051568529,225.19815760029547,523.3726848901446
587,10.061221357569279,-225.1410221935393,12.977176214470242,-49.88694880861604,477.1514506284095,59.91831706956786,226.37959442208532,517.1257487958255
588,11.69893817540182,-226.18589393356524,14.003013512791927,-42.610796660809875,477.7831347631373,47.175363894150884,227.58999962682782,511.2765544277776
589,13.219821721960493,-227.24663654916444,15.132544610611157,-34.40460942308649,479.485218779928,34.67210617842603,228.82801554527248,505.7644847184336
590,14.586492497360219,-228.32416290286523,16.379149252060735,-25.335074283605856,482.12265779556583,22.484289377410274,230.09381679640856,500.51255870298183
591,15.76426711185049,-229.42128791462582,17.754881904514043,-15.483026523836005,485.53023349613295,10.69115100528912,231.38921924454513,495.43179727043264
592,16.72180147918832,-230.54282325964516,19.269896595131236,-4.943084764015505,489.515303991087,-0.6240977379274801,232.71777754192578,490.4260988732506
593,17.4316892386607,-231.69564659413575,20.93185506973353,6.1770155453404145,493.8610606172253,-11.37387516081911,234.08486530958658,485.39746566802205
594,17.87100003008291,-232.88873656879156,22.745335099205086,17.757412601127996,498.3302253233975,-21.465962871306953,235.49772934166552,480.2514009858259
595,18.02174197579072,-234.13316274618734,24.711257843298352,29.667443334606904,502.66911006747375,-30.803414981834695,236.96550699462935,474.9022843020482
596,17.871233412762205,-235.44201803676995,26.82635487082878,41.76730116907573,506.6119506340006,-39.2846843257566,238.4991943730642,469.2785213695685
597,17.41237077004939,-236.83028061224016,29.082696531806207,53.91001177335235,509.88542286613307,-46.80400193599031,240.11155225403294,463.32726648465183
598,16.643782500217114,-238.31459258504418,31.467303712006807,65.9436998099894,512.2132506506906,-53.25203899453031,241.8169370310471,457.0185222875733
599,15.56986301825041,-239.9129441899025,33.96186450472328,77.71410801869901,513.3208224897446,-58.51687227172939,243.63104542089943,450.3484406013393
600,14.20068547826108,-241.64425488412866,36.542575957893234,89.06731902769606,512.939746571268,-62.48526525578946,245.5705643495159,443.3416751179909
601,12.551797670429726,-243.52784668211137,39.180128700534766,99.85262001806878,510.81229145806805,-65.04426818068231,247.65272125613305,436.0526718195002
602,10.643911044496532,-245.58280999248973,41.83984887996244,109.9254408605394,506.69567865781914,-66.08313141552836,249.89473482030877,428.5658236244594
603,8.502498444810474,-247.82726802902263,44.48200755547914,119.15028797438414,500.3662117472386,-65.49551846908963,252.31317158123423,420.99445909301255
604,6.157320936952174,-250.27755229255766,47.06230265754716,127.403589634253,491.6232416793451,-63.18199709055048,254.9232198202516,413.4786782002772
605,3.641907350839878,-252.94730832901334,49.53251294541256,134.57636465943338,480.29297712621377,-59.0527789736804,257.73789804626233,406.18208867808914
606,0.9930112493146123,-255.84655747027512,51.84131716557554,140.5766261625622,466.23215071020894,-53.03066943465729,260.76722099469345,399.28753241220306
607,-1.7499313329950277,-258.9807460549794,53.93526497945398,145.33143579963914,449.3315462459437,-45.05417733149276,264.0173508042522,392.99192193307107
608,-4.545323837605927,-262.34981831573856,55.75987948372565,148.78853179165242,429.51937926695695,-35.08072213274438,267.48976471840365,387.5003321575399
609,-7.349897218061502,-265.94735249317745,57.26086471352728,150.91746540080155,406.76450484173387,-23.089859677568217,271.1804731989736,383.0195129918458
610,-10.11915793816428,-269.75980175608083,58.38538579118582,151.71019457464377,381.0794053619436,-9.086431545213191,275.0793238005489,379.75100521038587
611,-12.807797979962684,-273.765882243492,59.08338456642481,151.18109890754042,352.52288898934444,6.896473585678078,279.1694266409781,377.8840558397806
612,-15.370076955920354,-277.93615000242414,59.308889770301526,149.3663958458954,321.20240862683096,24.79487266536086,283.42673680810174,377.5885400706868
613,-17.7601936209488,-282.2328065418629,59.02127805327884,146.32295358034528,287.27589280547306,44.51169126852976,287.81982733387554,379.00810383498253
614,-19.932669760238845,-286.6097687742356,58.18644116971351,142.12651129541007,250.95296445272967,65.91515690390214,292.30988309620983,382.2537436850948
615,-21.842772941559538,-291.01303300676966,56.77781550583503,136.86933290008764,212.49541175091633,88.8379193026962,296.8509409907661,387.3980377070498
616,-23.44700546894248,-295.3813543802168,54.777233627318154,130.6573370127501,172.21676816134553,113.07702356094997,301.3903950585243,394.4702326248594
617,-24.70368481408338,-299.64725290016645,52.17556385300345,123.60676507713892,130.4808577120219,138.39484418557913,305.86977721188936,403.4523784353145
618,-25.57363579045005,-303.73834515123997,48.97311297574547,115.84047225901703,87.69916896726208,164.52106376264686,310.22581494696846,414.27668381308166
619,-26.021006818383604,-307.5789870653364,45.17977873728792,107.48395288496637,44.32693919082325,191.15574953782334,314.3917569798203,426.82424412198395
620,-26.014211948464784,-311.0921978605936,40.814951897769866,98.661243154361,0.857861194330209,217.97354488950816,318.2989460144084,440.9252692336597
621,-25.5269872335312,-314.2018187110557,35.90718181599125,89.49087649401714,-42.18263002084989,244.62895066430983,321.87860474022614,456.3609086151507
622,-24.53953521480828,-316.834842317069,30.49363294967069,80.08209703102276,-84.24547692971582,270.76262406750305,325.0637866546127,472.866731968412
623,-23.03971559790095,-318.92383220105916,24.619370667238773,70.53155819285993,-124.76744643118172,296.00857125747257,327.79142775051645,490.13786932575675
624,-21.02422485992185,-320.4093347738928,18.33652127953157,60.92073929703063,-163.18175711810017,320.00205582018214,330.0044196689368,507.83574106208914
625,-18.49969428122545,-321.2421751428913,11.703351927572196,51.31429625645175,-198.92967521693163,342.3879917631817,331.653611746065,525.5962183933407
626,-15.48362681399285,-321.38552150627856,4.78331064309104,41.75951801673318,-231.47281143304343,362.82954052087825,332.699641136381,543.0389598681612
627,-12.005090208889218,-320.8166045832072,-2.355943535078243,32.28698617762384,-260.305807086276,381.0165916034861,333.1144892500872,559.7775855444113
628,-8.105088185255534,-319.5279890025929,-9.643503962961736,22.912434567977762,-284.96906777005455,396.6737813473658,332.88267076739396,575.430291949845
629,-3.836543337542841,-317.5283133033523,-17.006170380257092,13.63968831387165,-305.0611855437295,409.5676987665427,332.00197908755615,589.6304832328833
630,0.7361561948779844,-314.8424434045977,-24.36940097353107,4.4644457666224335,-320.2506839904377,419.51294527445145,330.4837383311099,602.0369943927276
631,5.538071573240681,-311.51101872961596,-31.658275207583586,-4.621425740605287,-330.28672128759797,426.37675704569364,328.35254426351133,612.3435048204465
632,10.485090001538913,-307.58940686490826,-38.79847956410127,-13.62545699240093,-335.0083921163153,430.0819632845064,325.64551070154164,620.2867801682878
633,15.485738245206113,-303.14611748520343,-45.717322789959994,-22.550375710656354,-334.35227871443686,430.60813666242615,322.41106969911664,625.6534370182422
634,20.44338280295673,-298.26075568091494,-52.34477821489149,-31.390447004231298,-328.35791604752825,427.99088787359034,318.70739938880735,628.2849977151816
635,25.25874319048856,-293.02161648475607,-58.61453988634524,-40.12857269699794,-317.1708600147897,422.3193571680091,314.60057041040926,628.081088396059
636,29.832624365864497,-287.5230354153869,-64.4650685216914,-48.73426388458336,-301.04308686899003,413.73205335238185,310.16250953120266,625.0007245400851
637,34.06875858447466,-281.8626144437304,-69.84059445633437,-57.16250968814458,-280.33051301883114,402.4112769870004,305.46887789094717,619.0617185856453
638,37.876637642552865,-276.138439761749,-74.6920395512039,-65.35349986668514,-255.4875117465395,388.5764329432182,300.59695290109215,610.3383303200997
639,41.17421483928821,-270.446398230366,-78.9778195380307,-73.23312480228626,-227.05841777137508,372.47658355957094,295.6235895348664,598.9573625897885
640,43.890362367831614,-264.8776848225957,-82.66449277727129,-80.71416968271616,-195.66614706606316,354.38261416123527,290.6233212251934,585.0929807887729
641,45.96698334004591,-259.5165754146463,-85.72723012041317,-87.69813087084306,-161.9982072664771,334.5793759493233,285.6666451793073,568.9605984186752
642,47.36069648284564,-254.43851969550875,-88.15009181338253,-94.07759985155431,-126.79051894491289,313.3581378476786,280.8185231048051,550.8102122944713
643,48.04403372377765,-249.70858962766772,-89.92610897948899,-99.73917361377376,-90.80959456602496,291.00962278099297,276.1371168224679,530.9195779485098
644,48.00611471677977,-245.38030154397234,-91.05717725529544,-104.5668530706317,-54.833716788810904,267.8178324099308,271.67276932332663,509.5875798705392
645,47.252786494630485,-241.4948157653999,-91.55377747803647,-108.44588005463301,-19.63381201943507,244.0547869908053,267.4672354951454,487.1280721835788
646,45.80623966228696,-238.08050678362045,-91.43454263629644,-111.26693875614731,14.045274533793135,219.97623304247375,263.55316249363005,463.86435533739575
647,43.70413374597113,-235.15288901278902,-90.72569196507041,-112.93061241642332,45.50242773549418,195.81830818206254,259.9538167098552,440.1243363248726
648,40.998282565708124,-232.71487710162583,-89.4603529559475,-113.35194653274087,74.0962290523721,171.79510440093082,256.6830517321701,416.23631855903886
649,37.75296514465586,-230.75735520889162,-87.67779118939822,-112.4649334406346,99.2587318849992,148.09704007299578,253.7455092098328,392.52529925504604
650,34.04293829566497,-229.26002604514196,-85.42256699982427,-110.226707731318,120.50665462720306,124.88993649318734,251.13704186511964,369.3096211931272
651,29.951233462211697,-228.19250745402718,-82.74363727030774,-106.62123367424768,137.4497289254706,102.31469397148261,248.84534481154373,346.8978275704301
652,25.566822703969706,-227.51564143925899,-79.69342007120616,-101.66227755689572,149.7960705039861,80.48747143430543,246.85077758168487,325.58559508524286
653,20.982237157700744,-227.18297753523686,-76.32683945354073,-95.39548868138638,157.35456317934688,59.50028794464015,245.12735481065545,305.65266277710896
654,16.291216266107167,-227.14238919920373,-72.70036769334668,-87.89945839651374,160.0343577100819,39.42198090598616,243.64387861129043,287.35972454242864
655,11.586458178108055,-227.33777871383245,-68.87108267973527,-79.28568081257865,157.84168282497893,20.29947091579098,242.36518077187412,270.94530472096
656,6.957531865360231,-227.7108234124134,-64.89575850345042,-69.69739531985286,150.87424503704128,2.1592948594852364,241.25343848698753,256.62268286091114
657,2.4890005400480484,-228.20271440615306,-60.83000696535082,-59.30734430524247,139.313556657925,-14.990624555954621,240.26952381527835,244.57697106479014
658,-1.7412054845362688,-228.7558388788035,-56.727486275407024,-48.31452570364437,123.41557799190676,-31.159003193076746,239.37434486981064,234.96247159418346
659,-5.6631398063376075,-229.31535880232227,-52.63919067159689,-36.94005692135977,103.5000898956604,-46.36904690351943,238.53013633652336,227.90045081861805
660,-9.215899143082895,-229.83064276371283,-48.61283132339021,-25.422293207287353,79.93922628857904,-60.65616835029047,237.70165854733574,223.4774561920775
661,-12.348385266973677,-230.256513205727,-44.692315019622356,-14.011359861255498,53.14559247151698,-74.06561363034369,236.85726785524398,221.74427588245163
662,-15.019773496750743,-230.5542782349402,-40.91732313473276,-2.9632649510492146,23.56037466454181,-86.65004832825399,235.96982604787007,222.71559982167028
663,-17.199700007545587,-230.6925248355183,-37.32298964624109,7.466240581443866,-8.35818952871906,-98.4671559550805,235.01742269051655,226.37039404168465
664,-18.868187692179628,-230.64765867496214,-33.939673928687675,17.027893153033045,-42.145658435134436,-109.5773024801023,233.9838914893876,232.65295635534233
665,-20.01533657904993,-230.40418447736516,-30.792821898768054,25.48508215542271,-77.34128779889969,-120.04131857881146,232.85910977617147,241.47458747132927
666,-20.640809720114227,-229.95472974333802,-27.902907882941207,32.619804343855364,-113.49678584935906,-129.9184463217748,231.63907857169468,252.71578980870828
667,-20.753149075726046,-229.29982295872213,-25.285449213417742,38.23826864686508,-150.18378577576107,-139.26448957439496,230.32578889334823,266.2288953931006
668,-20.368958331499705,-228.44744504718454,-22.951085801861247,42.17602075085006,-186.99996193551405,-148.13019787478615,228.92688766332532,281.8410217584181
669,-19.51199064474957,-227.41237948574292,-20.90571757118565,44.30246419032815,-223.57377421479563,-156.55990281369725,227.45516348068196,299.3572584197814
670,-18.212178747756024,-226.21539202988467,-19.15069345387488,44.52466261361195,-259.56787679754774,-164.59041506955393,225.9278783809392,318.5639944574496
671,-16.504642533998815,-224.88227518855578,-17.68304640988655,42.790317743518266,-294.6812717626531,-172.25018055179171,224.3659762675713,339.2323087597331
672,-14.428705460433969,-223.44279524847204,-16.49576929838295,39.08983073642687,-328.65032349241505,-179.55868683455637,222.79320172966746,361.12135764910244
673,-12.026946194283601,-221.92958056477872,-15.578126465824912,33.45737219398223,-361.24877652838353,-186.526107130945,221.23516425946468,383.98170941597493
674,-9.344306197845814,-220.37698890092324,-14.915995844140754,25.970908299033667,-392.2869373623231,-193.15316863938946,219.71838236897156,407.5585910144925
675,-6.4272675757138025,-218.8199890264169,-14.49223628309602,16.751156918875697,-421.6101898066564,-199.43123437780122,218.26933999524394,431.595027434198
676,-3.3231088535782978,-217.29308812847245,-14.28707462665628,5.959476909994688,-449.0970140330665,-205.3425910611785,216.91358441581139,455.83486699114184
677,-0.0792400726393471,-215.82933244727982,-14.278506669097471,-6.205275173867655,-474.6566713791325,-210.86093856533208,215.67489122356682,480.02569406487373
678,3.2573865859137365,-214.4594042168514,-14.442705856872914,-19.510855705492272,-498.2267017379441,-215.9520779441695,214.57451802969797,503.9216337804901
679,6.640798082888169,-213.21083358878238,-14.75443371593519,-33.696616897988136,-519.7703598319603,-220.57479432373725,213.63056457242936,527.2860512401921
680,10.026463322851141,-212.10733985512735,-15.18744653816267,-48.47923975215682,-539.2740933118378,-224.68192817706878,212.85745292001732,549.8941423565734
681,13.371707984544514,-211.1683121535046,-15.714893644479172,-63.55907131783085,-556.7451413551553,-228.2216236526304,212.2655376315261,571.5354054045653
682,16.636091668033863,-210.4084360631749,-16.309703209013204,-78.62690182292683,-572.2093085476055,-231.13873627467405,211.86085217741513,592.0159732126548
683,19.78175653864317,-209.8374690747402,-16.944952003788448,-93.371003784827,-585.7089461548848,-233.3763752588931,211.64499459597695,611.1607765335519
684,22.773754898186407,-209.46016470279167,-17.59421561457598,-107.48424708234475,-597.301151986029,-234.87754873802496,211.61515214145697,628.8155004982275
685,25.58036081977724,-209.2763418514696,-18.23189578705831,-120.67110076399325,-607.0561811505768,-235.58687396864755,211.76426141421814,644.8482887175502
686,28.17336823931097,-209.28109290713647,-18.833521542314106,-132.65433365168164,-615.0560432382434,-235.45230944977266,212.08129713155162,659.1511438591755
687,30.528375057303844,-209.4651210495971,-19.37602057762082,-143.18123139861473,-621.3932470982667,-234.426862193872,212.55167946568378,671.6409698810919
688,32.625050315882206,-209.8151945681528,-19.837957410783943,-152.02915798018887,-626.1696430254234,-232.4702216846774,213.15778692482866,682.2602004348937
689,34.44737956803624,-210.3147035378177,-20.199734877409373,-159.01030556069006,-629.4953044763893,-229.55027288080993,213.87955912504682,690.9769614073971
690,35.983882090486624,-210.94430198630405,-20.44375603739669,-163.97549915342196,-631.4873881893058,-225.64444425783591,214.69517145666828,697.7847242199048
691,37.22779254272962,-211.6826166302046,-20.554544368516527,-166.81695155435352,-632.2689133090385,-220.7408531873694,215.58176158365333,702.7014208679826
692,38.177199053375084,-212.50700140616442,-20.518821303813887,-167.46989866827866,-631.9674067857082,-214.83921942593759,216.51618597051353,705.7680112666518
693,38.835129519412256,-213.39431547636661,-20.32554153667932,-165.9130837206583,-630.7133731987066,-207.95152741931557,217.47578330228458,707.0465167907449
694,39.20957809032585,-214.32170137139443,-19.965887894075685,-162.1680987360985,-628.638561311588,-200.10242879232737,218.43912094279298,706.617559101286
695,39.313464344169326,-215.2673397308,-19.43322890064427,-156.29763081791026,-625.8740162883443,-191.32938711334174,219.38670072726745,704.5774686888662
696,39.16451853225968,-216.2111578789689,-18.723043419735372,-148.40269716478437,-622.5479248266163,-181.68257709092688,220.3016015605585,701.035051431951
697,38.785087445643406,-217.13547120288675,-17.832817936450923,-138.61898479833874,-618.783279395585,-171.22455897108858,221.1700384476443,696.1081221471404
698,38.201856919757994,-218.02553884006917,-16.76192310433349,-127.11243746392337,-614.6954059151554,-160.02975526071123,221.98182056541583,689.9199298696725
699,37.445488736475546,-218.87001834180947,-15.511477060977489,-114.0742522505447,-610.3894153868425,-148.1837605033052,222.7306945855904,682.5956092083405
700,36.55017165573319,-219.66130754423455,-14.084203619559556,-99.71546159398774,-605.957653633679,-135.782515698327,223.41456345079638,674.2587952693226
701,35.553088420827066,-220.39576578715952,-12.48429363445643,-84.26128230183319,-601.4772343355888,-122.93137755272238,224.03557508536247,665.0285367873639
702,34.49380277795282,-221.07381091829603,-10.717277609149725,-67.94541231533492,-597.00774870537,-109.74410965811397,224.60008012036064,655.016633747577
703,33.41357286325601,-221.69989313842385,-8.789917059994917,-51.00444868838653,-592.5892496837827,-96.3418183320472,225.11846257169373,644.3255120417306
704,32.354599823131345,-222.28235139114236,-6.710121275883981,-33.67258756064096,-588.2406084129782,-82.8518505850707,225.6048522662444,633.0467284534094
705,31.359223262632995,-222.83316230716733,-4.48689482988056,-16.17674976680911,-583.9583351115137,-69.4066658893272,226.07673230233422,621.2601745415515
706,30.469077876429797,-223.36759533254838,-2.130319587657664,1.2677447611733164,-579.7159449184359,-56.142687653013404,226.5544585871756,609.0340182519343
707,29.724228053692794,-223.90379029403078,0.3484266781368221,18.460853555778403,-575.4639319946075,-43.19913510115065,227.0607111616209,596.4253883177005
708,29.162299069035846,-224.4622750582337,2.9370144629859674,35.22076354869847,-571.130392984665,-30.71683213901318,227.61989834485684,583.4817702292245
709,28.817624599460796,-225.06544104674379,5.621870458938327,51.38606865204874,-566.6223151860133,-18.836987160845116,228.2575346331636,570.2430456966923
710,28.720430823822298,-225.73699326121562,8.388052080112997,66.81714991949215,-561.827517085621,-7.699936932366068,228.99961187687748,556.7440722439262
711,28.896077367340457,-226.50138940861356,11.219093614473326,81.39676238879139,-556.61720108048,2.556151363435169,229.87198082269697,543.0176680237796
712,29.36437491540358,-227.3832801189957,14.096831373732934,95.02986012202817,-550.8490519997453,11.79662332059358,230.89975708890748,529.09784119335
713,30.138998472802978,-228.40695957333872,17.00121764058126,107.6427181512796,-544.3707922657647,19.8917255038573,232.1067625146702,515.0230850626374
714,31.227013951130328,-229.59583339724352,19.910135688443027,119.1814361747426,-537.0240867623702,26.7180340330831,233.51500988945875,500.8395511704724
715,32.62853389965044,-230.9719085062171,22.79923054835895,129.60993281893812,-528.6486789977523,32.159914170668,235.14423639289777,486.6039133733176
716,34.33651557049674,-232.55530773021925,25.64177232089462,138.90755987373856,-519.086635811619,36.110996563617945,237.01148865647295,472.3857473304421
717,36.33671093508944,-234.36381057425643,28.40857042171083,147.06648188828177,-508.186580971089,38.47565094020734,239.13076023859654,458.2692711601462
718,38.607773648895524,-236.4124204675729,31.067957844609246,154.08897662073804,-495.80780802028914,39.17043386588682,241.51268052241173,444.35432341292324
719,41.12152248673216,-238.71295835846803,33.585863973248586,159.98481481270852,-481.8241782874213,38.12548442491761,244.16425262553693,430.7564918338368
720,43.84335498296623,-241.27368256399131,35.925992584790954,164.76887263276151,-466.12772895114443,35.28584110478241,247.08863693001626,417.60634801461913
721,46.73279959901734,-244.0989353926882,38.050118656854224,168.45911653515788,-448.6319363188561,30.612654881668817,250.28497639240678,405.0477861997782
722,49.74419023645823,-247.18881812019123,39.91851362541569,171.07507854474548,-429.2745990518371,24.084277107476844,253.74825985988215,393.2355067278303
723,52.82744356721346,-250.53889723576296,41.49050391458648,172.63691090961146,-408.0203235308701,15.697205501133494,257.46922008430425,382.3317237689639
724,55.92891754857979,-254.13994639043818,42.725161856196905,173.16507368200084,-384.862607857647,5.4668764447789115,261.43426394121576,372.50221138218984
725,58.992328690982205,-257.9777301441177,43.582121566850525,172.68066839279678,-359.82553138644164,-6.5717040265898135,265.6254335618174,363.9118298862145
726,61.95970616364494,-262.0328373583162,44.02250511986732,171.20638739298528,-332.96506265276764,-20.36349546071729,270.0203986593741,356.7196947859963
727,64.772362567189,-266.2805737655039,44.0099367792495,168.76800409579528,-304.36999985238316,-35.83312868686566,274.5924821778979,351.0741620902284
728,67.3718640165589,-270.69092471796023,43.51161560904966,165.3962871864092,-274.1625546772864,-52.88478770602572,279.3107234026018,347.1078064456188
729,69.70098585829663,-275.2286002326445,42.49940995726211,161.1291849349156,-242.49858267525323,-71.40227700209259,284.13998472801046,344.93256246826684
730,71.70464457622437,-279.8531750723567,40.95093175530957,156.01409691766025,-209.56745196567522,-91.24928861741164,289.0411102471633,344.6351861538393
731,73.330800753284,-284.51933671981294,38.85054495831291,150.11003215022265,-175.59152799351776,-112.26988944687712,293.9711461429076,346.27317433067736
732,74.53133180451059,-289.1772537789457,36.19026135482372,143.4894467548725,-140.82523622323248,-134.28925548995394,298.88363451290274,349.87125853177156
733,75.26287606124616,-293.7730765262892,32.970478695022095,136.23956218922933,-105.55364880696482,-157.11468530268485,303.72899358587534,355.41856851192784
734,75.48765125104104,-298.24957976094436,29.200520656752047,128.4629875430408,-70.0905272345446,-180.53692860023045,308.4549979059625,362.8665428316907
735,75.17425017161843,-302.546955400043,24.89894545575255,120.27750648061999,-34.775743015417504,-204.33186684794092,313.00737149985247,372.1276514635055
736,74.29841427677789,-306.6037581392338,20.093599614497418,111.81494000589193,0.02800519971851767,-228.26257975459245,317.3305048833212,383.07498869056076
737,72.8437821238365,-310.3580017262941,14.821405035639636,103.21905800201024,33.939255121114435,-252.0818239928048,321.3683026777904,395.5427922404998
738,70.80260455899194,-313.748395855687,9.127880400427573,94.64258172872017,66.56268826706504,-275.53493765797117,325.0651623566203,409.32794340933486
739,68.1764126642235,-316.7157045008852,3.0664111814365733,86.24339109240664,97.49492185718331,-298.3631658821018,328.36707622602825,424.1924982940866
740,64.97661843836646,-319.2041961566314,-3.30270488039011,78.18011829082133,126.33119518314564,-320.3073803034454,331.22283854649953,439.86728702712963
741,61.225022455334404,-321.16314575874117,-9.913399544584294,70.6073662866414,152.67292472438027,-341.1121391569582,333.58532842137265,456.0565918221879
742,56.95419766939968,-322.5483378774361,-16.695118902074835,63.67082913771329,176.1360637099259,-360.5300074605948,335.412827610943,472.4438742022782
743,52.20771424202466,-323.3235121032654,-23.574204542140947,57.502604834235406,196.36016211814626,-378.32603008124346,336.6703218613938,488.69846980575863
744,47.04016680760124,-323.4616855447857,-30.475325870546637,52.21697549713598,213.01798225595613,-394.2822262107993,337.3307260604073,504.48311255411693
745,41.51696331737044,-322.9462854530756,-37.32292276650538,47.90688450787176,225.82548120502418,-408.2019537316123,337.37596917123517,519.4620968792557
746,35.7138344277584,-321.772028436637,-44.04262320220522,44.64127160353617,234.5519218305188,-419.913977985152,336.79787588309534,533.3098427737382
747,29.71602576347685,-319.9454919416608,-50.56260524900088,42.4633476476137,239.02981739316226,-429.2760737622628,335.5987888255909,545.7195950515151
748,23.61714366327972,-317.4853377865786,-56.81487609116958,41.3898162373373,239.1643536559376,-436.1779942887055,333.7918873641124,556.4119644967752
749,17.51763882607542,-314.42216466265785,-62.73644249742711,41.41099282349579,234.94187422177012,-440.5436586094451,331.4011747344591,565.1430048130425
750,11.52293108472439,-310.79798442548764,-68.27034881925168,42.49173970323019,226.4369708400649,-442.33243983267397,328.46112248590345,571.7115184706956
751,5.741200714536053,-306.66533391563803,-73.36656109172237,44.57312445919234,213.81770246669032,-441.53947973368236,325.015977979109,575.9653008172946
752,0.2808949490863768,-302.086049082111,-77.98267947826623,47.574711409004216,197.34848422414785,-438.19500629350125,321.11875577038035,577.8060675948304
753,-4.751979542255277,-297.12974132837945,-82.08446568257612,51.39740041818281,177.3902443767789,-432.36268427974477,316.8299466297,577.1928656203476
754,-9.256688373936711,-291.87202759923923,-85.64617657725172,55.92672781092376,154.39754285243316,-424.13707941477634,312.2159887525609,574.1438365048039
755,-13.140620862508728,-286.392575927247,-88.65070010777484,61.03653701202745,128.91247326090274,-413.6403598023155,307.347554631577,568.7362839265036
756,-16.322047726729227,-280.77303662366137,-91.08949469127893,66.59291232476853,101.55532357659092,-401.01839151431807,302.2977140363076,561.1050798962181
757,-18.732669593354654,-275.0949351842135,-92.96233886946058,72.45825055142461,73.012138579349,-386.436407271388,297.1400382586023,551.4395270211746
758,-20.319846160946494,-269.43760528255376,-94.2769037159106,78.495326249335,44.01949801506841,-370.0744376063006,291.9467127794584,539.9788630074789
759,-21.04840816947887,-263.876238367256,-95.04816617733056,84.57119248204722,15.346985086831959,-352.12269318822956,286.7867246857305,527.0066411023921
760,-20.90197233111346,-258.48012044702,-95.29768678745762,90.56075497764678,-12.222043144100153,-332.7770761781757,281.7241877698017,512.8442383135415
761,-19.883701484552684,-253.31111712824116,-95.0527795579212,96.3498670460164,-37.91067043367228,-312.23497911313547,276.81686258797293,497.8437298303436
762,-18.01647676597114,-248.42245546837245,-94.34560490230301,101.83781621359203,-60.96885039260853,-290.69150365586074,272.11492096792693,482.3803290353429
763,-15.342473856953191,-243.85783642798512,-93.21221798143804,106.93910925652207,-80.69326844595332,-268.3362005496097,267.6599945834121,466.84454138905716
764,-11.922159839033911,-239.6508954883664,-91.6916048033882,111.58450585655456,-96.44588975904418,-245.3503984090817,263.4845353860783,451.63413373296487
765,-7.832749667834275,-235.8250123743622,-89.82473673865992,115.721297106322,-107.67052019801227,-221.90515477176643,259.61150229121296,437.1459911530581
766,-3.1661808846262525,-232.393454949181,-87.65367088097534,119.31286844346016,-113.90681291686226,-198.15983021051446,256.0543742720851,423.7679272196155
767,1.973318795713579,-229.35982834262572,-85.22071914993491,122.33762336610621,-114.80128108670023,-174.2612570240211,252.81747584847497,411.8705289202045
768,7.471984338740219,-226.71878906837472,-82.56770364553248,124.78737204502522,-110.11501831092258,-150.3434494003052,249.8965878054053,401.7991491537016
769,13.209491895662707,-224.45697572842482,-79.73531006787998,126.66530670512867,-99.72797349518784,-126.5277827936165,247.27980467633995,393.8661993537992
770,19.062063659665846,-222.55410301801396,-76.76254543080579,127.98369365579471,-83.6397683100581,-102.92355683242674,244.94859166798713,388.34393423841266
771,24.905598542031274,-220.98416410488292,-73.68630101089902,128.76141136173788,-61.9671761406414,-79.62884828290777,242.87898768073714,385.45795193336494
772,30.61873007575684,-219.71668800452528,-70.54101663217921,129.0214568913666,-34.93849645332694,-56.731558194725466,241.04289821396495,385.38164912486593
773,36.08571814268011,-218.71800308980124,-67.3584383328542,128.78853163757933,-2.8851544748972957,-34.31056002425695,239.40942244700244,388.231867393696
774,41.19908956749009,-217.95246472100214,-64.16745857355029,128.08680337936238,33.769068764659096,-12.436862725353995,237.94616243593063,394.0659402753647
