time,ax,ay,az,gx,gy,gz,accmagnitude,gccmagnitude
0,9.821118486485348,-250.98128113574055,39.000083997123255,-140.74853532939107,88.42501014916137,19.339429850216952,254.25633666829054,183.27039073559854
1,11.124743115505845,-254.8789655258998,36.49131850555744,-145.2178297362771,108.9898148747337,0.2526865989901123,258.53956921516465,215.69974255641688
2,12.310533878871723,-258.5331944626235,33.97703662641117,-149.17912263228345,128.56531970592266,-18.67432853211651,262.5538659335764,247.53218745841562
3,13.353190444819438,-261.8940629996102,31.52598747208537,-152.3792855758137,146.8382399657315,-37.433165515116926,266.2451184792673,278.41692951539187
4,14.23028675554074,-264.9165431022393,29.201203270991524,-154.596917783506,163.4995079263041,-56.000872664631686,269.56444244109525,308.01787533978256
5,14.922949339190286,-267.56164591162974,27.05776794647165,-155.65025453039647,178.24974854678172,-74.33720119262868,272.46943129225406,336.02066741828907
6,15.41650254515974,-269.7974899620089,25.14094798464879,-155.4039482866416,190.8050830740662,-92.3829537894773,274.92531269561243,362.1395271380839
7,15.701058818121858,-271.60024298948684,23.484770826681395,-153.77444775909012,200.9031637312995,-110.05965214260074,276.9059712483027,386.1237419358777
8,15.77202638579847,-272.9549045424443,22.111113083077292,-150.73369925947773,208.30928929667775,-127.27062310523968,278.3948009209386,407.7635966486067
9,15.630503743420086,-273.8558972075367,21.029332064845423,-146.31091199980017,212.82240312085432,-143.9035187636916,279.3853514113394,426.89552327718644
10,15.283530861516923,-274.3074361506051,20.23644174241572,-140.5921751507747,214.28074190093778,-159.8341974137361,279.8817355804752,443.40623631136583
11,14.74417128368044,-274.32365016919715,19.717801584780457,-133.71779707862913,212.56689263083874,-174.93180610812928,279.8987700005346,457.2356413546893
12,14.03140671127955,-273.9284329858358,19.448257371682345,-125.87735574819797,207.61202898881876,-189.06482654534526,279.46182733464525,468.378355480879
13,13.169835384497318,-273.15501154324323,19.39365020545633,-117.30259412386943,199.3991340106328,-202.10778004122295,278.60638792064054,476.88375150337515
14,12.189176517067986,-272.045228758614,19.51259576057449,-108.25844771793206,187.96506616669384,-213.94823909417852,277.37728872276665,482.85452000704043
15,11.123594033154234,-270.6485509958494,19.758430940447596,-99.03263128465572,173.40138230774528,-224.49376628375606,275.82768047603685,486.4438149677409
16,10.010862553872549,-269.0208241462414,20.081228662561983,-89.92431708089211,155.853885817115,-233.67839742159114,274.0177174511853,487.8510983173683
17,8.891405814666419,-267.22281517199076,20.429791527299273,-81.23249289322288,135.5209166990258,-241.4683041301167,272.01301752253363,487.3168234208223
18,7.80724186746551,-265.3185870432427,20.753549168438525,-73.24458785395366,112.65043983914762,-247.8663088608885,269.88294188614316,485.11610520947534
19,6.80087067881778,-263.3737633679313,21.004299494339463,-66.22590143163465,87.53601790322006,-252.9149795899201,267.6987528236507,481.5515287898263
20,5.914138789921715,-261.4537441549327,21.137748527662527,-60.41027781580709,60.51177737180279,-256.6980985347948,265.5317135590802,476.9452589472906
21,5.187113490361107,-259.6219358260325,21.11481580799522,-55.99235138433968,31.946492114209057,-259.3403753694711,263.4511961200903,471.6306325774195
22,4.656996261582306,-257.9380568919765,20.902682172196688,-53.12156723947849,2.2369210463219056,-261.00535648948346,261.5228613043931,465.94344033421345
23,4.357102463588449,-256.4565760098527,20.475564896857573,-51.898069128347124,-28.199453351392325,-261.8915640346201,259.8069698947325,460.21312591985594
24,4.315931390776188,-255.2253320027967,19.815212754476484,-52.37045503338154,-58.93212970391391,-262.2269782517636,258.3568769095053,454.75414618077673
25,4.556347818819198,-254.2843765069553,18.911121371804967,-54.53533169070008,-89.52557161643035,-262.2620513457496,257.21775171629355,449.8577399067278
26,5.094893046072361,-253.66506986309759,17.76047769684962,-58.33855138917955,-119.54730050446838,-262.26150707746206,256.4255569505559,445.78434704393413
27,5.941240359513983,-253.38945022383862,16.36785116848972,-63.67798250865191,-148.575923429089,-262.49523471562946,256.00630883758635,442.7569025742738
28,7.0978069153635435,-253.4698850597645,14.744657852011718,-70.40764332124816,-176.2089217244396,-263.22862567552704,255.9756310617953,440.95520070750166
29,8.559531193950749,-253.9090038293896,12.908431641880517,-78.34301151361805,-202.07003029936973,-264.7127247478519,256.33860414980563,440.5114866776652
30,10.313822426576767,-254.69990106168942,10.881942678989446,-87.26730666885712,-225.816046715162,-267.1745753342855,257.0899028299994,441.5073884228886
31,12.340685616640407,-255.82659087077275,8.692206590424899,-96.93852880986577,-247.14292380628694,-270.80813068749904,258.21420529557986,443.9722528549927
32,14.613022787262135,-257.26468718515406,6.3694289669667015,-107.09702388197756,-265.79101941520986,-275.76608197382586,259.6868509609648,447.8829050564244
33,17.097107666351686,-258.9822788623961,3.945928172887088,-117.47333818082708,-281.54940087725095,-282.15291991804935,261.47471741066806,453.1648061709163
34,19.75322712776266,-260.9409654372734,1.455076600146964,-127.79611963377445,-294.25912889487347,-290.0195010058005,263.537282975905,459.69454841429865
35,22.53647854259837,-263.097017412333,-1.0697040106683449,-137.7998258698899,-303.81547366636204,-299.3593337447975,265.8278387043182,467.3035940829181
36,25.397708054961424,-265.40262446294486,-3.5958633961858797,-147.23200852419842,-310.169043595199,-310.1067380550877,268.2948121675273,475.78313955063254
37,28.284570864445453,-267.8071953503778,-6.092536726911958,-155.8599613289541,-313.325831786595,-322.136964166733,270.8831652487126,484.88996444436896
38,31.142690931257935,-270.25867441529164,-8.531235828798351,-163.47654655321756,-313.3462067498661,-335.2682886745579,273.53582846972773,494.3531097694999
39,33.91689422726706,-272.70484105353523,-10.886408779975474,-169.90504939116673,-310.34289110217486,-349.2660365438945,276.1951353449039,503.8812160396255
40,36.55248690357757,-275.0945604744786,-13.13586531875045,-175.0029511035311,-304.47798606218913,-363.8484107591694,278.804221597418,513.1703427260952
41,38.996547573601084,-277.3789563564448,-15.261070877039444,-178.66455672208562,-295.95911084908425,-378.693947845648,281.3083558809301,521.9120828062422
42,41.19920120012259,-279.5124788575389,-17.247316323432038,-180.82245936617218,-285.0347357353601,-393.4503595451697,283.6561710163581,529.8017802683586
43,43.114840752509856,-281.45384491351405,-19.083773450906936,-181.44786787482082,-271.9887967886839,-407.7444704632356,285.8007677755136,536.546654010028
44,44.70326208385305,-283.1668319086119,-20.76344770235542,-180.54986446864072,-257.1346907296714,-421.1929206562031,287.7006670024001,541.8736290404763
45,45.93067788593887,-284.62091062750306,-22.28303981454088,-178.17369164471216,-240.80876063875414,-433.4132730004915,289.3205904415031,545.5366760006806
46,46.77057861405204,-285.7917088004903,-23.64272765439183,-174.3981905149279,-223.36339692850348,-444.035149630884,290.6320560795535,547.3234636974394
47,47.20441206480581,-286.6613023691614,-24.8458792659142,-169.33252587573696,-205.15989111014005,-452.7110211518765,291.6137800141413,547.0611377810368
48,47.22205857085723,-287.2183375239771,-25.898708450991187,-163.1123375560352,-186.56118987523138,-459.1262873728639,292.251883539371,544.6210532113541
49,46.822085158725905,-287.45799214217544,-26.809884995049337,-155.89545514936142,-167.92470200720507,-463.0083185610693,292.53991077456845,539.922309978138
50,46.01176924417258,-287.3817899479131,-27.590112427581847,-147.85730640379973,-149.59531020588875,-464.1341700079264,292.4786681507824,532.9339713644987
51,44.806890316204125,-286.9972840858493,-28.25168636898893,-139.18614014252347,-131.89873477254648,-462.3367374758651,292.0759018835741,523.6758816329835
52,43.231296206510734,-286.3176287124533,-28.808045793970717,-130.07817369850017,-115.1353872439204,-457.5091836966776,291.3458329455118,512.2180440412077
53,41.31625844924497,-285.3610579055709,-29.273328267116096,-120.73276297287143,-99.57484017169821,-449.60753318270173,290.30857112967806,498.67856834629634
54,39.09963852661737,-284.1502910391944,-29.661938999676604,-111.34768074763049,-85.4510247472826,-438.65140086658386,288.9894308708879,483.22024678470916
55,36.624893180265175,-282.71188297080937,-29.988142777923766,-102.11457655011779,-72.9582512584606,-424.7228863708895,287.4181717233007,466.0458662415521
56,33.93995206997828,-281.07553601858126,-30.265687272468252,-93.21468057342389,-62.248128861286595,-407.9637272034143,285.6281857729063,447.3924095099498
57,31.096004536051407,-279.27338895009854,-30.507465622184903,-84.81480671664696,-53.42744128276466,-388.57085853428066,283.65565289322393,427.52433815550023
58,28.146233980644375,-277.3392964094258,-30.72522533794854,-77.06370721561643,-46.557014253189095,-366.7905727884493,281.5386829706638,406.72618205175473
59,25.14453853738155,-275.3081107081903,-30.92932948745209,-70.08883390128322,-41.65158915946285,-342.91150826937564,279.31646242256124,385.2946851864299
60,22.144275377975713,-273.21497688043775,-31.12857473181638,-63.99356748263375,-38.680696139328575,-317.2567223612211,277.0284207496647,363.53077323594835
61,19.197063338264734,-271.09465137213914,-31.33006896011027,-58.85498346374163,-37.57049910750545,-290.1751219131901,274.7134315811794,341.73161506002776
62,16.351674719018497,-268.9808545948807,-31.53916905564183,-54.72222762054191,-38.20656531029953,-262.0325315926533,272.40906164065524,320.18304691002317
63,13.653042381528056,-266.90566760715075,-31.7594769897906,-51.6155719958808,-40.437492885647934,-233.20268053708367,270.150880153295,299.1526140425519
64,11.14140292499836,-264.89898314693437,-31.99289025145694,-49.52621209236333,-44.0793112498663,-204.0583786974449,267.97184025409075,278.88345928737965
65,8.851591148224188,-262.9880209011687,-32.23970074314584,-48.41684705001145,-48.920550715356214,-174.963137138873,265.90174276906413,259.5892522994403
66,6.812495451754179,-261.1969160648578,-32.498734785549466,-48.22305829939353,-54.7278597953186,-146.26346178047731,263.966791166544,241.45030767243847
67,5.046678490085188,-259.5463887587956,-32.767525835363536,-48.855470665975986,-61.252032000764736,-118.2820183568781,262.18924437863586,224.61098621723195
68,3.570162363692654,-258.05349970624496,-33.04251101405391,-50.202645787624725,-68.23428983115154,-91.31182866874231,260.5871715575586,209.17841364146474
69,2.392373188866768,-256.73149488378147,-33.319242605094125,-52.1346237674579,-75.41266346209204,-65.61161556303777,259.1743098285733,195.22248804235704
70,1.5162363002717676,-255.58973897507644,-33.59260623346484,-54.50699805778354,-82.5282965601122,-41.40236800277743,257.96002303080985,182.77708700843488
71,0.9384107677354812,-254.63373466148468,-33.857038355263704,-57.165383346892,-89.33151255597969,-18.865149967963635,256.949356568077,171.84233234890718
72,0.6496502119695367,-253.8652222500891,-34.10673680498573,-59.950118826931394,-95.5874818740219,1.8598699181412135,256.14318096840486,162.38773017578933
73,0.6352757822415089,-253.28235199085032,-34.335859289007125,-62.70104087514961,-101.08134377281229,20.673234779384995,255.5384146639418,154.35597871070476
74,0.8757463333543241,-252.8799198299141,-34.53870570674114,-65.26216008672331,-105.62265494875108,37.514966792995914,255.12831497929326,147.6672260131293
75,1.3473101493964506,-252.64965639250926,-34.70988101309902,-67.48608708568884,-109.04906002032595,52.36242112856966,254.90282545225233,142.22356355853228
76,2.022721937518857,-252.58055861251046,-34.84443616739891,-69.23806835384914,-111.22910545081588,65.2273844141569,254.84896734857568,137.91355718661615
77,2.8720082270250487,-252.65925344755087,-34.937985704027334,-70.39951587899667,-112.0641472915903,76.15258852461879,254.95126341072591,134.61664199977525
78,3.8632637585523173,-252.87038343639009,-34.98680158490687,-70.87094095742617,-111.48933310903006,85.2078141559494,255.1921823883021,132.20723968260356
79,4.9634609861939225,-253.1970044832303,-34.9878840308998,-70.57423103999788,-109.47366814504875,92.4857537137085,255.5525937112684,130.5584924882474
80,6.139254569396371,-253.6209871982304,-34.93901073174659,-69.45423704111434,-106.01920356717862,98.09779056917084,256.01222275271874,129.54554463381353
81,7.357762872074309,-254.12341425752217,-34.83876610387258,-67.4796651067727,-101.15940919644447,102.16983314758691,256.550098345296,129.0483360766528
82,8.587309119510422,-254.68496732894155,-34.6865521631356,-64.64328991475034,-94.95681348451329,104.83831937511465,257.1449853370583,128.9539032533278
83,9.798105968929047,-255.2862979747401,-34.48258224519547,-60.961525235327365,-87.5000094345358,106.24648173540038,257.77579585551166,129.1582048932339
84,10.962868749923858,-255.90837764902216,-34.22785838623721,-56.473401578917475,-78.90013668945528,106.54093760721622,258.42197367419084,129.56750793512657
85,12.057344505225414,-256.5328226351656,-33.92413278894259,-51.23901091380475,-69.28695740402279,105.86864546304304,259.06384684382596,130.09937915862739
86,13.060746267571462,-257.14219059632154,-33.57385356813239,-45.33748571796213,-58.804647139024944,104.37424622462578,259.682944663962,130.68333324256622
87,13.956084777319395,-257.7202462839362,-33.180095062317676,-38.86458511502102,-47.607422311843244,102.19779133677004,260.26227610384905,131.2611886550554
88,14.730392948416238,-258.2521947804978,-32.746473533379316,-31.929965326391663,-35.85512318167256,99.47284519549498,260.78656786065204,131.78718010334828
89,15.374841506717473,-258.72488138032423,-32.27705001606776,-24.654215576451236,-23.70886641702715,96.32493944087173,261.2424612790024,132.227871125749
90,15.884747001689519,-259.12695781049507,-31.776223205259164,-17.165744029781276,-11.326874455512739,92.87035015509237,261.6186682673048,132.56190355969707
91,16.25947566634004,-259.44901499927505,-31.24861629047597,-9.597601134275049,1.1394194599001706,89.21516592499493,261.9060871161857,132.77961268296198
92,16.50224844135,-259.68368305630156,-30.698962344905194,-2.084329382889467,13.548901208103338,85.45461460332598,262.097879772424,132.88252825066897
93,16.619854039718973,-259.8256994943076,-30.13199319568285,5.241071805912446,25.773861945329283,81.67261881717624,262.18951260892806,132.88277283430855
94,16.62227831289634,-259.87194688522067,-29.552336678857145,12.249980605310897,37.702573559773036,77.94155405120387,262.1787629617435,132.80236034713042
95,16.522259459929234,-259.8214610422433,-28.964426785032174,18.82070824217165,49.241299646893765,74.3221876474851,262.0656936221245,132.6723902565844
96,16.334779869552218,-259.6754104743514,-28.3724303531653,24.840708413226903,60.315702834182005,70.86378157988372,261.85259709390584,132.53212786040186
97,16.07650665028676,-259.437047328196,-27.780192721063827,30.208389601667765,70.87162529092278,67.60434586859485,261.5439108203888,132.42795923056073
98,15.765194195501008,-259.1116294485582,-27.191203308601807,34.834498911115574,80.87523636194636,64.57103274082355,261.1461039075352,132.41221158971916
99,15.41906342200234,-258.7063128043033,-26.608580736681407,38.64306788674669,90.31255890953427,61.78066402858615,260.66753539499416,132.5418356969982
100,15.056173535502698,-258.23001356289285,-26.035075923284822,41.571932734104855,99.18840340560443,59.240385791490624,260.1182840820984,132.87695518461342
101,14.693803215369048,-257.6932395663667,-25.473090696396923,43.57286124043499,107.52475533282397,56.9484447092982,259.5099503134026,133.47929721484272
102,14.347858908889226,-257.1078917457928,-24.92470880926375,44.61133487250399,115.35867641515483,54.895080323289086,258.8554308440252,134.41052798047198
103,14.032328396410492,-256.48703703738397,-24.391735803215585,44.6660459956197,122.73979320695784,53.063525665835385,258.16866886187324,135.73052458886963
104,13.758797717494854,-255.84465560348877,-23.87574392351651,43.72817662428232,129.72745737404477,51.43110630898662,257.4643824048754,137.49562136654558
105,13.53604863620442,-255.19536649497576,-23.378118310530155,41.800526736139055,136.38767039139555,49.97042469949377,256.7577756531232,139.75687351249243
106,13.369751862186547,-254.55413707401436,-22.90010106139645,38.89655736099861,142.78987113903585,48.650613236818124,256.06423866430293,142.55838431468138
107,13.262268234581104,-253.935982332809,-22.44283047037396,35.0394069073131,149.00368775613302,47.438636221583224,255.3990418489426,145.93574376091382
108,13.212566256302244,-253.35566067290284,-22.007373590739004,30.26092915463295,155.09575490917211,46.30061774189033,254.77703181872639,149.9146262057614
109,13.216260103138348,-252.82737288322824,-21.594750960559782,24.600788895880232,161.12669430036362,45.20316986506739,254.21233530292375,154.50959275777134
110,13.265767801174421,-252.364471086372,-21.20595281636654,18.1056374815888,167.1483499741336,44.114693234129405,253.7180777260186,159.72314033379115
111,13.350584780312783,-251.97918433385172,-20.841946477960313,10.82837678120807,173.2013611155701,43.00662045455828,253.30612280769589,165.54503409043778
112,13.457663565431995,-251.68236729085706,-20.503674938307988,2.827507596820638,179.31314390428258,41.85457170688789,252.98683916463713,171.95195334619723
113,13.571886161831705,-251.4832779998695,-20.19204702901308,-5.833451612916045,185.49634079760773,40.63939206974415,252.76889930706267,178.9074731848438
114,13.676612034228198,-251.38938999570354,-19.907919721624083,-15.086497018226558,191.74778053656325,39.348041249724844,252.6591155748788,186.3623946624958
115,13.754281756596486,-251.40624307135198,-19.65207308217672,-24.859647907136985,198.04797550449587,37.974308881473235,252.66231646062008,194.25542603460715
116,13.787054516069288,-251.53733584516576,-19.42517828191796,-35.07745726413269,204.36116535435426,36.51933236730403,252.7812655150997,202.51420601079954
117,13.757456622484161,-251.7840620590199,-19.22775918903645,-45.66154837376711,210.6358978002924,34.991899384929084,253.01662375600336,211.05664827113878
118,13.649018040846823,-252.14569136279545,-19.060148542147324,-56.5311976208922,216.80612006523864,33.40852350957649,253.3669553394365,219.7925750204715
119,13.44687488885447,-252.61939433220337,-18.922440363728015,-67.60397896737551,222.7927386929045,31.793288474557745,253.82877533440478,228.62559699271756
120,13.138317854253534,-253.2003106560338,-18.81444086284942,-78.79648066264427,228.50559218985686,30.177463987401037,254.39663778084505,237.45518881401136
121,12.713269382177616,-253.88165871809005,-18.73562042698094,-90.02509993337485,233.84577093712036,28.598903348162146,255.06326169466203,246.1789026036597
122,12.164675963075462,-254.65488405459973,-18.68506930555422,-101.20691662006955,238.7082123237382,27.101240051870178,255.81969214890555,254.6946594122814
123,11.488805633974883,-255.5098433394766,-18.661459252796252,-112.26064159396748,242.98449600347382,25.732906763171087,256.6554929367561,262.90305738988155
124,10.685444638793241,-256.4350197228757,-18.663012907308197,-123.1076298542654,246.5657640265301,24.546005194693052,257.558966684594,270.7096368340568
125,9.757990874161763,-257.41776467278066,-18.687482289170656,-133.67294129572088,249.34569249557074,23.595059242420007,258.5173977803248,278.0270446445337
126,8.713445145940234,-258.4445609977073,-18.732137608086067,-143.8864245396855,251.22344438883795,22.93568613586211,259.5173131620951,284.77704342636355
127,7.562304338066525,-259.50130138509184,-18.793767495512046,-153.6837916735714,252.1065365058528,22.62322144661712,260.5447557873126,290.89231311188524
128,6.318363333013109,-260.5735765161301,-18.868691596301584,-163.0076452293438,251.9135567304773,22.711333776417092,261.5855653977234,296.3179955836116
129,4.998434820136606,-261.64696663360263,-18.952786096054393,-171.8084142162388,250.5766710467038,23.250663994991328,262.62566102492497,301.012935919335
130,3.6219978493245892,-262.7073303458375,-19.041522314803746,-180.04515421093097,248.04386345222866,24.28752211682665,263.65131954913124,304.95057836034465
131,2.210787114097186,-263.74108439210477,-19.130018087647407,-187.6861677380159,244.28085674249786,25.862672380445936,264.6494444928752,308.11948172941834
132,0.788335564593526,-264.7354680444745,-19.21310130896121,-194.70940547617192,239.27266862222638,28.01023393045702,265.6078190890651,310.5234283293865
133,-0.6205168774302222,-265.67878582361124,-19.28538475326692,-201.1026160104399,233.02476589078907,30.75672075667284,266.51533756887426,312.181112371913
134,-1.99013597306323,-266.5606223085046,-19.34135118641446,-206.8632215405,225.56378917828442,34.12024020877179,267.362208632696,313.1254081804368
135,-3.2946152874925527,-267.3720230236365,-19.37544786481458,-211.9979086674121,216.93783114459112,38.109864530600994,268.14012520782364,313.4022338604073
136,-4.50829684000541,-268.1056357295505,-19.38218956494302,-216.52193666319556,207.21626140480754,42.72518464460993,268.84239488951994,313.0690418886139
137,-5.606280581402482,-268.7558070592579,-19.35626899702769,-220.45818003852284,196.48910117678264,47.95605015224752,269.4640260269447,312.1929833989632
138,-6.564914385729907,-269.31863045462586,-19.292672852189895,-223.8359371493275,184.86595963651192,53.78249448355741,270.00176537511453,310.84880727066997
139,-7.362257588170866,-269.7919427574116,-19.186801141896016,-226.6895510710696,172.4745524281695,60.17483958348608,270.45408460195006,309.11656788603875
140,-7.9785121479986385,-270.1752685186829,-19.03458714635258,-229.05690173245569,159.45883103014995,67.0939706597749,270.8211146451925,307.07922586157656
141,-8.396416082612298,-270.4697130475413,-18.832615078587686,-230.97783789001429,145.97675998643305,74.49176840090853,271.10452888348436,304.8202332211695
142,-8.601593976855417,-270.6778073736985,-18.578232207181827,-232.49262263507288,132.19778750157465,82.31168365092462,271.30737824739793,302.42119744038814
143,-8.582859398868312,-270.80331055212815,-18.269651544728553,-233.64046594624472,118.30006343454612,90.48943779142972,271.4338836486673,299.95971686987656
144,-8.332464187669132,-270.8509769351646,-17.906040506738574,-234.4582122907974,104.46746673784551,98.95383116891166,271.48919330866187,297.50747297463346
145,-7.846289906875189,-270.82629797404053,-17.487590539733425,-234.97924120875211,90.88651092364624,107.62764200521076,271.4791145388376,295.12865285269766
146,-7.123977274111866,-270.73522955802054,-17.015562808172124,-235.2326255343093,77.74320028389252,116.42859937305549,271.4098310456276,292.87875945104554
147,-6.168989974338362,-270.58391666203215,-16.49230557291873,-235.24257690463926,65.21991088983258,125.27041577013922,271.287617696494,290.8038480524021
148,-4.988609775899148,-270.3784271187709,-15.921239810927231,-235.02819268958442,53.49236893925338,134.06386711501116,271.1185648424706,288.940207338121
149,-3.5938602249463045,-270.124505818226,-15.3068109237099,-234.60350327612036,42.72679523306039,142.7179100548122,270.90832389627053,287.3144828421241
150,-1.999356572830549,-269.82735973561813,-14.654406015986725,-233.97780435717155,33.07727892943697,151.1408278350524,270.66188507681187,285.9442209000006
151,-0.2230803079850122,-269.49148288821164,-13.970237976145338,-233.15624606872188,24.683436605646623,159.24139634861086,270.38339702700665,284.83879316558324
152,1.7139220122879772,-269.1205285104168,-13.261199174142424,-232.14064010248794,17.668404273475936,166.93006133557498,270.0760362608741,284.0006463105898
153,3.7879138832260213,-268.7172334099348,-12.534688883465078,-230.93043787369058,12.137200498632176,174.12011631362896,269.74193208227877,283.42680951297774
154,5.972913492055979,-268.28339679062253,-11.79841960903774,-229.52382778835576,8.175488352508697,180.7288690867509,269.3821499046371,283.1105843975464
155,8.241200424763614,-267.8199130315439,-11.060208475783183,-227.91889757318998,5.848752863235092,186.67878289660965,268.99673301718485,283.0433383179476
156,10.563874025652948,-267.32685517619615,-10.327760679726067,-226.11480808284458,5.201899337524053,191.89857654152812,268.5847999592224,283.21632184555324
157,12.911450328175258,-266.80360331053936,-9.60845254754739,-224.112927413414,6.259266868069193,196.3242661608158,268.14469186907564,283.62243441382003
158,15.254482183381858,-266.2490096624475,-8.909121791876283,-221.91787799199153,9.02504096078036,199.90013002883686,267.6741615392633,284.2578676373767
159,17.564185353934135,-265.6615902545288,-8.235872025825428,-219.53845413772711,13.484039814694457,202.5795768133421,267.1705935661761,285.123563330776
160,19.813052065878612,-265.03973147936483,-7.593897619680052,-216.98837306366556,19.602840515362768,204.32589746478774,266.6312431547473,286.2264321945476
161,21.975433011086157,-264.38189923076885,-6.987333736248574,-214.28682821907069,27.331204350916213,205.11288130764294,266.0534800541825,287.5802891128117
162,24.028069201352537,-263.6868382859935,-6.419135057681979,-211.45882021392086,36.603754747442196,204.92527806026766,265.435023867032,289.20647172500856
163,25.950556396856783,-262.95375043075853,-5.890985462100261,-208.53524733545217,47.341857080970684,203.75908944473719,264.7741575595546,291.1341201558789
164,27.725726978813167,-262.18244127026276,-5.403239808882527,-205.55274481585096,59.45564696525697,201.62167676083294,264.0699073456568,293.40010725237244
165,29.339937018262418,-261.3734277722533,-4.954898087068055,-202.55326936870378,72.84615261391868,198.5316742375015,263.32217923283497,296.04862004782353
166,30.78324983845316,-260.528001350724,-4.543611508041021,-199.5834328189174,87.40745757070533,194.5187019867879,262.53184542552344,299.13040403925925
167,32.04951143365455,-259.6482445083392,-4.165719714037606,-196.69359568723755,103.0288524407684,189.62287671733395,261.7007772625952,302.7016918188107
168,33.13631743908882,-258.7370021906037,-3.8163180794492355,-193.9367382999252,119.59692802114375,183.8941227664379,260.83182487695484,306.82284637741435
169,34.04487567159984,-257.79781154769614,-3.4893538952394927,-191.36713347840887,136.99756703011846,177.3912903284206,259.928746755349,311.5567569076514
170,34.7797723458183,-256.8347956228797,-3.1777497769928145,-189.03885123832828,155.11779701719425,170.18109193908114,258.99609467915553,316.96703116570376
171,35.348653710432714,-255.8525277787817,-2.873551879670508,-187.00413215974098,173.8474726113425,162.33687233388636,258.0390612911374,323.1160333782215
172,35.76183787744364,-254.85587456247933,-2.5680997549874625,-185.31167197526253,193.0807607832509,153.9372308047642,257.06329885616407,330.0628202473046
173,36.03187388497365,-253.84982513984738,-2.2522143029805184,-184.004865192858,212.71740814481586,145.06451924465242,256.0747185835657,337.8610298244589
174,36.17306635834441,-252.83931534306754,-1.9164002143905652,-183.12005997570506,232.66377447458365,135.80324324387226,255.07928006548002,346.55677896181993
175,36.20098439670071,-251.82905386213457,-1.5510592559432546,-182.68487979831986,252.8336216513369,126.23839781137775,254.0827800204011,356.18662475120135
176,36.13197261397517,-250.82335734921224,-1.1467105684936139,-182.71666934420168,273.14865199024945,116.45377335775434,253.0906487974862,366.77564384329537
177,35.98268084659868,-249.8260003180408,-0.6942139780630815,-183.22112253497448,293.5387946070861,106.53027129468173,252.10776215142545,378.3356808816968
178,35.769627038039715,-248.8400847434285,-0.18499230058811064,-184.1911494434524,313.9422428944124,96.54427175275502,251.13827469458582,390.8638136569341
179,35.508805153996114,-247.86793324532337,0.3887513480644857,-185.60603621462724,334.30525047348397,86.56609818553595,250.18548021358293,404.34107817463814
180,35.21534665233862,-246.91100880900763,1.0338253257692727,-187.43094810733365,354.58169712283984,76.6586246503981,249.25170282697164,418.73149186086516
181,34.90324034161005,-245.96986328305195,1.755854624278067,-189.61682041391313,374.7324402866029,66.87607103396068,248.33822192287937,433.98140785029716
182,34.58511194008966,-245.0441164367,2.5591038274207794,-192.100675168782,394.72447187706183,57.26302922081395,247.4452330283934,450.01922784994986
183,34.2720616583468,-244.1324670757486,3.4463221013635126,-194.8063928436271,414.52990408278447,47.853759109177304,246.57184619055533,466.75549532644703
184,33.97355573606764,-243.23273754058584,4.418613983991444,-197.64595716958084,434.12481157569187,38.67178759312169,245.71612302951888,484.08338449807917
185,33.697366002680546,-242.34195282742027,5.475339114718939,-200.52117750151555,453.4879607437114,29.729836519317914,244.8751533378599,501.8795936912477
186,33.44955016108231,-241.45645556516797,6.6140434256760585,-203.32587679958598,472.59945928967124,21.030097583205265,244.0451719249802,520.0056440536529
187,33.23446463682365,-240.57205804383443,7.8304238046682135,-205.94851484907875,491.43936163744866,12.564863429589305,243.22171624580452,538.3095764644755
188,33.05480155136439,-239.68423228297848,9.118327828757756,-208.2751966123743,509.9862669158634,4.317515058121045,242.39982507753385,556.6280307894837
189,32.91164168029407,-238.78833865512934,10.469789764761424,-210.19299559237444,528.2159466801327,-3.7361437916796087,241.57427802608777,574.7886824339147
190,32.804516025289054,-237.87989273843343,11.875103548850603,-211.59350279095963,546.1000388907413,-11.62622406817861,240.73987484083372,592.6130015504683
191,32.73146967812278,-236.95486872962684,13.32293283523963,-212.37649428331278,563.6048430590467,-19.386788773193526,239.89175223426412,609.9192905162881
192,32.68912293966769,-236.01003593195915,14.800457417378748,-212.45359565387616,580.6902490802519,-27.053627497390902,239.02573416852226,626.5259458242236
193,32.672726292880796,-235.04332283145544,16.29355438174406,-211.7518106540069,597.3088293478303,-34.661814193318726,238.13870969071823,642.2548818695844
194,32.67620784150015,-234.0542013436671,17.787011316980113,-210.21677550678427,613.4051204863604,-42.24310273881081,237.22903063575941,656.9350467902649
195,32.69221399870247,-233.04408195482912,19.264767892692976,-207.81560012818576,628.9151175781889,-49.8232228285333,236.29691984764284,670.4059549647956
196,32.71214627512414,-232.0167086324867,20.710181289400982,-204.53916358401122,643.7660001113898,-57.41914603140266,235.344878906098,682.5211572216552
197,32.72619884934356,-230.97854057974556,22.106310416316838,-200.40374340068684,657.8761049825604,-65.03639827937599,234.37808271755156,693.1515683191172
198,32.72340313880784,-229.9391062179853,23.4362135851633,-195.45187670093594,671.1551576993472,-72.66650039002077,233.40474679608099,702.1885718148366
199,32.691686690013775,-228.9113132563454,24.683254102937756,-189.75237519889004,683.5047684608838,-80.28462215859265,232.43645164060624,709.5468250634848
200,32.61795422677971,-227.9116974230923,25.831407815000198,-183.3994452771868,694.8191951113292,-87.8475376683543,231.48840734955647,715.16669170909
201,32.488198562256976,-226.96059148975684,26.865565931758482,-176.51089768193563,704.9863701298609,-95.29196930295502,230.57964059328359,719.0162354727975
202,32.287648291857096,-226.0821957674475,27.771825826779686,-169.22546734172943,713.8891838969063,-102.53340509247982,229.7330854766536,721.0927168987306
203,32.00095779594885,-225.30453158757808,28.53776224292717,-161.69930060426168,721.4070115167277,-109.46546820375627,228.9755600012486,721.4235435313972
204,31.612443212209524,-224.65926072142506,29.152671515667244,-154.10170277403216,727.4174655802018,-115.95990848855256,228.3376111184335,720.0666333243036
205,31.10636583439922,-224.18135638810955,29.607781845142835,-146.61027130016697,731.7983526291849,-121.86727409328464,227.85321389424402,717.1101607133594
206,30.467261959017115,-223.90861534636792,29.896423189043585,-139.40556770491722,734.4298070451474,-127.01830641463515,227.5593139818924,712.6716648240165
207,29.68031559139467,-223.8810053429592,30.014150925001758,-132.66550320450418,735.1965728873424,-131.22608447608044,227.4952071959191,706.8965099813386
208,28.73176775614679,-224.1398477338372,29.958817984117182,-126.55962825875305,733.9904018950273,-134.28892549281724,227.7017553396508,699.955700286179
209,27.60935366318277,-224.7268413303545,29.730590720667514,-121.24352470310198,730.712534288974,-135.99402739953396,228.2204435042214,692.0430626315449
210,26.302756883232416,-225.68294036188826,29.33190447197459,-116.8535005973283,725.276227932521,-136.12181684911198,229.09229077442913,683.3718262039383
211,24.804068042846136,-227.04710667042048,28.76735569477611,-113.50178240079053,717.6093005717372,-134.45094306306422,230.35663344195223,674.1706411467286
212,23.108234227062436,-228.85496350790737,28.04352885468494,-111.2723864469833,707.6566488714099,-130.7638343559409,232.0498070833642,664.6790942986923
213,21.21348410767972,-231.13738518483632,27.168757969481288,-110.2178319771031,695.3827062926217,-124.85271069777534,234.20376078776678,655.1427951742502
214,19.12171278239032,-233.91906297087263,26.152824807806486,-110.35683156377394,680.7737990783061,-116.52592303505573,236.8446430526884,645.8081199891997
215,16.838809603992164,-237.21709283366596,25.006598044151037,-111.67306234557411,663.8403555055692,-105.61446907482748,239.99140414992016,636.9167149975646
216,14.374912115313643,-241.0396345910317,23.741620014797043,-114.11508421718898,644.618918164778,-91.97851659551188,243.6544638577387,628.6998721989276
217,11.744569641758051,-245.38469452117133,22.369650082971535,-117.59743049020834,623.1739026263521,-75.51374976364643,247.83449603474014,621.3729001681446
218,8.966801049162994,-250.23908403254063,20.90217607092752,-122.00285437990928,599.5990390288501,-56.157342175763695,252.52138217736774,615.1296200432624
219,6.065032587938662,-255.57760534664456,19.349907794952994,-127.18567293333467,574.0184267485788,-33.89335330131891,257.69338455985365,610.1371214798417
220,3.066903712658238,-261.36251124825526,17.72226940277064,-132.97611053403284,546.5871275596894,-8.757343553806828,263.31658575059333,606.5309157590929
221,0.003931584502703587,-267.5432799526781,16.026909867910348,-139.18550837041948,517.491220900705,19.15999186191835,269.344635379315,604.4106234861598
222,-3.0889710489419437,-274.0567382107417,14.269253580076388,-145.61223514435463,486.9472473290489,49.710358177650235,275.7188371853883,603.8363326718743
223,-6.174124670009051,-280.8275561609094,12.452115412219888,-152.04810816725183,455.20097401976227,82.6867335475368,282.368599845591,604.8257594579275
224,-9.211852266690867,-287.7691265181097,10.575406621247907,-158.28511280490235,422.52542985593686,117.82371935304961,289.2122641979712,607.3523378815154
225,-12.161375644777932,-294.7848288047701,8.635958750761251,-164.12219180524664,389.21817719933836,154.79947340698607,296.1583075413813,611.3443558025467
226,-14.981817538269823,-301.7696666340636,6.6274915761258875,-169.37186426371457,355.59781186248904,193.2392881833058,303.106912823345,616.6852396103534
227,-17.63328030183747,-308.61225268683586,4.540747612619701,-173.86642703630903,321.9997103528572,232.72082647715524,309.9518768920553,623.2150682669795
228,-20.07796449983405,-315.1971023468367,2.363809694833555,-177.46349006691923,288.77107203081067,272.7809715352303,316.582818019715,630.7333655847248
229,-22.281284529798718,-321.4071835067453,0.0826097077206769,-180.0506029360848,256.26533159992636,312.9241892886173,322.88762925020944,639.0031775993833
230,-24.21293444389017,-327.1266573768711,-2.318374049849461,-181.54874535889942,224.8360430107238,352.6322389367836,328.75511146639997,647.7563906536147
231,-25.847856287573805,-332.2437338293421,-4.855245683016524,-181.91448222557116,194.83035831820308,391.3750074257003,334.0777091556345,656.7001885828728
232,-27.16706616775552,-336.65355568104263,-7.543674791152386,-181.14062684942786,166.58224307817065,428.6221867087906,338.75426355838357,665.52448920154
233,-28.158299896385344,-340.2610202543579,-10.39777519968709,-179.25531627160143,140.40558224163564,463.8554639835378,342.6926931068319,673.9101471955123
234,-28.81644979481209,-342.98344434714227,-13.428932686547517,-176.31947990290413,116.58733658513673,496.58085813506295,345.8125104477122,681.5376684628977
235,-29.14377595318776,-344.7529809007071,-16.644644241368145,-172.42277490010588,95.38091027331815,526.3408131581064,348.04708915147285,688.0961540080318
236,-29.14988755962865,-345.5187023353595,-20.0474363715817,-167.67816264263308,76.99988744362633,552.7256525463308,349.3456013288042,693.2921805512497
237,-28.85150159181818,-345.24827654202375,-23.63392975050351,-162.21540140965345,61.61229254526891,575.3840072786028,349.6745594402598,696.8583275707872
238,-28.271996266706836,-343.92917631760974,-27.394111743667636,-156.1738192842125,49.33552743486618,594.0318532786349,349.0189109738163,698.5610723193436
239,-27.44078463591268,-341.56938061407317,-31.310867446910738,-149.69479603453084,40.23213762708564,608.4598315310164,347.3826523925255,698.2077921389573
240,-26.392539401697782,-338.197544991625,-35.35980499258815,-142.91441249481673,34.306557928344226,618.5385751607022,344.7889474910018,695.6526367130684
241,-25.16630336575036,-333.8626377450047,-39.50939382255012,-135.95671441489995,31.50298001334693,624.2218320737613,341.27975364114155,690.8010642090385
242,-23.804520818352625,-328.6330562090252,-43.72141733441294,-128.92798486322556,31.70446810345598,625.5472474215106,336.9149762053762,683.6128778643175
243,-22.352023531865207,-322.5952540129892,-47.95172531897972,-121.91233166632018,34.73342278558384,622.6347540412061,331.7711859015861,674.1036547997528
244,-20.855001052422747,-315.85192401602666,-52.15125781182802,-114.96878552327944,40.353458711219716,615.6826069719854,325.9399456525271,662.3445244761668
245,-19.359979471383365,-308.51979284535724,-56.26730069888916,-108.12998379150272,48.272722524292725,604.9611855553848,319.5258020979947,648.4603248509598
246,-17.912826995764828,-300.7270910758669,-60.24492453760057,-101.40239731950095,58.14863598377555,590.8047690851054,312.6440023325465,632.6262331923191
247,-16.55779952100033,-292.6107682305108,-64.02855132809724,-94.76795377957642,69.59400781377073,573.6015655600761,305.4179988002522,615.0630294425554
248,-15.336635668807217,-284.31352441799135,-67.56358937201527,-88.18682865383218,82.18441692603832,553.7823345401943,297.9768052758056,596.0311984306223
249,-14.287708580087294,-275.98073112478255,-70.79807416936232,-81.6011193156038,95.46672926637332,531.8079918734061,290.45226526639794,575.8241106760036
250,-13.445241127187584,-267.7573129340392,-73.68425376882978,-74.93909046010631,108.96857080972033,508.1566145247099,282.9762916765958,554.7605396317799
251,-12.838591975606652,-259.78466018606287,-76.18006005591253,-68.11967956122733,122.2085410181686,483.3102772183661,275.6781337734064,533.1767772164146
252,-12.491621691676215,-252.19764017357446,-78.25041287422582,-61.05697582477475,134.70691593403,457.7421493190444,268.6817248058305,511.4186015101578
253,-12.422150226916889,-245.12177155847291,-79.8683112514781,-53.66443034525616,145.99656012323354,431.90426134190574,262.1031612531608,489.8333329176938
254,-12.641518971956284,-238.6706233078322,-81.0156748359458,-45.85861274942211,155.6337443630519,406.2163174005532,256.04836251540684,468.7621901054981
255,-13.154271771629777,-232.94349543939103,-81.68390841236494,-37.5623936863267,163.20855372101406,381.0558849362994,250.61095767128876,448.5331264384878
256,-13.957969638372141,-228.02343397968613,-81.87417270446983,-28.70749615692205,168.3545705470783,356.7502385288586,245.8704433990779,429.45429316508967
257,-15.043153145397998,-223.97562646390583,-81.59735537532696,-19.23641564116841,170.75753028007648,333.57007266520316,241.8906539446033,411.8082393056088
258,-16.393464281194156,-220.8462168286793,-80.87374690301209,-9.10375453379049,170.16267538115136,311.7252309640339,238.71857979395,395.8469228434261
259,-17.985935744526284,-218.6615696243489,-79.73243637616407,1.7229522431645437,166.38057368323464,291.36252813960476,236.3835661942824,381.7875765577592
260,-19.79145046394477,-217.42800320766378,-78.2104517695039,13.2628271441342,159.2912204448188,272.5656675102319,234.89691571450984,369.8094474042574
261,-21.775367946386886,-217.13200012167243,-76.35167755290016,25.521559495478325,148.84630582363437,255.3571830819871,234.25191055997846,360.05141211611163
262,-23.89830724887642,-217.7408903886547,-74.20558919271436,38.491547408392854,135.06959782043475,239.7022637972129,234.4242602682371,352.61046306418314
263,-26.11706921631091,-219.20399022745406,-71.82584891470509,52.15220181122117,118.05546079201756,225.51425155178782,235.37296879347693,347.54105484022847
264,-28.385673542933986,-221.45416528042165,-69.26880993527658,66.47036386611087,97.9655969058658,212.66154718023503,237.0416022566945,344.85529972044225
265,-30.65647974952311,-224.40977443445107,-66.59197739835587,81.40081014005514,75.02415811841712,200.97561243157338,239.35992547819495,344.52399522544073
266,-32.881355892754215,-227.97693836187037,-63.8524737310843,96.8868418469515,49.511425940201434,190.2597230165853,242.24586258372585,346.4784567059328
267,-35.01285530898083,-232.0520666548169,-61.10555424140582,112.86097284916124,21.75629332665895,180.29810962360796,245.60772535203608,350.6131117372921
268,-37.005360531511194,-236.5245696703588,-58.40321564535951,129.245743707756,-7.872192990402379,170.86512149005412,249.34664356651433,356.7887929374088
269,-38.81615504479869,-241.27967664589752,-55.792935970911785,145.95469423870665,-38.973959748997764,161.7340610581593,253.35912536862818,364.8366448919234
270,-40.40638751025211,-246.20128051771042,-53.31657911881971,162.89352419738,-71.12743312731793,152.68536766693276,257.5396728727429,374.56254242932124
271,-41.741898822545664,-251.17473176736772,-51.009491466121645,179.96146182902663,-103.89920067570222,143.51387130026512,261.7833787482434,385.751903801216
272,-42.79388914183169,-256.0895077044868,-48.89981150656202,197.05284544225128,-136.85356145886547,134.0348917965721,265.98843231436666,398.1747745349724
273,-43.53940949510349,-260.8416890897689,-47.00800690371045,214.05890672942684,-169.56173645466973,124.08902224079071,270.0584681890838,411.59105601432316
274,-43.96167046849027,-265.33618250770064,-45.34664671393685,230.86972835062923,-201.61053403653048,113.54550481930438,273.90469631684124,425.7557563272008
275,-44.05016870196357,-269.488634411761,-43.92041000531639,247.376332984438,-232.61029014334517,102.30417964919558,277.4477592393743,440.42414758168155
276,-43.800639908851196,-273.2269914959913,-42.726325592267585,263.4728463395716,-262.2019293907797,90.2960574328271,280.61927086473,455.3567211060299
277,-43.214854379897226,-276.49267217108445,-41.754231037758835,279.0586623202353,-290.0630221173654,77.48263049374087,283.3630007580455,470.3238375963588
278,-42.30027681863636,-279.2413253881249,-40.98743248647466,294.04052539846015,-315.91274306135745,63.85409006295244,285.63567895627256,485.1099727393391
279,-41.069616420359246,-281.4431655532673,-40.40354045671817,308.33443521456206,-339.51566927581706,49.42665837862893,287.4074081358405,499.5174612605455
280,-39.54029505067415,-283.082885405153,-39.97545065298519,321.86727419663976,-360.6843868503564,34.23927119124207,288.66168222387006,513.3696460781849
281,-37.73386115692437,-284.15916208396806,-39.67243344889355,334.5780630093155,-379.28090680041834,18.349859188869733,289.3950228879066,526.5133468466448
282,-35.67537488292836,-284.6837847470357,-39.46129138466457,346.41876206211225,-395.21691903201975,1.8314756337358944,289.6162574112456,538.8205755312775
283,-33.392786213481074,-284.6804444483468,-39.30754137713705,357.35455950982947,-408.4529388188403,-15.231497411296628,289.34547286755185,550.1894465027694
284,-30.91632346857414,-284.1832381397758,-39.17657775816844,367.36361509269176,-418.9964225018447,-32.74685946474331,288.6126919267795,560.5442547218234
285,-28.277904732804295,-283.2349481414567,-39.034773902048684,376.4362620628307,-426.89894850854046,-50.617652444519045,287.4563247416592,569.8347270689909
286,-25.510580340122836,-281.8851655985016,-38.85048412693006,384.5737036049007,-432.2525768939816,-68.7446530413445,285.92145861237327,578.0344874478553
287,-22.648010627578106,-280.1883304291723,-38.59491370383639,391.7862730012185,-435.1855156160534,-87.02823022392283,284.05805171061604,585.1388137453649
288,-19.723979952360885,-278.2017605064629,-38.24283283061129,398.09135556800396,-435.857234074479,-105.36955448426707,281.91909847762537,591.1618005817147
289,-16.77194553461371,-275.9837393593231,-37.77311965643337,403.51109203459816,-434.45317295035574,-123.67119415726702,279.5588323457288,596.1330716527839
290,-13.82461816751239,-273.59172510921536,-37.169127004147384,408.06999464219115,-431.17920311578894,-141.8371746168489,277.0310265663464,600.0942053370658
291,-10.913571269267996,-271.08073451295786,-36.41887632491384,411.7926069818597,-426.25598502595386,-159.77260612282882,274.3874467544069,603.0950447041814
292,-8.068875051816354,-268.5019457807115,-35.515089647391875,414.7013266224122,-419.9133738990583,-177.3830050171765,271.67649994317065,605.1900579450215
293,-5.318753607284945,-265.9015530931289,-34.45507522479707,416.81448845044093,-412.38500582082816,-194.57344146971127,268.94211514178784,606.4348994948671
294,-2.6892642893511702,-263.31989498714006,-33.24048520856822,418.1447810215257,-403.9031864533703,-211.24764626773134,266.2228801231233,606.8832992948737
295,-0.20400064813853205,-260.7908682075538,-31.87696452905935,418.69804362023746,-394.69418807079904,-227.30720063727924,263.5514487344034,606.5843819873612
296,2.116177863090403,-258.3416282207263,-30.37371006611119,418.47247261369415,-384.97404301799753,-242.6509182598095,260.9542225491127,605.5804931291274
297,4.253384267797705,-255.9925673834896,-28.74295880185134,417.45825393714307,-374.944903275772,-257.1745091655333,258.45130030419017,603.9055879855572
298,6.192903608657967,-253.75755196261187,-26.999423202419077,415.6376331579241,-364.7920174434895,-270.77059289778254,256.0566785475377,601.5842204924053
299,7.9233453749019755,-251.64439018295454,-25.15969158072544,412.9854324938814,-354.6813587604173,-283.32910506329483,253.77867764574836,598.6311543522147
300,9.436740072803808,-249.65549571171368,-23.241610701828485,409.4700217185208,-344.7579212038077,-294.73811853765415,251.62055926094243,595.0516030682032
301,10.728572025420066,-247.78870490620653,-21.263667513487157,405.05474388115044,-335.1446854407385,-304.8850790762217,249.5812950868894,590.842089254562
302,11.7977427129016,-246.0382020731755,-19.244386657276607,399.69978515600144,-325.94224239167784,-313.65843532604555,247.65644238631947,585.9918946309921
303,12.646462301246034,-244.39550506333313,-17.201760209752983,393.3644601599696,-317.22904897088597,-320.9496253112321,245.83907985370948,580.4850501877737
304,13.280070861613355,-242.85046380347603,-15.152725523923117,386.0098603494214,-309.06227768640497,-326.65536514847884,244.12075754637115,574.3027913097969
305,13.706794513800329,-241.39222679206358,-13.112705599026635,377.60178565092076,-301.47920898129667,-330.68017077861094,242.49241695970693,567.4263764074502
306,13.937444900721891,-240.0101349656331,-11.09522396112511,368.1138515644977,-294.49910273031236,-332.939029965069,240.9452415505851,559.8401421972304
307,13.98507280918632,-238.69450837493218,-9.111602906495575,357.5306395097619,-288.12547381722374,-333.36013036054703,239.4714038428334,551.5346473993012
308,13.864588299224652,-237.4372983793414,-7.17075055355874,345.8507409294207,-282.3486870350457,-331.8875411026156,238.06468229806754,542.5097426013205
309,13.592360357810986,-236.2325860752084,-5.279038748415918,333.0895385545908,-277.148779482623,-328.4837411626328,236.72092892064745,532.7774001057282
310,13.185808923087103,-235.07691586803418,-3.440270713623905,319.2815729093795,-272.4984147897764,-323.13188820735263,235.4383765490045,522.3641453116062
311,12.663001318198315,-233.96946096868203,-1.6557346329400948,304.48235861921546,-268.36587315300875,-315.8377273152386,234.2177824685794,511.31295067903557
312,12.04226394222697,-232.91202476682054,0.07566277983210809,288.7695416007168,-264.71798413220966,-306.6310494240483,233.062412002943,499.6844830094117
313,11.341818702275969,-231.90888828097255,1.757190326432402,272.2433213106533,-261.5229148956821,-295.566624382831,231.97787187529931,487.5576315392193
314,10.579452212367908,-230.96651904748924,3.394022853474404,255.02609761350456,-258.7527343723327,-282.7245520480563,230.97180822404144,475.02928419438246
315,9.772224214843511,-230.09316080513062,4.992918122846848,237.26133537904695,-256.38568287219846,-268.2099957992923,230.05348811259177,462.2133583189119
316,8.936220041188232,-229.29832619829713,6.561850708028222,219.11166850993996,-254.40808663327908,-252.15228481566203,229.2332862355456,449.23912704000577
317,8.086350357856476,-228.59221664217466,8.109614495252973,200.7562870429891,-252.81586712467302,-234.70339317874473,228.5221004773737,436.24891107910975
318,7.236200019702006,-227.9850947526672,9.645406441066282,182.387666376403,-251.6156056562205,-216.03582435967022,227.93072131179196,423.3952275693723
319,6.39792652420277,-227.48663560943618,11.178405215730702,164.20770846287041,-250.8251348996548,-196.33994831475414,227.46918099033243,410.8375029250919
320,5.582207255585829,-227.10528367218546,12.717358767520627,146.4233740116869,-250.47364033020017,-175.8208549788782,227.14610911633608,398.7384674534537
321,4.7982334540646905,-226.8476422720525,14.27019444553963,129.24189525517377,-250.60126633982964,-154.69480224546115,226.96812138690086,387.26035659995506
322,4.05374769826551,-226.71792201285243,15.843664250891948,112.86567217575013,-251.2582337860443,-133.18534836120494,226.93926777061216,376.5610481612583
323,3.3551206637506867,-226.71747291062567,17.443036255107756,97.48697081638667,-252.50348785855107,-111.51926782428252,227.06056494193123,366.7902662094267
324,2.7074620108756178,-226.8444225456413,19.071841309676444,83.28255828586829,-254.40290709810122,-89.92235623396935,227.3296352798106,358.08597989875597
325,2.1147594716935885,-227.09343897221234,20.731681929879542,70.40842255112375,-257.0271158746835,-68.61523315315623,227.74047122856155,350.5711178194023
326,1.5800395839319723,-227.45563290653124,22.422107820103037,58.99473389529744,-260.4489533337856,-47.80925306775745,228.28333959332525,344.35070579698436
327,1.1055430890199291,-227.91860912788096,24.140560047162186,49.141208072582316,-264.7406614399423,-27.702633084371158,228.9448357382153,339.5095184883222
328,0.6929077769903903,-228.46667231696085,25.882383373123965,40.9130287689767,-269.9708629512125,-8.476902187389706,229.70809290183072,336.11031385230666
329,0.34335157263830207,-229.08118777209356,27.640903773191994,34.33747935007242,-276.20140669475,9.70622920732207,230.55314700272078,334.19269596166527
330,0.05784901667809068,-229.7410924733455,29.40756595045702,29.40142131041479,-283.484162286552,26.707488854044154,231.45745228710805,333.7726271515895
331,-0.16270499905268554,-230.42354665600206,31.172124080319012,26.049739555225916,-291.85784945404424,42.412070986753996,232.39653786035848,334.8425865840525
332,-0.3173495362413783,-231.10471045984565,32.92287822112092,24.184853007217743,-301.3449884276775,56.73100471855185,233.344789611002,337.3723501506803
333,-0.40493449678940413,-231.76062464043224,34.64694862295094,23.66736356751499,-311.94905756057915,69.60180740627241,234.27633656379464,341.31034720667185
334,-0.42402402796704547,-232.36816910867884,36.330580200925084,24.317887654513267,-323.65194252242503,80.98838314310551,235.1660155938215,346.58553363642517
335,-0.37282981466212817,-232.90606845059415,37.959469441591494,25.920082579094608,-336.41175812576273,90.88014387744937,235.9903839110409,353.10970863567593
336,-0.2491770149780093,-233.35590974705121,39.519105878124996,28.22484480212955,-350.16111897228586,99.29035025443201,236.72874494728248,360.78019447665065
337,-0.05050495355548032,-233.70313511607736,40.995120001782674,30.955618707989824,-364.8059284551492,106.25369117736088,237.36415039419393,369.48279418014573
338,0.22609595257070345,-233.9379695931115,42.37362910088567,33.814713561060906,-380.2247470443256,111.82314508153688,237.88433930629304,379.09494088990834
339,0.5838102361559678,-234.05624445720488,43.641572112486976,36.49048426087926,-396.2687901562212,116.06619150878501,238.28257461503236,389.4889539843627
340,1.0259863920619587,-234.06007712482455,44.78702432677145,38.66519061142481,-412.7625933817681,119.06046796680123,238.55833834604692,400.53531957712465
341,1.5559898361138818,-233.9583714017862,45.79948290070784,40.02331281820394,-429.50536871147415,120.88899317819237,238.7178494555469,412.10591613277495
342,2.1770218869042797,-233.76710625109473,46.67011461369574,40.26007071039287,-446.2730600411652,121.63510245879124,238.77437254176547,424.077108841905
343,2.8919079978447813,-233.5093872636692,47.39195796909884,39.08987337655743,-462.8210900123986,121.37726292565468,238.74829167700892,436.332638966122
344,3.7028596661750637,-233.21524252989235,47.96007258660184,36.25441653205791,-478.8877733343932,120.18395438482702,238.66693106419413,448.7662367606847
345,4.611215769449275,-232.92115329389262,48.37163004531089,31.530148252788806,-494.19835424424684,118.10881492521933,238.5641128834213,461.28388923136623
346,5.617170602999341,-232.66931930286543,48.62594207190639,24.734840093419777,-508.4696078625865,115.18625726933767,238.4794522653153,473.8056974629339
347,6.719497612745034,-232.50666881715247,48.72442409916575,15.73302958669732,-521.4149273806433,111.42776174366047,238.45739946735472,486.26726331788933
348,7.915279599055481,-232.48363342389206,48.670494542945725,4.440140521274921,-532.7498022486684,106.81904352497023,238.54604960384088,498.62055289309666
349,9.199657709428555,-232.65271758789657,48.46941264631938,-9.174862433866101,-542.1975782710153,101.31827511494485,238.7957501809353,510.8341953134185
350,10.565612459881851,-233.06690174075618,48.128060536817735,-25.08837027634413,-549.4953803646043,94.85551966240934,239.25754570375062,522.8931911526332
351,12.003790008861301,-233.77792525603226,47.65467815624208,-43.222599761726066,-554.40007393369,87.33349699321388,239.98150634012697,534.7980252482503
352,13.502385777383273,-234.8345017431151,47.058562442359836,-63.44759424393189,-556.694141592224,78.62976256132369,241.01499379979438,546.563202959627
353,15.047095247176667,-236.28052373651894,46.349743767653486,-85.58464923135132,-556.1913572740677,68.60033087925575,242.40092207907998,558.215254724146
354,16.621138559811147,-238.1533170015849,45.53865252535961,-109.41099978542526,-552.7421475654601,57.08472042411846,244.17607335299152,569.7902780916912
355,18.20536185096743,-240.4820060579698,44.635786755325505,-134.66556097518003,-546.2385380539448,43.91233775189979,246.3695298077014,581.3311066262312
356,19.778414780098103,-243.2860517764926,43.6513881915077,-161.05548160503213,-536.6185886430549,28.910056091425414,249.0012803487021,592.884209728429
357,21.31700106878319,-246.57401872375544,42.59512982922919,-188.2632580192307,-523.8702247983962,11.910780317097394,252.08105675483935,604.4964364732289
358,22.796197229638224,-250.34262416795679,41.47581400467738,-215.95415938476472,-508.03437108660864,-7.237270813439835,255.6074470156624,616.2117208204851
359,24.189833801389458,-254.57611244025588,40.30107699733381,-243.78373606104842,-489.20728985815106,-28.660889130123763,259.56732458193846,628.067866263193
360,25.470932884249432,-259.2459880487866,39.07709512352768,-271.40521350517184,-467.54202358492677,-52.452177378554545,263.93562161262605,640.0935262046354
361,26.612195250402102,-264.3111290498986,37.80828881844655,-298.47660934518245,-443.2488372197043,-78.6592272497251,268.6754626358128,652.305492673709
362,27.586529626094958,-269.7182891027819,36.49702553056536,-324.66744490325624,-416.5945600875241,-107.27759500701858,273.73866282908494,664.7064003890453
363,28.36761591352214,-275.4029826242609,35.143328974101344,-349.6649504534543,-387.9007375905685,-138.24299606458123,279.06658254870706,677.2829452976542
364,28.93049321432514,-281.2907327417123,33.744610458372506,-373.179683841638,-357.5405226069433,-171.42562271466628,284.5913168066138,690.0047060157474
365,29.252162514092692,-287.2986467816493,32.29544634257422,-394.95049430691506,-325.93426502644496,-206.62645147080033,290.23718526556587,702.8236424388731
366,29.312192621701282,-293.3372696968833,30.787432526221277,-414.7487679515677,-293.5437949504475,-243.5758469800386,295.9224755097064,715.6743275750702
367,29.093316280220233,-299.31265325301644,29.209150409343113,-432.3818900945506,-260.86544018373314,-281.9346886847592,301.56138070188166,728.4749463695063
368,28.582001439847723,-305.12856909153885,27.546277276657243,-447.69585650599697,-228.42187092391086,-321.2981471979518,307.06606334130265,741.1290697772012
369,27.76898106445371,-310.68878789649756,25.78186679578984,-460.57696610038664,-196.75292149722264,-361.20212449584966,312.3487708383007,753.5281848254797
370,26.649724170832975,-315.8993453904802,23.896812859657285,-470.95253847981076,-166.40559521247906,-401.1322515729175,317.32392692816035,765.5549326638671
371,25.224831349618096,-320.67071885265693,21.870494289834884,-478.7906251618568,-137.92350631568783,-440.53521588160334,321.91012584582063,777.0869766590315
372,23.500339563443035,-324.9198449406937,19.681581714298655,-484.09872342918993,-111.83604561398002,-478.8320757413707,326.0319633497324,788.0013911157992
373,21.487923072764215,-328.57192025442856,17.308973971926687,-486.9215515211295,-88.64757027947357,-515.4331168945613,329.6216494763652,798.1794280449583
374,19.20497943775764,-331.56193958752584,14.732821556088817,-487.337994982419,-68.82691520865112,-549.7537239722933,332.62036155263297,807.5114852568644
375,16.674591400167756,-333.8359421947961,11.935589468005327,-485.4573776473716,-52.797508031677175,-581.230682382024,334.9793115158616,815.9020662661042
376,13.925357118208014,-335.35195242347294,8.903110798777693,-481.4152405368525,-40.92834763363331,-609.3382979898629,336.6605177824106,823.274495289627
377,10.991083237915058,-336.08061635845917,5.625584197064062,-475.3688248645707,-33.52607965938942,-633.6037244727193,337.6372874267362,829.5751343186441
378,7.910338375818045,-336.00554938040807,2.098471964395063,-467.49245136478015,-30.828371524489153,-653.6209203560392,337.8944279465727,834.7768486858806
379,4.725869095913361,-335.12341961030705,-1.676739966648124,-457.97296925036306,-32.99875155753891,-669.0627167009667,337.42821823205475,838.8814858971031
380,1.4838859658675891,-333.44379836555026,-5.691953985316168,-447.00541756303875,-40.12302999424485,-679.6905581864196,336.246174683045,841.9211706231432
381,-1.7667671451050577,-330.988810671628,-9.932073313393907,-434.78900370852665,-52.20736409454768,-685.3615799168844,334.36665031285474,843.9582748900478
382,-4.975542575950863,-327.7926168010803,-14.374838034214573,-421.52346341290513,-69.17796967381932,-686.032793454924,331.8183023064518,845.0839922084218
383,-8.09119564945185,-323.900750629391,-18.990901019664324,-407.40582807366917,-90.88242366739692,-681.7622712852923,328.6394577286524,845.4155212827561
384,-11.06284466389309,-319.3693336336227,-23.744152232269766,-392.62759372350826,-117.09245447824559,-672.7073322725745,324.8773992438078,845.0919423287125
385,-13.841058255777765,-314.26417596562504,-28.59229043025141,-377.3722633945768,-147.50808439009663,-659.1198359149632,320.58758418537076,844.2689412834723
386,-16.378942912531148,-308.6597693362993,-33.48763046348419,-361.8132224656702,-181.76297325608544,-641.3387861979971,315.83280223527447,843.1126002767601
387,-18.63320230489404,-302.6381714006187,-38.378122898235766,-346.1119036618392,-219.43081301812342,-619.7805242499156,310.68227027771604,841.7925238986652
388,-20.56513915961864,-296.28777871977064,-43.208551988418414,-330.4162028364269,-260.0326331819045,-594.9268521380608,305.2106584698647,840.4746082577267
389,-22.141569620148335,-289.70198561442766,-47.921869408974985,-314.8591166251442,-303.0448912064125,-567.3114787288984,299.4970397147544,839.3137824302108
390,-23.33561979150445,-282.97772921445346,-52.4606155616625,-299.5575870749106,-347.90823196695084,-537.5052139315083,293.6237555956169,838.4470588264212
391,-24.127375086835716,-276.21392626691465,-56.768377813917716,-284.61155494616634,-394.0368020519497,-506.10036117074367,287.67519516284864,837.9872194358597
392,-24.504355777491934,-269.5098141147845,-60.79123529293988,-270.1032404207336,-440.82799601385994,-473.69477049314304,281.73648828267926,838.01743822501
393,-24.46179725294631,-262.963215970727,-64.47914207023615,-256.0966845384758,-487.6724948004188,-440.87601678266714,275.8921219630514,838.5870963319434
394,-24.002720868606954,-256.66875850964436,-67.78720406461755,-242.63759393818358,-533.964436011526,-408.20615933311126,270.22449554995313,839.7089879047851
395,-23.1377901539053,-250.7160773751682,-70.67680950127684,-229.75353345503885,-579.1115365669569,-376.2075204142508,264.81243841391637,841.3580441565432
396,-21.884956431125325,-245.18805297693186,-73.11657837053791,-217.45450542033706,-622.5449748745275,-345.349891228862,259.7297212228248,843.4716266308926
397,-20.268906692406613,-240.1591243312891,-75.08310309313742,-205.73394214508502,-663.7288336860706,-316.0395335937202,255.04359848681844,845.9513634876341
398,-18.32033457395018,-235.6937319582901,-76.56146037766669,-194.57012102799914,-702.16890671692,-288.610294871827,250.81342506336097,848.6664300422183
399,-16.07506227612819,-231.844941462651,-77.5454827826148,-183.92799247312809,-737.4206808490435,-263.31709242606956,247.0893921807729,851.4581108920114
400,-13.57304691383195,-228.65329715982114,-78.0377873981303,-173.7613918783393,-769.0963199451538,-240.33195248738633,243.91142892323856,854.1454283817525
401,-10.857308566773359,-226.14594998181445,-78.04956781275516,-164.01559047355656,-796.8704945775976,-219.7427074297316,241.30831281385608,856.5315822673291
402,-7.972818960553942,-224.33609619915987,-77.60016354180732,-154.6301268314731,-820.4849232791803,-201.55436653483932,239.29702816203934,858.4109186786305
403,-4.965389245991835,-223.2227537510875,-76.71642790804701,-145.54185120101138,-839.7515148953705,-185.69308142366967,237.88240352393137,859.5761328419339
404,-1.8805929580185814,-222.7908918205372,-75.43192071785343,-136.68810705242498,-854.554028773121,-172.0125329551559,237.05705046220956,859.8254094101742
405,1.2372437111777466,-223.0119173042011,-73.78595584806753,-128.00996644995192,-864.848201023275,-160.30247691971869,236.80161529461543,858.9692166261677
406,4.345957180574565,-223.84450940511468,-71.82253603395968,-119.4554264354556,-870.6603220201639,-150.2991064782618,237.08534406162033,856.836495636937
407,7.40634555559969,-225.23578097719187,-69.58920784592567,-110.98246202849626,-872.0842927459965,-141.69682427901938,237.86694881137515,853.2800230698322
408,10.382835037215724,-227.12273287051693,-67.13586935165998,-102.56181893907905,-869.2772341485231,-134.16096970090138,239.0957509593089,848.1807714059823
409,13.244002096523241,-229.4339560668553,-64.51356168697143,-94.1794184783069,-862.4537716061338,-127.34101892647925,240.7130657390771,841.4511447761719
410,15.962944650032714,-232.09152676689257,-61.77327410445398,-85.83824230129298,-851.8791623175244,-120.88376868956645,242.65378165248814,833.0370241267237
411,18.517500513510253,-235.0130326677848,-58.96479035356288,-77.55956950723473,-837.8614732048926,-114.44602841208972,244.84808132656957,822.9186118270106
412,20.8903166817677,-238.11366505847118,-56.13560264935712,-69.38345622785442,-820.7430475132791,-107.70637856199359,247.2232459545514,811.1101187467885
413,23.068778135553654,-241.3083112360799,-53.329917997396635,-61.36837917292922,-800.8915176792901,-100.37560303419419,249.70548470122154,797.6583845170243
414,25.044809517709652,-244.51358482627796,-50.58778008314485,-53.59000839841668,-778.6906296830995,-92.20546736096486,252.22173276889745,782.6405628864242
415,26.81456685735428,-247.64973724220465,-47.944328096768736,-46.139127538303036,-754.5311405398324,-82.99558952707076,254.7013665886437,766.161037913891
416,28.37803941958316,-250.6424009079411,-45.429211535219494,-39.11877709758733,-728.8020367888686,-72.59823271343896,257.07779098929467,748.3477619187992
417,29.73858373168813,-253.4241231370945,-43.06617687473889,-32.64075231425135,-701.8822987877504,-60.92093579299208,259.2898603429524,729.3482208097166
418,30.90241294812327,-255.93565805087738,-40.872837643965326,-26.821635341897537,-674.133404467581,-47.92698429863074,261.2831029421931,709.325234866424
419,31.878064972490147,-258.1269924212736,-38.860633693302475,-21.7785763638281,-645.8927286690724,-33.633808646770206,263.010725022045,688.452792564707
420,32.67587205699148,-259.95808988941974,-37.03497861015522,-17.625055453148594,-617.4679527510085,-18.109474676323945,264.43437799986197,666.9120926767018
421,33.30745279536038,-261.3993466032276,-35.39558674983312,-14.466854394476977,-589.1325569429542,-1.4675011979997137,265.5246796896563,644.8879384557285
422,33.78524450503181,-262.4317597175571,-33.9369636860012,-12.398445622760612,-561.122427953275,16.139702542004187,266.2614872785584,622.5655909612266
423,34.122090268427826,-263.0468182024538,-32.64903656115482,-11.499966862096096,-533.6335789003831,34.52844238273837,266.6339265919984,600.1281500216654
424,34.33089088123686,-263.2461329255736,-31.51789464431325,-11.834900128927192,-506.82094881024375,53.49202263909182,266.6401886277953,577.7544935179341
425,34.42432801036532,-263.04082991988673,-30.52660620662791,-13.448518780143882,-480.7982248264003,72.80933182903254,266.2871104979138,555.6177701949335
426,34.4146610580289,-262.4507369125078,-29.65607596632838,-16.367112237721443,-455.63861145360477,92.25336267464431,265.5895636073926,533.884409268575
427,34.313596462704176,-261.5033982854716,-28.885907647332605,-20.597949584807807,-431.3764569224949,111.59932274286045,264.5696768130956,512.7135829146963
428,34.13222445537343,-260.2329573715835,-28.195238192933413,-26.129903285292645,-408.00963636463786,130.63203144414098,263.2559261092253,492.25703653879435
429,33.88101486857297,-258.67894713347334,-27.563513450029696,-32.93462396093493,-385.5025841402316,149.152350399757,261.6821248355166,472.6591874112412
430,33.569860802567696,-256.8850306926324,-26.97117947465046,-40.968136340112224,-363.78986265673626,166.98245375005058,259.886349373119,454.0573850589475
431,33.20815703413533,-254.89773180684608,-26.400268949256766,-50.17271453686639,-342.7801519281388,183.96980894294907,257.90983474909274,436.5822264456079
432,32.804899114505616,-252.76519228811554,-25.834868345701942,-60.478891279648906,-322.3605429415949,199.9898033627659,255.795872547668,420.3578249667047
433,32.36878914546897,-250.53598870985698,-25.26145795359072,-71.80746065540667,-302.4010189071219,214.9470147868803,253.5887401513277,405.5019441377476
434,31.908335136847455,-248.25803493349306,-24.669123216542413,-84.07134774457622,-282.75901192478676,228.77518144190955,251.33268586643206,392.12592394247054
435,31.431932441654,-245.97759051462648,-24.049641572295062,-97.17724116263197,-263.2839284793745,241.43597801458057,249.07098934943613,380.33434914948504
436,30.947917901519855,-243.738388568164,-23.3974538131155,-111.0269147024792,-243.82154512234644,252.91674540144595,246.84511149606263,370.2244330232124
437,30.464589987057305,-241.58089076277554,-22.709532579753507,-125.51819910328109,-224.21818525021843,263.2273529543227,244.69394311752117,361.8851148384936
438,29.990191309595676,-239.54167213248564,-21.985162898904164,-140.54560054179709,-204.32459864399524,272.39639203265995,242.65315764054765,355.3958934233359
439,29.532853163583805,-237.65293445515965,-21.22565083019281,-156.00059496150152,-183.99947720202377,280.46690918435473,240.7546698436503,350.82543988343195
440,29.100504907549627,-235.9421439971505,-20.43397659216794,-171.7716540770505,-163.11255302063185,287.49188726341293,239.0262002217651,348.2300495729896
441,28.700753759810187,-234.43178730155074,-19.61440832556839,-187.7440783372818,-141.54723852072436,293.5296746292822,237.4909428087152,347.65200562619293
442,28.34074283293089,-233.13923726279373,-18.772092261544337,-203.79972384340195,-119.20278232394685,298.6395477343292,236.16733306413687,349.11793357735564
443,28.026996847388908,-232.07672087926136,-17.91263469651882,-219.8167144642796,-95.99592853643287,302.87757239953146,235.06891166092896,352.6372286489422
444,27.765265833263264,-231.25137965899853,-17.041690789682235,-235.66922787125108,-71.86208055754945,306.29290549993067,234.2042795355762,358.2006344336911
445,27.56037718984678,-230.66541352586898,-16.164574580171926,-251.22743581417458,-46.755983253561475,308.9246532784485,233.57713922927576,365.77904458908483
446,27.41610578276252,-230.31629920294444,-15.285903565248,-266.35766562453824,-20.651949217287957,310.79937653989344,233.18641732624775,375.32258863365445
447,27.335070453875012,-230.19707443277974,-14.409289594584823,-280.9228327581014,6.4563342342350705,311.9293075677381,233.02646270683599,386.7600498227835
448,27.318663546611216,-230.2966798885117,-13.537085798672729,-294.7831745816918,34.55637087031516,312.31131928898384,233.08731526750412,399.99864825177735
449,27.367017922635785,-230.6003509998187,-12.670197039955868,-307.79729527275265,63.6177393026253,311.9266641428065,233.3550395163166,414.9242067699156
450,27.479013566387547,-231.09005204372394,-11.807959249053088,-319.82351245587495,93.5932331822181,310.74147817981236,233.81211694131446,431.4017020808382
451,27.65232335823856,-231.74494480736922,-10.948091137985557,-330.7214797483494,124.42019189976207,308.7080249135749,234.43789036696694,449.2761896963018
452,27.88349506534409,-232.54188407266201,-10.086720081272343,-340.354047070297,156.02195397469202,305.76663326809125,235.20905282529935,468.37408033483126
453,28.16806419547092,-233.45593221826311,-9.218482137086532,-348.5893130737284,188.30936613044977,301.84826478768525,236.10017289680528,488.5047377984628
454,28.50069030696853,-234.46088541377102,-8.336694007734879,-355.30282113453245,221.18228448763045,296.8776274829887,237.08424806983004,509.4623646070854
455,28.875307902478223,-235.529804141635,-7.4335922965988805,-360.37985096183866,254.53101017713198,290.77673773299773,238.1332774012224,531.0281412736103
456,29.285282226264115,-236.63554109498324,-6.500633020511844,-363.7177604054757,288.2376096852565,283.4688180386314,239.21884462466886,552.9725870646153
457,29.723559996181883,-237.75125994565158,-5.528842141439714,-365.22833470454407,322.177079959835,274.88240769389773,240.31270292141411,575.0581131724413
458,30.18280512945564,-238.8509391532621,-4.509205787339957,-364.8401016509946,356.2183291738312,264.955556235249,241.3873529193521,597.041742267935
459,30.655509781824364,-239.90985587509257,-3.4330868298479857,-362.50057002875394,390.2249554604602,253.63996639848847,242.41660609764253,618.6779706142466
460,31.13407160211644,-240.90504601479137,-2.2926529097336847,-358.17834527188205,424.055817355882,240.90495454214724,243.37612654358094,639.7217500094152
461,31.61082922355702,-241.81573736447365,-1.0813002310235174,-351.8650714733998,457.5654006747904,226.74110205253308,244.24394482600053,659.9315669188738
462,32.07804992032842,-242.62375352100085,0.20594250081885743,-343.5771440286931,490.60399679062476,211.16348088973558,245.00093853016878,679.0725956062893
463,32.52786617316876,-243.31388673881779,1.57204499942425,-333.3571336269335,523.0177166177331,194.21434983757965,245.63127470859655,696.919901219253
464,32.952161439663804,-243.87423817858584,3.0176551284908366,-321.2748608993055,554.6483729271464,175.96523473488645,246.12281017639356,713.2616677789607
465,33.342409331385504,-244.29652423630364,4.540839829692357,-307.4280621051681,585.333270947643,156.51832531418484,246.4674462780649,727.9024246857949
466,33.68947429978356,-244.5763477968332,6.136897481111276,-291.94258964800247,614.9049534957247,136.0071423299707,246.66143542880317,740.666243287469
467,33.98338558365213,-244.71343319322898,7.79824928872138,-274.9720966731559,643.19095215389,114.59645033943087,246.70563719584322,751.3998719035126
468,34.21309942094304,-244.71182321194755,9.514414400420117,-256.69716231415293,670.0136002962124,92.48141271653178,246.60572175273154,759.9757733314375
469,34.36626726315911,-244.580035609961,11.272070347286794,-237.3238233127758,695.1899669588562,69.88600528863908,246.37231814035522,766.2950233722864
470,34.42902982387983,-244.33117526535287,13.055197247067088,-217.08148892484826,718.5319723797053,47.06072267913245,246.02110385211353,770.2900225377588
471,34.385858102671556,-243.9829962364081,14.84530122415613,-196.22022961008588,739.8467460139753,24.27962658495525,245.57283078609183,771.9269661644679
472,34.219462904183054,-243.5579057531968,16.621710073138235,-175.0074464474898,758.9372854371209,1.8367976263016086,245.05328066549376,771.2080110695499
473,33.910793616471985,-243.0828997606497,18.361932419419475,-153.72394776817674,775.6034692967644,-19.957737892032572,244.49314085371896,768.173070054127
474,33.43914490406988,-242.58941741870433,20.04207032388647,-132.65948176849182,789.643469057938,-40.782527764375935,243.92778940934377,762.9011593323879
475,32.78238642690078,-242.11310036016397,21.63727430897004,-112.1077975301987,800.855592659422,-60.309576667834015,243.3969766643441,755.5112185905559
476,31.917325818933207,-241.69344191746663,23.122229217171196,-92.36132980256907,809.0405786653712,-78.20950531458222,242.9443900127631,746.1623191917288
477,30.820209182678987,-241.37331221561402,24.471659217166433,-73.70562280431368,814.004342640115,-94.15689797074596,242.61708927069853,735.0531736237568
478,29.467356589506068,-241.19834707052266,25.660840553764515,-56.41362353144126,815.5611590150903,-107.83575060773359,242.46480201997454,722.4208595495796
479,27.835922857746436,-241.21619200593804,26.66611109144113,-40.7399850231496,813.5372424240306,-118.94493387697588,242.53907176173664,708.5386759310908
480,25.904766561734213,-241.47559733367964,27.46536614178705,-26.91552501498595,807.774673188271,-127.20358866585754,242.892256406812,693.7130579014816
481,23.655403229658436,-242.02536600304987,28.038530392224246,-15.141986004634244,798.1355932957078,-132.35637698253447,243.57638048692,678.2794924819326
482,21.073012465743393,-242.91316262195423,28.36799594727483,-5.5872395618413275,784.5065829342343,-134.17851685481608,244.64185129119744,662.5973997539463
483,18.1474636314256,-244.184199449686,28.439016595259123,1.6189287785416882,766.8031144886522,-132.48053621085566,246.13605668083395,647.0439741655007
484,14.874321013243286,-245.8798229961978,28.240048465564527,6.388327159992212,744.9739715720341,-127.11268677509977,248.1018703444072,632.0070179931125
485,11.255787319528663,-248.03603279790883,27.7630272434658,8.677043045128785,719.0055151222487,-117.96896436622842,250.5760983787069,617.8768423391081
486,7.3015439088004745,-250.68197156517473,27.003572083937815,8.487207649750971,688.9256761601326,-104.99068610603649,253.58790887784193,605.0373582107856
487,3.0294471191890318,-253.83843281390165,25.96110646951667,5.867758357321868,654.8075544392566,-88.16957735358211,257.157293256899,593.8565284148716
488,-1.53395784335153,-257.5164379364447,24.63888677445047,0.9141395451434482,616.7725029742815,-67.5503210998007,261.29361393549175,584.6763973055369
489,-6.353140905393253,-261.71593904313966,23.043930512574207,-6.233094086437536,574.9925798181404,-43.232519718169286,265.9942973592894,577.8029572539602
490,-11.383540327270378,-266.42470642664983,21.186838316059895,-15.39078191227059,529.6922505339401,-15.372013326861008,271.24373374243766,573.4961459820371
491,-16.571791175888936,-271.6174598529486,19.08150663185888,-26.336752146523352,481.1492281032283,15.818509079509795,277.0124450313491,571.9602960296551
492,-21.856248758729908,-277.25530081101834,16.74473186700983,-38.814459924019324,429.6943423374175,50.069679345875144,283.2565801301609,573.3353753496829
493,-27.1678191761073,-283.2854980985678,14.195711149572183,-52.538589719662006,375.71033916796836,87.05648443198409,289.91779108798386,577.6893652688492
494,-32.43110040015655,-289.64167141234674,11.455449932928103,-67.20150931096373,319.6295225618665,126.40025735291698,296.9235354246399,585.012117829386
495,-37.56582716350989,-296.2444067437073,8.54609249713565,-82.48042801487111,261.9301695175403,167.6717210801685,304.18783786034965,595.2110179826442
496,-42.48860126631874,-303.002323318436,5.490198204810275,-98.04507888269897,203.13167313701746,210.39517902711864,311.61252939355046,608.1087466301593
497,-47.1148756425302,-309.81359480742725,2.3099939826887956,-113.56571535284387,143.78840166749777,254.05393368945712,319.0889631440433,623.4433977521217
498,-51.36114579990961,-316.5679082233064,-0.9733588437453436,-128.72118948955566,84.48230369309472,298.0969913940066,326.50018519452084,640.8711464506958
499,-55.147286477836104,-323.14882340109637,-4.340438650368118,-143.20686206799317,25.8143409819297,341.9470743553659,333.72351582193335,659.9715935347579
500,-58.398955526083526,-329.4364755541851,-7.7741294987677065,-156.74208365587856,-31.60511184062993,385.00991084646006,340.6334733548469,680.255823818814
501,-61.04997277402673,-335.3105443519891,-11.260029119488662,-169.07697916425127,-87.16670292334538,426.6847114004121,347.10495093591965,701.1771068077422
502,-63.0445711530983,-340.6533963736594,-14.786653093532761,-179.99826599298385,-140.2731234604799,466.37566673025117,353.01653737434975,722.1440402599035
503,-64.33941267878089,-345.35329466448087,-18.34539971779026,-189.3338408664151,-190.3504216810671,503.50422644838204,358.2538589106705,742.53579699374
504,-64.90526481074399,-349.3075605491944,-21.930257000846492,-196.95588937229624,-236.85929636430353,537.5218427258179,362.7128110727569,761.7189991154421
505,-64.72824408159205,-352.42557000385557,-25.53725586541486,-202.7823137055675,-279.3060505915846,567.9227959632411,366.30255054253837,779.0656309106646
506,-63.81055348189705,-354.6314705961923,-29.163699241682068,-206.77634527100363,-317.25289732764844,594.2566661635999,368.94812668787915,793.9713274091692
507,-62.17066663056979,-355.8665153271585,-32.80722150130973,-208.94431129602822,-350.327330619932,616.1399792453739,370.5926503096286,805.873346908946
508,-59.842943160611725,-356.0909258366458,-36.46475269659589,-209.33165208865958,-378.230304535411,633.2665466260171,371.1989212387187,814.2675505314254
509,-56.876693176198366,-355.2852179468837,-40.13147420711362,-208.01742328153003,-400.74299310126355,645.4160326687021,370.7504641257508,818.7237623432866
510,-53.33474060319463,-353.4509456816509,-43.799854900977195,-205.10764444111516,-417.7319384007442,652.4603299566319,369.2519503938323,818.8989601111779
511,-49.291562250956886,-350.61084401026767,-47.45884993370197,-200.72794954951712,-429.1524330017738,654.3673962339901,366.7290115011347,814.5478414791457
512,-44.83109886359576,-346.808374085174,-51.093329930168366,-195.0160387976074,-435.0500293995739,651.2023057014261,363.22747263847594,805.5304187659101
513,-40.04434536146914,-342.1066963112722,-54.683789636513126,-188.1144182436516,-435.5601227862262,643.1253851491034,358.81205565785314,791.8164154497906
514,-35.02683026247385,-336.58711517813407,-58.20636491544604,-180.16385045571707,-430.9056103858583,630.3874345621819,353.564614894468,773.4863659148947
515,-29.876090019713246,-330.3470549275928,-61.63316671896273,-171.2978414160251,-421.39268511158235,613.3221640400503,347.58197972977865,750.7294515013248
516,-24.689233861034168,-323.49763676523236,-64.9329209150335,-161.63837601550216,-407.40486861842976,592.3361056674344,340.97348371551936,723.8382321064296
517,-19.560679796229298,-316.1609364896018,-68.07188382475229,-151.29300241811416,-389.39542702009,567.8963721724192,333.85826228347486,693.2005449353701
518,-14.58012418762583,-308.4670061934063,-71.01498574774783,-140.3532643671652,-367.87834262183355,540.5167264414497,326.3623999186396,659.2889336608963
519,-9.830787499475168,-300.5507454058202,-73.72713995780404,-128.89439509715857,-343.4180396471467,510.7424915005683,318.6160037986171,622.648038175897
520,-5.387959586505758,-292.5487062349222,-76.17464422007964,-116.9761195628235,-316.6180838726656,479.13486624416674,310.75027516244614,583.8804163793613
521,-1.317850927671454,-284.595914298857,-78.32659693982174,-104.64436539545082,-288.1090972691861,446.2552179683828,302.8946429677531,543.6312871900777
522,2.3232573669128747,-276.8227830044357,-80.15625079157876,-91.93365911823214,-258.5361499605728,412.64990138453834,295.17401752152637,502.57268278663753
523,5.48958187317565,-269.35219355102805,-81.64223245260622,-78.86998282901125,-228.5459127430663,378.8361094537988,287.7062154156,461.38748321797317
524,8.146147066255692,-262.2968074508683,-82.76956679265008,-65.47388497807174,-198.77387270519725,345.2891985694837,280.59960181108784,420.75378198629204
525,10.268864314943102,-255.7566727816575,-83.53045632646126,-51.763670983403706,-169.83192973470065,312.43185390660193,273.9509921277875,381.3299982833337
526,11.844406975080634,-249.81717983966362,-83.9247807585658,-37.75853713974251,-142.29669944481486,280.6253752726813,267.84385224497544,343.7411089580724
527,12.869906868595942,-244.5474158382092,-83.96029618147392,-23.48154659932671,-116.69884420579017,250.16327499918697,262.34683368731584,308.56631856682264
528,13.352493597962262,-239.9989609981273,-83.65252832666117,-8.962373286460082,-93.51373480462982,221.26729231165055,257.5126769964695,276.3284181679193
529,13.308693380290881,-236.20515912463736,-83.02436856742699,5.760244181262453,-73.15370885392105,194.0858469799698,253.37751165647205,247.4850065302942
530,12.763699442477275,-233.18088425647647,-82.10539436558942,20.636390694783106,-55.96213916284568,168.69488104936553,249.9605738880015,222.42166969536873
531,11.750522584021917,-230.92281124627047,-80.93094692450772,35.603259064522874,-42.20945890221997,145.10097171713426,247.2643540679591,201.44714634274123
532,10.30902914041893,-229.4101824788907,-79.54100769570238,50.58389063073608,-32.09121495384516,123.24654054086214,245.2751735909797,184.79045358611032
533,8.48487471560943,-228.60604595964293,-77.97892203580763,65.48643780878362,-25.72814148303853,103.01693337981753,243.9641771942152,172.59991107250661
534,6.328345726833275,-228.4589226494769,-76.29002266880264,80.20401614499228,-23.168167962860647,84.24910113988709,243.2887119486233,164.94397609227806
535,3.8931266043733777,-228.90484432521134,-74.52020763749063,94.61520851686585,-24.390204795617723,66.74157316364985,243.19404926261493,161.81378222065928
536,1.2350175131092733,-229.8696885710519,-72.71452728745594,108.58527057590145,-29.309489607161442,50.265383041565165,243.6153924094925,163.12725257746098
537,-1.5893655477702158,-231.27172592374504,-70.91583283498576,121.9680635216279,-37.784231108603755,34.57558135114973,244.4801004038995,168.73463219719744
538,-4.523870759861979,-233.02428674107827,-69.16353540626358,134.60870774696681,-49.62325635280915,19.42295258088092,245.7100505663064,178.4252520004671
539,-7.51402978587714,-235.03845273354295,-67.49251897330473,146.34690987588016,-64.5943509885678,4.565545735306244,247.22405757530063,191.93530279940444
540,-10.508174996567718,-237.2256804420821,-65.93224315498836,157.02086910171448,-82.43297949437617,-10.220368998509146,248.94026651997217,208.95636669362491
541,-13.4584155084285,-239.5002708861314,-64.50606253614193,166.4716215721092,-102.8510817480466,-25.130291096230444,250.77844132540662,229.14442961727312
542,-16.321437640174977,-241.78161041681037,-63.2307786260847,174.54764045125566,-125.54566207155736,-40.32277629746415,252.6620775369792,252.1290860274529
543,-19.059102249125576,-243.99612154806272,-62.116429759916315,181.10948087465624,-150.20691565411556,-55.91233039360361,254.52027917798765,277.5226476412853
544,-21.638820064332883,-246.078878073349,-61.166314001006675,186.0342483360911,-176.5256736564372,-71.96417289800242,256.2893523346327,304.92888521843764
545,-24.033696300309483,-247.97485482274524,-60.37723104880392,189.2196783621048,-204.199990820483,-88.4910723059845,257.9140821361516,333.9511666528017
546,-26.222447195588778,-249.6397977143314,-59.73992172655014,190.58764359219632,-232.94074602899954,-105.45238164743176,259.3486737214625,364.19980428064724
547,-28.189103136460258,-251.04071334773445,-59.23967816247255,190.086947384088,-262.4761742853224,-122.75531916548395,260.55735068911747,395.2984842414491
548,-29.922524791339768,-252.1559888648379,-58.857094426214324,187.69531425728965,-292.5552949735055,-140.25844671442286,261.51461590511053,426.88971326490804
549,-31.415769101627316,-252.97516231913482,-58.568925816327,183.420539527268,-322.95024344321524,-157.77720222494125,262.20518929896053,458.63927491841224
550,-32.665350154817354,-253.49837175472638,-58.349024479399404,177.30080696779208,-353.4575495839081,-175.09124856167574,262.62364550852317,490.23973110095125
551,-33.670445337846125,-253.73551783951012,-58.16931896028109,169.40421996233485,-383.89843791040903,-191.95331626224257,262.7737809761235,521.4130315851735
552,-34.43209931023216,-253.70518027367922,-58.00080552673685,159.82761638334912,-414.11824901997727,-208.09914810533624,262.66774536319906,551.9123046417898
553,-34.95247689071415,-253.43333245456216,-57.814519836127836,148.69475051560423,-443.98510219642804,-223.2581036248757,262.3249761312358,581.522898520974
554,-35.23421081875117,-252.95190235957193,-57.58245873403882,136.15392880917418,-473.3879333886595,-237.16395451029226,261.7709782164382,610.0627324643782
555,-35.27988188388749,-252.29723055202533,-57.2784236641782,122.37518378819465,-502.23405191133367,-249.56539908492525,261.03599322169987,637.3820036137492
556,-35.09165790645207,-251.5084784632344,-56.8787595919676,107.54706636466118,-530.4463634310752,-260.2358460221059,260.15360446993986,663.3622885348517
557,-34.67110555127536,-250.6260411100052,-56.36296699602298,91.87313462594769,-557.9604066467724,-268.9820624455725,259.1593252702224,687.915078586143
558,-34.01917601900891,-249.69001753442907,-55.71416963048347,75.56821844780887,-584.721346971481,-275.6513460187291,258.0892173440437,710.9797975609807
559,-33.13635326532447,-248.73878913262953,-54.91942721079292,58.8545435312399,-610.6810627741494,-280.1369598693247,256.97858417639634,732.521366077856
560,-32.02294253881875,-247.8077507283364,-53.96988941046265,41.957803969940095,-635.7954486216111,-282.38165798357716,255.86078006183035,752.5273969052905
561,-30.679468696816702,-246.92823214475948,-52.860794959552145,25.103277399623735,-660.0220457668701,-282.37922144400807,254.7661700918626,771.0051250335898
562,-29.107148658509395,-246.12663962309276,-51.5913266419789,8.51207982110177,-683.3180930883287,-280.17401692202327,253.72126966464302,787.978192069452
563,-27.308400593168198,-245.42383705285712,-50.16433917489173,-7.602342514888066,-705.6390719376656,-275.85867312914945,252.74808453676283,803.4834132772155
564,-25.287353578877926,-244.8347767401316,-48.58598199774573,-23.0373899370973,-726.937796083985,-269.57004471298563,251.86366401721557,817.5676554070321
565,-23.05032490190685,-244.36837852711278,-46.86524258619836,-37.60406823613383,-747.1640735803409,-261.48369400842586,251.0798706954771,830.2849439326731
566,-20.606237377843648,-244.0276450415227,-45.01343771581709,-51.129255917712236,-766.2649417494806,-251.80716787445232,250.40336051919869,841.6939004547224
567,-17.9669554867829,-243.8099906173736,-43.04367987893606,-63.45742498396758,-784.1854508077399,-240.77237900396827,249.83575786576395,851.8555868186523
568,-15.147525923004777,-243.70775296300684,-40.97034379014446,-74.45178436846861,-800.8699473669138,-228.6274185009634,249.37400232517467,860.8318045023956
569,-12.166314514953092,-243.7088506294652,-38.80855402552417,-83.99484232490757,-816.2637875103989,-215.6281295704111,249.0108378574976,868.6838685862765
570,-9.045036810525119,-243.79754596738573,-36.57371009486623,-91.98841194477946,-830.31539118942,-202.02976183004836,248.73541110854572,875.4718471950798
571,-5.808683735509944,-243.95527241355973,-34.281060355414134,-98.35311039010749,-842.9785355725147,-188.07900356857255,248.53394397255417,881.2542311239437
572,-2.4853466066124024,-244.16148633439298,-31.945331586659005,-103.02742623649173,-854.2147745508012,-174.00665722622188,248.39044582922878,886.087975393443
573,0.8940524635919186,-244.39450696579823,-29.580417069752944,-105.96645034494075,-863.9958646874916,-160.0211837055461,248.28743305441972,890.0288355252245
574,4.296117799790552,-244.63231287032258,-27.1991228829073,-107.1403838634772,-872.3060746663218,-146.30329612781568,248.20662714062485,893.1319072092325
575,7.685417532392801,-244.85326931573343,-24.812969875335245,-106.5329514880966,-879.1442563515681,-133.00173552441234,248.1296076568284,895.452269611801
576,11.024993049732645,-245.03676755540945,-22.432047284760625,-104.13985711876262,-884.5255617488359,-120.23031174559229,248.03840184014646,897.045630586104
577,14.276931632444185,-245.16376375822503,-20.064913040245703,-99.96742000601479,-888.482701972393,-108.06624447516437,247.9159984445188,897.9688767708263
578,17.40299210056903,-245.21721200964012,-17.718535295190282,-94.03152002829921,-891.0666615648684,-96.54979329496574,247.74677928373228,898.2804425923828
579,20.365271636831856,-245.18239205385535,-15.398269637749813,-86.35695957102962,-892.346803234767,-85.6851236182248,247.51686736663024,898.0404285425722
580,23.12690004353187,-245.04713782936412,-13.107866849849035,-76.97731718054568,-892.4103229789954,-75.44231827109721,247.2143952125778,897.3104195721502
581,25.652745898182456,-244.8019770107785,-10.84950708717604,-65.93532760240487,-891.3610423270352,-65.76041378155288,246.82970052742218,896.1529777728974
582,27.91011783762514,-244.44019462783052,-8.62385770597298,-53.28377864544848,-889.3175518366254,-56.55131705047912,246.35545884948382,894.6308084079942
583,29.869443765682682,-243.95783555420095,-6.430153274694519,-39.086872564061544,-886.4107467989483,-47.704442543226925,245.78676420484328,892.8056234011348
584,31.50491104088152,-243.35366149898624,-4.266297293777251,-23.421962078878153,-882.7808212884973,-39.09190233850822,245.12116948366918,890.736750258576
585,32.79505144602849,-242.62907828269357,-2.1289857433021093,-6.3815405785579955,-878.573809308163,-30.574080692198535,244.3586983557083,888.4795559096085
586,33.72325598362148,-241.7880486732048,-0.013852874536222876,11.92465703283447,-873.9377811012255,-22.005430310511304,243.50184015084756,886.0837731451446
587,34.27820645439523,-240.83700480122965,2.0843602218578234,31.36760171369415,-869.0188181131626,-13.240338162533549,242.55553818603755,883.5918313627124
588,34.45421333249447,-239.78477206856607,4.171613720297447,51.79713200129548,-863.9569010217601,-4.138923031799653,241.52718041867598,881.037302375325
589,34.25145232920417,-238.64251354010466,6.254353352457052,73.0404952785302,-858.8818511829348,5.427356446433697,240.42659902552393,878.4435753302212
590,33.676094896829845,-237.423700297415,8.33927056673582,94.90142536045133,-853.9094663371004,15.570387352878042,239.2660827006868,875.8228716678627
591,32.740330553437936,-236.1441094054541,10.43303847770647,117.15989817087359,-849.1379863072141,26.380469380953233,238.06040235637576,873.175701203578
592,31.46228113481813,-234.82184713441592,12.54202379199541,139.57268648428527,-844.6450138717458,37.92183642278095,236.82684757362853,870.4908439624088
593,29.865808801303267,-233.47739090137898,14.671975175716584,161.8748083407308,-840.4850005522917,50.22869476371098,235.58526756550768,867.745919946144
594,27.980220952683812,-232.13363914983321,16.82768894352089,183.78193164350154,-836.6873875467985,63.30183174273082,234.35810668537033,864.9085815615001
595,25.839876328311362,-230.8159543165956,19.01265371220896,204.99375950085462,-833.2554695160194,77.10584391166657,233.17042091207213,861.9383322918433
596,23.48369752716764,-229.55218049730098,21.228676990915698,225.19837747829166,-830.1660246271299,91.56703149065022,232.0498586378592,858.7889418997484
597,20.954595902254177,-228.37261486406783,23.475498778051154,244.07749648574364,-827.3697295537129,106.57200539002707,231.0265869316602,855.4113947830499
598,18.298815270622057,-227.30991077748942,25.750400196293818,261.3124762265652,-824.7923543735794,121.96705336073974,230.13314373171585,851.7572759896493
599,15.5652011789524,-226.39889113132986,28.04781872799128,276.59096786814257,-822.3367104578828,137.55831206699517,229.40419737934644,847.7824706380886
600,12.80440257075493,-225.67625270535987,30.358984971880215,289.61397526899253,-819.8853048215925,153.11279107945222,228.8761973943242,843.4510285841081
601,10.068012717155003,-225.18014590418153,32.67159830207842,300.103105541893,-817.3036367979964,168.36029190014034,228.58690406484598,838.7390282882486
602,7.407656598903091,-224.9496189311387,34.96956013417266,307.8077641182412,-814.4440569916932,182.99625912937572,228.5747889947175,833.6382629067792
603,4.874033131502662,-225.0239209122749,37.23278387793332,312.51204683259357,-811.150094199549,196.68559095126992,228.87830401479613,828.1595682987681
604,2.5159230728314412,-225.44166445644098,39.437100389913056,314.04109005651907,-807.261143750336,209.06742170174286,229.53502160410858,822.3356172111519
605,0.37917705905792376,-226.23985435176223,41.55427711246289,312.26665682004574,-802.6174013765213,219.76087010319435,230.58065594656,816.223016426097
606,-1.4942975207401443,-227.45279541882778,43.55216821298437,307.1117595559727,-797.0649215461103,228.37172278148745,232.04797981543896,809.9035641975147
607,-3.06752791099108,-229.11089899680746,45.39501164465214,298.5541470603174,-790.4606792763745,234.49999428697797,233.96565858155114,803.484553973145
608,-4.3094193608557925,-231.2394142678551,47.043886489918435,286.62851447678213,-782.6775199588028,237.74827293860724,236.35702880874877,797.0980468909412
609,-5.195622156645034,-233.85711772963438,48.457339591318494,271.4273316892611,-773.6088911071794,237.7307279021703,239.23885515842363,790.899078460514
610,-5.709293405643237,-236.97500150673545,49.592184041435424,253.10022838977363,-763.1732603235206,234.082618866461,242.6201055720388,785.0628114820513
611,-5.841725336986751,-240.59500846403657,50.404463600482586,231.85192262870248,-751.3181323766579,226.470117311585,246.50079060056817,779.7806941752867
612,-5.592813578095506,-244.70886862349852,50.85056671139998,207.93873099816372,-738.0235838258329,214.60021912104813,250.87091773540277,775.2557264543054
613,-4.9713415888914065,-249.29709645121525,50.88846202984305,181.66374839396946,-723.3052365894188,198.23050331930932,255.70961500728674,771.6969758821879
614,-3.995061460451386,-254.3282114455823,50.4790153934573,153.37082928185052,-707.2165937722116,177.17847227706412,260.9844793598141,769.3135167278159
615,-2.690556785599093,-259.7582445006088,49.58733744695219,123.43753796113197,-689.8506635458115,151.33019645498723,266.65120392877776,768.307990437226
616,-1.09287998945812,-265.53058930268486,48.18410321557387,92.2672622639389,-671.3408009785,120.64798334860163,272.65353411719747,768.8700040361447
617,0.7550364456319464,-271.57625130844593,46.24678085521723,60.28070514186096,-651.8607035041662,85.17679678955747,278.92359517668166,771.1695944886302
618,2.803188984769548,-277.8145365600626,43.76070714637779,27.906983903313584,-631.6235023531333,45.049169050655884,285.3826239474058,775.3509908181194
619,4.995521174176017,-284.15420874745934,40.719952253428616,-4.425421205552903,-610.8798986884177,0.4883731872303585,291.94212465988886,781.5269000708895
620,7.271135737136182,-290.4951257005151,37.127925952522354,-36.29761919142355,-589.9152992600546,-48.19034477903703,298.50545363134876,789.7735266689124
621,9.565681885842345,-296.73034622378225,32.99769186236083,-67.30890882347128,-569.0459138185539,-100.5806360793703,304.969820744031,800.1265080162128
622,11.812895081510778,-302.7486753122788,28.35197453755242,-97.08478066297512,-548.6137890023281,-156.18814039863872,311.2286770361861,812.5779156835117
623,13.946261267847548,-308.43759095749573,23.22286513481467,-125.28408966915634,-528.9807754088322,-214.4358670019677,317.1744376406419,827.0744359747848
624,15.900770913122287,-313.686470140103,17.65125259287758,-151.60519307282598,-510.52145905103384,-274.67187789415317,322.70146798097426,843.5168098265892
625,17.614720258723697,-318.39000708821203,11.686026311132425,-175.79087924555637,-493.61513490411255,-336.1792194679052,327.7092395975384,861.7605793926768
626,19.03150889994025,-322.45169575924706,5.383110302025124,-197.63194191302986,-478.6369549322816,-398.18797354682295,332.10554201141633,881.6181525877137
627,20.10137585567905,-325.78723293112824,-1.1956052283394145,-216.96927321755132,-465.94844081591975,-459.88921405839613,335.80962091005506,902.8621514661228
628,20.783012488582106,-328.3276899429347,-7.98337320543598,-233.694359233523,-455.88760806849564,-520.4505655940674,338.7551031033812,925.229953216615
629,21.044991269982575,-330.02230132289367,-14.909692999346268,-247.74807487784378,-448.7589986657019,-579.032971798184,340.89256748061587,948.4292678586415
630,20.866954560662574,-330.8407282939306,-21.901383060823633,-259.117712985094,-444.82395710870054,-634.8082037148708,342.1916301693524,972.144535175752
631,20.240516358876004,-330.7746747205138,-28.883622206992037,-267.83226401405193,-444.29150223621116,-686.9765794993327,342.642431273075,996.0438791503304
632,19.16984079121203,-329.83876133789164,-35.780978017817674,-273.9560930808675,-447.3101393717001,-734.784333740377,342.2564380909548,1019.78634201559
633,17.671872394998438,-328.0705984651737,-42.518450217978554,-277.58132320633223,-453.96092698747026,-777.5400704187908,341.06651243561873,1043.0291328077953
634,15.776204080846824,-325.5300344627883,-49.022555104991405,-278.81939432391187,-464.2520681182011,-814.6297583172229,339.126224152215,1065.4346570764592
635,13.524579399753355,-322.2975939686222,-55.22246594006676,-277.79238897330094,-478.11524974712546,-845.5297787499844,336.508426558038,1086.6771318822855
636,10.970037390149901,-318.4721545514238,-61.05120782264548,-274.62476955616404,-495.403909020685,-869.8176084543823,333.3031407305432,1106.448625715998
637,8.17572114256994,-314.1679418663654,-66.44688838940584,-269.4361481998684,-515.8935618114339,-887.1798109288682,329.6148235380111,1124.4643973562654
638,5.213383945988623,-309.5109509478924,-71.35393102553923,-262.33561615083346,-539.284280368568,-897.4171134309778,325.55911827943845,1140.4674457901706
639,2.161637136401119,-304.63492406143706,-75.72426670882811,-253.4180147131314,-565.2053464865646,-900.4464599911759,321.25920590093887,1154.2322275140618
640,-0.8960100789880912,-299.67703263675037,-79.51843431498038,-242.76235800783502,-593.222033342311,-896.3000475407202,316.84188821770067,1165.5675447343276
641,-3.873266307836682,-294.7734215423699,-82.7065368384812,-230.43244145161958,-622.8443867953412,-885.1214655436992,312.4335420716329,1174.3186510621103
642,-6.6832767140457054,-290.054778133445,-85.26900228137492,-216.47950583495836,-653.5377922913043,-867.1591621083804,308.1560851822033,1180.3686525105238
643,-9.240893036762898,-285.6420864025791,-87.1971029582124,-200.9466862600462,-684.7350330648392,-842.7575456199522,304.12309138885615,1183.639295604035
644,-11.46494357628224,-281.64271877311967,-88.4931956869605,-183.87486421660302,-715.8494738242122,-812.3460969174029,300.43618602176565,1184.0912295077985
645,-13.280451948116728,-278.14700525508295,-89.1706574982104,-165.30946315156538,-746.2889451802563,-776.4269112060749,297.1818421318612,1181.7238072823368
646,-14.620753041955306,-275.22540242747425,-89.25350634995866,-145.30768521275675,-775.4698621175894,-735.5611107895824,294.4286857594965,1176.5744583091878
647,-15.429453546461593,-272.92636353691057,-88.77571259995536,-123.94568048984476,-802.8310904531234,-690.3545703091879,292.2254033565405,1168.717628653743
648,-15.662182793231459,-271.27498639614305,-87.7802229370746,-101.32516854690614,-827.8470834834098,-641.4433785304551,290.5993265394341,1158.2632589690172
649,-15.288078470513781,-270.27248818372084,-86.31773240244475,-77.57908960725383,-850.0398478887297,-589.4794298232778,289.55574809162306,1145.354757994143
650,-14.29095227691315,-269.8965262080761,-84.44525094024326,-52.8759394142089,-868.9893589318614,-535.1165002414101,289.07799846817414,1130.166435238669
651,-12.670083903236069,-270.1023519836647,-82.22451829985734,-27.42252566689623,-884.3421220132064,-478.99712289887015,289.128284571008,1112.9003751733112
652,-10.44059843864157,-270.8247537115736,-79.72032528715447,-1.464965037524548,-895.8176625853574,-421.7405389830413,289.64926347904327,1093.7827613824138
653,-7.633392602301429,-271.98071095446005,-76.99880071109483,24.712186820430304,-903.2128131781324,-363.93196591729344,290.56629477500826,1073.0596879501581
654,-4.294588986958261,-273.47265675662305,-74.12572216626303,50.78871343164207,-906.4037508440459,-306.1133922064128,291.79028798309344,1050.992523855826
655,-0.48451421364179287,-275.19221858350136,-71.16490515039996,76.41340129868595,-905.3458179359686,-248.7760766791196,293.22103823206044,1027.8529222193195
656,3.7237845226652317,-277.02429170437136,-68.17671912887673,101.21050151656307,-900.071231443313,-192.35489455776462,294.7509248963082,1003.9175878098504
657,8.246450960159876,-278.8512876116658,-65.21677157092545,124.78783241046794,-890.6848489966746,-137.22463081429248,296.26883517134735,979.4629312846556
658,12.991107513697829,-280.557395589001,-62.334792533252525,146.74629459813005,-877.3582113448543,-83.69827073910308,297.6641672287676,954.7597456498273
659,17.85945099005553,-282.03269717854073,-59.57374378594399,166.69049814819118,-860.3221206385227,-32.027278327463186,298.8307655198445,930.0680389650404
660,22.750074008460498,-283.1769807576983,-56.96916809775041,184.24013389959086,-839.8580413907782,17.59621360498735,299.6706438480831,905.6321482472198
661,27.561418645076706,-283.90311657093207,-54.548786082072915,199.0416623676796,-816.2886278890046,65.03544865827452,300.0973600493518,881.67624508814
662,32.19476061277922,-284.13987121624876,-52.33233970361702,210.77984970816073,-789.9676901427822,110.20354526981129,300.0389195399805,858.4003267488991
663,36.5571174557894,-283.83406440127214,-50.33167294666463,219.18865723192076,-761.2699118040285,153.0567313056651,299.4401034911223,835.976770500671
664,40.56397340124897,-282.95199902213506,-48.551031356568636,224.0609947883112,-730.5806280912587,193.58665202169942,298.2641405165501,814.5475160655913
665,44.141717270909055,-281.4801270657581,-46.98755379997906,225.25688283809046,-698.2859583461515,231.81212728808353,296.49366766879734,794.221932539452
666,47.22969849562787,-279.42494691845604,-45.63192293535182,222.70963371859796,-664.7635649786018,267.77075374852717,294.1309560658375,775.0754227516094
667,49.78181979806625,-276.8121606900329,-44.46913674406805,216.42975560409727,-630.3742779419385,301.51074652381874,291.1974073715861,757.1488192137958
668,51.767603410710855,-273.6851514950349,-43.479362754154366,206.50639473860943,-595.4547828485084,333.0833927539572,287.7323584009183,740.448629238887
669,53.17269035556417,-270.10286871132007,-42.638839122472305,193.10625153750965,-560.3115236306253,362.5364466009015,283.7912609680769,724.9481876588742
670,53.99875818884427,-266.1372325452405,-41.920791573911266,176.47002296774502,-525.2159195992588,389.9087342807781,279.4433310807624,710.5897677927878
671,54.26286986638508,-261.87018636285967,-41.296340999733246,156.9065289066447,-490.4009440547309,415.22616140141906,274.7687837667226,697.2876800402611
672,53.99629294352293,-257.3905350948635,-40.735382056448756,134.78476981599783,-456.0590596509348,438.499228059309,269.85578537633126,684.9323510592517
673,53.24285233930528,-252.79071004496473,-40.207417618373874,110.52423659410945,-422.3414572627426,459.72206622381657,264.7972628661729,673.3953270816319
674,52.05689993575186,-248.16359479483538,-39.68233726264187,84.58385225009985,-389.3585029232179,478.8729263520047,259.68770891040106,662.535087555704
675,50.50099937758857,-243.5995344542898,-39.13113034977702,57.44997000634442,-357.1812636340073,495.9159630094553,254.62011314878188,652.2034962146732
676,48.64343403981973,-239.18363262315802,-38.52652603693884,29.62388255092866,-325.84395866037534,510.8041078222663,249.68313460500337,642.2526619109242
677,46.55565002476307,-234.99341874280654,-37.84355401966681,1.6093095275920624,-295.3471684879942,523.48277510333,244.95860988821,632.541936433225
678,44.309744286256475,-231.09694463761062,-37.060021213677366,-26.099678426738947,-265.66162835291993,533.8941213353388,240.5194679980487,622.9447455709895
679,41.97610080135373,-227.55134442106896,-36.15690110118539,-53.02987288588237,-236.73243598622378,541.9815732223891,236.42809713132422,613.3549366780085
680,39.62126545368265,-224.40186784964655,-35.11863394988914,-78.73890704906947,-208.48351250178956,547.6943486100203,232.73518345859458,603.6923336447655
681,37.30613342249838,-221.68137490182608,-33.93333731453695,-102.82370548735102,-180.82216989048334,550.9917184176169,229.47901795730715,593.9072195104611
682,35.08450226588618,-219.41026013631176,-32.59292710222717,-124.92719778010076,-153.64365730629436,551.8467934798263,226.68524659025013,583.9835163673071
683,33.002021063672125,-217.59676042109885,-31.093150298132716,-144.7431859659415,-126.8355800902758,550.249664577789,224.36702272213304,573.9404973075734
684,31.095542951322702,-216.23758965972812,-29.43353159332801,-162.01935129919974,-100.2821085439289,546.2097730478072,222.52550941659518,563.8329394965153
685,29.392867186110056,-215.31883926276842,-27.61723784377472,-176.5584738708774,-73.86791544868179,539.7574394870018,221.15067316242258,553.7497042792245
686,27.912839192703597,-214.81708281661238,-25.650866462974072,-188.2180144861383,-47.481799798367945,530.9445262842925,220.22230906809585,543.810803949525
687,26.665763760864163,-214.70062674716854,-23.544166286354283,-196.90826895062105,-21.019967562865368,519.8442536369689,219.7112397047678,534.1630812892221
688,25.654077835563868,-214.93085456544895,-21.30970188112785,-202.5893489352823,5.61105174822375,506.55022641220313,219.58063444647289,524.9746842530432
689,24.87322472291751,-215.46361931826766,-18.96247442592913,-205.26726994964238,32.49187047650239,491.17475949737747,219.78740224125124,516.428562488788
690,24.312670426143985,-216.2506461955543,-16.519513815348976,-204.98943575893034,59.688107249591,473.84661222212924,220.28361734408395,508.71524456289654
691,23.95700460524391,-217.240914208409,-13.999457252617448,-201.8398013322409,87.24866780377305,454.708259072715,221.0179440038275,502.0251758823117
692,23.78707265912442,-218.3819920289994,-11.422129120312103,-195.93397591868919,115.2044589512238,433.9128353255311,221.93703198207575,496.5409086448803
693,23.781090947764284,-219.6213082739752,-8.808135330748891,-187.41449759509499,143.56754953708753,411.620902790985,222.9868598509624,492.4294372848822
694,23.91570354212156,-220.90734074023675,-6.178482694527581,-176.44647383290214,172.3307858338334,387.9971823773924,224.11400724063705,489.83496554766975
695,24.166945581713282,-222.19071256631347,-3.5542302774552073,-163.21374153266393,201.46785818885706,363.2073963608934,225.26684073734322,488.87237388047447
696,24.511084953116697,-223.42518625986688,-0.9561755952149916,-147.91565574850375,230.9338007902466,337.41535399221306,226.3966011983674,489.6216277403724
697,24.925320362807234,-224.56854920445156,1.5954256759901841,-130.7645696455368,260.66588806581854,310.7803995301928,227.4583830332563,492.1233287852931
698,25.38831997679283,-225.58338673599505,4.081111402248022,-111.98401991275156,290.5848715829584,283.45532240351656,228.41199860767605,496.37556300787287
699,25.88059088190263,-226.4377412054905,6.482443468499297,-91.807583042913,320.5964833432541,255.5848058372472,229.22272343933423,502.3321455569313
700,26.38467602492288,-227.10565760220305,8.78222526874409,-70.47831992662368,350.59311816517567,227.30446426684665,229.86192031181602,509.9023055071879
701,26.88518220871511,-227.56761814540806,10.964713752622089,-48.24868068740946,380.45560186798195,198.7404928248359,230.30754271397635,518.9517999441921
702,27.368650095499078,-227.81086948929993,13.015831471766964,-25.38070098790442,410.05495447494275,170.00992580017882,230.54451983929872,529.3053995482212
703,27.823284668710365,-227.82964661410284,14.923380805216787,-2.1462887021192385,439.2540684623588,141.22147665658895,230.56502648395448,540.750649881945
704,28.238571818916338,-227.62529710406898,16.677258465484275,21.17261989193073,467.90923963519583,112.47691081470838,230.3686414900971,553.0427843210554
705,28.604813196437057,-227.2063085519268,18.26966402347038,44.2842586600126,495.8715100506933,83.87288418837144,229.96239801920188,565.9106449618141
706,28.912616648288523,-226.58824058442434,19.69529215670964,66.8877941983911,522.9878058466699,55.503165281129874,229.3607281292234,579.0634550734985
707,29.15238272343046,-225.7935617643571,20.95149519582107,88.67482865792302,549.1018754433615,27.461146328898927,228.58530309266578,592.198278705316
708,29.3138282579003,-224.85139056500046,22.038400836241614,109.33177026513046,574.0550534404063,-0.15746053494825882,227.66476980817922,605.0079978319567
709,29.385585740775657,-223.7971387878578,22.958969977118258,128.54313882195177,597.686891199916,-27.251852775108652,226.63438267273906,617.1896328968215
710,29.354912388374323,-222.67205523824268,23.718981414187983,145.99580690473064,619.8357056628079,-53.71340700702066,225.53552953453237,628.4528270418898
711,29.207536224950758,-221.52266720092172,24.326932735613926,161.3841096906082,640.3391029754063,-79.42310362571047,224.41514988059944,638.5283066277033
712,28.927658350346608,-220.40011724505837,24.793849486079786,174.4156921004769,659.0345332020108,-104.24921890052848,223.32504318637348,647.1761208409298
713,28.49812116774503,-219.35939324324718,25.132997614608026,184.81790541919773,675.7599276182748,-128.04539099163466,222.32106552389146,654.1934525110547
714,27.900742113860574,-218.45845054732146,25.35949805968872,192.3445200420856,690.3544621678343,-150.64915733625244,221.46221351988373,659.4217830163519
715,27.11680216445125,-217.75722732860652,25.489847176920506,196.7824887493236,702.6594810870649,-171.88104934741588,220.8095969009941,662.753189114849
716,26.127668853077537,-217.31655719499398,25.541352056279166,197.95847704596846,712.5196046077317,-191.5443171495483,220.42530412968756,664.1355511566561
717,24.91552532130063,-217.19698714630434,25.531495093540602,195.7448737649003,719.7840346116371,-209.42534290871953,220.37116977009555,663.5764620476883
718,23.464170489563593,-217.457513445767,25.477247222329037,190.06500575366596,724.3080622719123,-225.29478678303465,220.70745694841796,661.1456452639711
719,21.759851242468955,-218.15425278595873,25.394353716879756,180.8973040860174,725.9547722243462,-238.90949494053257,221.49147331553817,656.9757183515777
720,19.79208585194998,-219.33907091249787,25.29662004517455,168.2782047385376,724.5969292986161,-250.01518447677387,222.77614397197607,651.261175815477
721,17.55443873558476,-221.0581952808263,25.195227616568378,152.3036128566086,720.1190275721199,-258.3499050825785,224.60856951409943,644.2555123282575
722,15.045209905488315,-223.35084197258314,25.098110478419343,133.12881506013363,712.4194791390868,-263.6482613509874,227.0286013442252,636.2664638094268
723,12.268007890834358,-226.2478896651915,25.00942427101023,110.96678643848499,701.4129229190635,-265.6463619708336,230.06746936193156,627.649409373203
724,9.23218214380087,-229.77063477310358,24.929138082274626,86.084904886478,687.032642400505,-264.0874422262816,233.74649892532835,618.7990492583821
725,5.9530992976752435,-233.929662013207,24.852777954367234,58.80015169588294,669.233093968638,-258.7280840765972,238.0759544616877,610.1395487036057
726,2.452256257073357,-238.72386377315073,24.771347096932224,29.472940246677783,647.9925608129369,-249.34493386795475,243.05404632631692,602.1134095518338
727,-1.2427688926977443,-244.13963998397233,24.67144176370843,-1.5002292053616342,623.3159559949438,-235.7417919650186,248.66613553291157,595.169393035759
728,-5.0985204476485455,-250.15030794635362,24.53557298635441,-33.695044576371224,595.2377961666276,-217.7569220970202,254.88416801437245,589.7498614505797
729,-9.076010480850485,-256.71574898933176,24.34269310007221,-66.668309812735,563.8253499783347,-195.2704021535037,261.66636645006025,586.277927793597
730,-13.13119063715414,-263.78231610379737,24.0689127775918,-99.96723098077041,529.1819307346117,-168.211314149241,268.9572036797619,585.1447993222371
731,-17.215534263973115,-271.2830237379337,23.688380061825498,-133.13876484276398,491.4502537729637,-136.56455109820405,276.6876773634791,586.6976767270403
732,-21.276714034087345,-279.13803759144014,23.174279074998505,-165.7387488809782,450.81572171701833,-100.37700465214189,284.7759007315144,591.2285329128233
733,-25.259362774670983,-287.25547833717576,22.499894395559547,-197.34056039259244,407.509444016047,-59.76289130988189,293.1280189076963,598.9640536921631
734,-29.105908618731547,-295.53254860778543,21.63967919131107,-227.54309169284562,361.8107500883236,-14.907977891912154,301.63945437934876,610.0569850346272
735,-32.75747931024346,-303.8569871506714,20.570262382897592,-255.97787433357686,314.04892516582066,33.927521000695805,310.19647875926216,624.5791020704123
736,-36.154873819942374,-312.10884749967926,19.27133312224137,-282.3152327611174,264.6038888614184,86.40758046217526,318.67810096204806,642.5159936822889
737,-39.239601588836514,-320.16259038948186,17.726349811308175,-306.2693926797395,213.9055499449673,142.1207173390715,326.9582540209167,663.7638400848626
738,-41.95499004741687,-327.88946890799207,15.923035348579775,-327.6025086578838,162.431606257145,200.5822035631419,334.90825355370987,688.1283451411642
739,-44.24735889942128,-335.1601726926262,13.853639369756367,-346.12760796705663,110.70361451944548,261.2382490663979,342.39948992021584,715.3259665033114
740,-46.06725421483631,-341.84768249270536,11.514970368846805,-361.71047290052553,59.281228782368835,323.4722177112365,349.3063032087957,744.9875614661511
741,-47.37072616419584,-347.83026999128145,8.908223467334576,-374.2705009798494,8.754595212341167,386.61288626004455,355.508975621134,776.6645302886765
742,-48.12062185419132,-352.9945614886617,6.038650568116151,-383.7805890021002,-40.26501015698917,449.94469226717166,360.89676059852104,809.8374851417739
743,-48.28785112456052,-357.2385700431532,2.91513595995117,-390.2660789124658,-87.15611298755053,512.719840996683,365.3708539989678,843.9273934574869
744,-47.85257103251373,-360.4745910335069,-0.45025054889821625,-393.80277802901037,-131.29926100371108,574.1720559679628,368.8472020662753,878.3090329234739
745,-46.805226713059305,-362.6318522112384,-4.0426516730422515,-394.514025194939,-172.09017899123543,633.5316677833653,371.2590359081438,912.3264541097171
746,-45.147384253843356,-363.65881167428086,-7.844712691849316,-392.56672878861855,-208.95345668930167,690.0416490339804,372.55902427494397,945.3099918579621
747,-42.89229594575469,-363.5250058397839,-11.836727079397132,-388.1662721982189,-241.35634610868084,742.9741269710286,372.72094643181407,976.5942250650004
748,-40.06514947505731,-362.22236414915574,-15.996631028153434,-381.5501912398145,-268.8222419534154,791.646846308283,371.74080461569287,1005.5361840358074
749,-36.7029692477764,-359.76592722747665,-20.29987086026981,-372.9805936000763,-290.94342598006733,835.4390162057555,369.63731952128825,1031.5330632362636
750,-32.854158469775335,-356.19392921310305,-24.719192730004696,-362.7354137017545,-307.392668547465,873.8059617843107,366.451780044908,1054.038718544553
751,-28.57769275763245,-351.5672310073732,-29.224419725866174,-351.098757832573,-317.93330047448336,906.2920154063819,362.2472473325565,1072.5783022178111
752,-23.941997521663595,-345.9681172793685,-33.78228596063407,-338.35075909323155,-322.4274023754703,932.541129985418,357.10714067824784,1086.760498701493
753,-19.023559672079532,-339.4984948329776,-38.35639164249416,-324.75749166734215,-320.8418125636436,952.3047767453736,351.1332576057405,1096.2869535716536
754,-13.905337082527714,-332.27755256680496,-42.907330143206124,-310.56156028380695,-313.2517282137435,965.446799899305,344.4433017944402,1100.9586254873805
755,-8.675035137659993,-324.4389628509515,-47.393020708613186,-295.9739711139126,-299.84176058914966,971.9450332718768,337.1680096494498,1100.6789317838484
756,-3.423318371989353,-316.12771957938594,-51.76926121320468,-281.1678089883162,-280.9043924398989,971.8896289873356,329.4479784005181,1095.4536988470186
757,1.7579820952135619,-307.49671834991335,-55.990496094892855,-266.2741090346341,-256.83586354090755,965.4781952872953,321.43030491217763,1085.3880638449248
758,6.777615856697309,-298.7031884804041,-60.01077665306298,-251.3801406103286,-228.12957301413672,953.0079791921199,313.26514453180505,1070.6805977883193
759,11.54657882080849,-289.90508477111337,-63.784875288839125,-236.53013999253096,-195.36713510391536,934.8654511346105,305.10229342185187,1051.6150234079682
760,15.979673795788402,-281.2575396808836,-67.2695028170089,-221.72835495990327,-159.20726364644568,911.5137455988561,297.08788672234,1028.5499779977783
761,19.996954531921176,-272.90946531831577,-70.42456924902892,-206.94411424162615,-120.37269626459893,883.4784792786703,289.36129018758834,1001.9073167400747
762,23.525051188981998,-265.00038132172045,-73.21442385142821,-192.11851864943162,-79.63540773352972,851.3325045309393,282.0522468477884,972.1594654783694
763,26.498381635267116,-257.65753122708605,-75.60901010563735,-177.1722753912817,-37.80040580360293,815.6801622312727,275.278324942043,939.8163168415578
764,28.86025595036408,-250.99333765118834,-77.58487531794106,-162.01416548125366,4.311547977850263,777.1415777787126,269.142700378532,905.4121260854024
765,30.563880913985617,-245.10323625633754,-79.12598236928025,-146.5496449047043,45.88189771068565,736.337500828625,263.73229699971876,869.4928093937248
766,31.57326731818397,-240.06392027570863,-80.22428154450493,-130.68912718718053,86.11248732082491,693.8751275447086,259.11630110433725,832.6039826568135
767,31.864036091590375,-235.93202124863507,-80.88001287634152,-114.35556796272886,124.24350018476399,650.3352686780281,255.34506279388972,795.2800060414688
768,31.424110244736724,-232.74324696163774,-81.10172354557977,-97.49105847841187,159.5706247030772,606.2611435445419,252.44939513058767,758.0342212802833
769,30.25426971510469,-230.5119933779757,-80.9059999706629,-80.06222268645081,191.4609163241698,562.1489954432919,250.44028162561557,721.3504879545233
770,28.368536851497026,-229.2314422919184,-80.3169292214233,-62.06429258087061,219.36684219123785,518.4406441553683,249.3090016044591,685.6760480811574
771,25.79435319997372,-228.8741493656546,-79.36531792428234,-43.523803563037745,242.83803871779054,475.51802040508795,249.02767986690063,651.4156830496471
772,22.572504897729438,-229.39311734754284,-78.0877076535576,-24.49990405046294,261.53038422141617,433.69966841032476,249.55026065154635,618.9270810739062
773,18.75675531612601,-230.7233366453663,-76.52523329263555,-5.084311483632331,275.21208410980944,393.2391570591284,250.81389612152358,588.5173113415818
774,14.413149984451682,-232.7837607745827,-74.722375074732,14.600028275866716,283.7665784828292,354.3253070310011,252.74072726407678,560.4403026612166
