time,ax,ay,az,gx,gy,gz,accmagnitude,gccmagnitude
0,31.744126225936256,-243.7839828220821,-50.86206881044384,57.002661500357966,32.33844040519703,-5.689996458300496,251.03933868069714,65.35113820333689
1,31.445760243103564,-243.65610431711175,-50.97586552923896,55.855207562683546,30.772850976331455,-5.356431360381035,250.90276668176273,63.15480581667385
2,31.144207510323422,-243.51278248664454,-51.100574154977444,54.81540981657357,29.20915040865089,-5.004202609184905,250.75308742506652,61.020316050850965
3,30.84483368190937,-243.35458920853205,-51.23312800427028,53.889697436300715,27.662509739117105,-4.636422656376401,250.59091574124648,58.96976133624267
4,30.55321202464872,-243.18201979614398,-51.370375152981275,53.080429648553896,26.148363896808963,-4.2563320811558105,250.41680647125224,57.02381802332127
5,30.275027902204993,-242.99548176668856,-51.5091471087963,52.38553200547892,24.682162184780726,-3.8672529423122333,250.2312456195393,55.20131293991227
6,30.01597953893067,-242.79529731504263,-51.646323162878204,51.79822778061777,23.279111282634588,-3.472555424828684,250.03465314746867,53.5188241703162
7,29.781676847339366,-242.58172029381305,-51.77888900853444,51.30687944725098,21.953915726243824,-3.075639799481449,249.8273981127229,51.990327654559216
8,29.577540116640186,-242.3549677967718,-51.90398867374101,50.89495463577168,20.720520810419117,-2.6799344519941224,249.6098262915977,50.62690154347236
9,29.408700266570527,-242.1152655900823,-52.01896936787798,50.54112980720683,19.59186225425996,-2.288909222883358,249.38229970981857,49.436499982620504
10,29.279902153797178,-241.86290567582375,-52.12141940780263,50.21954280840947,18.579625870451252,-1.9061016838756026,249.1452466763305,48.42380690038094
11,29.19541210787664,-241.59831334717222,-52.20919978505344,49.90020217825884,17.694019223356356,-1.5351524773998078,248.89922006783814,47.590178299726574
12,29.158930616408078,-241.3221203077814,-52.28047011576312,49.54955637661951,16.94355630970673,-1.1798446795355602,248.64496085812502,46.93367853495343
13,29.173511066012416,-241.035239799,-52.33370970945035,49.1312200578014,16.334856042260704,-0.8441414637329185,248.3834632749672,46.44921231053014
14,29.241485693130475,-240.73893916959744,-52.36773430246271,48.60684740631049,15.872455881066388,-0.5322161924714005,248.1160374650381,46.12874998083604
15,29.36440018822052,-240.43490489549075,-52.38170870546575,47.93713492955248,15.558643149064947,-0.2484694040004474,247.8443651079138,45.96163949665803
16,29.542958519559615,-240.12529475263872,-52.37515544331612,47.082928640925246,15.393308019101807,0.002472116118136502,247.57054310840635,45.934994375744424
17,29.776979544306762,-239.81277181587603,-52.34795953403399,46.00640391182957,15.373823488581799,0.21577800309131154,247.29711048864877,46.03414366211161
18,30.06536705572745,-239.5005153859034,-52.30036964037039,44.67228085583284,15.49495859389003,0.3864613785320847,247.02705405448532,46.24312716880599
19,30.406095123829342,-239.1922049196319,-52.23299568101693,43.049034107931654,15.748831517373562,0.5094516660630442,246.7637893553716,46.545217426649
20,30.79621074546283,-238.89197445741397,-52.14680267530329,41.11005329407069,16.124909035418046,0.5796930904255448,246.51111478721583,46.923448648057104
21,31.23185573937582,-238.6043367021786,-52.04310030984245,38.83470936736503,16.610057881202046,0.5922672992017067,246.2731382241925,47.361132615875206
22,31.708309440429037,-238.33407766558574,-51.923527492057694,36.20928243851915,17.18865197305443,0.5425370423948186,246.0541771693036,47.8423417548496
23,32.22005311792323,-238.08612461952313,-51.79003097321486,33.227708983894935,17.84273706644669,0.426306424850753,245.8586350533135,48.35234087304986
24,32.76085630645519,-237.8653919523261,-51.64483706009999,29.892110651252356,18.55225136784831,0.23999201797271955,245.6908579962454,48.87795135977633
25,33.323884549281765,-237.67661131276748,-51.4904155831423,26.213073495184226,19.295297357728625,-0.019201824400877632,245.55497800048337,49.40783512512151
26,33.901827442907894,-237.52415393761817,-51.329435695190995,22.20965538035684,20.04845699755265,-0.35311070886178797,245.45474999545885,49.932690239673626
27,34.48704519349596,-237.41185410656192,-51.16471376358827,17.909110312904534,20.7871401277194,-0.7624485396403887,245.39339120270304,50.44535587927731
28,35.0717309633687,-237.34284311174662,-50.999154517891235,13.346331212322438,21.48595457135069,-1.2466639296384625,245.37343176499587,50.94083041462498
29,35.648085076430135,-237.3194029151554,-50.83568749595571,8.563026442038288,22.11908643959621,-1.8038217895325572,245.39658538073337,51.41621267413211
30,36.208495897705255,-237.34284783183892,-50.67720144135814,3.6066592535186945,22.66068039166485,-2.430516547760864,245.46364781492665,51.87058163397277
31,36.74572125202812,-237.41344118989653,-50.52647954658741,-1.4708080831533696,23.08521194417324,-3.1218225751641047,245.57442971337215,52.30483301078922
32,37.253063829999675,-237.53035204682692,-50.38613836385182,-6.614313502032957,23.367846954147367,-3.8712862625336046,245.72772823848953,52.721491618818135
33,37.7245341531755,-237.69165478743244,-50.25857293569622,-11.767178938353108,23.484786555606135,-4.670962751819377,245.92133980255747,53.12451564228984
34,38.1549951775195,-237.89437193253718,-50.145910324744456,-16.87261699116779,23.4135985169715,-5.511498519273515,246.15211373501825,53.51910371649482
35,38.54028332754859,-238.1345579081679,-50.049973256156115,-21.87519974191457,23.133537762247204,-6.3822589261894915,246.41604421732814,53.91150920950064
36,38.87730163277433,-238.40741905203316,-49.972254963638434,-26.722233564903902,22.625859455541573,-7.271497663076063,246.7083954203153,54.30885996149683
37,39.16408178306167,-238.70746300200474,-49.91390550710014,-31.36499125264193,21.874127562631873,-8.16656294348415,247.02385272149425,54.71897730766121
38,39.399813341044975,-239.02866903275662,-49.87572890480343,-35.75976254142209,20.86452026279256,-9.05413358811535,247.35669139012836,55.15018619058357
39,39.58483981417169,-239.36467002837753,-49.85818964509168,-39.86869542431263,19.586131190626674,-9.920476968954643,247.7009533561354,55.611108596789215
40,39.72062255058455,-239.7089367181199,-49.861426744151316,-43.66041260496271,18.031262585096826,-10.751720246034111,248.0506227410559,56.11043494648597
41,39.80967451659361,-240.0549556112561,-49.88527353232223,-47.11039910367927,16.19570345263357,-11.534126374058728,248.3997917869941,56.65667163894231
42,39.855467118168484,-240.39639359024784,-49.929281674639554,-50.201167446769205,14.078983237404818,-12.254366822107713,248.74281053199547,57.25786683390214
43,39.86231432659243,-240.72724399297272,-49.99274847001958,-52.9222153292957,11.684589550997838,-12.899783663974535,249.07441567378396,57.921319978840806
44,39.83523923151999,-241.0419508576182,-50.07474711410346,-55.269796755224846,9.02013743413202,-13.458634556321885,249.38983611408077,58.653283100722085
45,39.77982860349096,-241.33550963039173,-50.174160076230464,-57.246531416699334,6.097477489812288,-13.920315102269537,249.68487441913587,59.458663330187605
46,39.70208111698861,-241.60354408628032,-50.28971571325848,-58.86087877788568,2.932731050806377,-14.275554195983098,249.95596484773432,60.340736642366856
47,39.60825464650494,-241.84236057591727,-50.42002771179206,-60.126503483258595,-0.45375774022888576,-14.516579112075858,250.20020978422164,61.30088265159247
48,39.504717507001594,-242.04898186205938,-50.563636300426154,-61.06155791729746,-4.037560609643351,-14.63724823306709,250.41539732616005,62.33834979959581
49,39.39780762710933,-242.22116342233323,-50.71904982226616,-61.68790660798492,-7.790399310350941,-14.633150267079003,250.60000317416404,63.45005972783404
50,39.29370250324879,-242.3573950108689,-50.88478529634474,-62.03031618689789,-11.680476744556028,-14.501669504951362,250.75317973035453,64.6304592592036
51,39.19830161826533,-242.456889723205,-51.05940683805114,-62.11563405478163,-15.672903130296726,-14.24201708014238,250.8747346556465,65.87142831672865
52,39.117122017109445,-242.51956219390647,-51.24156105991893,-61.97197870866788,-19.730211690886748,-13.855228362038904,250.96510044128206,67.16225213500157
53,39.055206986540945,-242.5459970846209,-51.43000875115045,-61.62796455027921,-23.812954525065116,-13.344126616756,251.0252960143596,68.48966591379362
54,39.0170473098584,-242.53740866387557,-51.62365217430977,-61.11198343751754,-27.88036536931394,-12.713253038905423,251.05688098533025,69.83797914971184
55,39.00651436106086,-242.49559196846388,-51.82155713046974,-60.45156376448716,-31.89107221538447,-11.968763337911618,251.0619027715354,71.18928486795886
56,39.02680429863626,-242.42286577605464,-52.022968538647866,-59.67282510968379,-35.803839751791756,-11.118291378498313,251.04283649165325,72.52375577525203
57,39.080392714615,-242.32200746283573,-52.22731785966442,-58.80004237710636,-39.578319975826524,-10.170781033504928,251.00251729836418,73.82002528961617
58,39.16899919995541,-242.19617983749006,-52.43422057568328,-57.855328012764446,-43.17578946412435,-9.136288480711999,250.94406481680812,75.05564706470622
59,39.29356133076393,-242.0488502827146,-52.64346235730938,-56.85843464248784,-46.55985368837391,-8.025758635466447,250.87079967352665,76.20762260565252
60,39.45421755584096,-241.88370296073649,-52.85497357064763,-55.82667387560631,-49.697102045726304,-6.85078109098238,250.7861527133336,77.25298327435466
61,39.65029848448538,-241.70454535580757,-53.068793203183624,-54.77494076920077,-52.55770131973491,-5.6233326050450545,250.69356829630453,78.16941058320492
62,39.88032624806828,-241.51521096280797,-53.285024769866745,-53.71582829695978,-55.11591937116452,-4.3555146415411965,250.59640391716883,78.93587716635018
63,40.14202189249694,-241.31946039332612,-53.50378801140868,-52.65981265240396,-57.35057434419209,-3.0592956422465596,250.49782913433634,79.533290070355
64,40.43232099673636,-241.12088339777662,-53.72517102626045,-51.61548854227525,-59.24540720070237,-1.746268483840962,250.40072721453353,79.94511788368543
65,40.74739784047692,-240.92280419945067,-53.949187711421295,-50.58983374467849,-60.78937692496561,-0.42743387063676225,250.30760285248763,80.15798367543995
66,41.08269850821795,-240.72819220340412,-54.17574493740891,-49.588483980380865,-61.97687847057551,0.8869798642455391,250.2204988985752,80.16220680809307
67,41.43298333233391,-240.53957976034852,-54.404622852941806,-48.616002404791026,-62.807883750767914,2.1876509961834363,250.14092442112272,79.9522785479823
68,41.792379002701125,-240.3589883020976,-54.63547035294003,-47.67613249645825,-63.28800600043551,3.466244738306499,250.06979575835567,79.52725906049093
69,42.15444051525978,-240.1878637999722,-54.867816329514866,-46.77202834883232,-63.42848791121953,4.715434010047677,250.00739151918017,78.89108672372004
70,42.512222968586116,-240.02702218566773,-55.101096053069064,-45.90646179596689,-63.246114252571736,5.928857905723167,249.95332187627025,78.05279448142679
71,42.85836305104839,-239.87660527086476,-55.3346909472109,-45.0820108293457,-62.76305039298559,7.101018515851583,249.9065121191811,77.02663190768995
72,43.18516979694134,-239.7360479252004,-55.56797910853672,-44.30123783687513,-62.00660932294524,8.227120402833906,249.86520039412628,75.83209549729182
73,43.48472380082611,-239.6040577805159,-55.80039318139831,-43.56686879665963,-61.00895143324462,9.302860620952375,249.82694980776347,74.49387310392068
74,43.74898369644047,-239.47860932022968,-56.03148166795091,-42.881985229975534,-59.8067232370874,10.324180328878594,249.7886754522842,73.04171103305382
75,43.96989846696593,-239.35695465444937,-56.26096953062887,-42.25023917945875,-58.44064313808947,11.286991463957,249.74668724098143,71.51021369288378
76,44.13952404979589,-239.23565347343887,-56.48881411171118,-41.6760977708035,-56.95504390301301,12.186893466110545,249.69674964932366,69.93858569978198
77,44.25014264146686,-239.1106246643394,-56.71525287950924,-41.165118460232975,-55.39738242488791,13.018895616785647,249.6341595540928,68.3703249281852
78,44.29438306624016,-238.9772219385258,-56.940840092586114,-40.72424961068917,-53.81772753155891,13.777160233093726,249.5538433660833,66.8528724302857
79,44.26534057154785,-238.83033549550632,-57.166469976190776,-40.36214452232049,-52.26823603463407,14.454780814671267,249.4504744746057,65.43722187875031
80,44.1566943993197,-238.66452105554708,-57.393384452827505,-40.089471434406775,-50.80262601820955,15.043607409196492,249.31861148180735,64.17748775571187
81,43.96282130986716,-238.47415640372708,-57.623164072471695,-39.91919807801272,-49.475654611819245,15.53412912094342,249.1528567083946,63.130428433219066
82,43.67890292199371,-238.25362401367792,-57.85770173009685,-39.86682747058177,-48.34260525595931,15.915421051804834,248.9480331523318,62.35491795185895
83,43.301024590793766,-237.99751655344025,-58.099159923941755,-39.950561791130305,-47.45878687766765,16.175160244819548,248.69937669239692,61.91135894409539
84,42.82626386198049,-237.7008602024061,-58.349913315495364,-40.191373084674424,-46.87904459851179,16.299712568715066,248.40273888888035,61.86102884380975
85,42.2527672134721,-237.3593488350792,-58.612478919184845,-40.612962838954715,-46.6572787427485,16.274290071560948,248.05479425527972,62.265352211518575
86,41.579814466379176,-236.9695805379546,-58.88943643614642,-41.241596761153524,-46.845966186805924,16.083176206074167,247.6532445705127,63.18509355944876
87,40.80787073419509,-236.52928689690253,-59.1833413056604,-42.105805985411834,-47.49567577567004,15.710014449341806,247.19701195815765,64.67946736572041
88,39.93862614791019,-236.03754507586274,-59.496633142610236,-43.23595116049145,-48.65456796046242,15.138154095185092,246.68641217950798,66.8051649524226
89,38.975023935715775,-235.4949628125305,-59.83154232576793,-44.66365121554807,-50.36786827255785,14.351045275667664,246.12329979555733,69.61530155522244
90,37.92127773297763,-234.90382703162217,-60.1899974575178,-46.42108399005851,-52.67730493790514,13.332673530455793,245.51117746598192,73.15829125269714
91,36.7828791600276,-234.26820780298735,-60.57353614792699,-48.54017125793259,-55.620502931144564,12.068022592894401,244.85526261833996,77.47666243597918
92,35.56659661810613,-233.59401076606386,-60.98322119832248,-51.0516658471097,-59.23032999818821,10.543552727672314,244.16250596438118,82.60583205554776
93,34.280465830398725,-232.88897279296134,-61.41956399184991,-53.984163373000015,-63.53419439671454,8.747681159014357,243.44155779363274,88.5728627044175
94,32.93377187457221,-232.16259756388482,-61.88245679101981,-57.363065320680114,-68.55329895215154,6.671250974881257,242.70267964171995,95.39523226059508
95,31.53702138669011,-231.4260299600431,-62.37111555030435,-61.20952353642459,-74.30186106353403,4.307975370890933,241.9576008672476,103.07965078785834
96,30.101902460535204,-230.69187071915562,-62.884034699552394,-65.53939836798868,-80.78631305657139,1.6548451516853788,241.21932186701508,111.62096314849292
97,28.64122880462162,-229.97393544766035,-63.418955188932806,-70.36226358087065,-88.00450137871208,-1.2875110277127935,240.50186797272244,121.00117790493687
98,27.168864163772046,-229.28696459305888,-63.97284689560168,-75.68049077429261,-95.94490634317216,-4.514522219390119,239.820000288581,131.18866339280385
99,25.699622910924845,-228.64629317618355,-64.5419061918128,-81.48844445044817,-104.58590643998555,-8.017432837490029,239.18889166771228,142.13755039016294
100,24.24914304947506,-228.067490873922,-65.12156905342151,-87.77181634626587,-113.89511277726608,-11.783126398339036,238.6237775927099,153.78737781842543
101,22.833728662370188,-227.56598437158743,-65.7065396328684,-94.50712431815745,-123.82880016807505,-15.794017127010918,238.13959289366503,166.06301367777533
102,21.47016011278642,-227.15667469402632,-66.29083384707891,-101.66139714066739,-134.33146184161205,-20.028009215817942,237.75060596522496,178.8748781824401
103,20.175471893832643,-226.85356235220354,-66.86783735354071,-109.19206216448158,-145.33551473983448,-24.458521796191285,237.47006233146593,192.11948997944222
104,18.966699617597182,-226.66939250465737,-67.43037736227612,-117.0470480156917,-156.76118179410093,-29.054576312412674,237.3098489366048,205.68034953309038
105,17.86059896188642,-226.615330947574,-67.97080798217645,-125.16510960041562,-168.51657631109566,-33.78094203783639,237.28018937866392,219.429166333281
106,16.873340495453384,-226.70067976876283,-68.48110907314897,-133.47637780287093,-180.49801141442535,-38.598334960467746,237.38937856267717,233.22742858440535
107,16.020185415422606,-226.93263918729448,-68.95299872504407,-141.90313150151985,-192.59055419764138,-43.463665167100444,237.64356315998063,246.92830545952742
108,15.315148493930682,-227.31611977573266,-69.37805938500571,-150.36078476258498,-204.66883978883973,-48.330328182057265,238.0465721087309,260.37886287705646
109,14.770655940109751,-227.85360724980794,-69.74787724895968,-158.75907711443682,-216.59815499413335,-53.14853644389535,238.59979947125177,273.42256415390545
110,14.397207357210844,-228.5450805257131,-70.05419389810497,-167.00344959609387,-228.23579475378403,-57.865688120348125,239.30214049798315,285.90201701127876
111,14.203052280322233,-229.3879828012617,-70.28906843272111,-174.99658397051533,-239.43268753023148,-62.42677163378525,240.14998077092426,297.66191861182904
112,14.193892553475957,-230.3772448208732,-70.44504760839393,-182.6400774010131,-250.03527819602266,-66.77480548540903,241.13723762290795,308.552141040108
113,14.372621790423475,-231.50535895049362,-70.51534074936872,-189.8362202443529,-259.88764924039964,-70.85131407337333,242.25545237454006,318.4308912881358
114,14.739112350381403,-232.76250202611715,-70.49399554457545,-196.48984044800287,-268.8338533533838,-74.59684097499519,243.49393113178522,327.1678725727042
115,15.290058767454132,-234.13670413657547,-70.37607027422192,-202.51017424199435,-276.7204228212473,-77.95150142732939,244.83993095842408,334.6473677709979
116,16.018884539112285,-235.61405961092197,-70.1577976349912,-207.81271932664106,-283.39901385498734,-80.85557547286699,246.278887256077,340.7711610691803
117,16.915716817979337,-237.17897549722758,-69.83673517944514,-212.32102370083751,-288.7291372270431,-83.2501425392043,247.79467716191766,345.4612109037521
118,17.967431175382682,-238.81445171866358,-69.41189743255508,-215.96836102385518,-292.5809207264956,-85.07775721071934,249.36991268345136,348.66198644172016
119,19.157766489327987,-240.50238592960264,-68.88386493416213,-218.69924256661216,-294.83784430223153,-86.28316472669913,250.98625617120723,350.34238182981943
120,20.46750826164637,-242.22389501928896,-68.25486573844495,-220.47071707618042,-295.3993856299751,-86.81405339250583,252.62474971794,350.4971278539949
121,21.874737263749523,-243.95964440289453,-67.52882520940891,-221.2534137309045,-294.1835123149798,-86.62183966690081,254.26614931727,349.1476297959779
122,23.355139305240055,-245.69017581609089,-66.71138020577334,-221.03228984790414,-291.12895694516766,-85.66248018893863,255.89125420327207,346.3421730145863
123,24.882371116421325,-247.39622430989257,-65.80985400093724,-219.80705372314057,-286.19721264423333,-83.89730342531622,257.48122176079755,342.1554536581877
124,26.42847683470782,-249.059015529706,-64.83318873473756,-217.59224330691245,-279.37418970885017,-81.29385196066369,259.0178588044676,336.68741041673906
125,27.96434929869844,-250.6605352289394,-63.79183302512065,-214.41695275658049,-270.67147857636803,-77.8267247145019,260.48388098819333,330.0613539326275
126,29.460230087632272,-252.18376440781935,-62.697583645819364,-210.3242108605509,-260.1271709931741,-73.47840652741112,261.8631337214844,322.42141306729116
127,30.88624178382299,-253.6128754588808,-61.5633819155541,-205.3700275991248,-247.80619993096442,-68.24007056928004,263.14077019626853,313.92934123879644
128,32.21294519235491,-254.933387057793,-60.40306759489649,-199.6221373346555,-233.80016940584224,-62.11233675892376,264.30338476861385,304.76075082065506
129,33.4119133005683,-256.1322780180572,-59.23109542829079,-193.15847876588143,-218.22665753937815,-55.105966646818814,265.3391027076924,295.1008681087576
130,34.45631271191799,-257.1980627227514,-58.06222168326555,-186.0654621189382,-201.22798940608357,-47.24247192078859,266.2376299491169,285.13992432916376
131,35.32148220761485,-258.1208328744934,-56.911169920523164,-178.43608221427252,-182.9694897626418,-38.55461014025185,266.99026875446555,275.06831813328046
132,35.98549702680927,-258.8922719857457,-55.79228674429674,-170.36794115340464,-163.6372389482931,-29.086738177106085,267.5899069125946,265.0717005696936
133,36.42970646095273,-259.5056501296994,-54.71919945552726,-161.96124576323237,-143.43536743386392,-18.894991939967262,268.03098920758396,255.32614338172763
134,36.63923145689364,-259.9558069352561,-53.704488303954534,-153.31684249240476,-122.58293520806794,-8.047260830219692,268.3094802697695,245.99355481303326
135,36.60340816065546,-260.23913063102333,-52.759386233292645,-144.5343466468846,-101.31045129177582,3.3770727927460156,268.42282758793425,237.21750364262303
136,36.31616278280428,-260.3535401217674,-51.89351843160629,-135.7104145672006,-79.85609639548368,15.287655046106646,268.36993236465247,229.1196021845682
137,35.77630288911419,-260.2984756533203,-51.11469253163918,-126.93719758525901,-58.4617184734817,27.58396291226159,268.15113407276345,221.79658299941812
138,34.98771030667787,-260.07490168917275,-50.428747989079724,-118.30100621668977,-37.36867696230956,40.1563997517544,267.7682121436969,215.31818252787357
139,33.95942147797527,-259.685323327142,-49.839470139802614,-109.88120266240118,-16.81361686306494,52.88768641382516,267.2244053870224,209.72591803576864
140,32.70558256177112,-259.1338151172312,-49.34857095783646,-101.74932967053847,2.9757416563469814,65.65453924854793,266.52444677783916,205.0328123683117
141,31.245269123786503,-258.4260587331831,-48.95573500337306,-93.96847431589936,21.7847092216876,78.32961405275815,265.6746084858688,201.2240845330976
142,29.602164035498262,-257.56938378534005,-48.65872583067309,-86.59285638619997,39.41553852508802,90.78368205276273,264.6827497206349,198.25878418648637
143,27.8040921738805,-256.57280424296886,-48.45354536756814,-79.66762293612656,55.69105192391922,102.88799091387227,263.558358244262,196.07230666841366
144,25.882416490434352,-255.4470415809331,-48.33463654960081,-73.22882330071388,70.45790071235443,114.51675084971487,262.312575345878,194.57968500210498
145,23.87130677322079,-254.20452505010368,-48.29511794779352,-67.30353261909973,83.58937889335937,125.54967366286174,260.9581938276863,193.67951918911808
146,21.80689967784187,-252.85935946778892,-48.327038365139984,-61.91008718436586,94.98772462957078,135.87448206647423,259.50961915975006,193.25837403822462
147,19.726375729476352,-251.4272515607182,-48.42163931941228,-57.05839276624018,104.58585521230472,145.38929975840722,257.9827852378674,193.19545723287678
148,17.666985008963522,-249.92538713580205,-48.56961390260335,-52.75026891360198,112.34849547482888,154.00483133045216,256.3950179471673,193.36738112335178
149,15.66505721662139,-248.37225330968042,-48.76135173081083,-48.979799185059846,118.27267386045716,161.6462460020204,254.76484200909223,193.65281496768478
150,13.755033337585854,-246.78740276447803,-48.98716157985374,-45.73366902078623,122.38757366766495,168.25468976113027,253.11172944894585,193.93684746850852
151,11.968555285721118,-245.1911603786262,-49.23746573997847,-42.99148777540312,124.75373895761476,173.78836554434622,251.4557914032726,194.1149002258167
152,10.333647020795697,-243.60427632331945,-49.50296289306985,-40.726106597996306,125.46164594938867,178.22313956034495,249.8174186752722,194.09605935470336
153,8.874016168640235,-242.04753350048838,-49.77475909228535,-38.90395670755916,124.62966275993863,181.55265294705006,248.21688015139762,193.80572380537504
154,7.608499593255823,-240.54132073849217,-50.044468861453566,-37.48544117825693,122.40143412934933,183.78794068440556,246.673891615633,193.18750378875436
155,6.55067005496411,-239.1051862271714,-50.30429024093552,-36.42541649539584,118.94274346652952,184.95658270922317,245.2071703870238,192.20433965571326
156,5.708614322711152,-237.75738807252296,-50.54705856422527,-35.67379747184811,114.4379211541858,185.1014336712067,243.83399334106127,190.83884831174325
157,5.084886151137402,-236.51446034812776,-50.76628378804157,-35.17631084091776,109.08588371295257,184.27899565860977,242.56977701407655,189.09293786848494
158,4.676630670490872,-235.39081334222448,-50.956175595317944,-34.8754099735876,103.09590127034437,182.55751085940196,241.4276984122406,186.9867591348755
159,4.475870254286352,-234.39838569935927,-51.11165974190257,-34.71134765818409,96.68319964839525,180.014857914939,240.41837379389244,184.55708333331725
160,4.4699360350463655,-233.54636393809784,-51.22838844352935,-34.62338822961682,90.06450792135198,176.73633710307328,239.54961019256837,181.85520897275072
161,4.642024059783784,-232.84098166615328,-51.30274679048647,-34.55112675980334,83.4536626108855,172.81242638463257,238.8262410096232,178.94450774492566
162,4.9718507556035,-232.28540701774006,-51.331856067546745,-34.43587282362409,77.05737604414001,168.3365837381238,238.25005288973875,175.89772054022112
163,5.436379119550069,-231.87972270985273,-51.31357368402548,-34.22204988049919,71.07126911869672,163.40316200101125,237.8198066493754,172.7941112490315
164,6.010585063400947,-231.62099897358905,-51.2464885803129,-33.85855830201587,65.67625818008007,158.10549149457452,237.53135066103957,169.71657905812634
165,6.668232781145693,-231.50345576126676,-51.12991062987846,-33.30005005045296,61.03537238216849,152.53417381687015,237.37782114640174,166.74882058019935
166,7.382628987037711,-231.51870726955545,-50.96385259122706,-32.508065480250806,57.29106231320737,146.77561795560604,237.34992050941884,163.97262229709176
167,8.127328541108469,-231.656079068546,-50.74900344122128,-31.451987241262824,54.56304346402498,140.9108376992317,237.43626226869026,161.46535209726392
168,8.876768381396914,-231.9029860632946,-50.486692381149616,-30.109772381940548,52.9467000356055,135.01451747654852,237.62376942087187,159.2977065382883
169,9.606812480455234,-232.24535817251757,-50.17884344328185,-28.468431101492143,52.512056484307045,129.15434252423393,237.89811220897502,157.5317581584363
170,10.295196954044695,-232.668099913107,-49.827921439137285,-26.52422887751688,53.303306957910976,123.3905791407536,238.24417114923392,156.21933507156322
171,10.921870596598513,-233.1555698556239,-49.43687090524343,-24.282597635358986,55.33887715268045,117.7758823785766,238.64651152666772,155.40075368582995
172,11.469231477646115,-233.69206601232455,-49.00905051171694,-21.757750958030527,58.61197973718891,112.3553024311576,239.08985616131008,155.10391510453502
173,11.922264762538356,-234.26230360294733,-48.54816589825634,-18.972007846474533,63.091613838945996,107.16645749682267,239.55954399467714,155.34376685386826
174,12.268590794799803,-234.85187238443487,-48.058204035025696,-15.954839177976167,68.72395156738132,102.2398401474693,240.0419630245045,156.12212426318297
175,12.498435712718138,-235.44766188558174,-47.54337202124692,-12.741660846216037,75.43405035593902,97.59922610427486,240.52494739835922,157.42784027609804
176,12.604539251008982,-236.03824443470816,-47.00804279293095,-9.3724075401177,83.12782889286173,93.26215827225874,240.99813004356943,159.2373084261959
177,12.58201570892944,-236.61420776538992,-46.456709568100806,-5.889930797512178,91.69424599616323,89.24048378971015,241.4532440225393,161.51528022640036
178,12.428184338246094,-237.16843114771618,-45.893950059290106,-2.338273601216916,101.00762517155216,85.54092653346862,241.88436779224935,164.2159741919776
179,12.14238465211157,-237.69630114376145,-45.32440063843502,1.2391193885580403,110.9300720734912,82.16568138685139,242.28811147642483,167.28444863759302
180,11.7257903939939,-238.19586482974586,-44.752739982861506,4.80119241538667,121.31393723569602,79.11301960267986,242.66374279386076,170.65820451018172
181,11.181233310027189,-238.66791950499336,-44.183681395482985,8.311004856721476,132.00428202350125,76.37789690384321,243.01325230739116,174.26897845988043
182,10.513044883162763,-239.1160387252438,-43.621972783143974,11.73732963499991,142.84131167022295,73.95255758419682,243.34135834330056,178.04468078482003
183,9.726921312726885,-239.54653522164315,-43.072402951008755,15.056065602828326,153.66274545697746,71.82712878416324,243.65545250295895,181.91142848299612
184,8.8298145102102,-239.9683619550415,-42.53981249649029,18.25141423624407,164.3061005903063,69.99019932152231,243.96548721639448,185.79562098813503
185,7.829849711267382,-240.39295312908288,-42.029107350848484,21.3167819415809,174.61087304461412,68.42937697827502,244.28380722825432,189.62600553876322
186,6.736268370927352,-240.8340073867362,-41.54527286154238,24.255381561371287,184.420605241703,67.13181705014408,244.62492719492894,193.33568037455623
187,5.559393223925133,-241.30721563874616,-41.093386023040296,27.080519167414256,193.58483635774,66.08471345879387,245.00525766608772,196.8639865599174
188,4.310610696150745,-241.82993607135606,-40.67862305195577,29.815564040961974,201.9609356283892,65.27574214880177,245.44278167430315,200.1582425759394
189,3.0023642848021197,-242.4208189645502,-40.306259279623816,32.493610142351294,209.4158217970042,64.69344523248418,245.95668412443993,203.17527941139454
190,1.6481512394871451,-243.09938412884145,-39.98165864171067,35.15684586473931,215.82757267918782,64.32754375853601,246.56693632654475,205.88273751840907
191,0.2625140494721097,-243.8855541153397,-39.71025089899586,37.85565519499398,221.08692786932124,64.16916732378745,247.29383843345784,208.26009075113197
192,-1.1389820438523162,-244.79914696319992,-39.497495780880804,40.647477552465865,225.09868524899986,64.21099013134847,248.1575232597273,210.29936649724604
193,-2.539794067870759,-245.85933322556534,-39.34883410182182,43.59545574834257,227.78298859461654,64.4472654592333,249.17742600475285,212.0055358773958
194,-3.922476766271191,-247.08406340608013,-39.269626427930206,46.76690215895769,229.07649963934824,64.87375364584403,250.37172580136252,213.39655332302377
195,-5.2687952687885184,-248.48947370981188,-39.26508022152973,50.231613015959006,228.93344383038786,65.48754236558277,251.75676675378818,214.5030312179054
196,-6.559880223974272,-250.08928008779066,-39.34016681277503,54.06006039076629,227.32651512469144,66.28676189935346,253.34646818164575,215.36754273027296
197,-7.776428664258678,-251.8941728167457,-39.499530214098996,58.32149144798031,224.24762181932198,67.27020209893405,255.15173606348142,216.04355450118672
198,-8.89895165328922,-253.91122612299412,-39.74739070418323,63.08196498181173,219.70845284169062,68.43684169365986,257.17988999557826,216.59400037643653
199,-9.908067519979985,-256.1433394056768,-40.08744707780019,68.40235608372788,213.7408422322548,69.78530442013744,259.43412209590184,217.08951761477587
200,-10.784837299092363,-258.5887282483096,-40.52278226503113,74.33636102455344,206.3969087829379,71.31326002857256,261.91300596423076,217.60637764743427
201,-11.511136770169577,-261.2404845162088,-41.05577752014649,80.92853618203495,197.7489480484478,73.0167913175571,264.6100749231272,218.22415422521365
202,-12.07005712112237,-264.08622534238054,-41.68804041741614,88.21240723134069,187.88905540980127,74.88975079353506,267.5134892130345,219.0231824938336
203,-12.446323877336674,-267.107850592804,-42.42035129690222,96.20868788894666,176.92846172591862,76.92313227498522,270.60581146671547,220.0818730423871
204,-12.626721605130081,-270.28142731281355,-43.25263156431625,104.9236511733795,164.99656742519252,79.10448377706244,273.86390849006295,221.4739550279782
205,-12.600510240809946,-273.577217537249,-44.183935634937384,114.34770014163671,152.23966652579244,81.41738833419572,277.2589950240924,223.2657316242145
206,-12.359817758271912,-276.9598626242939,-45.21246671655532,124.45418886143266,138.8193587034764,83.84103902291909,280.7568317443413,225.51343856007762
207,-11.899993189884622,-280.38873296920343,-46.33561528386924,135.1985472365095,124.9106547560847,86.34993327732529,284.3180853249817,228.2608015515347
208,-11.2199037095145,-283.8184466585905,-47.550018010609186,146.51776431145026,110.69978831551104,88.91370956274088,287.898853045039,231.53689011784056
209,-10.322159665920257,-287.19955447273526,-48.85163404119222,158.3302829191141,96.38175417219527,91.49714650332419,291.45134827420804,235.35436282252135
210,-9.213252349133223,-290.4793818387132,-50.23583478819969,170.53635317203504,82.15760083827352,94.06034060630455,294.92473646017726,239.7081916800863
211,-7.903591161794715,-293.6030112156646,-51.697502935320244,183.01888270065618,68.23151170407107,96.5590738386815,298.26610429401967,244.57494078400572
212,-6.407429927544322,-296.514381433329,-53.23113604121902,195.64480738898,54.80771515189444,98.94537659909584,301.42153804155464,249.91265594305233
213,-4.742676203381409,-299.15747424513285,-54.83095012785222,208.26698789249724,42.08726927946518,101.1682851723824,304.3372811242627,255.66139863548415
214,-2.930582291335149,-301.4775532693702,-56.490978832258556,220.72661547684365,30.264771620895313,103.1747855868526,306.9609363308564,261.744430034046
215,-0.9953216831445031,-303.4224169270598,-58.20516392906476,232.85608749491877,19.5250486914963,104.91092793736146,309.24267481251667,268.07002111179924
216,1.036540483591968,-304.9436251935966,-59.96743319270894,244.48229028714871,10.039884573026278,106.32308677242632,311.13641245941835,274.53383525324386
217,3.1366699794151063,-305.99766009926475,-61.77176173157431,255.43020733688212,1.9648522212636022,107.35933428500081,312.6009145044369,281.0218026191203
218,5.275662196140008,-306.54698193228063,-63.61221326688866,265.52675433401964,-4.563684444416541,107.97088422320971,313.60079127456333,287.4133824517857
219,7.423796761059901,-306.560946917342,-65.48295856984379,274.60473086574194,-9.43132589626351,108.11355633548607,314.1073518635203,293.58509159746774
220,9.55182470654126,-306.01655761432266,-67.3782695870792,282.50677073757254,-12.54807593249028,107.74920468712236,314.0992880290952,299.41416527772975
221,11.631761966051588,-304.89902413210655,-69.29248962772404,289.0891691471184,-13.850390963554913,106.84704931462416,313.56316755620827,304.7822097649667
222,13.637660406651168,-303.20212208193146,-71.21998201272265,294.22546477675684,-13.302770758712505,105.38485025874651,312.4937242200793,309.5787061594427
223,15.546325799822503,-300.92834166905465,-73.15506138443747,297.80965824644716,-10.898830352952343,103.34986653051119,310.8939399344672,313.7042299641861
224,17.337951592108727,-298.0888312097607,-75.09191322471061,299.75895551302136,-6.661805655881838,100.73955010946949,308.77492342837303,317.07326265494794
225,18.996638420278813,-294.70314724698244,-77.02450801818561,300.01593619823836,-0.6444618938523,97.56193640641096,306.15559848756874,319.6164889173
226,20.51077226881582,-290.7988315760044,-78.94651693300702,298.55006296325513,7.071606370725712,93.83570722105424,303.06222275488074,321.2824964203813
227,21.87323921715645,-286.4108420877682,-80.85123581575937,295.3584691066246,16.37727307629015,89.5899192368474,299.5277645887857,322.0388232010094
228,23.08146189969742,-281.5808688476089,-82.73152368459928,290.4659871344942,27.13774285735435,84.86340920635547,295.59117005342773,321.8723294879237
229,24.13725172036481,-276.3565689100472,-84.57976092495404,283.92441003500255,39.19492169918717,79.70390439838256,291.2965544724192,320.7889038774337
230,25.046480804103293,-270.79075272509704,-86.3878314077056,275.8110077310891,52.370220355062344,74.16688161760358,286.69235287821107,318.81254553736346
231,25.818587793487264,-264.9405514434283,-88.14713204678364,266.22635169376474,66.46769967206585,68.31422848748655,281.8304609485696,315.98389203780357
232,26.465941059596148,-258.8665882027672,-89.8486128906346,255.2915288762653,81.27745793371095,62.212765728592046,276.76539274659524,312.3582845057847
233,27.00309086366075,-252.63216837186133,-91.48285048423367,243.14485009839902,96.57915801899662,55.93268877992759,271.55347434610735,308.003476929542
234,27.445947821285262,-246.30249500453974,-93.04015666462968,229.93817642963114,112.14559632307838,49.545982106055526,266.2520842443633,302.99710439340123
235,27.810928386023956,-239.94390782183703,-94.51072386848772,215.83299935380956,127.74622501661304,43.12485136212809,260.918943534713,297.42402642000985
236,28.114109057904052,-233.62313810117396,-95.8848061961193,200.9964165483261,143.15055295599765,36.740208918878835,255.6114522148459,291.3736575385562
237,28.370429892520495,-227.4065687127098,-97.15293287728632,185.5971453833268,158.1313668920975,30.46023856977307,250.38606354538058,284.93738894515076
238,28.592984887816908,-221.35948849282775,-98.3061477400914,169.8017113073956,172.46773217427508,24.349056697010244,245.29768647368977,278.20619386491427
239,28.79243216911716,-215.54533290995815,-99.33626535658695,153.7709386789123,185.94774970890074,18.465480536289324,240.39910676436108,271.2684959516402
240,28.976550831699157,-210.02490785857012,-100.2361322537317,137.65685773887384,198.37106237139525,12.861909876609255,235.7404201821588,264.2083654171878
241,29.14996417046957,-204.8555994926639,-100.99988018620655,121.60012352447782,209.55111815748748,7.583326667201655,231.36847511679122,257.1040917610433
242,29.3140411581801,-200.0905792517536,-101.62315795250123,105.72802070923596,219.31720780146662,2.666417365759363,227.32632650358096,250.02716480161448
243,29.466979641482858,-195.77801869084948,-102.10332852584621,90.15310289777423,227.51630032008867,-1.8611751024593874,223.6527069271576,243.04167703183217
244,29.60406597238569,-191.96033284154115,-102.43961937731875,74.97248650561458,234.0147004394182,-5.981459992291208,220.38152393990467,236.20414036329592
245,29.718096995668194,-188.67347349531624,-102.63321584935113,60.26778922848275,238.69954729344917,-9.686555234665105,217.54139487021658,229.56368984187552
246,29.799941993346327,-185.9462950992335,-102.68729029910509,46.10567284822127,241.48016493158136,-12.978976662116354,215.15523188833563,223.16262705829138
247,29.839214918745636,-183.8000159846256,-102.60696329489036,32.53892151832287,242.28926325008322,-15.87174366136972,213.2398909104093,217.03723802810072
248,29.825021493920552,-182.24779649252136,-102.39919701367089,19.607961540636428,241.0839744292686,-18.388285424549398,211.8058979946013,211.21880553163845
249,29.746741815004633,-181.29445326046212,-102.07262471366826,7.342708713843456,237.84669642143828,-20.56213441813921,210.85726610559615,205.7347254691149
250,29.594807264573383,-180.93632555124677,-101.63732345792427,-4.235383929251142,232.58570318663735,-22.436398123154152,210.3914134762433,200.60963180879878
251,29.36143097287619,-181.16130517962551,-101.1045399598221,-15.11121075512308,225.33547284255627,-24.06300620414824,210.39919238243587,195.86643611697255
252,29.041253840025007,-181.9490365194742,-100.48638132630352,-25.273960732425056,216.15668100797348,-25.501737514313433,210.86503408603087,191.527195987076
253,28.631873031890443,-183.27128744263578,-99.79548346970434,-34.71524688809615,205.1358081510817,-26.819039156595675,211.76721209386002,187.61374181199807
254,28.13422656003338,-185.09248608804884,-99.0446700882421,-43.427520062991036,192.38431676137466,-28.086657605441136,213.07822191475688,184.14801232038502
255,27.552815625469613,-187.3704123948231,-98.246614561825,-51.402845679344146,178.0373659805748,-29.38010904614936,214.76527144334483,181.15207435195936
256,26.895755238769823,-190.05702768812213,-97.41351611499063,-58.632095118058714,162.25204673585705,-30.777022082515067,216.79087220986344,178.64782909767416
257,26.174652500766342,-193.09942057354593,-96.55680040612968,-65.10457465590166,145.20513790606793,-32.35539050815078,219.113518189164,176.65643285031467
258,25.404320258608006,-196.44084323315823,-95.68685349329715,-70.80808703422692,127.09040211598972,-34.191776902815654,221.6884358293507,175.19748275501513
259,24.602341322464135,-200.02180922104827,-94.81279694191784,-75.72939563673643,108.11545722755818,-36.359509522712386,224.4683866640434,174.28803530131722
260,23.78850487175166,-203.7812223236279,-93.94231063169681,-79.85504038698716,88.49827583890253,-38.92691552151844,227.40450254830117,173.94153644428158
261,22.984141933833097,-207.6575060796842,-93.08150858655912,-83.17243858911336,68.46337988790978,-41.955633278802544,230.4471333115285,174.1667471721438
262,22.211390686808016,-211.58970491077645,-92.23487186259622,-85.67119316015479,48.23781068788926,-45.499045799349894,233.5466872588704,174.96674738677916
263,21.492424674913057,-215.51853003772945,-91.40524097197954,-87.34452473077269,28.04696617155594,-49.60087581234738,236.65444602981188,176.33809457540258
264,20.848677801670682,-219.38732611438388,-90.59386823874277,-88.19074234520122,8.110406291053716,-54.29398108782307,239.72333649998708,178.27020236104178
265,20.300099225516437,-223.14293779089328,-89.80052789426988,-88.21466924882844,-11.362266334113697,-59.59938523858239,242.70864376726578,180.7449881826611
266,19.864469079499095,-226.73645938359095,-89.02367895564554,-87.42894475869922,-30.17534110852608,-65.52557462963397,245.56865112788165,183.73682004547763
267,19.55680236265888,-230.12385546825075,-88.26067331261328,-85.85512984000077,-48.150642101559264,-72.06808584246286,248.26519548425946,187.2127710751015
268,19.388863600308415,-233.26644527745162,-87.50799910341011,-83.52455241593867,-65.13077763183311,-79.20940033639671,250.7641296846487,191.13316952839864
269,19.368809232428855,-236.13124892468568,-86.76154749912348,-80.47883855681384,-80.98190607308128,-86.91915344223513,253.03568661798332,195.45241293498995
270,19.50096844161543,-238.69119835820587,-86.01688970988607,-76.77008755749928,-95.59594063067586,-95.15465374728161,255.05474326212263,200.1199996044986
271,19.785766495335196,-240.9252202696705,-85.26955064747979,-72.46066248597457,-108.89213182702275,-103.86169679598676,256.80098612650477,205.08171961461932
272,20.21978791831186,-242.81820173920977,-84.51526633448098,-67.62258298392858,-120.81798449711258,-112.97564473290784,258.2589824798353,210.2809409682924
273,20.795970296286004,-244.3608520462633,-83.75021381417491,-62.33652386102838,-131.34948603910217,-122.42273221387812,259.41816426330416,215.65992515267277
274,21.50391361904406,-245.54947565622146,-82.97120485938483,-56.69044124593251,-140.49064436198094,-132.12154985138736,260.272733468789,221.1611100524453
275,22.33028516922645,-246.38567180192996,-82.17583786450366,-50.77786732639899,-148.27235697892968,-141.98465069791783,260.8214988059257,226.7283068208987
276,23.259296484866024,-246.8759754531083,-81.3626053647488,-44.69593391833055,-154.75065590637993,-151.92022334529133,261.0676536461666,232.3077697304961
277,24.27322724975505,-247.0314531931795,-80.53095715159186,-38.543202264994456,-160.00439477568432,-161.83377702837484,261.0185047330607,237.84911217699693
278,25.352971214363013,-246.8672660041474,-79.68132084538233,-32.41738907745898,-164.13246314536917,-171.62978912183945,260.68516035598014,243.3060557321235
279,26.478581218458903,-246.40220941524316,-78.81508327347434,-26.413084672262553,-167.25062715080696,-181.21327285260918,260.08218589546453,248.6370109200033
280,27.629793630641682,-245.6582399639617,-77.93453723677234,-20.61955704150491,-169.48810462194095,-190.49123205143425,259.2272339582069,253.80549761647293
281,28.786516485656588,-244.65999549249292,-77.04279914191027,-15.118726254821325,-170.9839864388229,-199.37397948821163,258.14065569772384,258.7804197300808
282,29.92926981574204,-243.4343155436501,-76.14370337184081,-9.98337863476709,-171.88361452342428,-207.77630513251546,256.8450993455289,263.5362136255672
283,31.039570846383604,-242.00976709181438,-75.24167913355588,-5.275672322629162,-172.3350212264389,-215.61849006008032,255.36510147428893,268.05289308744034
284,32.10026064545128,-240.41618001187922,-74.34161500731783,-1.0459676582330497,-172.48552572489075,-222.82717007301474,253.72667606278452,272.31601551544605
285,33.09577222671642,-238.684195973987,-73.44871575188314,2.6680010100313107,-172.47857097321233,-229.336059633332,251.95690598832846,276.3165940376892
286,34.01234278505224,-236.8448338477981,-72.56835524448447,5.841609918351949,-172.45087030334687,-235.08655079099609,250.08354113955505,280.05097789163847
287,34.83817459433806,-234.92907428745474,-71.70592878758944,8.463496434459534,-172.52991672683788,-240.0282031921007,248.13460699326333,283.5207187847065
288,35.56355017627959,-232.96746601952327,-70.86670738404102,10.53539419727134,-172.83189133848012,-244.11914011158447,246.13802730319478,286.7324344683641
289,36.18090771118162,-230.9897564111566,-70.05569598594927,12.07167844574332,-173.45999097545948,-247.32636209507035,244.12126446241467,289.6976731233605
290,36.68488234064791,-229.02454891679653,-69.2774972456997,13.098652675886752,-174.50318030998676,-249.62598463853854,242.11098092631357,292.4327740642784
291,37.07231805536804,-227.09898973528237,-68.53618204481941,13.653612546953683,-176.03536038230467,-251.00339988138373,240.13272461476555,294.95871233676394
292,37.34225333506322,-225.23848545074094,-67.83516807488199,13.783727293836158,-178.11493447104013,-251.45335528350742,238.21064046176193,297.3009076577445
293,37.49588167720422,-223.46645285300997,-67.17710792772343,13.544782523528356,-180.7847435173267,-250.97993612951336,236.36720950011394,299.4889731064781
294,37.53648587307226,-221.8041017841146,-66.56378844158557,12.99983020554541,-184.0723377826147,-249.59643573713583,234.6230163103121,301.55637816638756
295,37.469343062185864,-220.2702517074732,-65.99604338170379,12.217790622053577,-187.9905494276038,-247.32509949263007,232.99654538298725,303.5400059366538
296,37.30159707942326,-218.88118256773365,-65.4736818095151,11.272046467601246,-192.5383312148029,-244.19673611055137,231.50400687191274,305.4795947482828
297,37.0420957010089,-217.65052032477126,-64.9954346143242,10.239062126615762,-197.70182716477666,-240.25019889162425,230.1591922929157,307.417066185147
298,36.70119257695752,-216.58915735035018,-64.55892165786351,9.197053294488374,-203.45563968376595,-235.53174770171526,228.97336092102654,309.39575046872704
299,36.290516105091484,-215.7052077272983,-64.16064189607523,8.224724994250353,-209.7642542030111,-230.09430724684253,227.95515790339786,311.45952472916747
300,35.822709750984906,-215.0039974073365,-63.795988629830845,7.400089983340028,-216.583578114408,-223.99663941870497,227.1105653569271,313.65188097090373
301,35.311150196222684,-214.48808915778523,-63.45929145136476,6.799374165320425,-223.86254751392616,-217.3024482283978,226.4428878586563,316.0149405631645
302,34.769651143133544,-214.15734227450892,-63.14388532755398,6.496010674087428,-231.54475418407483,-210.07943599077686,225.9527737245938,318.58843232266196
303,34.21216152435225,-214.0090071841029,-62.842205739791474,6.5597200087933585,-239.5700468176122,-202.39832929741647,225.63827335884616,321.4086523496776
304,33.65246721078907,-214.0378552375989,-62.545907293236176,7.055670451591568,-247.87606459632116,-194.33189296901566,225.49493578328747,324.5074258084987
305,33.10390512759511,-214.2363440449158,-62.246002167685404,8.043711396828492,-256.39966739897454,-185.95394960799024,225.51594420474873,327.91109358288423
306,32.57909806669269,-214.59481848329844,-61.93301448459179,9.577672247519551,-265.07823434845534,-177.33842161505964,225.69229111386366,331.63954974830676
307,32.08971752078937,-215.10174703986098,-61.59714705344018,11.7047208810814,-273.8508102079165,-168.5584116439871,226.01299294661212,335.70535850086526
308,31.64628063946262,-215.74399250526048,-61.22845765869319,14.464777743028595,-282.6590864819988,-159.6853365086278,226.46534376789134,340.1129810022379
309,31.257986005800753,-216.50711527267873,-60.81704265552297,17.889983772895885,-291.4482104345054,-150.7881286301658,227.03520670268836,344.8581431762091
310,30.932591492278362,-217.37570662769554,-60.35322607972467,22.00422220058431,-300.16742035851644,-141.93251836857937,227.70734095360956,349.92737470205435
311,30.67633615545589,-218.3337485086007,-59.827752934269135,26.822695632378053,-308.7705092864412,-133.18041013949716,228.46576134490098,355.29774731307907
312,30.493907053990416,-219.36499533309862,-59.231985858710885,32.351560862259205,-317.2161219839385,-124.58936505133948,229.29412650846018,360.9368370891005
313,30.388450976593862,-220.453372529512,-58.5581048089374,38.58762482383881,-325.4678916829364,-116.21220266363407,230.17615091854438,366.8029307883247
314,30.36163028162728,-221.58338521975298,-57.79930945025147,45.51810652963219,-333.4944237219718,-108.09673393485782,231.09603476592693,372.8454904196178
315,30.413721320121677,-222.74052909244756,-56.95002367094741,53.1204720999581,-341.2691331908092,-100.28563604905585,232.03890413907033,379.0058832357878
316,30.543753111834416,-223.9116940870004,-56.00610103995678,61.36235301563808,-348.7699429916113,-92.8164773168945,232.99125235764706,385.2183762844153
317,30.74968291886986,-225.08555034539654,-54.965029225172934,70.20156100910516,-355.97884773456093,-85.7218966938465,233.94137183373888,391.41138591621865
318,31.02860407694029,-226.25290519906974,-53.826130403498716,79.58621575992825,-362.8813479474553,-79.02993770815422,234.87976473895452,397.50896361859037
319,31.37697998458417,-227.4070198310906,-52.590753598380864,89.45500306853212,-369.4657585251163,-72.76453086384412,235.7995201445254,403.4324905788087
320,31.790896619093868,-228.54387460087008,-51.26245381073075,99.73758099974789,-375.7223954832418,-66.94611214682776,236.69664513605477,409.1025448800371
321,32.266324469333405,-229.66237273468712,-49.84715194925984,110.35514951501901,-381.64264624350204,-61.59235853932493,237.57033764140175,414.4408976792769
322,32.79937955828122,-230.76447319277196,-48.35326901871447,121.22119557346817,-387.2179311694875,-56.71901486333511,238.42318941789634,419.37258861887585
323,33.38657246970969,-231.85524504846248,-46.79182773648899,132.24242100791687,-392.4385680789542,-52.34078014660505,239.26130885912275,423.8280264847595
324,34.02503402666363,-232.94283754770296,-45.17651463306129,143.31985512600278,-397.2925569496717,-48.472216327789965,240.09435488057036,427.74505895011566
325,34.7127064004429,-234.03836198849612,-43.52369574909325,154.35014829641676,-401.76430872574076,-45.12863786445841,240.93547495519886,431.0709550917197
326,35.44848891516405,-235.15568354828602,-41.85237933583114,165.2270370019507,-405.833349477741,-42.32693808784289,241.80114229101386,433.76424596257243
327,36.23232874296374,-236.3111231118662,-40.18411956129842,175.84296520074454,-409.47303849111665,-40.08630727278187,242.71088912632055,435.7963714523975
328,37.065248166948685,-237.52307093683015,-38.54285612874668,186.09084157582208,-412.64934550633126,-38.428798510763784,243.68693511154265,437.1530856179297
329,37.94930211744484,-238.8115155896394,-36.95468584339127,195.86590756175403,-415.3197378362519,-37.37970061370008,244.75371169098588,437.8355774231221
330,38.8874621816187,-240.19749304282715,-35.447563443672884,205.06768696699913,-417.4322321725875,-36.96768238113028,245.937285322491,437.8612693505107
331,39.883426187421016,-241.7024623144804,-34.05093049510214,213.60198447382925,-418.9246684636174,-37.22467950690263,247.26468445092286,437.26426267861217
332,40.94135569670459,-243.34761577740346,-32.79527293935133,221.3828971749569,-419.7242642613156,-38.18550394293594,248.7631376115746,436.0954054245733
333,42.06554715280722,-245.15313442644697,-31.711609988264627,228.33480053808793,-419.74750726471547,-39.887165265922754,250.45923301223985,434.4219669628599
334,43.260045766074086,-247.13740097712406,-30.830919286833762,234.39426777831196,-418.9004411165051,-42.367903958912336,252.3780133683716,432.3269118847952
335,44.52821418217459,-249.3161865202302,-30.18350548852312,239.5118795793522,-417.07939441518056,-45.66594700701725,254.54202341412966,429.9077743542984
336,45.87227032583155,-251.701829329018,-29.79832159030267,243.65387944152062,-414.172194963293,-49.8180064872103,256.97033110059874,427.27514260871834
337,47.29281049830915,-254.30242707265288,-29.70225468844697,246.80362862044024,-410.05990016308584,-54.857551765101285,259.6775468033418,424.5507709573391
338,48.78833491338933,-257.1210659465967,-29.919390400337317,248.96281357509162,-404.6190601002893,-60.812895444578714,262.6728677533225,421.86534335792
339,50.35479347991701,-260.1551119372265,-30.47027315023387,250.1523579489477,-397.72451249211406,-67.70514232892704,265.95917726240737,419.35591832560124
340,51.98516990293195,-263.3955904782978,-31.371182725519382,250.41299031147938,-389.25268897116604,-75.54605933892185,269.53223002686286,417.1630897404129
341,53.66912225943319,-266.82668102961185,-32.63345060437675,249.80541831330137,-379.0853910421356,-84.33593255786755,273.3799557367076,415.427902466401
342,55.392698250907934,-270.4253524878052,-34.262842131076795,248.41005989329142,-367.1139724224922,-94.06148519781819,277.4819132378569,414.2885660066502
343,57.13814330403583,-274.1611637423319,-36.259032442361644,246.3262832665154,-353.24384314904694,-104.69393700143404,281.8089264625295,413.87701400576793
344,58.88381928683876,-277.99625121050315,-38.61520491093565,243.67111039153494,-337.3991904075614,-116.18729088619278,286.322931262377,414.31536246221634
345,60.604250407850735,-281.88552203735094,-41.31780029279551,240.57734448800932,-319.5277920783201,-128.4769357697698,290.97705921217914,415.71232522667464
346,62.270310628976105,-285.7770679173802,-44.346442123738356,237.19109222783584,-299.6057821111604,-141.47865466956878,295.7159803665546,418.15965210597386
347,63.8495636888932,-289.612810026663,-47.67405882234839,233.66866692547535,-277.64221272043284,-155.08812358055422,300.4765216602354,421.72866321150946
348,65.30676269868376,-293.32938001465106,-51.267215487656266,230.17288181461262,-253.6832476087271,-169.1809786300802,305.1885708416645,426.46696358530073
349,66.60451122508654,-296.8592350288176,-55.08665900644328,226.868773162188,-227.81581334945542,-183.61351603307943,309.77626718505775,432.3954346286039
350,67.70408183668208,-300.1319961345214,-59.0880695058299,223.9188312284939,-200.170532748128,-198.22407117378714,314.1594695774215,439.50561254249277
351,68.56638147656157,-303.07598943809177,-63.22300011531271,221.47786110132577,-170.9237643134773,-212.8351000147462,318.25548018251874,447.7575768155204
352,69.15304613281464,-305.6199582817289,-67.43997618429154,219.68764182580725,-140.29857583986916,-227.2559588767566,321.9809884206158,457.0784806953513
353,69.42764044865218,-307.69490377194757,-71.68571553628387,218.67159623676403,-108.56448790328011,-241.28634875992418,325.25418637166763,467.3618568422931
354,69.35693120282048,-309.2360004239757,-75.90642426062213,218.52971949908502,-76.03583586799047,-254.72035926737374,327.9969939213127,478.46782118000726
355,68.91219670017054,-310.1845247594971,-80.04911891141384,219.33403479393857,-43.068618881795665,-267.35101633048305,330.1373210896729,490.22427358104727
356,68.07052672104429,-310.4897282335032,-84.06292599245126,221.12484328759172,-10.055734860213406,-278.9752087205147,331.61128700512853,502.42915555902886
357,66.8160600412585,-310.1105827679794,-87.90031266354467,223.90800799530862,22.57945350092557,-289.39884205321124,332.36531075922903,514.8537768196262
358,65.14109980475398,-309.01732821300567,-91.51820772550127,227.6534572380281,54.39121046841009,-298.4420468600304,332.35798966954746,527.2471715073118
359,63.04704298833122,-307.1927567469205,-94.87897811861308,232.29501872272235,84.92107772202024,-305.9442506025535,331.5616858513404,539.3413975062712
360,60.54506057298865,-304.63317938134,-97.95123256577335,237.73161087284987,113.70887918501778,-311.76891377940797,329.9637524070046,550.8576499925755
361,57.65647086483814,-301.3490332329615,-100.7104301588095,243.82973747277006,140.3047635919762,-315.8077292630361,327.5673450701295,561.5130212436064
362,54.41275977773865,-297.36510335134165,-103.13927775014004,250.4271666513757,164.28186308989333,-317.984093351617,324.39178232617525,571.0277001094655
363,50.85521806345055,-292.72034802789335,-105.22790648106314,257.33763145646753,185.2490626688751,-318.2556777794483,320.4724354211837,579.1323680058971
364,47.0341851313212,-287.4673306326255,-106.97382509903316,264.3563653137013,202.86332421418888,-316.6159640710457,315.86014816736673,585.5755193008035
365,43.00791056238779,-281.67127383411724,-108.38165599413566,271.2662750488082,216.84099631912815,-313.0946438271216,310.6202043882027,590.1304191028518
366,38.84106592376893,-275.4087637323157,-109.46266878211425,277.8445491580954,226.9675675167147,-307.756838389568,304.8308777754738,592.6014152770332
367,34.60295944907101,-268.7661421815766,-110.23413493320882,283.8694937885586,233.10538317995474,-300.70114589434786,298.581614322168,592.8293453507882
368,30.365523360051306,-261.83763532566445,-110.71853422837503,289.12738111176793,235.19893933590293,-292.0565799642292,291.97091058135203,590.6958213745679
369,26.201157201324715,-254.72327470852292,-110.94264876172066,293.4190860409841,233.27748279572242,-281.97851921158525,285.10396095258176,586.1262333642197
370,22.180519898526917,-247.52667370510466,-110.93658247661025,296.56628214631434,227.4547781573665,-270.6438369791061,278.0901533913101,579.0913799474972
371,18.370367819698856,-240.35272595162985,-110.73274403763747,298.41697163268714,217.92603987953146,-258.24542241782547,271.04049512478906,569.6077076172261
372,14.831535505715049,-233.30529372899915,-110.36482861719315,298.85014136304915,204.96216339765678,-244.98633308544257,264.0650483275482,557.7362115720458
373,11.617149642103936,-226.48495291775464,-109.8668304608952,297.7793683371139,188.90151516481987,-231.07383281081943,257.2704508560917,543.5801157720108
374,8.771155261579404,-219.98685734474526,-109.27211365509426,295.15524205408684,170.1396500474478,-216.71356558484865,250.75758990213527,527.281502409001
375,6.327216638040987,-213.89877923720778,-108.61256410459734,290.9665238500456,149.11740924188857,-202.10409759958054,244.61948760164495,509.01709730904304
376,4.308035056061482,-208.29937435932538,-107.91784167954951,285.24001962348376,126.30790845999321,-187.43202765285292,238.93944782060478,488.99343542139906
377,2.7251032123352465,-203.25671072584464,-107.21474772532545,278.039197600072,102.2029530472869,-172.8678243833558,233.78950293712765,467.4416296159922
378,1.5788930187313752,-198.8270892490509,-106.52671945273758,269.461633280864,77.29941510446093,-158.5625011860381,229.22918880399388,444.6119491698442
379,0.8594514285346294,-195.05417398044267,-105.87345893350303,259.63540716335893,52.086080664579164,-144.6451901994315,225.30466546297075,420.7683860619032
380,0.5473588876654986,-191.96843933169936,-105.27070025679825,248.71461615843904,27.031426762925218,-131.22162903602768,222.04819067888863,396.18335281187893
381,0.6149883724004686,-189.5869322461877,-104.73011367434309,236.87418665364618,2.5727235593041518,-118.3735307986931,219.47794302457226,371.13262018187504
382,1.0279907797624281,-187.91333913862394,-104.2593403695924,224.30419605603026,-20.89321976875539,-106.15877140560539,217.59818135469342,345.8905706474349
383,1.7469253032470384,-186.93834085958784,-103.86214623472112,211.20392054202395,-43.01743057416327,-94.61229952494155,216.39971859930017,320.72581674159716
384,2.7289514031688475,-186.64023410361688,-103.53867831017914,197.77582972240987,-63.50412262322351,-83.7476539852548,215.86068047674758,295.8972134663899
385,3.929501693054039,-186.9857943896033,-103.28580389071799,184.21974399094773,-82.11396134197858,-73.55896135858747,215.94751433660463,271.6502812004368
386,5.303861953157799,-187.93135356461025,-103.09751007942393,170.72735738085825,-98.66527102501078,-64.02328217628799,216.61620990821308,248.2140493337906
387,6.808594893698275,-189.4240631802299,-102.96534089677206,157.4773078511023,-113.03329066788189,-55.10317733664079,217.81369198367526,225.7983299648364
388,8.402757405555413,-191.4033136103664,-102.87884990438198,144.6309486023184,-125.147656633959,-46.74937576911804,219.47934463766913,204.59143357273393
389,10.048875858679255,-193.80227716601743,-102.82604859419355,132.32893946936403,-134.98835047272738,-38.90343904634463,221.5466271440062,184.75834245331612
390,11.713659506789156,-196.54954165257507,-102.79383434228541,120.68873839042456,-142.5803963567133,-31.500336845867203,223.94474299926318,166.4393606142066
391,13.3684473377034,-199.57079885679897,-102.76838619714856,109.80303156689817,-147.98762300234503,-24.470867311676578,226.60032511681567,149.7492586871564
392,14.98939801121172,-202.79055047055607,-102.73552167727291,99.73909966599902,-151.30581871977355,-17.743876818393968,229.43910202065663,134.77692764045278
393,16.557445090790424,-206.13379215202326,-102.68101252229158,90.53907880719849,-152.6556056401568,-11.248252935585352,232.38751148725083,121.58554493224487
394,18.058049892303043,-209.5276350198274,-102.59086141621911,82.22104135714338,-152.17534159414382,-4.914681349370519,235.37422936802471,110.21324167930453
395,19.480791536401078,-212.9028231911936,-102.45154462182501,74.78079439770092,-150.01432791458112,1.3228287511441947,238.33158231583053,100.67424108478788
396,20.818838140495703,-216.1951065283127,-102.25022691973648,68.19427402463663,-146.326561517408,7.525636360489176,241.19681423082417,92.96041929207732
397,22.068344539163682,-219.34643013194517,-101.97495512625886,62.4204014094674,-141.2652229922313,13.749357029111279,243.91317803278434,87.04322264480625
398,23.227820493725435,-222.305906707995,-101.61483498798734,57.40426103688241,-134.97804188950232,20.042925438231645,246.4308274192609,82.8758619735043
399,24.297509328066592,-225.0305448558016,-101.16019396278875,53.08046147005805,-127.60362835758218,26.447810837544427,248.70748802381573,80.39569584523092
400,25.278811003177665,-227.48571545912674,-100.60272994571301,49.37654320659243,-119.26880894450943,32.99736756167909,250.70889407602624,79.52671070344982
401,26.17377663434688,-229.64534923901746,-99.93564391275886,46.21630592164951,-110.08695580977233,39.71630792522918,252.40898511491298,80.18200620953536
402,26.984693952094535,-231.49187034401143,-99.15375302131693,43.522938363298955,-100.15725477795434,46.62029062081859,253.7898668999988,82.2661987065678
403,27.71377554443369,-233.01588262578073,-98.25357992920708,41.22184824664968,-89.5648204180857,53.71562367511623,254.84155049428347,85.6776645098471
404,28.362954169788864,-234.21563600262448,-97.2334137948611,39.24310641338228,-78.38153711621288,60.99908651103978,255.56149259201015,90.31055752750267
405,28.933782328121836,-235.09630922865878,-96.09333845608771,37.52343872679275,-66.66748486078241,68.45788021419959,255.9539677243318,96.05655207765872
406,29.427426932370427,-235.66915193041402,-94.83522371722316,36.00771988518238,-54.47279749294282,76.06971825901745,256.0293085422136,102.80628091311482
407,29.844744561361438,-235.95053265431812,-93.46267671160342,34.64994465967468,-41.83979919976341,83.80307137408445,255.80305378372492,110.45045928676647
408,30.18641866759483,-235.96094068105356,-91.98095205161138,33.4136730672893,-28.805271206086775,91.6175797424519,255.29504467797787,118.88070698498878
409,30.453137628374872,-235.72398746060117,-90.39682177197733,32.271965883955026,-15.40271359230816,99.4646433900297,254.52850937938862,127.99010001911444
410,30.645791897524184,-235.26544900886665,-88.71840855849173,31.206845211893636,-1.6644851734235704,107.28819767045853,253.52917175080023,137.67350049216398
411,30.765669591023553,-234.61238403443653,-86.95498804506727,30.20833143719657,12.376274513921036,115.02567555381466,252.32441577821444,147.82772564015826
412,30.814632207364607,-233.79235452181086,-85.1167677562581,29.273122967888202,26.684014682046968,122.60915229063922,250.94253049100033,158.3516241376483
413,30.795255421425605,-232.8327665958964,-83.21465140928437,28.402998664968717,41.21948557435508,129.9666612030948,249.41205292983227,169.14612886749268
414,30.710923681152003,-231.76034036509571,-81.2599977381817,27.603034470535192,55.938823808739784,137.0236620306246,247.76121897673997,180.11435035287562
415,30.565871431211555,-230.6007086840764,-79.26438284609392,26.879734453534162,70.79302153213189,143.7046355907997,246.0175242811855,191.16176427236283
416,30.365167978055833,-229.37813697919202,-77.23937449181948,26.239181105260215,85.72777256176188,149.93477076238335,244.20739065597215,202.19653086692412
417,30.11464710848627,-228.11535005317089,-75.19632576511653,25.685309129042498,100.68367336677372,155.6417023492621,242.3559277630546,213.1299652109122
418,29.820786369026298,-226.8334476508852,-73.1461942289547,25.21840046289169,115.59674391877516,160.75725169438877,240.48677610993278,223.87715730011752
419,29.49054414758525,-225.55188869206577,-71.09939078156452,24.833885553586203,130.39922314975655,165.2191164651389,238.62201545825923,234.3577217953594
420,29.131165136645553,-224.28852413076748,-69.06566048698507,24.52151722678972,145.02058597501204,168.97245248165146,236.7821224584519,244.4966409519706
421,28.749966305183058,-223.05965978572718,-67.05399582947699,24.264959962031377,159.38872369049852,171.97128975256666,234.9859622190643,254.2251523687951
422,28.35411620738987,-221.8801326901994,-65.07258141618223,24.041810967759986,173.43122722526596,174.17972799527274,233.25080018177684,263.481626734211
423,27.950420358937507,-220.76338720517657,-63.12876799151017,23.824042627553276,187.07671322902473,175.57286428372325,231.59232278514793,272.21237984761547
424,27.54512451075825,-219.72154012406483,-61.22907265178293,23.578830951601667,200.2561360946941,176.1374166182262,230.02465775788866,280.3723670900633
425,27.143745951466208,-218.7654272015146,-59.37920139140768,23.269713322565895,212.90403445548822,175.8720210129216,228.56038743852739,287.9257160368731
426,26.750940581274833,-217.9046269579078,-57.58408964506981,22.85800216227412,224.9596681099967,174.7871948358564,227.21055130433794,294.8460629200175
427,26.3704107083582,-217.14746113840368,-55.84795630618874,22.30436977604208,236.36801029297087,172.90497434895312,225.9846368357753,301.1166701696786
428,26.00485577431829,-216.50097456642905,-54.174366658717155,21.57051375327444,247.08057020662483,170.25824847247836,224.89056068373452,306.73031435840596
429,25.655965947392183,-215.9708999439306,-52.566299628417156,20.62081175587343,257.0560311388312,166.88982270679108,223.93464448124723,311.6889456618263
430,25.324456881932267,-215.56161509065925,-51.02621481043486,19.423878902749397,266.2606996261597,162.85125619707333,223.12159126523613,316.00313070284045
431,25.01014275699901,-215.27610110098058,-49.556115027268376,17.95394970018472,274.66877031488696,158.20152080116478,222.45446929216374,319.69129982480285
432,24.71204371277216,-215.11591006461626,-48.15760071087277,16.19201887253725,282.26241893484814,153.00553366825406,221.93471014621,322.77882710018935
433,24.42852288165967,-215.081150440851,-46.83191300415667,14.126690678558413,289.0317418110283,147.3326144506228,221.56212748195833,325.29697654665597
434,24.157447352306132,-215.17049683879685,-45.57996303115892,11.754703473602662,294.97456442583683,141.2549153327131,221.3349614318163,327.28175108478877
435,23.896366583855848,-215.38122887855832,-44.40234537592422,9.081114562933386,300.09614367560096,134.8458673912545,221.24995169470597,328.77268192251347
436,23.6427009901124,-215.70930133001048,-43.2993345887852,6.119148948441244,304.4087886886992,128.17868142693868,221.30243996903604,329.81159558214756
437,23.393932701055125,-216.14944530405046,-42.27086456051583,2.8897334121915597,307.9314234650858,121.32493615549788,221.4865001603682,330.4413938645968
438,23.147789991286807,-216.695298187591,-41.31649176250322,-0.5792466686554856,310.68911133978935,114.3532817808618,221.79509294341966,330.7048786867503
439,22.902416674563515,-217.33955838195854,-40.43534443429196,-4.253917498613449,312.712556833534,107.32828234796497,222.22023986871724,330.64364909875485
440,22.65651808176609,-218.07415979284198,-39.62606067021565,-8.095554836808558,314.0375955566853,100.30941574422872,222.75321133425857,330.2970924188915
441,22.40947622942785,-218.8904603881615,-38.8867190335,-12.061826023947557,314.70467817250557,93.35024582869114,223.38472237778618,329.70148602811975
442,22.161428444620356,-219.77943880005287,-38.21476585356783,-16.108072043752554,314.75835044729513,86.49777701513774,224.10513021579808,328.8892215308461
443,21.913305838945334,-220.7318927764249,-37.606943698172174,-20.188569079714053,314.24672836663103,79.7919977173672,224.9046276141487,327.88815908464727
444,21.66683036931403,-221.73863343052162,-37.05922560895721,-24.25771549966884,313.22096536936465,73.26561527924125,225.7734266252737,326.7211169594423
445,21.424471640550756,-222.79066997941766,-36.56675960046312,-28.271098830066958,311.73470807587694,66.9439812746041,226.70192824007037,325.40549991554315
446,21.189367018183095,-223.8793810992462,-36.12382776903812,-32.18640733556856,309.8435374306355,60.84520238202682,227.68087518367778,323.95306971662944
447,20.965210850715188,-224.996670892365,-35.723824205508514,-35.96416168875953,307.6043937131218,54.980428534818046,228.70148716773923,322.369861745204
448,20.756120327454898,-226.13510930487334,-35.35925570789643,-39.56825329820082,305.0749860586121,49.35430692381859,229.75557991008125,320.65625286395846
449,20.566486419989946,-227.28805825053595,-35.02176893915663,-42.966286508325716,302.3131895948769,43.965587876714984,230.83567070648408,318.80718689151666
450,20.400818353463638,-228.44978539704906,-34.702207045519614,-46.12973149046061,299.37643562653057,38.80786668198202,231.93507397691224,316.8125647902839
451,20.263589226636594,-229.6155674209834,-34.39069778063334,-49.033902753257436,296.32110205996884,33.87044392053395,233.04798988717957,314.65780633860646
452,20.159089025631395,-230.78178373057585,-34.076774028468016,-51.6577844503069,293.2019121248529,29.13928559206419,234.16958810507924,312.3245882267145
453,20.09128967020873,-231.94600063539676,-33.74952659779639,-53.9837277343985,290.07134924161227,24.5980630926842,235.29608749546276,309.79175991663095
454,20.06372503011478,-233.10704505689574,-33.39778836511168,-55.997047123832594,286.97909458645523,20.229251858362975,236.4248314577114,307.0364331912908
455,20.079387003553173,-234.2650662147029,-33.01034805780454,-57.685542330667865,283.97149160241054,16.015266335569127,237.55435771635436,304.0352342366554
456,20.140636803887386,-235.4215832632377,-32.5761910712492,-59.038969748212466,281.09103857347765,11.939608055671059,238.68446064787972,300.76569868018277
457,20.2491288393976,-236.5795165624957,-32.08476387064121,-60.0484845730567,278.37590672169966,7.98800308297609,239.8162436759494,297.20778076076493
458,20.405743295795432,-237.74320007294594,-31.526257919491755,-60.70607118211703,275.8594776161705,4.149504936392679,240.9521588653361,293.34543847149376
459,20.610522860130814,-238.91837212219033,-30.891908620790723,-61.003976615290945,273.5698907232716,0.4175391015781801,242.0960304479418,289.16824805289787
460,20.862609058544887,-240.1121414268603,-30.174304230041496,-60.93416032752317,271.52959043175196,-3.209134703371667,243.25305853556412,284.67299459848306
461,21.16017467234844,-241.33292489855438,-29.36769901843634,-60.487773008550896,269.75486236375,-6.725566351968097,244.42979886484025,279.8651814864793
462,21.500350789754823,-242.59035359875648,-28.46832423227382,-59.6546781551861,268.25535131956957,-10.119889069412206,245.63411429123934,274.7604001323639
463,21.879149920309466,-243.8951432341824,-27.474689655576583,-58.42303177983379,267.03355746936484,-13.372746750463154,246.8750938747953,269.38550294420304
464,22.291389601153412,-245.25892569036114,-26.387867684979252,-56.778937373381744,266.08431284066626,-16.45689768460891,248.1629355864737,263.77952583782053
465,22.730623562158186,-246.69403830480024,-25.21175065786948,-54.70619413445681,265.39424623100274,-19.33701595317915,249.5087888631142,257.99431172211627
466,23.18908961018877,-248.2132680648277,-23.95327092512773,-52.18615588921318,264.9412510603047,-21.969709233281673,250.92455363573703,252.09479272357615
467,23.657684874198157,-249.8295488493715,-22.622572182577397,-49.1977158554534,264.6939771973626,-24.30376824998654,252.4226332551673,246.15889656592162
468,24.125979786766703,-251.55561123283152,-21.233120120848987,-45.717428690673316,264.61137433846744,-26.280658752632785,254.01563997528848,240.27705157014833
469,24.582281976294393,-253.4035861189423,-19.80174070000435,-41.71977664773332,264.64232093269334,-27.835261871734637,255.71605322609977,234.55127528877318
470,25.013759984308816,-255.38456544128252,-18.348575512362707,-37.17758177885354,264.72537868050387,-28.896863350754124,257.53583270732986,229.0938438028617
471,25.40663442154846,-257.50812529482806,-16.896945839061477,-32.06256147968045,264.7887178916256,-29.39038677360272,259.485990318209,224.02555195950066
472,25.746440933816743,-259.78181918506493,-15.473119943376984,-26.34602046727551,264.75026294662314,-29.237860781858256,261.57612714324824,219.47358884689538
473,26.018365305900574,-262.21065163162734,-14.105981580717316,-19.999668460812824,264.51810910869267,-28.360105460855223,263.81394416088705,215.56906689968574
474,26.20764654470179,-264.79654504408467,-12.826601336467002,-12.996549144086108,263.9912612276472,-26.67861838454345,266.20473793289545,212.44425631593523
475,26.300039439968423,-267.5378153525958,-11.667715863281,-5.312062256132189,263.0607406995168,-24.117635884918275,268.7508950241745,210.2295879794365
476,26.282324309859277,-270.42867401837873,-10.663123101134202,3.0749430491559306,261.61109878113433,-20.606339582990163,271.45140098565304,209.05049695067942
477,26.142848408388623,-273.4587755652933,-9.847004202877656,12.181028736472964,259.5223618076946,-16.081171861646272,274.30138121509174,209.0241843119382
478,25.872080745203974,-276.61283067860364,-9.253185605799711,22.017009829744353,256.67241739118884,-10.48821679408303,277.2916919491528,210.2563777310093
479,25.46315992542303,-279.8703052709163,-8.914357994847109,32.58680617708717,252.9398311174319,-3.7855953206800255,280.40858015132216,212.83817093132143
480,24.912413100763278,-283.20522562840137,-8.861272816935388,43.88633159951434,248.2070615835209,4.054184386188555,283.63343106892705,216.84301977007885
481,24.219823160270906,-286.5861087146741,-9.121940743428993,55.902445284058984,242.36401868426765,13.04198789026585,286.9426215776489,222.32396808548748
482,23.38942079265084,-289.97603494516164,-9.720858937524318,68.61198599227617,235.31188654788,23.169999766466734,290.30749605455617,229.3111699232612
483,22.429578021861985,-293.33287828806505,-10.678294610345327,81.98090449294402,226.96710906043248,34.40993090900424,293.6944794232371,237.80976621311683
484,21.353180458421846,-296.609705441197,-12.009651292057457,95.96350471848679,217.26541332546944,46.7115679611244,297.06533927389626,247.79816375769695
485,20.177657223005124,-299.75535231638247,-13.724941834238605,110.50180068056768,206.16572601637537,60.00174441380088,300.37760587938834,259.2267534592237
486,18.9248506046141,-302.71518246444646,-15.828388656878385,125.5249951362142,193.65382133283825,74.18380920560062,303.585155869752,272.01709464904263
487,17.620712002533594,-305.4320283509365,-18.318167420372223,140.94908820802578,179.74552933394236,89.13766157390454,306.6389622364271,286.0615850989638
488,16.294816399737776,-307.84731200332186,-21.186305224580966,156.67663051953463,164.48933164882558,104.7204101585333,309.4880096391529,301.223633441852
489,14.979694593483664,-309.90233587842033,-24.418738317858065,172.5966466456016,147.96817927441833,120.76769959359534,312.08036906695907,317.33835335196375
490,13.709990984065348,-311.5397275089364,-27.995526893343943,188.5847706995549,130.30038507372623,137.09572885013463,314.36441945158276,334.21380695401473
491,12.521464949913087,-312.7050125207106,-31.89121635919933,204.5036550053733,111.63947154051631,153.50396248037498,316.2901957705729,351.63283691570234
492,11.449865105320555,-313.34828018132015,-36.07532671205035,220.203731484043,92.17289096987642,169.7785089737638,317.8108336142024,369.3555387478373
493,10.529716862259091,-313.4258943890632,-40.51294550836924,235.5244187053208,72.11957756481658,185.6961102587664,318.8840696158958,387.1224313698456
494,9.793073254747997,-312.9021920638649,-45.16539610601631,250.2958704486658,51.726335541042644,201.02865407982384,319.4737465765456,404.6583789289675
495,9.268285616096964,-311.75110163989416,-49.99095167424968,264.3413501012795,31.26311042193839,215.54808845631405,319.55126292819546,421.677295666277
496,8.9788536155779,-309.9576080466067,-54.94556710897825,277.4802870962345,11.017230152367102,229.03158745478567,319.0968997661412,437.88762709811857
497,8.942412990597232,-307.51898810833956,-59.98360535561019,289.5320266615144,-8.713262008722262,241.26679330439256,318.1009561357042,452.99854773513823
498,9.16991379412013,-304.44574232759805,-65.05854124260497,300.3202245505208,-27.62702845293059,252.05694438847024,316.5646253727637,466.72675392439317
499,9.665032164979962,-300.76215607632224,-70.12363366715803,309.677769202971,-45.427426386652684,261.22569375248975,314.50055253875973,478.80366728313896
500,10.423845414563718,-296.50643558579696,-75.1325641243589,317.45204310963743,-61.830847858932565,268.6214290947529,311.93302532551246,488.98280631814885
501,11.434785315940754,-291.73038144446525,-80.04004431617895,323.5102735522271,-76.57516076481915,274.1209223369704,308.89776744154454,497.0470372902096
502,12.678869769617704,-286.4985834621036,-84.80239687851558,327.74468140450256,-89.42796858302525,277.6321637030158,305.4413229995978,502.8153860902997
503,14.13020000715116,-280.8871441279853,-89.37811136524394,330.0771242446717,-100.19437753133647,279.0962701404387,301.62004116841774,506.14908623103065
504,15.75670010185513,-274.98196169002506,-93.72837378496618,330.4629507534658,-108.72393911704725,278.48839889413773,297.49869076992445,506.9565574425741
505,17.521068112043743,-268.876626315739,-97.81756364069955,328.89383489180676,-114.91643008738538,275.81764177927954,293.1487531325579,505.1970545552216
506,19.381903445354375,-262.67000229626393,-101.61370854890735,325.39943210221645,-118.72614673231202,271.125921493739,288.6464571006548,500.8827927921977
507,21.29497229105595,-256.463584704085,-105.08888372154607,320.0477831383793,-120.16443067311977,264.4859551114147,284.0706318516797,494.0794354528592
508,23.214571241290813,-250.35872961181312,-108.21954254390941,312.94447070214045,-119.30020989319289,255.99838885546606,279.5004607849583,484.90491449692894
509,25.09494759897883,-244.45386253021135,-110.98676575766697,304.2305991779952,-116.25842952496465,245.78824022732834,275.0132232227963,473.5266364350539
510,26.891732893375508,-238.8417701202537,-113.376420339055,294.0797129207526,-111.21635613802492,234.00080712020102,270.68211020198095,460.15720016863264
511,28.563343973590246,-233.60707587369754,-115.37922428874377,282.6937938828645,-104.39785834717546,220.7972177615163,266.5741965577188,445.0488163996841
512,30.072304403302134,-228.82399188220808,-116.99071910534823,270.2984889946402,-96.06588464633829,206.3498000175069,262.7486441073115,428.4866664804092
513,31.386438607357263,-224.55442649635725,-118.2111565829208,257.13771754737286,-86.51346498397417,190.8374445298282,259.2552001827775,410.78146867105283
514,32.47989301569936,-220.84651216200794,-119.04530985537063,243.4678048177849,-76.05364570648237,174.44112490202062,256.13304227087445,392.26152979190607
515,33.33394257417785,-217.73359987965517,-119.50221987015888,229.55128520642447,-65.00882143279402,157.33972157681376,253.4100037406071,373.26455149664235
516,33.93754739117337,-215.2337475873874,-119.5948879467647,215.6505194172196,-53.69994967184407,139.70627584496316,251.10219864487183,354.1294378187144
517,34.28763284486651,-213.3497100974421,-119.33992355264228,202.02127675010894,-42.43612576229549,121.70477782423251,249.2140464882569,335.1883213168714
518,34.38907698183517,-212.06941853936615,-118.75715473465576,188.90644436520094,-31.504960702451072,103.48756788618708,247.73868148532682,316.7589956668794
519,34.25440105538919,-211.36691824417716,-117.86920722998903,176.53003757951106,-21.164147596331397,85.19340508433088,246.65871581624785,299.13791700624904
520,33.90317198420398,-211.20371656494925,-116.70105734940519,165.09169481012242,-11.634529222096935,66.94622862398592,245.94731333710217,282.59391570274363
521,33.361138768016104,-211.5304770869611,-115.27956352795272,154.76184309387122,-3.0948952831622822,48.85460931532486,245.5695196707604,267.36274302403876
522,32.6591378867605,-212.28898451177187,-113.63298223902142,145.67771111198053,4.321351205267827,31.01185764092099,245.48378689054599,253.64256101340916
523,31.831814712322007,-213.4142955653288,-111.79047570157854,137.94034393538004,10.527608201896713,13.4967246437805,245.6436261611992,241.59046676935475
524,30.91621807854247,-214.83698614226188,-109.7816209023314,131.6127373891021,15.4836047793461,-3.6253967915982033,245.9993197092504,231.32012335402115
525,29.95033241317918,-216.4854042557716,-107.63593110891081,126.71916260063281,19.193160811395824,-20.300887099500354,246.49962445650948,222.90054833025144
526,28.971615428543448,-218.28784262295184,-105.3824016493333,123.2456972236106,21.700359442519158,-36.48606618400368,247.0934036819413,216.35608679653572
527,28.01560889443104,-220.1745536291498,-103.04909098414952,121.14192393951144,23.08437460727378,-52.14525411310392,247.7311300465487,211.6675674930285
528,27.114685526789113,-222.07954211577285,-100.66274609295799,120.3237039503187,23.45324302982558,-67.24886896528105,248.3662127844577,208.77460669664075
529,26.296986873072917,-223.9420867702059,-98.24847840170824,120.67688757011608,22.936903901819726,-81.77169327908116,248.95611324937678,207.5789849574061
530,25.585595807620788,-225.70795762648666,-95.82949347553884,122.0617891085437,21.67984806861702,-95.69141990228978,249.46322559925474,207.94897865583087
531,24.997973621191147,-227.33031400625754,-93.42687493500065,124.3182311143567,19.833720458796677,-108.98755951898255,249.85551226779288,209.72448724902713
532,24.54567666502821,-228.77028288870443,-91.05942080398901,127.27095416112022,17.550203868066355,-121.64075810970928,250.10689597488917,212.72276433624532
533,24.234352165875045,-229.9972312481529,-88.74352895782486,130.73519148859123,14.97447966846174,-133.6325358481245,250.19742053320704,216.74454079467145
534,24.063998200730595,-230.98875687638744,-86.49312759026317,134.52222047817133,12.239513898381606,-144.9454223162275,250.11320117501992,221.58032208672273
535,24.02945977696825,-231.73043061613197,-84.31964660046759,138.4447220755814,9.461359379559282,-155.56342919908215,249.8461915070521,227.01664723749792
536,24.121122075558272,-232.21532897944005,-82.23202635710393,142.32180194395139,6.735600767350967,-165.47277341447273,249.39379863765578,232.8421104738863
537,24.325753474490874,-232.44339989749585,-80.23676119474506,145.98355101627067,4.135004577652725,-174.66274324696641,248.75838054424202,238.8529650306047
538,24.627445253106707,-232.4207057821199,-78.3379759358199,149.27504666335614,1.7083744024469323,-183.1265892208042,247.94666027062743,244.85815032025843
539,25.008592335359133,-232.15858724484372,-76.53753440755827,152.05971804952847,-0.5194441558598724,-190.86232113530463,246.96909014627738,250.68360801748878
540,25.45086044022835,-231.67278810385153,-74.83517915915684,154.222020190599,-2.546511775359148,-197.87330299369356,245.83919633476984,256.1757799956705
541,25.93608947455784,-230.98257822340165,-73.22870138702237,155.6693810966029,-4.391837832982682,-204.16855754999102,244.57293021448348,261.2042120104066
542,26.447090336657077,-230.10990563640505,-71.71413953945503,156.33340585962142,-6.092685409094739,-209.76271991926325,243.18804875768103,265.6632215709539
543,26.96830171485197,-229.07860352408946,-70.2860042058843,156.17034127445294,-7.7013240701377335,-214.6756124772063,241.70354137167988,269.4726258327714
544,27.486284159114774,-227.91367122816303,-68.93752566059146,155.16082478130323,-9.281421857318682,-218.93144820004937,240.13911571619718,272.57756415221974
545,27.990039886695907,-226.64064187978357,-67.66091895612699,153.30896186081844,-10.9042647627934,-222.55770377411517,238.5147500017506,274.9474881973132
546,28.47115777724679,-225.28504277302008,-66.4476600591881,150.64079568210076,-12.6449809648084,-225.58373442061298,236.85031445032897,276.57442780161034
547,28.923793281821354,-223.87194860673344,-65.28876545385371,147.20225068601707,-14.578929683884711,-228.0392267599465,235.16526021208347,277.4706704421721
548,29.34450200883974,-222.42562252124986,-64.17506700808686,143.0566466026291,-16.778391992963527,-229.9526019104585,233.47837033123983,277.6660137897277
549,29.73195305520042,-220.9692358426353,-63.09747378995349,138.28188985338045,-19.309674578485957,-231.34948692151403,231.8075646223285,277.2047622072139
550,30.08655331622069,-219.52465490076327,-62.04721307417041,132.96745427616304,-22.230708867927934,-232.2513682542339,230.1697488059166,276.14263821636047
551,30.41001678182022,-218.1122822414367,-61.016044060866555,127.21126207051927,-25.589198840761117,-232.6745271830839,228.58069800650986,274.5437687732499
552,30.704913100361374,-216.7509397599789,-59.996439678466345,121.1165690195929,-29.421342774805932,-232.6293354472081,227.0549654866848,272.47788482462323
553,30.974227560133368,-215.45778236847588,-58.98173396505656,114.78894637956721,-33.751128204038054,-232.11996252690426,225.60580889579413,270.0178431911537
554,31.220960478531108,-214.2482324832578,-57.966234622913596,108.33343676541772,-38.59017602138806,-231.1445160867009,224.24512806397536,267.237545137675
555,31.447788372728763,-213.13592773040486,-56.94530215989411,101.85194453134045,-43.93808921131499,-229.69560693789558,222.98341032817794,264.2102891291195
556,31.65680281832622,-212.13267665956369,-55.91539836869239,95.4409042423446,-49.78324431240859,-227.7613016195901,221.82968139220986,261.007559267249
557,31.84933621039695,-211.24841975057814,-54.87410764088654,89.18925544653297,-56.10394955589519,-225.3264012406392,220.79146164589946,257.698218429363
558,32.02587735287129,-210.49119553162578,-53.82013473475818,83.17673927115997,-62.8698829499406,-222.37396600014154,219.87472967937217,254.3480483388642
559,32.186074331198135,-209.86711418931176,-52.75328218194744,77.47252296402458,-70.04371677441914,-218.88699192291392,219.08389646597826,251.01955931964807
560,32.328817550319506,-209.38034340729425,-51.67440974006476,72.13415234811161,-77.58283246418094,-214.85014050511057,218.4217951918421,247.77198133483185
561,32.45239208692035,-209.03311287161458,-50.58537743493022,67.20682864893081,-85.4410319961441,-210.25142317052573,217.8896926182174,244.66134524466568
562,32.55468561065145,-208.82574457909968,-49.488972938706425,62.72300426107348,-93.57015869180206,-205.083749926981,217.48732788837307,241.74056830845365
563,32.6334360976639,-208.75671571289746,-48.3888233621636,58.70229058624239,-101.92155155754001,-199.34626408990678,217.21298379852607,239.05946948167772
564,32.68650235986673,-208.82275950551139,-47.28929109019005,55.151669171347606,-110.447272384169,-193.04540088768505,217.06359386721675,236.6646564590432
565,32.712139971238564,-209.0190072899478,-46.195353163006175,52.06599454150957,-119.10106296478813,-186.19562563741587,217.03488617907803,234.59924605045555
566,32.70926541688036,-209.3391719536703,-45.11246390087582,49.428773414494614,-127.83900978425032,-178.81982556172667,217.12156205409138,232.90240071108343
567,32.67769216534995,-209.775769522953,-44.04640087670793,47.213200829498184,-136.61991396514978,-170.9493470855395,217.31750432813968,231.60868534644516
568,32.61832382818606,-210.32037203175315,-43.00309490682743,45.38342966260781,-145.40538367746564,-162.62368691780475,217.6160068051085,230.74726860159856
569,32.533291632498496,-210.96388159038432,-41.98844552078678,43.89604641766656,-154.15968336249742,-153.88986007564915,218.01001367856085,230.3410107249323
570,32.42602619474106,-211.69681303830234,-41.00812436444482,42.701723153825654,-162.84938796029672,-144.8014810566032,218.4923558018979,230.40549488993528
571,32.30125712441166,-212.5095710681444,-40.06736997272481,41.74701274752495,-171.44290006465712,-135.41760531799625,219.0559698981104,230.94806964922157
572,32.16493814766544,-213.39270746191792,-39.17077812251761,40.97625208546434,-179.90989305626488,-125.80138670535713,219.69408728432165,231.96697615456253
573,32.02409983446367,-214.337145169967,-38.32209254170992,40.33353497086369,-188.22074370247398,-116.01861217143889,220.4003804540035,233.45063441836118
574,31.886636253819656,-215.3343583833639,-37.524001221103774,39.76471333018918,-196.34601382501376,-106.13617785058162,221.16905886263362,235.3771581881647
575,31.761035700844904,-216.37650138960134,-36.77794402128075,39.21938178780597,-204.25603310228038,-96.22057019740396,221.9949093679816,237.71415834235475
576,31.656068816874093,-217.45648355652764,-36.08393764344033,38.65279719962373,-211.92062474469165,-86.33641253906048,222.87328165688814,240.41888088696592
577,31.5804497891307,-218.56799270425438,-35.44042423446522,38.027681899511826,-219.3090036297473,-76.54513143916613,223.80002407050108,243.43870887846356
578,31.542487799990315,-219.70547369324038,-34.844149913645246,37.3158578236256,-226.38986353170907,-66.90378944962075,224.7713798293008,246.7120394525154
579,31.5497464550643,-220.8640726994528,-34.290079535974435,36.49965878164867,-233.13165725974602,-57.46412189928474,225.78385722849092,250.16952907949636
580,31.608728446222223,-222.039560073163,-33.77135424648162,35.573070179566955,-239.5030614932216,-48.27180592267575,226.8340896672335,253.73568327823827
581,31.724601131987313,-223.22824575811902,-33.27929871318431,34.542549578804866,-245.47360722358485,-39.36598037723161,227.91870224679468,257.3307519298479
582,31.90097618263875,-224.4269009136195,-32.80348490751475,33.427487643370526,-251.0144471244424,-30.779025974160096,229.03420100764893,260.8728783643562
583,32.13975325683832,-225.63269772971032,-32.33185855609572,32.26027721349735,-256.09922296863044,-22.536606168831174,230.17689874907236,264.28043971475574
584,32.44103417462172,-226.84317673284156,-31.850932928920635,31.085968243748013,-260.70498951356865,-14.657961388955071,231.34288809681306,267.47450774104016
585,32.80311047812376,-228.05624744833153,-31.346052688310824,29.961497847058364,-264.813146222498,-7.156442234916344,232.52806841493594,270.3813534611504
586,33.222523825061806,-229.2702244353172,-30.80172822154572,28.954497329237338,-268.41032491386346,-0.04026152860113142,233.7282286525014,272.9349154833087
587,33.69419551369769,-230.4838968679545,-30.202038253540103,28.141691469097655,-271.48918009287996,6.686559419755417,234.9391837209344,275.0791509191954
588,34.211618745481154,-231.69662639749492,-29.531095757576193,27.60691895141857,-274.0490295544807,13.023078349116638,236.15695793779835,276.77018925299166
589,34.76710511188974,-232.90846514692186,-28.77356948936049,27.438816333434747,-276.0962961410218,18.970184079489332,237.37800563796338,277.9782137064591
590,35.352075285938426,-234.1202833964089,-27.91525091290764,27.728220729831754,-277.6447074845415,24.529246203218655,238.59945628743554,278.68900158399856
591,35.95738295342135,-235.33389496546377,-26.943653786708733,28.565358014522353,-278.7152191281926,29.70069832531669,239.81936947260834,278.90506472984384
592,36.5736605275844,-236.55216772478428,-25.84863127814314,30.03689330293842,-279.3356373133603,34.482593869771556,241.03698420333518,278.6463432924647
593,37.19167503067942,-237.77910721154507,-24.622993321616654,32.22292847619829,-279.5399304042014,38.86917681740893,242.25294719180215,277.950419966316
594,37.80268258573216,-239.01990290359043,-23.263105102635247,35.19403724988027,-279.3672316431804,42.84951289213369,243.46950607068604,276.8722370405752
595,38.39877019895982,-240.28092903832223,-21.769446049789735,39.00843135826064,-278.8605498118274,46.40622917588787,244.69065560096743,275.483314053889
596,38.97317394843834,-241.56969448690222,-20.147107655174302,43.70935129469521,-278.0652176195299,49.51441148407211,245.92222735828048,273.8704788304866
597,39.52056328726666,-242.89473866698523,-18.406208013218244,49.32277131191147,-277.02711975664266,52.14070876709861,247.17191574829678,272.13413865125915
598,40.03728175414092,-244.26547252844244,-16.562201296800964,55.85550099694681,-275.7907533684096,54.24269212975943,248.44923520742137,270.386131153009
599,40.52153480275037,-245.69196522422004,-14.636061482367921,63.29375509455458,-274.39718329630495,55.76851270660933,249.76540501988248,268.7472063410502
600,40.97351570224118,-247.18467829099703,-12.654321467055023,71.60225010845402,-272.8819628887609,56.6568976500338,251.13315942981632,267.34420196502805
601,41.395460622032736,-248.7541502081486,-10.648951331770304,80.72387151304608,-271.27309851490816,56.83751699976427,252.56648186161567,266.3069844741118
602,41.791624213824676,-250.41063528936957,-8.657063005159829,90.57994015985294,-269.58914199874846,56.231746313703695,254.08026332316194,265.76523672758987
603,42.16816743129463,-252.16370213875675,-6.720433062151329,101.07109146755043,-267.8374997233758,54.75384072344916,255.68988664539077,265.8451813053722
604,42.532950342520785,-254.0217983987288,-4.884840807374488,112.07876657432402,-266.0130496380721,52.312525643444374,257.4107401949826,266.6663341494177
605,42.89522469807772,-255.99179011522807,-3.199225006532975,123.46730056250375,-264.097157180871,48.81299789906653,259.2576670316835,268.3383866743582
606,43.2652241987947,-258.0784855429352,-1.7146694808065173,135.08657845097278,-262.05717746375973,44.15931878768275,261.2443579909876,270.95831454124635
607,43.65365468567548,-260.2841544486641,-0.4832350775488863,146.77521402563687,-259.84652324246565,38.25716779896772,263.3826996770569,274.6078070541166
608,44.07109175281805,-262.60805495869613,0.44333697774098113,158.36418900354215,-257.4053656764798,31.016912613657393,265.68209083487284,279.351101813403
609,44.52729950994394,-265.04598092378825,1.0150179389867964,169.68087020640883,-254.66201746703535,22.356937714957375,268.1487431950273,285.23329442383954
610,45.03049119992847,-267.5898438496816,1.1849412541739905,180.55330078680316,-251.53502580644644,12.207160569425666,270.78498578935853,292.27917289357424
611,45.58655965417912,-270.22730476021627,0.9108638316916638,190.81463942836353,-247.93597617609336,0.512651001757849,273.5885948940745,300.4926018220733
612,46.19831249100943,-272.9414729373092,0.15658915363119905,200.30760100500427,-243.7729781268553,-12.762743591144567,276.55217502433146,309.85645432555975
613,46.864752785227736,-275.71069026231646,-1.1066998758774391,208.88873614923367,-238.95477169044713,-27.63287665863035,279.66261957896637,320.33306238323615
614,47.58044994944316,-278.5084216723389,-2.8992505876468857,216.43237822608333,-233.39535909200436,-44.08600461426188,282.9006825168953,331.86513172191394
615,48.33504719689121,-281.30327366337764,-5.231742656829316,222.83408635167373,-227.01903217132087,-62.081841012368685,286.24069440855897,344.3770479818621
616,49.11295078639918,-284.0591633070651,-8.104527907099666,228.01342336474136,-219.7656327385203,-81.54909621723205,289.650456828247,357.7764883920196
617,49.89324201768836,-286.73565935754135,-11.507146045993618,231.91592823203797,-211.59585268575273,-102.3836368091678,293.0913478137988,371.95624835487916
618,50.649845566582236,-289.2885142388161,-15.418145378148436,234.5141729518147,-202.49635515763256,-124.44739438982656,296.5186675833403,386.7961954897881
619,51.35197731958788,-291.6704006569738,-19.80522629269998,235.80783411946007,-192.48447973855738,-147.56814240182493,299.88224753956456,402.16527475951796
620,51.96488169391441,-293.83185899040785,-24.625712300304873,235.8227580325783,-181.61228544978815,-171.5402412420626,303.1273365387679,417.92350666282294
621,52.4508532153793,-295.72245125895057,-29.82733930059789,234.6090535200022,-169.96968659222736,-196.1264259095524,306.1957662047411,433.9239441574143
622,52.77052102419887,-297.29210437611727,-35.349339692741054,232.23830483457152,-157.68644825352337,-221.06067675348672,309.02738168091645,450.0145791373698
623,52.88435926633328,-298.4926101398251,-41.12378502422208,228.80005275334545,-144.93282978408232,-246.05217320534908,311.5617062047311,466.0402106231556
624,52.754372023772135,-299.2792333695239,-47.07713996060641,224.39773994878593,-131.91869464020434,-270.7902841164812,313.73978869264886,481.84429915544666
625,52.34588915453196,-299.612364633092,-53.13197220452467,219.14435179822,-118.8909433187693,-294.95049898779445,315.5061652314339,497.27083202188686
626,51.62939936354866,-299.4591421087215,-59.208758406495946,213.15800174547462,-106.12917380118292,-318.2011554716247,316.81085023999066,512.1662119263871
627,50.58233897271764,-298.79496004483957,-65.2277255786648,206.55770708465118,-93.93953381867698,-340.21077379790586,317.61126308988395,526.3811612253301
628,49.19074935449524,-297.6047802845957,-71.11067062595674,199.45957373487795,-82.64680494290562,-360.65577126635674,317.8739925470644,539.7726114943156
629,47.450713602603386,-295.88416905435577,-76.78270595889008,191.97355795917196,-72.58485201788453,-379.2283016221936,317.5763051694131,552.205530942118
630,45.36948504851876,-293.63999360647114,-82.17388500038116,184.20090598190058,-64.08568034023989,-395.6439464120754,316.7073146795112,563.5546340629115
631,42.96622795563395,-290.89073135501087,-87.22066649925937,176.23230227886478,-57.4674587627555,-409.64897980039626,315.2687464334035,573.7059182760969
632,40.272304629773814,-287.6663657958488,-91.86718076571196,168.14669935933915,-53.02197606800692,-421.0269361612131,313.2752526376619,582.5579774964699
633,37.33106270166011,-284.0078660967456,-96.06626516216963,160.01076710553022,-51.00208545426784,-429.60423123260114,310.7542576084712,590.0230492437829
634,34.19710004848881,-279.9662683415725,-99.78024169963953,151.87888983628048,-51.609744847483796,-435.25462106980234,307.74533591650044,596.0277589270041
635,30.935010925498183,-275.6013944177022,-102.98141721700425,143.7936467826546,-54.98527062920277,-437.90232534911934,304.2991480881293,600.5135332084303
636,27.61764360563516,-270.98025889320377,-105.65229637885412,135.78672464137193,-61.19838635969502,-437.5236894659705,300.47597775506864,603.4366657812326
637,24.323925696169166,-266.17522525962056,-107.78550903629257,127.88021806710057,-70.24156873763324,-434.14731122271445,296.3439305513707,604.7680357561778
638,21.13633715231085,-261.26198127155646,-109.38346540645415,120.08826823621592,-82.02607776289855,-427.85261216652884,291.97686867359573,604.4925027720471
639,18.138131841230724,-256.31740922428196,-110.45776381956226,112.41896940522302,-96.3809178703647,-418.7668909126412,287.45216560162237,602.6080332728059
640,15.410425219409746,-251.4174308828209,-111.02838516372172,104.87644288028687,-113.05482458550296,-407.0609554487722,282.84837240708885,599.1246452318387
641,13.029276854655265,-246.63490810174764,-111.12271466491806,97.46294558879113,-131.72121982127354,-392.9434913852825,278.2428896578292,594.0632875946976
642,11.06290064218005,-242.03767848232349,-110.77443497069454,90.1808565837212,-151.98593921726896,-376.6543799832876,273.7097367555498,587.4547892236085
643,9.5691316634673,-237.68680027911444,-110.02233499323756,83.03437753978912,-173.39741491798918,-358.4572293554628,269.31750376785817,579.3390153867394
644,8.593266745247066,-233.63507207609874,-108.90907727649744,76.03079667755904,-195.45890173455703,-338.63142010693207,265.1275601891872,569.7643559926656
645,8.166376799387477,-229.92588071620892,-107.47996348360175,69.18119899253264,-217.6422656288986,-317.46398897696776,261.19258165356973,558.7876397946703
646,8.30416440006231,-226.59241590659,-105.7817335792679,62.50055484278213,-239.4028102557424,-295.2416781243889,257.5554403202891,546.4745256851515
647,9.006411600231228,-223.6572722688213,-103.86142994794109,56.007177185616996,-260.1945973447366,-272.2434628455224,254.24848802889127,532.9003700536826
648,10.257032817421573,-221.1324402623755,-101.76535339048007,49.72159735520879,-279.485716566483,-248.73383807599262,251.29324387192233,518.1515124674913
649,12.02471789908743,-219.0196678715224,-99.53813366932668,43.66496277022042,-296.7729771054884,-224.9570970038981,248.7004801929363,502.3268654194645
650,14.264123184915354,-217.3111568879199,-97.22193272662214,37.85710134351798,-311.5955245841168,-201.13277741402797,246.47068388911595,485.53964299081923
651,16.917545138631738,-215.99054246468253,-94.85579363149616,32.314422989920686,-323.5469326609381,-177.4523871402647,244.59485404687283,467.9190240479697
652,19.916992992938546,-215.03409343070177,-92.47514271205945,27.04783736914743,-332.28537857607057,-154.0774532341191,243.05558329141263,449.6115237703109
653,23.18656412985726,-214.4120643428152,-90.11144629042977,22.060859798330252,-337.54158580151994,-131.13887390827276,241.82835976298406,430.7818468383
654,26.64501823756261,-214.09012864575215,-87.79201706044404,17.348056597667924,-339.1243034797224,-108.73749149142259,240.88302005128452,411.6130177213291
655,30.208443135373944,-214.0308253797949,-85.53995869057387,12.893950577291298,-336.923189075312,-86.94575175762387,240.18528107515263,392.3056266594417
656,33.79290625013391,-214.19495911790426,-83.37423130202001,8.672471042968416,-330.90906407659304,-65.81027282732116,239.69828089801052,373.0760903061871
657,37.31699085103722,-214.54290340571063,-81.30981588931283,4.646994538520735,-321.131618018636,-45.355117444697,239.38406459362784,354.153898006735
658,40.704124975390826,-215.03577059748972,-79.35795320791051,0.7709858409529493,-307.714738064719,-25.58554700416385,239.20496070446183,335.7778916089352
659,43.88462314733476,-215.63642391460627,-77.52643237959121,-3.010784149319071,-290.8497341074197,-6.492034388911484,239.1248052207857,318.1917014648514
660,46.7973762211415,-216.31031917042958,-75.81990621888731,-6.760494730732423,-270.7868074820247,11.945675456312541,239.10998193665174,301.63852716441966
661,49.39114256004563,-217.02617286350068,-74.24021362822818,-10.54507944213525,-247.82517057750417,29.754645271351617,239.13025948855272,286.35550274978414
662,51.625413509549425,-217.75645995390468,-72.78669393381598,-14.433668895649877,-222.302261932395,46.96512216967815,239.15941585172317,272.5679181210878
663,53.470846639455935,-218.47774888715117,-71.45648326165761,-18.49477689788832,-194.58251540266687,63.60733114311815,239.175650354389,260.4835778470872
664,54.90928031199785,-219.17088387827937,-70.24478827375954,-22.793344025628254,-165.04613281879358,79.7087662377329,239.16179122707814,250.28756389553521
665,55.933361589122185,-219.82102578802937,-69.14513700369831,-27.387758696188353,-134.07827890296198,95.29202182255493,239.10531320693767,242.13763036577754
666,56.545835179860866,-220.4175637475295,-68.14960969418597,-32.326977648154994,-102.05906832507266,110.37317102510961,238.99818474255642,236.1604004592471
667,56.75855315785959,-220.9539104349175,-67.24905448207878,-37.64786561708387,-69.3546521040764,124.9606681493114,238.83656797257106,232.448467827508
668,56.59127307922312,-221.42719469603057,-66.43329371061441,-43.37286817843646,-36.30963913530514,139.05472818051038,238.62039696251475,231.05843795173234
669,56.07031576573766,-221.8378659875131,-65.69132669327193,-49.50812264204718,-3.241013244082417,152.64712029102745,238.35286074726505,232.00989019762295
670,55.227153410418396,-222.18922589366184,-65.01153397573782,-56.04209958036774,29.56636907919681,165.72130404144644,238.03981769645605,235.28520231146817
671,54.096994011859266,-222.4869027846705,-64.38188663762827,-62.9448516458606,61.86268687187075,178.25283644922774,237.68916685704664,240.83015623019799
672,52.717420005352714,-222.73828658530883,-63.79016206677086,-70.16792623171624,93.43452096340184,190.2099841032693,237.3102005173944,248.55523443429172
673,51.127128293668,-222.95194160844818,-63.22416513833007,-77.64497403441582,124.10478757623264,201.55448522534562,236.91296056395532,258.337516134153
674,49.36480688024938,-223.13701643394253,-62.67195123508463,-85.29305707009178,153.73139567734967,212.24242002494736,236.50761952726484,270.0230888709628
675,47.46817114529726,-223.30267071724538,-62.122045533875394,-93.01462826873724,182.2048206945058,222.22516193884033,236.1039056526534,283.4299004334246
676,45.47317143826069,-223.45753923251175,-61.5636517381889,-100.70012226021703,209.4448119551995,231.45039551209803,235.71058970565574,298.3509853980556
677,43.413373709732134,-223.609252949518,-60.986842962954924,-108.23106586735017,235.39646446999458,239.8631970800171,235.33504916995946,314.55800768225816
678,41.31950668550674,-223.76403524951317,-60.38272773716575,-115.48358994815521,260.02588804587,247.4071809702448,234.98292279480034,331.8050639886344
679,39.21916274698738,-223.92638851402108,-59.74358511265693,-122.33220422254772,283.31569939693753,254.02571641799176,234.65786514658063,349.8326931289482
680,37.136635282256215,-224.09888244928317,-59.06296457671688,-128.6536855293021,305.26054752828287,259.6632191755788,234.36140707651327,368.3720342584739
681,35.09287273931347,-224.2820508982257,-58.33574859342675,-134.33092841254802,325.86286075589857,264.26651755039234,234.09292399327455,387.149074526022
682,33.10552874925263,-224.47439887661957,-57.558177841585675,-139.25661453402498,345.1289764990201,267.78628592676534,233.84970972307056,405.8889244309556
683,31.18908821650816,-224.67251651336204,-56.727841369165205,-143.33657249163963,363.06578353254326,270.1785302540666,233.62714978144732,424.3200574067932
684,29.355050851777595,-224.87129179287908,-55.843635753056574,-146.4927198259413,379.67797220950547,271.4061002167538,233.41898425213182,442.17844871863645
685,27.612155844415337,-225.0642097286378,-54.90569863018888,-148.66550170349225,394.96595329634573,271.44019288407566,233.21764723851095,459.21154781481306
686,25.96663385286559,-225.24372202485182,-53.91532231270955,-149.81576357186736,408.92447265557934,270.261803771514,233.01466704762294,475.1820182055718
687,24.42247499355316,-225.4016685572411,-52.87485256162749,-149.9260162519359,421.54191872309497,267.86307445428264,232.80110897882648,489.87118016271586
688,22.981703926976362,-225.52973021912055,-51.78757638736802,-149.00107071379665,432.80029341733103,264.24848185441107,232.56804100550633,503.08209434205594
689,21.64465536902417,-225.61989188582368,-50.65760159535974,-147.06803622856444,442.6757949225654,259.4358135114038,232.30700195159105,514.6422289690136
690,20.410245227452595,-225.66489447587608,-49.48973008593181,-144.17569009990413,451.1399425096148,253.45687575641395,232.0104520819818,524.4056594961419
691,19.276233986091082,-225.65865630869368,-48.28932668662765,-140.39324024484668,458.16115909119145,246.35788777261428,231.67218733172365,532.2547576663366
692,18.239480043048594,-225.59664606192945,-47.06218540726508,-135.8085141685205,463.70671675965497,238.19952399418352,231.2877005738832,538.1013369849037
693,17.29618163913027,-225.47619243369843,-45.81439525873638,-130.52562026363992,467.7449444857291,229.0565800510977,230.85447617932314,541.8872342001296
694,16.442106813912375,-225.29671892040164,-44.55220789711278,-124.66214078049538,470.24759557693835,219.0172529811383,230.37220742015023,543.5843216416387
695,15.672811353047445,-225.0598957379972,-43.28190914671278,-118.3459306632465,471.19227492519724,208.1820433972598,229.8429297784546,543.1939623320528
696,14.98384482844885,-224.76970463404572,-42.009695979420435,-111.71161211425037,470.5648315316517,196.6623038095909,229.27106674456104,540.745936897936
697,14.370944621578099,-224.43241596750352,-40.74156005829919,-104.89686953187959,468.361629213453,184.57847158274652,228.66338809763295,536.2968864741192
698,13.830217371307493,-224.05648086493383,-39.48317870144228,-98.038661159545,464.59161699097683,172.05803601776998,228.0288839039247,529.9283276162556
699,13.358306669902456,-223.65234441621348,-38.2398140503804,-91.26947044624029,459.2781300523187,159.23329653662327,227.37856046775292,521.7443032355598
700,12.952545036774723,-223.23218858373212,-37.01622117364982,-84.7137205871091,452.4603623207948,146.23897323795273,226.72516703483942,511.86873808449894
701,12.611087206888389,-222.80961556561246,-35.8165657179361,-78.4844697616483,444.19446255510576,133.2097328653316,226.0828639636862,500.44256917981266
702,12.333020650276374,-222.39928372614852,-34.64435157424421,-72.6804929020069,434.554217623827,120.27769335401646,225.46684431039387,487.6207217465325
703,12.118448245987818,-222.01650906913216,-33.502358947950405,-67.38383975891657,423.6312990587206,107.5699694417959,224.8929215260091,473.56900068073975
704,11.968537532754528,-221.67684585687422,-32.39259330958471,-62.65794017807111,411.53506200160626,95.20632088751285,224.37709654907943,458.46096667972995
705,11.885531154773185,-221.39566047160454,-31.31624600640585,-58.54630725653141,398.3918988377958,83.29696374561976,223.9351181079585,442.4748651403714
706,11.87271388842589,-221.18771282303805,-30.27366779081281,-55.0718684227933,384.3441626171139,71.94060368824042,223.58205036020988,425.7906743691789
707,11.934332717626843,-221.06675937444828,-29.264357094529466,-52.23693411112966,369.5486871947128,61.222748214197125,223.33186191188864,408.58733709257433
708,12.075467729317234,-221.0451912838106,-28.286965476586428,-50.023793961812444,354.17494131457164,51.2143513183312,223.19704985499502,391.04023520688264
709,12.30185314941029,-221.1337204383843,-27.33932315071741,-48.395911597497985,338.4028621332912,41.970839294063076,223.18831191830597,373.3189617313062
710,12.619649559310348,-221.34112534097733,-26.418487636888642,-47.29967116299761,322.4204195532934,33.53155930380106,223.3142791497317,355.58543569080126
711,13.035170110270311,-221.67406773994566,-25.52081830383486,-46.666612178911876,306.4209659220032,25.919682854982664,223.5813205754312,337.99239498464055
712,13.554565383603022,-222.13698936191082,-24.642079024871357,-46.41607416650127,290.6004260457314,19.142584274898553,223.99342981414847,320.6822892441694
713,14.183473442475794,-222.73209588590026,-23.777570514760132,-46.458159355729805,275.1543802314908,13.192699798725412,224.55220147018858,303.78657962346233
714,14.92664350115397,-223.45943229018317,-22.92229311027863,-46.69691104054759,260.27508873010345,8.048856312698897,225.25690217671396,287.4254361459632
715,15.787543377993185,-224.31704999595834,-22.07113968541498,-47.0335972949051,246.14850032174874,3.678040759797708,226.10463747510337,271.70780668229185
716,16.767962363123445,-225.30126201848728,-21.219117080685567,-47.36998537406371,232.9512817779628,0.03756266227378893,227.09061147777072,256.7318159831116
717,17.867622160471086,-226.40697787487633,-20.361593021289025,-47.611491771972055,220.84789942336454,-2.92245564232317,228.20847173083894,242.58543949162328
718,19.083809115428448,-227.62810563092702,-19.49456410468167,-47.670097024502844,209.98777980605325,-5.256342259287955,229.4507272183166,229.3473858726432
719,20.411041179383417,-228.95800451682248,-18.61493905602568,-47.46692307385521,200.50257432230103,-7.019986201637619,230.80922336307398,217.08811521103314
720,21.84078318612009,-230.38996817502738,-17.72083002702441,-46.93438407378324,192.5035531414438,-8.267897123384978,232.27565436619125,205.87091737372208
721,23.36122408475511,-231.9177159062891,-16.811843254696218,-46.01783829096215,186.07915714802704,-9.050320225942045,233.8420903756731,195.75297737879157
722,24.957129717073748,-233.53586737702113,-15.889359080040109,-44.67668842420982,181.29274242204875,-9.410511688209093,235.5014949221798,186.7863613851056
723,26.60978432949174,-235.24037533522386,-14.956790446567043,-42.88489938908148,178.18055895072533,-9.382275473299527,237.2482069953111,179.0188670910057
724,28.29703300585071,-237.02889114344697,-14.01980872064132,-40.630925635254776,176.75001244120807,-8.987854576015295,239.07836223541378,172.4946945746155
725,29.993435505081496,-238.90103949866287,-13.086525901405677,-37.91706361386843,176.97826403979778,-8.236259369140152,240.99022908901958,167.25490662288442
726,31.670539642730336,-240.85858154310378,-12.167622823372247,-34.75826820112157,178.81122658894816,-7.122103188916944,242.9844383862608,163.33766031305814
727,33.29727935763653,-242.9054494305245,-11.276413774538256,-31.180493670460926,182.16301729293193,-5.625000893497384,245.06408840071265,160.7782032362515
728,34.84049894875131,-245.04763993396364,-10.428839233035442,-27.2186391374012,186.91592518282593,-3.709569872560669,247.2347116969807,159.60863782175437
729,36.2656008456243,-247.29295965643254,-9.643380290074626,-22.914194375492034,192.92094772203166,-1.326055011317251,249.50409477854004,159.85746562635526
730,37.5373099861844,-249.65061989923325,-8.94089059916299,-18.31269377604706,199.99894458439817,1.588420161887651,251.8819467953771,161.5489303571528
731,38.620543573738175,-252.13068535184848,-8.344343931519568,-13.46109336212887,207.9424483658824,5.1079937922528895,254.37941944169074,164.70218407477194
732,39.481370635892475,-254.74338735736458,-7.8784972634866435,-8.40518770331647,216.5181619360508,9.315634779310694,257.0084865104569,169.33030578455467
733,40.08804132512807,-257.49831921941455,-7.569470853747336,-3.18718020257121,225.47016033750316,14.30019652841918,259.78119801517914,175.43920577448822
734,40.412061310812675,-260.40353743122637,-7.444248484140453,2.156488085079236,234.52380150308304,20.15302814235149,262.70882995205415,183.02645282316016
735,40.429282123003134,-263.46459846632854,-7.530103384426236,7.596958387672548,243.3903343514065,26.964230458262396,265.800956344561,192.08006478282178
736,40.12097423350929,-266.6835656400855,-7.853958359400673,13.114345680518928,251.7721747226858,34.818656515248506,269.0644749858822,202.57730574642642
737,39.47484626759562,-270.05802441669067,-8.441692016397354,18.69864171555353,259.36879882789964,43.791765749195434,272.5026221703628,214.48353447156217
738,38.48597117940628,-273.5801473197728,-9.317406552099195,24.350087394425827,265.88318025128734,53.94544860485449,276.11401460961497,227.7511482955253
739,37.1575786107541,-277.23585121805354,-10.50267628066023,30.078989507830624,271.0286702250983,65.32394362156711,279.89175858471026,242.31866396524293
740,35.50167218751666,-281.00409016332236,-12.015799909095682,35.904973215648866,274.5361925279266,77.94997277195009,283.8226671747848,258.1099716432886
741,33.53943147550123,-284.8563262234384,-13.871083110849101,41.85567728416426,276.16159516999556,91.82122323021672,287.88662620111404,275.03379144515856
742,31.30136100775524,-288.7562189455262,-16.07818054898513,47.96491455531024,275.69297280195224,106.90730486760809,292.0561483985504,292.98335428659135
743,28.827153466504818,-292.65957106647977,-18.641527553981003,54.2703360474438,272.9577487066566,123.1473122706401,296.2961531425507,311.8363218782642
744,26.165240966444546,-296.51456346940586,-21.55989086304595,60.810654091529734,267.8292856610421,140.44811717637327,300.5640054584785,331.4549556617424
745,23.37201754509927,-300.26230575576545,-24.826065062873994,67.62249843909525,260.2327831358068,158.68351073922472,304.8098426335511,351.6865422943025
746,20.51072735168187,-303.8377199676251,-28.426736554858262,74.7369995397559,250.15021613621886,177.69430356080932,308.9772093263999,372.3640844491371
747,17.6500263766453,-307.17076393647534,-32.34252993136951,82.17621513904574,237.624079848824,197.2894735263348,313.00401253487155,393.307270159063
748,14.86224042375687,-310.18798749006623,-36.54824270591017,89.94953972150678,222.75972485503252,217.24842606750613,316.8237960436077,414.3237410796589
749,12.22135778107573,-312.814399441773,-41.01326376370493,98.05026041875942,205.72609990539758,237.3243978166443,320.36731997542944,435.2106885164205
750,9.800811030028056,-314.9756062925174,-45.702159556431965,106.45244624832952,186.75476201408372,257.2489926143108,323.56441500489177,455.7568134215162
751,7.671117934777901,-316.6001656039929,-50.57540126649222,115.10837714108882,166.13706475407406,276.7377891099707,326.34606323559814,475.74468922099476
752,5.89746539837686,-317.62207901385847,-55.590197355123394,123.94673113144027,144.2194921787809,295.49690329975294,328.64663961022933,494.953560081984
753,4.537331642598596,-317.9833329579953,-60.70139036214621,132.8717473573259,121.39716472470177,313.23032998173045,330.40623019717776,513.162588594846
754,3.6382485081814835,-317.6363806891026,-65.86237546417868,141.76356354377933,98.10560227942162,329.64782835853003,331.57292837681126,530.154534835186
755,3.2358068699110247,-316.54644889814693,-71.02600141366793,150.4798839251198,74.81088687322043,344.47306423848545,332.1049989576136,545.7198063621892
756,3.3520028891887583,-314.6935481928999,-76.1454214598314,158.85906350036086,51.998422831505145,357.45168047537794,331.9727959190437,559.6607727905781
757,3.994010883222979,-312.0740707448177,-81.17487120457474,166.72459816764612,30.160546039582645,368.3589440363303,331.1603237255144,571.7961974121273
758,5.153450358893355,-308.70187173587254,-86.07036012200409,173.89089580385505,9.783286492387749,377.0066164737529,329.66634587637805,581.9656078342695
759,6.806191710066031,-304.60875363291626,-90.79027188572438,180.1700861654911,-8.667360750022015,383.24871630340664,327.5049668971996,590.0334094583903
760,8.912719585251585,-299.8443020212602,-95.29587461017677,185.37952676371708,-24.759252854858747,386.9858860165267,324.70564309437697,595.8925392333663
761,11.419047475659092,-294.4750559004214,-99.55174535673945,189.34959449349384,-38.10755858183065,388.1681404242313,321.3126099315457,599.4674629371768
762,14.258153530787583,-288.5830308971016,-103.52611412028294,191.93132813026884,-48.3873810226784,386.79585282714896,317.3837466621999,600.7163397891699
763,17.351887031520306,-282.2636479854924,-107.1911317071001,193.00350488100517,-55.34504962276508,382.91892614155813,312.9889291930161,599.632215770005
764,20.61327760490081,-275.6231507114632,-110.52306446508837,192.4787872335137,-58.80759617998176,376.6341912688834,308.20794807733,596.2431606870425
765,23.949164914788405,-268.7756188228233,-113.50241784891094,190.30865200322,-58.689967642685325,368.08116733570927,303.1280887466156,590.6113288477173
766,27.263055028284114,-261.8397042959876,-116.11399096788307,186.4868981315272,-54.999597788696775,357.4364009216249,297.8414847038165,582.8309920477673
767,30.45810122921029,-254.93522607016314,-118.34686547559282,181.0516116828487,-47.838058281913284,344.90666866620006,292.44236077787707,573.0256595076784
768,33.44010236823286,-248.1797619506485,-120.19433382635451,174.0855378981574,-37.39963193707198,330.7213764022036,287.02428248360206,561.3444570139213
769,36.12041142808686,-241.68537053931723,-121.65377345306052,165.7148682736729,-23.966789759928528,315.1245163751312,281.6775196816107,547.9579828808203
770,38.418650931176295,-235.5555638354959,-122.72647448128517,156.1064969330802,-7.902699459913453,298.3665511427459,276.48661949440697,533.0538880187647
771,40.26513990000979,-229.88263380130778,-123.41742909268923,145.4638392346913,10.358963479914971,280.69657814184046,271.5282665645275,516.8324378351707
772,41.60294904701317,-224.74541525385243,-123.73509057160311,134.0213414656509,30.32650126992036,262.35509385368994,266.86948999368656,499.50230159839975
773,42.38951637060322,-220.20754454009412,-123.6911093655243,122.03784728907844,51.464468999430515,243.56762428975895,262.56625722943585,481.27677870361623
