time,ax,ay,az,gx,gy,gz,accmagnitude,gccmagnitude
0,3.824594678570981,-243.77936405949507,-47.90430788997555,50.39292256875485,-2.8076101123205395,-10.542856638825327,248.46865558014636,43.21887498861062
1,3.6138935714535876,-243.38717494858463,-47.581786609410074,49.23738827704128,-1.5262532987587654,-10.516918755929092,248.0213810665112,42.179399158195395
2,3.414299566776985,-242.99606492261964,-47.27393509853608,47.945041978752606,-0.11903261769545238,-10.472234090287532,247.57801497756657,41.23325656413804
3,3.229987094422966,-242.60677822303708,-46.98274920033341,46.49606897373128,1.419105975631485,-10.400337992745852,247.13971923842786,40.394455427858155
4,3.0648401023967984,-242.22043171872042,-46.7098746270655,44.87186744955754,3.091461301448787,-10.292300256849822,246.70795724702597,39.676770843150116
5,2.9223536697069976,-241.83856157824326,-46.45655923894202,43.055668138641465,4.8992307756965685,-10.13889653217402,246.28452972535325,39.09350401660913
6,2.8055433182901433,-241.46315542831633,-46.223616202376604,41.03313615183851,6.8411720997737815,-9.930799157783675,245.87159831698312,38.657202668536556
7,2.716864489301244,-241.096667770609,-46.01139972870956,38.79293600889306,8.91328426848385,-9.658784217081022,245.47169507966603,38.37934535699162
8,2.6581447987006914,-240.74201706553,-45.819794679645504,36.32724114318211,11.108520778724039,-9.313951051253516,245.0877165723677,38.2699951067623
9,2.6305318818842243,-240.40256350625276,-45.64822085752252,33.63217005060909,13.416549051445992,-8.887949954020938,244.72290175672168,38.33743056178373
10,2.6344596660090214,-240.08206691855247,-45.495652214917925,30.70813291705643,15.823570739742403,-8.373213348017506,244.38079323213637,38.58776592681145
11,2.669635574372288,-239.78462444601425,-45.36065051578616,27.56007498793845,18.31221758560267,-7.763185423657897,244.06518141321064,39.024574050276804
12,2.73505042922581,-239.51458795558256,-45.24141224445213,24.197605980679814,20.861536649901424,-7.052544959830243,243.78003138884606,39.64852979931282
13,2.8290118385161085,-239.27646170050969,-45.13582694829024,20.635008285659627,23.447077024501986,-6.237415781267919,243.52939267539858,40.45709303486754
14,2.949200859471608,-239.07478179198256,-45.04154484320922,16.891120371479783,26.041087601676107,-5.315559009739542,243.31729300024762,41.444251703180974
15,3.0927508030491473,-238.9139803172889,-44.95605141195741,12.989095546147826,28.61283226567997,-4.2865409412680355,243.14761849138006,42.600345575542526
16,3.256346063830418,-238.79823826132926,-44.87674676165712,8.95603989842184,31.129025179092327,-3.1518700476795227,243.02398394493363,43.91198983115364
17,3.436337803310459,-238.73133248910966,-44.801027497189175,4.822536781140504,33.554384864887275,-1.9150962951772823,242.94959791663734,45.36211494040376
18,3.6288724197142583,-238.7164827392463,-44.726368674413024,0.6220685924915718,35.85230166751123,-0.5818657937497739,242.9271280227797,46.93013522379551
19,3.83002824757016,-238.75620486483152,-44.650403047880985,-3.609650103580959,37.98560893504159,0.8400761153175728,242.95857204864194,48.592253154360776
20,4.035955777483563,-238.85217663190147,-44.57099452836488,-7.835410871324309,39.91744386408876,2.340939746636225,243.04514047419343,50.32190009260385
21,4.243016601322125,-239.00512239387066,-44.486302738504804,-12.017300786734896,41.61217940209641,3.9090094133866007,243.18715602165182,52.090306913489655
22,4.447916134645734,-239.2147228200143,-44.39483584538383,-16.117519817948377,43.03640405787612,5.530829237953582,243.38397573472687,53.86719028330944
23,4.647825059694138,-239.47955535431774,-44.295489333596784,-20.099200964446542,44.159922230926774,7.191458332213718,243.63394068623913,55.621532752768005
24,4.840484552162912,-239.79707010420864,-44.18756896104433,-23.92720675480089,44.9567441119873,8.874794478608996,243.9343575532101,57.32242806310801
25,5.02429076020278,-240.16360447996016,-44.07079684795921,-27.56887584307483,45.40603171570432,10.563962158893338,244.28151507640754,58.93995783434362
26,5.19835465105313,-240.5744382570438,-43.945300548845,-30.994695085296275,45.49296655575218,12.24175722914529,244.67073697520237,60.446062738632385
27,5.362534222304957,-241.02388888333857,-43.81158599101987,-34.178875573824996,45.20950517954196,13.891136995710317,245.09647127468276,61.81537072495929
28,5.5174372023009886,-241.50544486385596,-43.67049617936559,-37.099815296471434,44.554991366440504,15.495741168250612,245.55241425357454,63.02594680610878
29,5.664393662682101,-242.01193305957327,-43.52315840743502,-39.74043582119518,43.53659810481522,17.040426374685772,246.03166543634734,64.05993290258331
30,5.805399306503439,-242.5357138531602,-43.370923286271804,-42.08838522588702,42.1695781460351,18.511794759609295,246.52690832633337,64.90405167168288
31,5.943031488388471,-243.06889640746476,-43.21529922772188,-44.13610420447857,40.477308574116115,19.898695748580554,247.03060995450898,65.5499546493673
32,6.0803412102728105,-243.60356474464328,-43.057886199956314,-45.88075693141573,38.49112202323539,21.192679476740707,247.53523088924595,65.99440208672856
33,6.2207253539246015,-244.13200427512083,-42.90031264844751,-47.32403298231851,36.249924559926114,22.388380826483157,248.0334362896847,66.23926937927494
34,6.367784224843967,-244.64691788371513,-42.74417937393719,-48.47183145670892,33.79960751799999,23.483814619355016,248.51829805154742,66.29138280605827
35,6.525170099795355,-245.1416208097296,-42.59101379146209,-49.333843371120494,31.19226742634136,24.480565223616694,248.9834781490964,66.16219517470074
36,6.696432886219278,-245.61020430265583,-42.44223733395869,-49.92305317787201,28.485254230765236,25.383857467830634,249.4233838829149,65.86731950409903
37,6.884869157466597,-246.0476593298099,-42.29914783397132,-50.25518454992011,25.7400728947808,26.20250005007565,249.8332868410738,65.42594556077367
38,7.093380624992673,-246.44995344249773,-42.16291756853692,-50.34811887813831,23.021166890639915,26.94869742933589,250.20939896585398,64.86016942253197
39,7.324347434567792,-246.8140562775443,-42.03460639472632,-50.22131677327405,20.394613955304482,27.637731343912925,250.54890121107263,64.19426992024044
40,7.579520474497565,-247.13791197299236,-41.91518822926454,-49.89527290355076,17.926764863159153,28.28751840649074,250.84992279956924,63.45396759228706
41,7.859935278588183,-247.4203597480722,-41.805588227322524,-49.39103263806175,15.682855129292497,28.918055351186478,251.11147181967468,62.66570163909391
42,8.165848404220732,-247.6610067684465,-41.70672748757006,-48.729795413027574,13.725617954161518,29.55076811861598,251.3333205877623,61.855958472154576
43,8.49669573646306,-247.86006004183508,-41.619571979388766,-47.93262491064659,12.11392486949954,30.20778481042919,251.51585171931404,61.050682162530016
44,8.851071267259348,-248.01812636939817,-41.54518262246563,-47.02028048295762,10.901478830083118,30.911155432879937,251.65987310034393,60.274792723142525
45,9.22672456080423,-248.13599117399968,-41.484763837588396,-46.01317810228002,10.135583014038907,31.682043087809706,251.76641176513104,59.55183284681221
46,9.620575173965252,-248.21438821927507,-41.43970806713942,-44.93148271268845,9.856007192075744,32.53991171215172,251.83649788695655,58.903757506316666
47,10.028742480045059,-248.25377280054448,-41.411633560823816,-43.795327405369484,10.093971980904714,33.501734613407706,251.87095061793485,58.3508738200855
48,10.446589433603483,-248.25411099399417,-41.40241237015026,-42.62514854706681,10.871269457177846,34.58124608450247,251.87017746603743,57.91193105868225
49,10.868778807254566,-248.21469710944945,-41.41418536116211,-41.44212001751426,12.199536411654979,35.7882556324867,251.83399844515574,57.60435295431019
50,11.289340455698662,-248.13401065772626,-41.44936129051093,-40.26866418991669,14.079693965580157,37.12804119613301,251.7615054608014,57.444596927904875
51,11.701748271509057,-248.00962280868927,-41.51059757985079,-39.12901236955677,16.5015644023232,38.6008345111167,251.6509661965921,57.448617815108705
52,12.099005642352614,-247.83816036325229,-41.60076133842827,-38.04978329188635,19.443673001311286,40.201408825925085,251.49978002502638,57.63240752533778
53,12.473738403401379,-247.61533278639425,-41.72287031260904,-37.060545221700316,22.8732395875386,41.91877673081403,251.3044912554719,58.01257718958838
54,12.818294589349556,-247.336025088439,-41.8800145777762,-36.19432545278108,26.74636166185099,43.73600403654499,251.06086255677735,58.6069450594586
55,13.124850741239452,-246.99445646972575,-42.07526082404589,-35.48803078841849,31.008388558164494,45.63014433116993,250.76400880177755,59.43509188123032
56,13.385524987601656,-246.58440174368602,-42.311542074908964,-34.982743969557504,35.59448419667739,47.57229784093983,250.40858896269333,60.51884570419196
57,13.592497461575155,-246.0994697170188,-42.591536615465515,-34.723863991466764,40.43037464495552,49.527797321804194,249.98905112382747,61.88266002697307
58,13.738138764701453,-245.5334300223523,-42.91754060455488,-34.761062752183406,45.43327566601903,51.45652274603873,249.4999232208278,63.553852715162876
59,13.815147072952898,-244.88057741860987,-43.29133913983241,-35.14803637410995,50.51299439752212,53.31334538272391,248.93613977830825,65.56267801640159
60,13.816694034626275,-244.13612039818554,-43.71408053761925,-35.942036549142294,55.57319796623131,55.048700430701764,248.2933928105964,67.9422099539557
61,13.736578872304513,-243.29657931544253,-44.18615852582091,-37.20317496229551,60.512840050399554,56.60928571150537,247.56849346070453,70.72802211673742
62,13.569389239391722,-242.36017843500335,-44.707107039283656,-38.993501840069115,65.22773415801686,57.93888219434823,246.75973015949376,73.9576561838822
63,13.310666570101338,-241.3272163069807,-45.27551223919255,-41.37586765127317,69.61225975736761,58.97929034315835,245.8672090929011,77.66987926810998
64,12.957072938723709,-240.20039949939206,-45.88894604642208,-44.41258477292554,73.56118444729637,59.671374364478666,244.8931633266683,81.90373816420382
65,12.506555708993123,-238.98512575225413,-46.543924785381,-48.1639134028129,76.97158210081689,59.95620429838858,243.8422178311223,86.69742665063836
66,11.958505398564736,-237.6897039444361,-47.235895563345075,-52.68640307587812,79.7448233158206,59.77628348037018,242.72159876349392,92.08698990282038
67,11.313901193966451,-236.3254997877538,-47.95925193291566,-58.031127756919616,81.78861056575265,59.0768461694213,241.54127663532861,98.10489762859275
68,10.575437516161909,-234.9069978452423,-48.707379359187854,-64.24185853122535,83.01902625824653,57.80720708392344,240.31403441029767,104.77852453144716
69,9.74762411566524,-233.45177238257034,-49.472730121818614,-71.35322320198416,83.36255759087916,55.92214134410466,239.05545323294876,112.12858292338763
70,8.83685159354202,-231.9803618058073,-50.24692648688661,-79.38890631509494,82.75805774123603,53.38327013754375,237.78381048452007,120.16755747193486
71,7.851414260079137,-230.5160440237866,-51.02089016974805,-88.35994587589353,81.15859875766162,50.160424527164864,236.51988719654864,128.89819588081573
72,6.8014830147345515,-229.08451286389396,-51.784995255784175,-98.26318396074733,78.53316795656644,46.232957336998325,235.2866843973299,138.31211157654718
73,5.699022387647039,-227.71345847437794,-52.529241005260204,-109.07992742729563,74.86815727791274,41.590971036738964,234.10905055877984,148.38855519369815
74,4.557647815127776,-226.43205738248523,-53.24344050913915,-120.77487210602744,70.16859453110645,36.236428034609425,233.01322489416847,159.09341096936888
75,3.392421507944653,-225.2703806232384,-53.91742095105417,-133.29533949867107,64.45906730099296,30.18410885528048,232.02630389310298,170.37847228119412
76,2.2195879207615334,-224.25873118813908,-54.54123107483387,-146.5708694353759,57.7842947403052,23.462383509073845,231.17564120922347,182.18104761024287
77,1.0562527893939975,-223.42692489753028,-55.10535124238149,-160.51320553594653,50.20930942032214,16.11376221368707,230.48819374709643,194.4239440085244
78,-0.07998727827867401,-222.80353151262068,-55.60090125027431,-175.01670259741994,41.81922036269836,8.195193735655945,229.98982937256412,207.0158691570362
79,-1.1714549277189923,-222.41509534417995,-56.01984092028911,-189.95917588222937,32.718538750194014,-0.2219169313097659,229.70461397113615,219.8522845849772
80,-2.200829955263888,-222.2853566900405,-56.3551583004674,-205.20320135220027,23.03005916041729,-9.05199505369839,229.65409748439856,232.81673096926752
81,-3.1516014577145866,-222.43449703869814,-56.60104000350828,-220.59786295362963,12.89330115551167,-18.19590423292057,229.85661994489692,245.78263132061363
82,-4.0085197468139935,-222.87843202195407,-56.75301790707426,-235.98092814087732,2.462528344233855,-27.541886132115426,230.32665936361082,258.6155593244978
83,-4.758033049723479,-223.62817649084008,-56.80808648359402,-251.1814163622155,-8.095625818312564,-36.96683335453884,231.07424360335204,271.1759386589391
84,-5.3886938437960055,-224.68930561212585,-56.76478566571708,-266.02250814974394,-18.60488468602607,-46.33788734773769,232.10444796316682,283.3221158988417
85,-5.891519788828785,-226.06153423091712,-56.623245425330836,-280.32472616842875,-28.882356256357294,-55.5143427900256,233.41699882999245,294.9137264415789
86,-6.26029480889858,-227.73843378394653,-56.38519003663955,-293.90930580276284,-38.741801929279774,-64.34982913275293,235.00600128102167,305.8152520048321
87,-6.491797215493357,-229.70730197256404,-56.05390210177706,-306.60166322580073,-47.997078715827925,-72.69472936405822,236.8598050903861,315.89965189885123
88,-6.58594400232248,-231.94919553910196,-55.63414857846042,-318.2348645004544,-56.4656819677369,-80.39878618324641,238.96101945862705,325.0519401440283
89,-6.545843560815424,-234.43913104557578,-55.132072992088716,-328.6530003671219,-63.97231180087943,-87.31383719522435,241.28668207720722,333.1725773553409
90,-6.3777529543371045,-237.1464526599889,-54.55505948821821,-337.7143773635959,-70.35238387183169,-93.29661406104493,243.80858292174776,340.1805499569858
91,-6.0909403076781246,-240.03535982160528,-53.91157518457554,-345.29444548905997,-75.455404149013,-98.21153633691867,246.4937375724438,346.01601876992254
92,-5.697457387153758,-243.06558159394115,-53.2109973459648,-351.2883940377977,-79.14812813824678,-101.93342937760339,249.3049991407227,350.64243291176035
93,-5.211831566065316,-246.19317888048326,-52.463431364168706,-355.61335874649035,-81.31742800188304,-104.3500973456404,252.2017923841228,354.04802174359133
94,-4.650689657613027,-249.37145083777992,-51.67952461802007,-358.21019372047806,-81.8727962977198,-105.36468706238821,255.14094871283143,356.24659607617207
95,-4.032328235686516,-252.55191805712522,-50.87028015573887,-359.04477023484225,-80.74842263462865,-104.89778595079508,258.07761684367495,357.27760937903037
96,-3.376245965985808,-255.68535252431576,-50.04687282276723,-358.10877186582076,-77.90478922664786,-102.88920716485022,260.9662209859069,357.2054503134502
97,-2.7026533653390143,-258.7228230389427,-49.22046910218677,-355.4199626541261,-73.32974280584469,-99.29942643517691,263.7614367316623,356.11795996183685
98,-2.0319746843245854,-261.61672470317467,-48.402050799262234,-351.02191360321376,-67.03901321270797,-94.11064728274793,266.4191543705639,354.1241911796873
99,-1.3843555652007995,-264.32176225972427,-47.60224194339266,-344.98318397140406,-59.07616281546289,-87.32748312028556,268.8974001861544,351.3514537564546
100,-0.7791888806710927,-266.79585940779987,-46.83113792865523,-337.3959679665654,-49.51196536351098,-78.97725551606077,271.15718837516107,347.94171707096734
101,-0.23466970391236183,-269.0009697164015,-46.09813600913689,-328.374234144196,-38.443227641914056,-69.10991686967685,273.1632795334906,344.04747046429145
102,0.23261130737472077,-270.9037693483003,-45.41176689574707,-318.0514029185247,-25.991082023665495,-57.797612525474996,274.88482615659643,339.8271688997233
103,0.6080285804214347,-272.47621729722835,-44.779528457522446,-306.5776256189185,-12.298792227456406,-45.13390178422583,276.29589111806655,335.440415629742
104,0.8792303881513127,-273.69597478525554,-44.207724441759275,-294.11674476464907,2.4708724134955937,-31.232659511147606,277.3758311879745,331.0430524216478
105,1.0363909440159351,-274.5466813822907,-43.701313504455875,-280.8430279594354,18.138627889321274,-16.226680476503294,278.10954381665636,326.7823393601934
106,1.0724019814626329,-275.0180909213483,-43.26377615906239,-266.937775524515,34.511957162895925,-0.2660077817304861,278.4875811786638,322.79240869437695
107,0.9830008013557394,-275.1060750812706,-42.8970088295383,-252.58590371967554,51.38860306983021,16.483994602524074,278.50614042674914,319.19016970736044
108,0.7668326918533598,-274.8125063409718,-42.60125457968011,-237.97260085874936,68.5601913446255,33.84480632199791,278.1669429285742,316.0718241711149
109,0.4254466679617227,-274.14503478459784,-42.375079219302734,-223.28014324416364,85.81590389792298,51.62713362371234,277.47701785538425,313.5101255606638
110,-0.03677537498362233,-273.11677498405044,-42.215399545730044,-208.6849427336639,102.94612599740255,69.63349130215468,276.448406925045,311.5524816571147
111,-0.6127547257070889,-271.7459198961969,-42.1175677315547,-194.35487958813474,119.74599618039086,87.66096135716016,275.0978074054942,310.2199619306793
112,-1.2929143337924234,-270.05529832526753,-42.07551259825664,-180.44695509559114,136.01879406113562,105.50410161672792,273.44616963583036,309.5072310129272
113,-2.065435318867884,-268.07189102574404,-42.08193500645712,-167.1052804744126,151.57910835317352,122.95797149857196,271.5182633637373,309.3833904853738
114,-2.916565493509662,-265.82631813418385,-42.12855114961591,-154.45940358368975,166.2557351157239,139.82123486118178,269.3422243387825,309.7936754972993
115,-3.830972241046187,-263.3523076695211,-42.20637449668797,-142.62296423310568,179.89426406032584,155.89929209703433,266.9490892283441,310.66192191297085
116,-4.7921305050441365,-260.68615175550383,-42.30602483363804,-131.69266278236606,192.35931821082698,171.00738590978287,264.37232350436784,311.8936944295801
117,-5.782735236127326,-257.8661543346441,-42.41805156846625,-121.74752479415399,203.53641883384273,184.97361840435676,261.647343863447,313.3799464428098
118,-6.785126595675105,-254.9320716772073,-42.533258271786686,-112.84844568179501,213.3334531550568,197.64181215252898,258.81103422561006,315.00106822525123
119,-7.7817156616025445,-251.92454519572817,-42.64301614561566,-105.03800230023066,221.68172718460676,208.8741456678707,255.90125263969907,316.63117125847623
120,-8.755398279438504,-248.88452531985934,-42.73955537069864,-98.3405221133342,228.53659065625425,218.5534948145605,252.95632581089222,318.1424536124162
121,-9.689945004530509,-245.8526857550738,-42.81622472531291,-92.7624039833052,233.87762650411705,226.5854162672227,250.01452869293357,319.40949443159036
122,-10.570355872264074,-242.86882935948324,-42.867711319463105,-88.29268701653183,237.70840413942824,232.89971710228855,247.11354865338265,320.3133349414128
123,-11.383170069155305,-239.9712899016714,-42.89021371562017,-84.90386471436408,240.05580425233526,237.4515655574988,244.2899369054682,320.7452185132857
124,-12.116722343227673,-237.19633773274384,-42.88156317996825,-82.55294053790433,240.96893264423034,240.2221112824478,241.57855384727353,320.60988222879405
125,-12.761340041071076,-234.5776013689428,-42.84128947186539,-81.1827176616042,240.51765104017613,241.2185980842419,239.01201914592713,319.82831558474857
126,-13.30947694499515,-232.1455204263824,-42.77062949727817,-80.7233101279859,238.7907631316162,240.47396726999835,236.6201811699179,318.33992683607306
127,-13.755782543218345,-229.9268475988214,-42.672479168309856,-81.09385513903699,235.89390346647502,238.04596445812712,234.42962301212518,316.10408251867676
128,-14.097107801533985,-227.94421802003785,-42.55129067177241,-82.20439753807841,231.94718458622773,234.01577666589094,232.4632234041575,313.1010097620025
129,-14.332450703278328,-226.21580335841355,-42.412918902958104,-83.9579086473626,227.0826635622619,228.48623910712215,230.73979020923446,309.3320731309387
130,-14.462846729972602,-224.75506555023003,-42.26442205951386,-86.25239362143486,221.441692589423,221.57966196168184,229.27378208302287,304.8194571662395
131,-14.491211131764251,-223.5706214525292,-42.11382242006453,-88.9830353300204,215.1722194924231,213.43533604516324,228.07513059142093,299.6053020193149
132,-14.422141302901164,-222.6662251595348,-41.969834317146805,-92.04431919655916,208.4261028300381,204.20678264074974,227.14917087161504,293.75035230276114
133,-14.261688763190856,-222.04086963199384,-41.841567351387724,-95.33208273196176,201.35650264643272,194.05881669156943,226.49668417529932,287.3321883146385
134,-14.017111090477563,-221.68900406131132,-41.73821389736236,-98.74543569008212,194.11540186869848,183.16449408869036,226.11405073199245,280.44311411870575
135,-13.696614626139507,-221.60085840609202,-41.668730649430785,-102.1885014807953,186.85130523197265,171.70201303487568,225.9935066293648,273.1877788159525
136,-13.309098787692998,-221.76286207513937,-41.64152405107033,-105.57193717417186,179.7071529900989,159.85163667447404,226.12349404057548,265.6806062051324
137,-12.86391218887471,-222.15814005409317,-41.664148915753465,-108.81419758694102,172.81847616492084,147.7926997163599,226.48909038805175,258.0431045211885
138,-12.370629431086433,-222.7670671963059,-41.74302870609212,-111.84251815044303,166.31180935708798,135.70075602786852,227.07249928777148,250.40112276890514
139,-11.838855606100275,-223.5678601245819,-41.88320510497691,-114.59360122725148,160.30336687791578,123.74491751103204,227.85358463331025,242.8821141011823
140,-11.27806358144443,-224.537186077441,-42.088123682476585,-117.01400104977773,154.89797882207674,112.08542730975942,228.81042882581878,235.61246047072694
141,-10.697467204581196,-225.65076869890075,-42.359461487447454,-119.06021325547826,150.18827623059786,100.87150278127854,229.91989653854995,228.71490701910102
142,-10.10593155137453,-226.88397200224043,-42.697001245095315,-120.69848568113756,146.25410910466502,90.23947582092183,231.15818631000187,222.306149709376
143,-9.511919090459145,-228.21234566427734,-43.09855558547234,-121.90437695759742,143.16217796645722,80.31125005530963,232.50135382629517,216.49461555053185
144,-8.923468240250045,-229.61211759087928,-43.55994339969104,-122.66209759505169,140.96585892470966,71.19308607679193,233.92579315459605,211.37847105601372
145,-8.348198639445618,-231.06062316478716,-44.07501899617642,-122.96367380262734,139.70520349137234,62.974717343769825,235.40866526359636,207.0438908162759
146,-7.793335898387406,-232.53666425074329,-44.63575312105502,-122.80797676469606,139.40709711667083,55.728790856702254,236.92826642537318,203.5636137816408
147,-7.265747794351186,-234.02079440832654,-45.23236306050904,-122.19965959365798,140.08556374881655,49.51061864268474,238.46433205787892,200.99580975768362
148,-6.771983815344587,-235.49552962818265,-45.853487194371894,-121.14804134647785,141.74220679418332,44.35821895736509,239.99827406507475,199.38327265172612
149,-6.318310648287515,-236.9454863171994,-46.48639806950123,-119.66597333095852,144.36677885595097,40.29262047445287,241.51335191624977,198.7529503239196
150,-5.910737666020189,-238.3574504650528,-47.11724766878725,-117.76871848792074,147.9378729780104,37.31839900624387,242.99477989123253,199.11581375543
151,-5.555028558152978,-239.7203842263999,-47.73133882155348,-115.47287078359031,152.4237265354394,35.424414711995674,244.42977534432362,200.46706096742318
152,-5.256697614812821,-241.0253785937882,-48.313417078787964,-112.79533879563955,157.78312548819108,34.5847182965455,245.80755543019467,202.78664402280157
153,-5.020991406268436,-242.2655630095478,-48.8479775048305,-109.75241600525639,163.96639191451524,34.75959710250059,247.11929200819102,206.04010069789734
154,-4.8528584509816985,-243.43598408939172,-49.319580609482415,-106.35895910540563,170.9164322970692,35.89673571196197,248.35803580250663,210.1796659759122
155,-4.756910802941589,-244.53346588393717,-49.71317108812866,-102.62769396149383,178.5698188164222,37.932469981607134,249.51862113278673,215.14563224720806
156,-4.737382210775049,-245.55646355227157,-50.01439240738343,-98.56866592287368,186.8578717696695,40.79311761479377,250.59756194892356,220.8679210353776
157,-4.7980875693652685,-246.5049212791613,-50.20989004562586,-94.18884671545936,195.7077088502435,44.39637186755566,251.59294890179913,227.2678235388519
158,-4.942387911093012,-247.3801437130496,-50.2875967528271,-89.4919044419437,205.0432267995788,48.65274749986109,252.50435581777376,234.25986284120202
159,-5.173164300256683,-248.18468797408752,-50.23699452609257,-84.47813685390932,214.78598303585918,53.467069561182,253.332762073413,241.75372786723958
160,-5.49280273684702,-248.92228051061645,-50.049349634456156,-79.14456155861248,224.8559492555232,58.739996074167315,254.08049502732436,249.65622840935708
161,-5.903190654418869,-249.5977601746224,-49.71791823528258,-73.48515048699805,235.17211545258053,64.36956516781557,254.7511940972107,257.8732218413309
162,-6.405724121472904,-250.21704615584545,-49.238120488264876,-67.49118995525019,245.6529308473329,70.25275575358576,255.34979548059155,266.311465192486
163,-7.001323691455161,-250.78712698819925,-48.607680914367016,-61.15174226915246,256.2165772742354,76.28704862605639,255.8825340905753,274.88035068794017
164,-7.6904559657925535,-251.31606480903585,-47.82673276909411,-54.45418057953984,266.7810800824394,82.37197227093057,256.3569572426145,283.49348837782037
165,-8.47315716346847,-251.81300743898268,-46.89788482939989,-47.384766341610224,277.2642710620784,88.41061510713766,256.78194309879876,292.07010590481457
166,-9.349054259636782,-252.2881995988752,-45.826250223115174,-39.92923892053198,287.5836268844035,94.31108371347979,257.16771579295414,300.53624261467974
167,-10.317378607788172,-252.752983673517,-44.61943848957445,-32.073389830929706,297.65601461473227,99.98788493766152,257.5258484499376,308.82572278363574
168,-11.37696648504886,-253.2197798994324,-43.28751354227299,-23.803599384795596,307.39738263357106,105.36320863326596,257.8692449252761,316.88090025532784
169,-12.526240861911136,-253.7020357438751,-41.842921250093916,-15.107320225828534,316.72244048133444,110.36808705732338,258.21209101255056,324.6531737628973
170,-13.763169114265727,-254.21413474247652,-40.30039085828035,-5.973499214555669,325.54437458468027,114.94340671367384,258.5697662766609,332.1032783398538
171,-15.085192531057194,-254.77125641502388,-38.67681449273612,3.60706458929676,333.7746485415185,119.04074880329252,258.9587088437962,339.2013634376561
172,-16.489125377826845,-255.38918104353908,-36.991108487884944,13.641423113510973,341.32293667853486,122.62303567752363,259.39622739618477,345.9268727708313
173,-17.971023865293212,-256.08403572791434,-35.26405907443125,24.134237356555403,348.09723785386007,125.6649629549733,259.90025693610573,352.268244538955
174,-19.52602828336446,-256.87198096272937,-33.518153053823966,35.087581811815376,354.00421267310173,128.15320022121415,260.4890573282712,358.22245333676847
175,-21.148184175475116,-257.76884000500576,-31.777391946786324,46.50078521683489,358.9497810600611,130.0863472402987,261.1808562309489,363.7944163902062
176,-22.8302502973024,-258.7896765211821,-30.06708655588031,58.37029643943615,362.84000824299017,131.47463711058225,261.99344085641616,368.99628643370954
177,-24.56350234884792,-259.94832914949296,-28.41362848920383,70.68956302027442,365.582295748641,132.33938270516177,262.9437058874506,373.8466515438257
178,-26.33754253343828,-261.25691432508955,-26.844235832455887,83.4489084108652,367.0868803579298,132.7121680960259,264.0471674819736,378.36965888824994
179,-28.14012609503165,-262.7253107722807,-25.386671293027423,96.63539263948985,367.2686288783,132.6337925048544,265.31745536161003,382.59407524000795
180,-29.95701696330206,-264.36064043966513,-24.068932377914603,110.23264071107968,366.049100901361,132.1529806488783,266.7657964134838,386.5522930288828
181,-31.771885228374263,-266.1667614311691,-22.918914394122055,124.22062428374467,363.3588363248651,131.32488019178552,268.40050409933843,390.2792875035988
182,-33.56625919279954,-268.1437888371695,-21.9640482336462,138.57538556181035,359.13981008012,130.20937441238078,270.2264884152868,393.8115289561978
183,-35.31954413262304,-270.287659472764,-21.23091602556568,153.26869786115927,353.3479837801747,128.86924607557125,272.2448013528957,397.18585425170903
184,-37.00911862581132,-272.5897564674196,-20.744848951276825,168.26766432913817,345.95587331948104,127.36823650802258,274.4522328759007,400.43830404048634
185,-38.61051735731025,-275.0366093499012,-20.5295129788442,183.53426384474392,336.95504322667284,125.769051528923,276.8409722916933,403.60293565534585
186,-40.097706649942445,-277.60968461874285,-20.60648991441,199.02486014786228,326.35843324867926,124.13137253598447,279.39834943909244,406.7106263632393
187,-41.44345563018405,-280.28528079399666,-20.9948627388057,214.6896960476979,314.2024206290361,122.50993600669675,282.1066693228562,409.78788692615115
188,-42.619802101232644,-283.03454070585957,-21.710815420955235,230.47239895484495,300.54852303439424,120.95274725970334,284.94315278414643,412.85571093035793
189,-43.59860810108683,-285.82359224915496,-22.767258024991722,246.30952719379124,285.48465201960005,119.49949397888172,287.87999446125656,415.9284906924007
190,-44.35219587442185,-288.6138268075832,-24.173487712083112,262.130189013143,269.1258350804313,118.18022143759428,290.8845474402684,419.01303545984445
191,-44.854050575604106,-291.3623218589769,-25.9348950424527,277.8557683891592,251.61433541768557,117.01432455577351,293.9196414315853,422.10773191354144
192,-45.07957153662035,-294.0224109131121,-28.052722902150037,293.3997939184207,233.11911209668116,116.00990206149339,296.94403803821234,425.20189039790336
193,-45.00684964948808,-296.54439999379343,-30.523882774499974,308.6679891497913,213.83457877460398,115.16350541883513,299.91302282935766,428.2753223117918
194,-44.617444686049836,-298.8764254567224,-33.340830553437094,323.55854372107797,193.97863608201203,114.46030025112948,302.7791296652952,431.2981937735236
195,-43.89713358419397,-300.9654431262633,-36.49150232796351,337.96264308226944,173.78997089331563,113.87464131972997,305.4929882115097,434.2311969253611
196,-42.83659924389594,-302.7583335544036,-39.95930988471593,351.76528865404777,153.5246352813838,113.37104448987435,308.0042809143754,437.0260720876735
197,-41.43202950440037,-304.2031026052453,-43.72319583870855,364.846428759173,133.45193921077848,112.90552145335978,310.26279085306516,439.62650086451714
198,-39.685597849302916,-305.2501506290982,-47.757748814161666,377.082403489139,113.84971398105785,112.42722623363451,312.21951687972233,441.9693723414114
199,-37.60580092897158,-305.8535776197066,-52.03337965283921,388.347685143706,94.99902753533753,111.88034751057249,313.82782765740257,443.9864025823664
200,-35.20763292251409,-305.97248665359945,-56.51656014694816,398.5168725414703,77.17845691403227,111.20616827635833,315.0446222156766,445.60606345474423
201,-32.51258268334228,-305.5722443286741,-61.17012617188442,407.4668755860211,60.65804594429153,110.34520495938555,315.8314620676975,446.75575291574023
202,-29.548446169927523,-304.6256552898243,-65.95364710393797,415.0792092503054,45.6930962104327,109.23933266363395,316.1556390676653,447.3641183159085
203,-26.348953683923423,-303.1140082678387,-70.82386286298814,421.2423061997967,32.517955115070784,107.83380222500263,315.99114396061884,447.3634299581379
204,-22.953218768169442,-301.0279531423273,-75.73518879784214,425.8537559729616,21.339975554315334,106.07905877768837,315.3195027216393,446.691896257467
205,-19.405022845649153,-298.36817222879256,-80.6402869693044,428.8223859045865,12.33382722693201,103.93228050071576,314.1304510870283,445.29581527634144
206,-15.751956235263462,-295.14581434701427,-85.49070018838833,430.07011347682356,5.63634021255767,101.35856992082294,312.4224221136969,443.13146967571447
207,-12.044441703460423,-291.3826673413843,-90.23754249963919,429.5335192604098,1.3420573611334268,98.33174809796505,310.2028272217393,440.16669153963534
208,-8.334671121469047,-287.1110534016313,-94.83223682264314,427.1651112933908,-0.5003373819761907,94.83472352738741,307.4881178462876,436.3820476192064
209,-4.675489002012195,-282.37344119638993,-99.22728731957008,422.93427280675985,0.10943628270795033,90.85943169842415,304.30362206195036,431.77162156728025
210,-1.1192584383660449,-277.2217787998173,-103.37707088890691,416.82790322125567,3.1218639073627896,86.4063665729431,300.6831577703469,426.34339518664297
211,2.283254976703483,-271.7165612063181,-107.23862933749608,408.8507755773069,8.437492442516303,81.48374991450122,296.668430976938,420.11925347957475
212,5.483947396082272,-265.9256555792537,-110.77244174425502,399.02564102820145,15.908086105320827,76.1064062227785,292.3082342637622,413.1346565545108
213,8.438358723236247,-259.9229158289681,-113.94315558893035,387.39311244876865,25.33908752484537,70.29442785230012,287.6574665824619,405.43803366012867
214,11.106546986791233,-253.78662515110855,-116.72025533982581,374.01135511597613,36.49334020883943,64.07172498942965,282.7760005889155,397.08995974989466
215,13.453835882137108,-247.59781047431616,-119.0786482651125,358.9556042100078,49.09597971120535,57.464557546164286,277.72742772454694,388.1621729585152
216,15.45142302266367,-241.43847637959217,-120.99914925137779,342.3175186584046,62.84035618972515,50.50014064755935,272.5777142250363,378.73648325640966
217,17.07684305427058,-235.389808171189,-122.46884938597553,324.2043709143649,77.39481289775168,43.205403082528626,267.3938034514591,368.903610296264
218,18.314285654178327,-229.53039460603682,-123.48135685313322,304.73806465075796,92.41011545680333,35.605960417766696,262.2422015496409,358.76197446750007
219,19.15477313439973,-223.93452033757268,-124.03690299662306,284.05396848469013,107.52730673871099,27.72534347600259,257.18758434207246,348.41645179914184
220,19.59620572770454,-218.67057620707223,-124.14231077623822,262.2995544390566,122.3857524099703,19.584500736272588,252.29146318464504,337.97709260092586
221,19.643284698956265,-213.79963196712546,-123.81082685970313,239.6328349399301,136.63114252931035,11.201571921080754,247.61094594631152,327.5577969958881
222,19.30732431446078,-209.3742109458404,-123.06182200218073,216.2206011619364,149.92322421426246,2.5919111938896906,243.19762625880176,317.2749383636071
223,18.60596350162111,-205.43729979960085,-121.92036721683306,192.23647729436735,161.94305786176582,-6.2316768344830225,239.0966299580383,307.2459278483321
224,17.562786922412528,-202.0216190287794,-120.41669575508318,167.85881809442432,172.39961285913157,-15.25853594475878,235.3458424493977,297.5877182805133
225,16.206863580975533,-199.1491714824232,-118.5855632595956,143.26848885019487,181.03554619943824,-24.479645751942492,231.97533476806214,288.41525238042846
226,14.572209506732673,-196.83107694361013,-116.4655206227622,118.64657560051752,187.63203728977132,-33.887052822748814,229.00699959680477,279.83986637412414
227,12.69717989584713,-195.06769151663784,-114.09811599351616,94.17207784357973,192.01258349108159,-43.47329731290607,226.4544017450198,271.96766540049424
228,10.623795557362923,-193.84900138715832,-111.52704398375778,70.01963583445638,194.04569308627342,-53.230879788194855,224.32284089872095,264.8978916017818
229,8.397008667832466,-193.1552719775671,-108.79726145592002,46.35734084874565,193.64644517249866,-63.15180270981434,222.60961810506492,258.72131041588085
230,6.0639137209245835,-192.957925912134,-105.95409032551808,23.344671015491887,190.77691895731363,-73.22720913231436,221.3044917029624,253.5186459695469
231,3.672911187910008,-193.22061684953388,-103.04232847914272,1.1305890157566354,185.445527242163,-83.44712880590461,220.39030343268894,249.35910248600987
232,1.2728337266317034,-193.90046132598394,-100.10539003298405,-20.148167874682304,177.70531921582534,-93.80033025173086,219.8437513186183,246.2990142895961
233,-1.0879524306002022,-194.94938727107169,-97.18449567857884,-40.36857994911913,167.65134446941164,-104.27426741950151,219.63628257660278,244.38067078957206
234,-3.3624554280920345,-196.3155556691212,-94.31793281514729,-59.4225986588929,155.4171918063186,-114.85510200957906,219.73507715828092,243.63136329052818
235,-5.505957171861583,-197.94481083987066,-91.54040353971587,-77.21814594125408,141.1708318997156,-125.52777795311505,220.10409054969338,244.06269685571786
236,-7.4768845478331585,-199.78211504384737,-88.88247627478599,-93.67984952500393,125.10990202744199,-136.27612290903198,220.70512314639913,245.6702029811149
237,-9.237631835066306,-201.7729247177128,-86.37015381243727,-108.74951068578443,107.45657478225498,-147.0829524970269,221.49888311317557,248.4332784526378
238,-10.755313042227659,-203.86446870629615,-84.02456685669682,-122.38630623695786,88.45215208940351,-157.9301557259605,222.44601028554493,252.3154635274754
239,-12.002422614789486,-206.00689331905036,-81.86179782084103,-134.5667297550977,68.3515222712947,-168.79874418592584,223.50803044086481,257.2650593531466
240,-12.957383362662885,-208.15424471323297,-79.89283490312928,-145.28427764943902,47.417611993361575,-179.66885268477157,224.6482121446622,263.2160709373708
241,-13.604962023874918,-210.26526579444612,-78.12365172064831,-154.54888410277675,25.91595680441167,-190.51968482160407,225.8323023838134,270.0894486191656
242,-13.936535888926533,-212.3039923425158,-76.55540346891291,-162.38610639041752,4.109503396165884,-201.32940312679406,227.02912235670132,277.7945886996759
243,-13.950198347551744,-214.24014117565096,-75.18472705301417,-168.83606046595682,-17.74625649450729,-212.07496935799335,228.211011013403,286.2310438211967
244,-13.6506968921869,-216.04929148683107,-74.0041300893834,-173.95210797241913,-39.407736150410784,-222.7319457974808,229.35411093014883,295.2903871601939
245,-13.04920366879109,-217.71286853323883,-73.00245208516046,-177.7993014959556,-60.647220664173794,-233.27427253450387,230.4384983531567,304.8581725917729
246,-12.162925536401392,-219.21794616138467,-72.16538036420292,-180.45260532381764,-81.25630100454853,-243.67403846904222,231.44816620035954,314.81593593683806
247,-11.014567113280409,-220.55689089941487,-71.47600336529369,-181.99492317395004,-101.04874330168462,-253.90126499161306,232.3708750557597,325.0431893247807
248,-9.631665908861077,-221.7268753408804,-70.9153846820554,-182.51498008640243,-119.8627772962404,-263.9237209657279,233.1978924249019,335.4193697488896
249,-8.04582301775368,-222.7292920260936,-70.463142414374,-182.1051201298532,-137.5628016969378,-273.7067859859208,233.92364438559238,345.82571194218735
250,-6.291855773651374,-223.5691007452925,-70.09801985836734,-180.85909230654624,-154.04051529079283,-283.21337642891996,234.5453059509662,356.14702316541366
251,-4.4069002003613535,-224.25414209258264,-69.79843524771074,-178.86990242110352,-169.21549100243902,-292.4039462190239,235.06235691574847,366.27334269994776
252,-2.429491263421204,-224.79444836497353,-69.54300019171619,-176.2278080679739,-183.0352161744574,-301.2365719061823,235.47612887832543,376.1014718478004
253,-0.3986480972179458,-225.20157976667934,-69.31099851202399,-173.01852748696584,-195.47462700085217,-309.6671295623736,235.7893667417748,385.5363615117329
254,1.6470103415131856,-225.4880095923169,-69.08281913017412,-169.32172173457968,-206.53516920013828,-317.64956881539666,236.00582448479096,394.4923445816783
255,3.670096434337496,-225.66657695938838,-68.8403383572224,-165.20979483803347,-216.24342126552574,-325.1362868008329,236.12991065115924,402.8942000830092
256,5.635212753809615,-225.75002017417668,-68.56724839503711,-160.74703998788,-224.6493211260038,-332.0786018905868,236.16639426314927,410.6780359799172
257,7.5096237739013345,-225.75059835635074,-68.24933010598497,-155.98914295844764,-231.82404156945387,-338.427323834579,236.12017712184308,417.7919780602648
258,9.263830050357871,-225.67980382055384,-67.87466905455653,-150.98303810446941,-237.85756393249213,-344.1334134604448,235.9961339654243,424.1966535232022
259,10.87203861480793,-225.54816315446385,-67.43381434480654,-145.7670983036838,-242.8560030325215,-349.14872129706805,235.79901787929694,429.8654596184951
260,12.312526871183845,-225.3651211460721,-66.91987989087819,-140.37162840502387,-246.93873895678325,-353.4267905060773,235.5334248735619,434.78460981061664
261,13.567900213459755,-225.13899881657247,-66.32858765552923,-134.81962196743984,-250.23541308452369,-356.9237055829091,235.20380883208668,438.95295239326435
262,14.625246010034777,-224.87701482180498,-65.6582523220822,-129.12773305533455,-252.8828465325968,-359.5989647808479,234.81453618503318,442.3815592289256
263,15.47618861109309,-224.5853583900247,-64.90970705421518,-123.3074084778633,-255.02193897534738,-361.41635139929303,234.369968728037,445.09308529659944
264,16.116851623366347,-224.26930177486878,-64.08617056330947,-117.36612130614489,-256.79460445201033,-362.3447770866221,233.87456304380257,447.12090298530694
265,16.547734851973022,-223.933340853989,-63.19305656835544,-111.30864420111843,-258.34079840299376,-362.35906922392365,233.33297588639593,448.508018675973
266,16.773514138188013,-223.58135383611895,-62.23772774942993,-105.13830154630601,-259.795686873548,-361.44067449383203,232.75016647297954,449.3057833766012
267,16.802772955653772,-223.2167698298442,-61.229197479304275,-98.8581429836888,-261.28700470260407,-359.57825222444745,232.13148868956236,449.57241434619345
268,16.64767506968279,-222.84274096023984,-60.17778414933284,-92.4719876923599,-262.9326447795388,-356.76813428218315,231.48276850303608,449.37135097453967
269,16.32358778201079,-222.46231342576274,-59.09472486977365,-85.98529811507312,-264.8385154028313,-353.0146332022306,230.81036404716858,448.76947562487527
270,15.848665340684931,-222.07859409976882,-57.99175751726379,-79.40585296470496,-267.0966976155051,-348.3301867056072,230.12120760370735,447.83523831981205
271,15.243402062947164,-221.69490993297538,-56.88068214987813,-72.74420128741173,-269.7839290539774,-342.735334400854,229.4228298662424,446.6367323918159
272,14.530164591197762,-221.31495762792238,-55.77291447128015,-66.01389117066435,-272.9604351050426,-336.25853076999414,228.723367503184,445.239775659211
273,13.732712493927801,-220.94294106159305,-54.67904524690223,-59.231477349969204,-276.6691219258412,-328.9358067806148,228.03155533666273,443.70605740947775
274,12.875716220285575,-220.5836939689087,-53.60842023188004,-52.41632053718145,-280.93513928761166,-320.8102998809539,227.35670464322226,442.09141470158914
275,11.984281243549411,-220.24278565606787,-52.56875498026511,-45.59019717610261,-285.7658144991823,-311.93167804272815,226.70866928519916,440.44430172924046
276,11.083486966415155,-219.92660801502092,-51.56579772266892,-38.776741506664614,-291.15095202736205,-302.3554873914533,226.09780159124884,438.80451296451577
277,10.197948461489228,-219.64244264505993,-50.603051563038086,-32.000742840334446,-297.0634869238041,-292.142454481988,225.53489996775536,437.2022145055757
278,9.351408355933941,-219.39850714184618,-49.68156506320394,-25.287320824342025,-303.4604737574663,-281.3577733641674,225.03114995592674,435.65732867008734
279,8.56636523083362,-219.2039794323182,-48.79979832214765,-18.661001465795078,-310.28438629409004,-270.07040441232647,224.59805981227052,434.17930473021704
280,7.863743884076474,-219.06899851214564,-47.953570090980804,-12.14471802105835,-317.4646964462421,-258.35240687427165,224.2473908217934,432.7672941981994
281,7.262611690537722,-219.00463931558568,-47.136090146280914,-5.758764330666376,-324.91969393788844,-246.27832089497065,223.99108165327578,431.4107328594804
282,6.779944004637443,-219.02285893279438,-46.33807981031174,0.48026616160044305,-332.55850090210197,-233.92460822888964,223.8411652877888,430.09031468968305
283,6.430440096256134,-219.1364111489166,-45.54798205303102,6.560515449103957,-340.283228837809,-221.36915479366095,223.80967652764969,428.7793259358982
284,6.226389683412448,-219.35872647087743,-44.75226109292971,12.475822920445303,-347.9912197886406,-208.6908332762965,223.90854799057243,427.44529207752294
285,6.177588963294881,-219.70375554756018,-43.93578973490858,18.226562057325374,-355.5773100746924,-195.96912056366213,224.1494929156936,426.05187710913316
286,6.29130420054944,-220.18577512790932,-43.08232051180372,23.820297941438923,-362.9360540196955,-183.28376289647355,224.5438739473094,424.56096440765776
287,6.572280217582292,-220.8191572487183,-42.17503389857579,29.27221398601364,-369.9638471546857,-170.71448110720436,225.1025580977555,422.9348418403881
288,7.022790315539994,-221.61810405377926,-41.19715381967294,34.60526292023313,-376.56089324012567,-158.34070873536788,225.8357592327562,421.1384108786043
289,7.642723233488173,-222.59635246349367,-40.13261785578319,39.85000760592404,-382.632966712524,-146.2413568816323,226.75287069461612,419.1413401617351
290,8.42970197298214,-223.76685469753818,-38.96678702263751,45.0441310494345,-388.09293123241014,-134.49460103500712,227.8622919495464,416.92008782581667
291,9.379228909460105,-225.14144212794082,-37.68717747641929,50.231610948944294,-392.861985206251,-123.17768640420336,229.17125409658496,414.45972335401683
292,10.484851589826912,-226.73048091569322,-36.28419394157891,55.46157102493545,-396.87061577030124,-112.36674911676289,230.68564950103223,411.75548796163093
293,11.738343814156684,-228.5425283862666,-34.75184232800163,60.7868379428198,-400.0592531215598,-102.1366507246728,232.40987077458684,408.8140418444512
294,13.129896841672519,-230.58399925332904,-33.088397219602555,66.26224776460427,-402.3786267706973,-92.56082267721567,234.3466639841458,405.65435641829424
295,14.6483157365024,-232.85885070438363,-31.296998865971315,71.94275877265049,-403.7898339568681,-83.71111591622414,236.49700045499839,402.30821960631374
296,16.28121592931553,-235.3682950501748,-29.386154134941844,77.88143776355967,-404.26413795628537,-75.65764874943609,238.85997089639739,398.8203321458678
297,18.01521501615029,-238.11054807393916,-27.370116737099476,84.12739446556874,-403.7825203607992,-68.46864389782942,241.43270480691132,395.24798282974024
298,19.836114719164563,-241.08062035260468,-25.269123969665745,90.7237438072199,-402.3350168083415,-62.21024336482247,244.21031718413047,391.66030078698503
299,21.729067936717744,-244.27015769070022,-23.10947016949053,97.7056785674457,-399.919870502429,-56.94628789754378,247.18588349637204,388.1370937038784
300,23.678726004785567,-247.6673355101621,-20.923400946975015,105.09873538063468,-396.5425426551214,-52.738046654270384,250.35044277270762,384.7672926417584
301,25.669361644844372,-251.25681068906684,-18.748817104086314,112.9173346614241,-392.2146241146287,-49.643882468427705,253.6930276514605,381.64703694008523
302,27.68496351427493,-255.01973301101617,-16.628782873422058,121.16366901153185,-386.9526979336831,-47.718838826430854,257.20071936541774,378.8774462616853
303,29.709298805035598,-258.93381706959565,-14.610839540343171,129.8270044680847,-380.7772080958369,-47.01413619970299,260.85872490985014,376.56214033952045
304,31.725940992495794,-262.97347410093084,-12.746132313494735,138.88344443417907,-373.71139428121387,-47.5765674468214,264.6504729377981,374.8045793024532
305,33.718260624181276,-267.1100017118974,-11.088365256190885,148.29618771458738,-365.7803554113306,-49.44778442039797,268.5577241554777,373.70530729360905
306,35.66937802350911,-271.31182781062097,-9.692606084868478,158.01629048495047,-357.01030461356316,-52.663470564156874,272.56069114232895,373.3591880562993
307,37.562078239884336,-275.5448033430732,-8.613969507373056,167.98391811335978,-347.428074078604,-57.25239712271173,276.6381617507282,373.85272193492784
308,39.37869091595595,-279.7725369651355,-7.906214105709996,178.13004754839335,-337.06091927525836,-63.235363605264894,280.76761985936537,375.26152842670973
309,41.10094124547761,-283.9567638718948,-7.620293127462337,188.37855569708975,-325.9366580069141,-70.62402646626767,284.92535762237617,377.6480669299085
310,42.70978277665687,-288.0577409049847,-7.802903688481699,198.64860517805394,-314.0841614856173,-79.41962393923504,289.0865747061096,381.0596515638263
311,44.18522800668436,-292.0346607918563,-8.495081620018272,208.85721742502668,-301.5341932327943,-89.61161011501814,293.22546230508055,385.52679565100823
312,45.50619786808817,-295.8460798052288,-9.730890224403018,218.92190569202555,-288.3205687781024,-101.1762182014025,297.3152727435563,391.0618999283684
313,46.65041573842892,-299.4503550937001,-11.536250256684381,228.76322838694304,-274.4815864645141,-114.07498168540023,301.3283789240524,397.65827820098923
314,47.594375016011114,-302.80609023510493,-13.92795542148001,238.30711764481148,-260.0616587474426,-128.25325270445808,305.2363315037539,405.28949729023077
315,48.31341109297906,-305.8725899832679,-16.9129125549021,247.48684053222647,-245.11305557139633,-143.63876881597247,309.00992516656,413.90899686751357
316,48.781908099083495,-308.6103274843707,-20.48763837406404,256.24446215937843,-229.69765776835519,-160.14033173435567,312.619288398288,423.4499508327939
317,48.973667292018824,-310.9814291264972,-24.638035126454234,264.53170240183556,-213.8886097006868,-177.64667337839956,316.03401337572797,433.8253364212885
318,48.86245674403582,-312.9501832244432,-29.33945581203794,272.3101114839773,-197.77175715335042,-196.0255943095522,319.2233434411887,444.9281906248931
319,48.42275098981172,-314.48357847785246,-34.557056522236884,279.5505342011817,-181.44675902130967,-215.12346567304115,322.1564346569025,456.63205533453987
320,47.63065544230798,-315.5518762013962,-40.24641993217551,286.23188676128063,-165.0277689564816,-234.76518644682153,324.80270474150205,468.7916409529297
321,46.46499513645195,-316.12921646716836,-46.35442134437288,292.3393309707854,-148.64359369782863,-254.75468197190517,327.13227707341196,481.24376910419124
322,44.90853231363764,-316.19425258104127,-52.820298107865796,297.8619923186578,-132.43724513983443,-274.8760169579314,329.11651956489925,493.80868232186907
323,42.94926380653912,-315.73080125836805,-59.576875903026895,302.79042367008117,-116.56481073696412,-294.8951768160809,330.72866880546155,506.29182476039324
324,40.581737870552814,-314.72848832980816,-66.55190236273833,307.1140553643817,-101.19357177196693,-314.562546256841,331.94452012637146,518.4861960154755
325,37.808321311484,-313.1833627497493,-73.66944031580461,310.81888598147873,-86.49930549285934,-333.6160849259182,332.7431554306088,530.175356088184
326,34.64034167860633,-311.09844602189133,-80.85127913521825,313.88564887961934,-72.66272242588703,-351.78516792996146,333.1076738768521,541.137115101558
327,31.099026396667604,-308.4841807156623,-88.01833173885068,316.28863642332453,-59.86502168374435,-368.79502599239953,333.02588654417315,551.1478842162201
328,27.216161740918622,-305.35874113306346,-95.0919942873878,317.99528307991903,-48.28259867440591,-384.3716872243322,332.49093525422114,559.9876043413609
329,23.034400252678545,-301.7481717297443,-101.995452711809,318.9665145072336,-38.08100951942975,-398.24729160956633,331.5017975427737,567.4451145110477
330,18.60715602547476,-297.68632460585377,-108.65492277233865,319.157781381532,-29.408377747146467,-410.16562195335615,330.0636439337806,573.3237764125439
331,13.998043423702764,-293.2145758928723,-115.00080825490429,318.5206324655411,-22.38851133473201,-419.88767330879534,328.1880198715028,577.4471385930896
332,9.279836027886834,-288.3813113963189,-120.96875728902813,317.0046533211528,-17.114070749990905,-427.1970692433889,325.8928327504678,579.6644072740028
333,4.532948140828019,-283.24118335003953,-126.50059305785079,314.55960654971915,-13.640180320275139,-431.9051300409103,323.20213425402886,579.8554936302118
334,-0.15653052847263535,-277.8541515501231,-131.54509529332196,311.1376467210409,-11.978896557536999,-433.85540628022727,320.1456992499577,577.9354290486584
335,-4.699187515685471,-272.28433269580495,-136.05861388916446,306.6955310099454,-12.094932038092162,-432.9275107539835,316.758414045008,573.8579748841339
336,-9.00494103563674,-266.5986909970063,-140.00550463210288,301.1967869955344,-13.902981662152389,-429.04011039675584,313.0794977884878,567.6182943711772
337,-12.985884834226582,-260.86561072230813,-143.35838720913716,294.61381974398444,-17.266915121083965,-422.15297490373297,309.1515899924843,559.2545957977986
338,-16.559198769268814,-255.1533971940209,-146.09823493566367,286.9299377513026,-22.000994764470992,-412.2680170283177,305.0197434449651,548.8486945740229
339,-19.649991114787106,-249.52875670333418,-148.2143123187319,278.1412562856867,-27.87316249034665,-399.4292985979606,300.7303647200315,536.5254761677065
340,-22.193938686921477,-244.0553077362255,-149.70397993571035,268.2584066694322,-34.610322354502145,-383.72201425126536,296.3301441608787,522.4512717147684
341,-24.13959899409282,-238.79217535800066,-150.57238652870464,257.30795162632177,-41.90543501713105,-365.270500597348,291.86501415596075,506.8311835886708
342,-25.450283942791543,-233.79271721106906,-150.83206659417743,245.33338874921185,-49.426142109295505,-344.23535116189146,287.37916948181356,489.90541993525346
343,-26.105406160122342,-229.10342345658626,-150.50245904889115,232.39562190736177,-56.82455832855275,-320.8097465256239,282.91417739905484,471.94471625731467
344,-26.101235349924156,-224.76302484748086,-149.60935964797,218.57279587155492,-63.747810965113544,-295.215133883104,278.5081991311686,453.2449400301184
345,-25.451031612417122,-220.80183383185826,-148.18431746208958,203.95942118898162,-69.84887385015843,-267.6964100627749,274.1953391334692,434.12099243997267
346,-24.184553547647344,-217.24133385280706,-146.2639843567199,188.66476057079637,-74.79723687704808,-238.51677578044314,270.0051344280098,414.90014051863204
347,-22.34696942975685,-214.09402239484018,-143.88942608969654,172.81049956488147,-78.28897253459041,-207.95243531681675,265.96219299432164,395.91493318608747
348,-19.997227979963835,-211.36350433610616,-141.10540397117109,156.52777747921914,-80.05580429361709,-176.28731384144942,262.08598721519905,377.4958750125293
349,-17.205969613774116,-209.04482418497693,-137.9596364718309,139.95370408635983,-79.87284326763844,-143.80795371595613,258.3908050676286,359.96404989594015
350,-14.053078173365083,-207.12501899025307,-134.5020503644932,123.2275288921946,-77.56473321459082,-110.79873163995578,254.88585773018653,343.62390062427414
351,-10.624986160419523,-205.58386813292034,-130.78403088680733,106.48665884787367,-73.01002341284159,-77.53751183227062,251.57553753589468,328.7563766371872
352,-7.011852825343435,-204.39481179951338,-126.85768010725332,89.86273458778248,-66.14366886804734,-44.29181887552479,248.45981503280765,315.61265916824465
353,-3.3047341541476096,-203.52600666677435,-122.77509226746814,73.47797324523715,-56.95763382982629,-11.315580260130664,245.53475880720714,304.40865975889017
354,0.407142513472288,-202.94148511456467,-118.58765451196224,57.44196783176666,-45.49964547597461,21.153544060687803,242.7931572107343,295.3204659832987
355,4.038897716647329,-202.60238295031291,-114.34538122585728,41.84910085857514,-31.87020892376043,52.89625716354852,240.22521758907183,288.4808793174459
356,7.5122264481971115,-202.46819991786163,-110.09629008573108,26.776686741009563,-16.218052176491913,83.71318185917508,237.8193160936472,283.97715650983486
357,10.75726340190804,-202.4980569704398,-105.88582758357099,12.283908392183312,1.2657801828438837,113.4259322903403,235.5627695136344,281.85002824167543
358,13.714037981815517,-202.6519144248291,-101.75635096221656,-1.5884362228664115,20.354923769260274,141.8777643509656,233.44259972078953,282.09402630023055
359,16.333490910435664,-202.89171597096842,-97.74667221803476,-14.817406990673192,40.79548867897284,168.9338718205078,231.44626146158032,284.65910155378975
360,18.57804506525192,-203.18242549249481,-93.89166833813907,-27.396680841675185,62.31433764310659,194.48139145605657,229.56230568344495,289.4534602006755
361,20.42174309601254,-203.49292700013882,-90.22196058508904,-39.334692371013965,84.62752674048592,218.4291713158769,227.7809535183533,296.34748896621795
362,21.84998261417857,-203.79676261458658,-86.76366469129171,-50.65227056295647,107.44859357387607,240.70734414261833,226.09456032893632,305.1785878131654
363,22.85889562672788,-204.07268915258965,-83.53821336707443,-61.379898299741434,130.496397985247,261.26673379584037,224.4979544744031,315.7566881983547
364,23.45443172362737,-204.30504013117908,-80.56225241707978,-71.55472725472359,153.5022535566089,280.0781094254203,222.98864121159437,327.87021051595406
365,23.651213469038826,-204.4838866415893,-77.84761168678214,-81.2174818209471,176.21613233895053,297.1312908389478,221.56686796052625,341.29220748255443
366,23.4712367410029,-204.60499735289906,-75.40135171407955,-90.4093827139356,198.41177772433477,312.43410040616226,220.23555270368328,355.7864497009444
367,22.942488269965306,-204.6696047040216,-73.22588618789455,-99.16921412112244,219.89061801202382,326.01115259030627,219.00008242544317,371.1132330188107
368,22.09754791654363,-204.6839909014785,-71.31917914943064,-107.53064765517252,240.48443290126866,337.9024722792506,217.8679932136609,387.03472164576385
369,20.972235230964774,-204.6589133432945,-69.67501440242502,-115.5199217513158,260.0567838813806,348.1619376842787,216.84854785107396,403.31968324701705
370,19.604349476325684,-204.60889423520433,-68.28333282711623,-123.15395672716019,278.50327438826776,356.8555523691941,215.9522302461722,419.7475191752642
371,18.03254046000065,-204.55140329106493,-67.13063115219154,-130.4389642301035,295.7507538839939,364.0595629967631,215.19017875174336,436.1115411903193
372,16.295335170793507,-204.50596545563658,-66.2004132565706,-137.3695864391475,311.75561921130173,369.85845302320934,214.57358222340434,452.22149190216254
373,14.430333384204069,-204.49322751521075,-65.47368249839776,-143.9285766977591,326.5013946669508,374.3428558646686,214.11306356528786,467.9053464247668
374,12.47357492352477,-204.5340182590862,-64.92946137046873,-150.08701094074135,339.9957878253778,377.60744209205143,213.81807557671328,483.01046463429884
375,10.459072611428208,-204.64843650848368,-64.54532346374931,-155.8050000221416,352.2674206424425,379.748842456651,213.69633326231087,497.4041852578574
376,8.41849814698658,-204.85499971495796,-64.29792256726205,-161.03285815376566,363.3624252521415,380.8636710177063,213.75330535839836,510.9739642166172
377,6.381003029031895,-205.16988280284914,-64.16350470428502,-165.7126725709775,373.34107275353324,381.04670996770767,213.99178551240456,523.627160751971
378,4.373153118324103,-205.6062725950218,-64.11839072871335,-169.78021355398204,382.27457378626315,380.38931024614504,214.41156034316788,535.2905672845994
379,2.4189534047887795,-206.1738579000931,-64.13941939926309,-173.16712040641926,390.2421551574082,378.9780506198192,215.00918773439736,545.9097647106174
380,0.5399388047324057,-206.87846953671078,-64.20434323188323,-175.8032959852898,397.32848089631614,376.89368387308684,215.7778943875577,555.4483663089482
381,-1.244692876314508,-207.72187846763003,-64.29217163449177,-177.61943836784135,403.62145236600537,374.2103834462561,216.70759700217414,563.8871931195981
382,-2.9179283960315754,-208.70175403527904,-64.38345772345465,-178.54963263857653,409.2103932070442,370.9952884966592,217.78504661428093,571.2234039170197
383,-4.464787267934237,-209.8117783070059,-64.46052674602589,-178.53391905499203,414.18460262214705,367.3083309406628,218.9940908386375,577.4695857420211
384,-5.872187887198821,-211.0419069641378,-64.50764516289802,-177.52074733457576,418.6322453432455,363.20231539025065,220.31604421007737,582.652797795291
385,-7.128845046586314,-212.37876209340658,-64.51113022680225,-175.46922227021196,422.63953797862877,358.723212693202,221.73015259116218,586.8135530459665
386,-8.225208334377,-213.80613777417545,-64.4594004646135,-172.35104510640798,426.29018788405455,353.91062052609965,223.21413384313828,590.0047181563277
387,-9.153447000650123,-215.30559573371136,-64.34296806296081,-168.15205957540238,429.66504034807576,348.79834049618256,224.74477392750342,592.2903127100329
388,-9.907483123680272,-216.85712577905096,-64.15437502282927,-162.87332221385563,432.8418908357744,343.41502059182113,226.29855559407144,593.7441924272052
389,-10.483071304884076,-218.43984426578953,-63.8880761880898,-156.5316339675743,435.8954197914228,337.78481446016474,227.8522959089324,594.4486071725472
390,-10.87791971807817,-220.03270350251705,-63.54027376269729,-149.15949373658532,438.89720720857997,331.92801458086245,229.38376903003143,594.4926322861933
391,-11.091844237753843,-221.61518565862957,-63.10870952901192,-140.80446296729457,441.9157827671504,325.86162455816793,230.8722917492522,593.9704803448643
392,-11.126944648354144,-223.16795629402796,-62.59242246218696,-131.52796121828544,445.0166654652045,319.5998459941119,232.29925119684722,592.9797091988033
393,-10.987789630688322,-224.67345483962328,-61.99148057534853,-121.40354285622473,448.2623454639291,313.15446704273825,233.6485564813126,591.6193503790491
394,-10.681595426436314,-226.1164020969936,-61.306696522090625,-110.5147318935315,451.71216153570674,306.53515180947227,234.9069987747677,589.9879891768728
395,-10.218382005793686,-227.48420812984088,-60.53933689164017,-98.95251334795756,455.4220309904218,299.74964114569707,236.0645075484831,588.1818334758024
396,-9.611090440931878,-228.76726784965652,-59.69083555291712,-86.81259415822936,459.4439956786045,292.8038851157675,237.11429447436737,586.2928125990179
397,-8.87564615294334,-229.95913609512493,-58.7625219521395,-74.19255428873917,463.8255575521182,285.7021347630521,238.05288093005234,584.4067500580887
398,-8.03095470380488,-231.05657896232,-57.75537577290336,-61.18900957497669,468.60878983369054,278.4470252874781,238.8800099393608,582.6016552792283
399,-7.0988195848269156,-232.0595035201796,-56.66981955122812,-47.894902864156634,473.82922436303846,271.03968411042877,239.59844862972764,580.9461792407108
400,-6.103774678073539,-232.97077377374845,-55.50556052544641,-34.39702994808963,479.5145312683993,263.47989561355297,240.21369276867023,579.4982775667011
401,-5.072827590226592,-233.79592652708635,-54.26149215158255,-20.773892598207677,485.68302289007136,255.76635006172418,240.73359035990296,578.3041221507651
402,-4.0351138943883225,-234.54280613541962,-52.935664378047825,-7.09395389110117,492.34202906206804,247.89699812040428,241.16790615576275,577.3972990440889
403,-3.0214663476445054,-235.22114147813002,-51.5253300583709,6.585647596297062,499.48620459450024,239.86952529050836,241.52785276658437,576.7983261914509
404,-2.0639070474323327,-235.84209143869742,-50.02707285844359,20.219886918987083,507.0958410277646,231.68195320028207,241.8256164347635,576.5145192806892
405,-1.1950739250237488,-236.4177865584863,-48.43701958919318,33.77612558156239,515.135262221192,223.3333674531061,242.07390627743337,576.540226781444
406,-0.44759577356842417,-236.96089428170993,-46.75113688878109,47.23386580122726,523.5513860376752,214.82476483409602,242.2855547968104,576.8574454934848
407,0.1465679222631965,-237.48423327335917,-44.96560857094067,60.58400088440421,532.2725317789505,206.16000615392608,242.47319465860974,577.4368153275772
408,0.5568047722401404,-238.000458606225,-43.07728591366337,73.82759311387717,541.2075453313602,197.3468547887982,242.64903212248936,578.238976950165
409,0.7545266751730778,-238.52183423837812,-41.08419888314011,86.9742271851716,550.2453021402138,188.39807501927785,242.824731181911,579.2162593269906
410,0.7138282486142498,-239.0601023892504,-38.986112004910964,100.04000352271271,559.254633658755,179.3325586649938,243.01141473319535,580.3146476020577
411,0.41210909045002414,-239.62645155362176,-36.785104670145564,113.04525107113751,568.0847076445965,170.17644344972697,243.2197803910237,581.4759668779612
412,-0.1693559535423872,-240.23157646718798,-34.48615251348067,126.01205234864467,576.565878383739,160.9641821839696,243.46031946369297,582.6402058975627
413,-1.0449120436688488,-240.8858150052603,-32.09768439861615,138.96168345929672,584.5110109505282,151.7395182890232,243.74361878104807,583.7478974335038
414,-2.2240958310886394,-241.599339500542,-29.632088572932602,151.9120773397542,591.7172745826418,142.55632040523122,244.0807172689741,584.7424697494469
415,-3.711290730321996,-242.38237397939088,-27.106141672729784,164.87541916404234,597.9683940334147,133.47922684036214,244.4834830352872,585.572485544272
416,-5.505470189106219,-243.24540485978915,-24.54133548394045,177.85597851090085,603.0373436953226,124.5840495269912,244.9649727786908,586.1936906593016
417,-7.600029800880973,-244.19935118096015,-21.964078723070035,190.84827405249058,606.6894665119065,115.9578871857493,245.53973400140217,586.5708037359999
418,-9.982706019084782,-245.25566182513288,-19.405754440142392,203.835653938557,608.6859974197703,107.69889885487731,246.22401215000085,586.6789892658753
419,-12.635576791850637,-246.42631151574733,-16.90261749485551,216.78935974023636,608.7879685843026,99.91569227837864,247.0358294338235,586.5049694760202
420,-15.535137937671566,-247.7236742277907,-14.495520487270088,229.66812479967905,606.7604702743774,92.72628735679265,247.99490922356975,586.0477445759672
421,-18.65244865749274,-249.1602613208074,-12.22946056302957,242.41833980883322,602.3772360554835,86.25662344096015,249.12242894271057,585.3189052032359
422,-21.953340164190223,-250.74832149350638,-10.152944053221328,254.97479957691584,595.4255133372403,80.63859106157807,250.4405946088832,584.34253447267
423,-25.398682769916366,-252.49930991999224,-8.317171304835412,267.2620248862241,585.711169766088,76.00758394019195,251.97204109589487,583.1547089522053
424,-28.944708636316633,-254.42324395282506,-6.775050423239105,279.19613149757816,573.0639725761246,72.49958574549177,253.7390730990394,581.8026175178179
425,-32.54338960994299,-256.5279717555302,-5.580055797725122,290.6871944139786,557.3429624093565,70.24782753054009,255.76277189070467,580.3433241412487
426,-36.142871992926956,-258.81838747157803,-4.784954728998036,301.6420298048863,538.4418263003753,69.3790750729123,258.06200152427135,578.8422053855927
427,-39.68797240478307,-261.29563169302463,-4.440432661100518,311.96729081888566,516.2941576334738,70.0096289352431,260.6523547467122,577.3710961665806
428,-43.120740653117956,-263.95631893966987,-4.593654066909559,321.5727490343705,490.8784749282386,72.2411422157054,263.54508331923677,576.0061788119673
429,-46.38109652160543,-266.79183453910326,-5.286801713875958,330.37461324697244,462.2228569757055,76.15637996365433,266.746059624222,574.8256513624137
430,-49.40754761557294,-269.7877417482595,-6.555641556893582,338.2987243892084,430.4090394829061,81.81505870948914,270.25481637713216,573.9072121853732
431,-52.13799494608096,-272.92333647442206,-8.428163545071301,345.2834616716618,395.57580824170964,89.2499135944113,274.06370923482064,573.3254000769058
432,-54.51063177700979,-276.1713821081481,-10.923349941243597,351.2822014291315,357.9215164186846,98.46314377597976,278.15724362796743,573.1488327577501
433,-56.464939321751785,-279.4980513871839,-14.050122102404233,356.26518625994373,317.70554983293187,109.42338412601049,282.51160280999164,573.4373923977648
434,-57.94278006247824,-282.8630962157563,-17.806513749142457,360.22068639830013,275.24856553357284,122.06334305600572,287.09440919890164,574.2394144934242
435,-58.88958576927008,-286.22025992482895,-22.179113247246605,363.15536586768786,230.93133758281866,136.27823322610354,291.86474550445035,575.5889457919772
436,-59.25563274996213,-289.5179393064614,-27.142809111412987,365.09380098399345,185.19206198114057,151.92510472202056,296.77345556581804,577.5031477639865
437,-58.997391362018675,-292.7000956663043,-32.66086175775096,366.0771370244142,138.5220023461806,168.82316976080807,301.7637369672199,579.9799343423141
438,-58.078930157675494,-295.70740506936926,-38.68531068268497,366.16091001168706,91.4594008890678,186.75518454540543,306.77202817405754,582.9959463633294
439,-56.473347119777685,-298.478627978178,-45.15771034648505,365.41210493407084,44.58163582504251,205.46992756158608,311.72918206207305,586.5049802285195
440,-54.164191359289404,-300.95216768951144,-52.010171211029224,363.9055698449038,-1.504324849453637,224.6857840751365,316.5619052507266,590.4370037493812
441,-51.14682855984253,-303.06777545660856,-59.16666622334344,361.71995674030285,-46.17304593638293,244.0954133222954,321.1944286255673,594.6979052034233
442,-47.42969272863234,-304.7683481280248,-66.54454951690862,358.9334118269891,-88.79311618173206,263.37143740085884,325.5503591610599,599.170126873718
443,-43.0353562975513,-306.001752121658,-74.05622534959741,355.6192824552123,-128.7407223962097,282.17304894258046,329.55464766673816,603.7143231814808
444,-38.001341938783874,-306.72259689980723,-81.61090310870271,351.84213413983815,-165.41395104898268,300.1533886949391,333.1355934545679,608.1721457180098
445,-32.38059493039726,-306.89387389805347,-89.11637918867751,347.6543660161181,-198.24740399244695,316.9674957920207,336.22679800245663,612.3701860439352
446,-26.241536853192333,-306.4883754069024,-96.48079724139174,343.0936681238072,-226.72667301266014,332.28058608923794,338.76897802450077,616.1250050782436
447,-19.667631213463252,-305.48981388239656,-103.61435126266291,338.1814800161994,-250.40219561445255,345.77637242179964,340.7115550571326,619.2490611457049
448,-12.756409284794358,-303.89357585595894,-110.43090707559428,332.922500558833,-268.9020147904238,357.1651107769141,342.0139529516391,621.5572404275016
449,-5.617928918561703,-301.707064844434,-116.84952402104832,327.30518637713743,-281.9429890336032,366.1910436140924,342.6465544062881,622.8736141329922
450,1.6273316100186135,-298.94961229278925,-122.79585943783056,321.30308637662534,-289.34004296485546,372.63892013701593,342.5912902948202,623.0380084227593
451,8.851110867783591,-295.6519620632662,-128.2034354674499,314.87681019486007,-291.0131089261026,376.33930537274676,341.84185853148165,621.9119804649381
452,15.920466973398266,-291.8553596665,-133.01474367054007,307.9764241656562,-286.99148075006605,377.17244487672167,340.4035902642619,619.3838451246413
453,22.70125025759521,-287.61029985876746,-137.18216052177073,300.5441004712761,-277.4153789158267,375.07052611299224,338.2929984388586,615.3724833471052
454,29.06182422414227,-282.97500351264546,-140.66864775723408,292.5168959427642,-262.53460928253634,370.0182647506346,335.5370560603195,609.8297715293434
455,34.876892478552904,-278.0137057103483,-143.4482164638209,283.82958736386223,-242.70428438595158,362.0518363795632,332.17225846549337,602.7415853369166
456,40.03127603723779,-272.79484147631234,-145.50614241510254,274.4175259002567,-218.37766596670826,351.25626320850404,328.2435259462162,594.1274377546912
457,44.423481064848275,-267.38921371557194,-146.83893118797712,264.2194880377446,-190.09627907045711,337.76144346826544,323.8030008159755,584.0389001498637
458,47.968902003436554,-261.86822046857776,-147.45404309668908,253.18049553892064,-158.47754079720028,321.737072201003,318.9087873201206,572.5570216817974
459,50.602518737239876,-256.3022066225816,-147.36939801895866,241.25455923129712,-124.2002391544728,303.38674164608886,313.62367466044776,559.7890046061957
460,52.280967993351716,-250.7589901715826,-146.61268742328232,228.40727976000431,-87.98828650244349,282.94152577491434,308.0138741280275,545.864410347005
461,52.983897496823495,-245.30259667147675,-145.22052482897044,214.61822046098757,-50.593252384711484,260.6533474309909,302.1477923590414,530.9311632422399
462,52.714544886008674,-239.99221937798515,-143.23746676941423,199.88295805633533,-12.776244677379314,236.78840104771487,296.0948552750698,515.1515858236093
463,51.499519870278654,-234.88140814985576,-140.71493476391515,184.21471783357117,24.71025182072177,211.62086389314013,289.9243920247168,498.6986443663829
464,49.387805039647965,-230.01747864692572,-137.71006573168896,167.6455111177551,61.13995998365704,185.42708002379283,283.7045852890397,481.7525141075498
465,46.44902564418773,-225.44112518175933,-134.28451475231307,150.22671268809813,95.82922134117466,158.4803493172617,277.50149328797573,464.4975023192297
466,42.77106956921953,-221.18621568146762,-130.50323114896722,132.02904208746662,128.151691659862,131.04640383629976,271.3781491589216,447.1193077105155
467,38.457164310224364,-217.2797450597001,-126.43322721939535,113.14194273601903,157.5508634411592,103.37960866699996,265.3937444527194,429.80255625919676
468,33.62253715185487,-213.74192325988056,-122.14235852533312,93.67238325674201,183.55006478019286,75.71988606953266,259.60290465898873,412.72853998131444
469,28.39079738097334,-210.58637567532256,-117.6981348822788,73.7431334093322,205.75970569809408,48.29033085985211,254.0550652806905,396.07309340911553
470,22.890184874751935,-207.8204359388405,-113.16658143288052,53.49059012327768,223.88166948622987,21.295461351070685,248.79395655052625,380.00456567149126
471,17.249827929262555,-205.44551367770438,-108.611169041007,33.06224595088624,237.7108684344813,-5.079966206781615,243.85720333218472,364.68187592452557
472,11.596145392779347,-203.45752245534356,-104.09183243544102,12.613902437970824,247.1340932382226,-30.671660982190094,239.2760443541238,350.25266945849063
473,6.049515005999719,-201.84735560826857,-99.6640928142683,-7.69326530226745,252.12637881976454,-55.336102234369015,235.07517206562588,336.8516162704782
474,0.7213123111738112,-200.6013998862533,-95.3782989271955,-27.69568857898315,252.7451841856808,-78.95052457048133,231.27269144279182,324.5989105258551
475,-4.288596516006521,-199.70207862067636,-91.27899725258034,-47.23033272135661,249.12273983693453,-101.4126533198439,227.8801934039193,313.599036924494
476,-8.893848068528698,-199.12841752004582,-87.4044382879934,-66.13748718381382,241.45695343894232,-122.64024576032114,224.9029364585174,303.9398681583289
477,-13.023026310274316,-198.85662699128542,-83.78622266023082,-84.26334867728804,230.00128344762442,-142.5704777970355,222.34012884281856,295.69214658076856
478,-16.620548030610642,-198.8606950158128,-80.44908798327727,-101.46234604387264,215.05399195019422,-161.1591991197292,220.18530244914527,288.90938388764033
479,-19.647002015652262,-199.11298421669636,-77.41083515056818,-117.59917479455734,196.94717345100204,-178.38006477616517,218.42676912301758,283.6281871659374
480,-22.078975537162837,-199.58482610416405,-74.68239088964357,-132.5505277195731,176.03592773102457,-194.22353918175406,217.0481492554203,279.86899134514755
481,-23.90841936329128,-200.2471046966897,-72.2680016902373,-146.20652415815604,152.68800480413705,-208.69576099314878,216.02896184036393,277.6371505986017
482,-25.141616424947102,-201.07082079821842,-70.16555232132156,-158.47185291722485,127.27420125897515,-221.81725447668185,215.34526406085436,276.9243178094789
483,-25.797828995003492,-202.0276273008705,-68.36699984494243,-169.26665118023845,100.15973283942239,-233.62147487301044,214.97032695482602,277.7100239079957
484,-25.90770439449196,-203.09032516642375,-66.85891141990962,-178.52714340967123,71.6967508035349,-244.15318127408813,214.87533197687026,279.96335864794696
485,-25.511519844663223,-204.2333092796934,-65.62309162747867,-186.20606087396177,42.21811213142818,-253.46663991541612,215.03007155840479,283.64465149789083
486,-24.657343538558845,-205.43295316482207,-64.63728280703839,-192.27285615680387,12.032458613668762,-261.6236725820807,215.40363531115057,288.70705575312604
487,-23.399182000599573,-206.66792175223534,-63.87592007814262,-196.7137208040441,-18.579390580640908,-268.69157796474843,215.96506263211853,295.0979504972964
488,-21.795174202239856,-207.91940223938053,-63.31092150327899,-199.53141080059999,-49.3667726371876,-274.74096722968045,216.6839425453027,302.7600930806626
489,-19.90588165467895,-209.17124479950223,-62.91249336858644,-200.7448852150082,-80.110318560382,-279.843567758961,217.53094292987296,311.63247813569814
490,-17.792711790236147,-210.41000751837134,-62.64993084327542,-200.38876777634195,-110.6220025731803,-284.0700598941114,218.4782538870132,321.6508857781009
491,-15.516500288322193,-211.6249034309702,-62.49239523767069,-198.5126477308891,-140.74423568324804,-287.48801945793474,219.499933777151,332.7481288324605
492,-13.136267282783168,-212.80765172836203,-62.40965059414354,-195.18024307918287,-170.3481530425959,-290.1600428164555,220.57215118498846,344.85403386886327
493,-10.708153034253954,-213.9522398358933,-62.37274427282727,-190.46845469091465,-199.33125547875193,-292.14213047247296,221.67332140557232,357.8952111719661
494,-8.284530967895027,-215.05460783558632,-62.35461838369106,-184.46634295869003,-227.61456964782124,-293.4823991188608,222.78414164351355,371.7946827750843
495,-5.913290184555363,-216.11227139652675,-62.33064117394188,-177.27405912009888,-255.13948887480643,-294.2201805794155,223.88753469331004,386.47144438664924
496,-3.637275721699271,-217.12390376152916,-62.27904957747211,-169.00176091189277,-281.86444849893707,-294.3855495864525,224.9685161262406,401.84003624925634
497,-1.4938728489640227,-218.08890102673183,-62.18129597224477,-159.7685367701725,-307.7615763395466,-293.99930203053714,226.01400453457143,417.81019041403823
498,0.48527876978268814,-219.00695738578636,-62.022293920148144,-149.70135454402913,-332.8134419127767,-293.0733827929612,227.0125976718431,434.2866090522238
499,2.2744545781880325,-219.87767766084124,-61.790559576001606,-138.93404019183006,-357.010008635518,-291.61173927937784,227.95433893877166,451.16891221866666
500,3.853910559714334,-220.70025300771098,-61.478247782458276,-127.60628020401316,-380.3458728020968,-289.6115549352086,228.83049836213786,468.3517760478926
501,5.209855274542319,-221.47322216815886,-61.08108464488063,-115.86263000981066,-402.81785264048585,-287.06479781845013,229.63339000165922,485.7252656676886
502,6.334337351212077,-222.1943353101424,-60.59820142642167,-103.85150098761923,-424.42297082591585,-283.9600040774169,230.35624378840131,503.1753527091117
503,7.225055307660577,-222.86053076992513,-60.03187765314257,-91.72409219579743,-445.15685467550287,-280.2842060010579,230.9931444678818,520.5845961130686
504,7.885094664424843,-223.4680274172647,-59.387204099333154,-79.63323016895512,-465.01255994697834,-276.0249097682737,231.53904401339892,537.8329572487291
505,8.322595801141999,-224.01252753183005,-58.671678514666404,-67.73208093488816,-483.9798068680325,-271.17202911982116,231.9898470998422,554.7987159123927
506,8.550355252014775,-224.48951767892896,-57.894748229399084,-56.1727020938307,-502.0446011279159,-265.7196873529585,232.3425625517117,571.3594520753387
507,8.585363361043383,-224.8946486872739,-57.067314020615555,-45.104408411406524,-519.1891987978573,-259.6678103324333,232.5955076499659,587.3930588661427
508,8.448282399657595,-225.22417081729878,-56.2012090747178,-34.671931094974525,-535.3923634986362,-253.0234464939505,232.7485472307641,602.7787550466768
509,8.162871199197212,-225.47539670848755,-55.30866594617572,-25.013358450802937,-550.6298575654539,-245.80176501178337,232.8033459047628,617.3980702489664
510,7.755364867758353,-225.64716272924417,-54.401783480531826,-16.257854408874874,-564.8751069650818,-238.02669952611063,232.76360960446172,631.135783496931
511,7.253820979438904,-225.74025887038567,-53.4920051171528,-8.523162641636114,-578.0999819823435,-229.731221459324,232.6352920687826,643.8808046732124
512,6.68744628514375,-225.757798291118,-52.58962013039221,-1.9129192056694984,-590.2756411521809,-220.95724357098584,232.42674282359917,655.5269987647271
513,6.085919946396008,-225.70550016749078,-51.703300199022536,3.48618317270504,-601.373393183067,-211.75517055142825,232.1487758106398,665.9739627451545
514,5.478730164351557,-225.59186379894493,-50.83968472999334,7.607311141151762,-611.3655393953314,-202.18312851066355,231.81464212339193,675.1277734978293
515,4.894540825365503,-225.42821795090367,-50.00302894000389,10.4063913154962,-620.2261664734685,-192.30591851993503,231.43989614524853,682.9017310047043
516,4.360603612885341,-225.2286367275228,-49.194928438059975,11.864872165225853,-627.9318655211847,-182.19375037409935,231.042151283903,689.217123270619
517,3.9022291831293634,-225.0097212725569,-48.41413297089567,11.992200452468394,-634.4623584730952,-171.92082106174541,230.64072889860944,694.0040379271679
518,3.5423286524301,-224.79025472701431,-47.65646024512284,10.827849686715895,-639.8010172485141,-161.5638077401045,230.2562114305161,697.202240666377
519,3.3010339701800366,-224.5907456251719,-46.91481840436684,8.442732936113266,-643.9352650620082,-151.20034713051092,229.90991770497828,698.7621334948451
520,3.195402954107497,-224.4328817491997,-46.179342871518756,4.939839733068364,-646.856853151335,-140.90757217616584,229.62332436426337,698.6457971979902
521,3.2392120255626167,-224.3389218401505,-45.437650050670854,0.45395721468030703,-648.5620095839647,-130.76077262925796,229.4174618995233,696.8281130306302
522,3.442837112725143,-224.33105600650055,-44.67520712029528,-4.849631702615452,-649.0514593142017,-120.83223901985943,229.31231636097468,693.2979488621245
523,3.8132208545318464,-224.43076684165283,-43.875813998613395,-10.777537102113044,-648.3303159752335,-111.19033929977105,229.32626821989186,688.0593850131883
524,4.353922195214701,-224.65822207081138,-43.02219034586934,-17.111750483396268,-646.4078460503121,-101.89886469705849,229.47559791160415,681.132945068575
525,5.065242725723805,-225.03172627749774,-42.0966568612728,-23.61418935456311,-643.2971054887174,-93.0166666360789,229.77408352369957,672.5567873171459
526,5.944422661235066,-225.5672544304919,-41.08189604305642,-30.03219755731223,-639.0144482277102,-84.59759085515039,230.2327104010986,662.3878034835458
527,6.985898124525725,-226.27808401236004,-39.96177323172744,-36.10484734654591,-633.5789063769676,-76.69069907253947,230.85950561521403,650.7025635836515
528,8.18161045712352,-227.17453592479907,-38.72219446560232,-41.569842888774154,-627.011443946617,-69.34075371426367,231.65950271419885,637.5980398452449
529,9.521357518574654,-228.26382747035956,-37.351973750706236,-46.170788276395044,-619.3340905741521,-62.588928130150656,232.63483442970946,623.1920395933907
530,10.993176112745848,-229.55003406924885,-35.84367918818129,-49.6645579214025,-610.5689688312737,-56.47369377571159,233.78494359948098,607.6232775646008
531,12.583743585481908,-231.03415033311967,-34.194425493444804,-51.82849420881679,-600.7372379770271,-51.03182706341122,235.10689591276105,591.0510227644189
532,14.278785248193712,-232.71423600627023,-32.40658011487975,-52.46715723426918,-589.8579877671714,-46.29947197949782,236.59577256982422,573.6542639986087
533,16.06347275686412,-234.58562847742837,-30.48835149013691,-51.418364899879094,-577.9471273353787,-42.31319036979267,238.24511696265014,555.6303518308423
534,17.922797265157566,-236.64120139545258,-28.454230863903238,-48.55828887638033,-565.0163254535566,-39.11093067098551,240.04740736477166,537.1930931681295
535,19.841900596093147,-238.87164850625632,-26.32526325222153,-43.80541218248934,-551.0720687563502,-36.73284857545251,241.99452746621813,518.5702976735394
536,21.806348294489723,-241.26577301226925,-24.129128086464736,-37.12320450877306,-536.1149125084622,-35.22191978702277,244.07820820674397,500.00080121266154
537,23.802330338238786,-243.81076517131095,-21.90001536299403,-28.521426880505974,-520.1390027797513,-34.624294682002166,246.29041733436222,481.73101775377273
538,25.816778247036687,-246.49245404171555,-19.678288671119898,-18.056032403005936,-503.1319485689989,-34.98935587510886,248.6236769888102,464.0110947353734
539,27.837390933035902,-249.29552282941935,-17.50993239381999,-5.827681188842133,-485.07511732815067,-36.369451350376515,251.0712939873906,447.0907661684096
540,29.852565550775655,-252.20368085390143,-15.44578666619423,8.021065818491886,-465.944417552295,-38.819287462731396,253.62749202483568,431.21501186658145
541,31.851233658500743,-255.1997884212148,-13.540580200270805,23.309767231090607,-445.71161746862344,-42.3949774545301,256.2874393751559,416.619639566083
542,33.8226072173617,-258.26593369179886,-11.8517777380286,39.82519110736231,-424.3462292160496,-47.152751888827844,259.04716973219087,403.52690860822497
543,35.75584342946933,-261.38346299832284,-10.438265528879139,57.32729687347843,-401.8179634798987,-53.14734742089666,261.9033976029631,392.1413088821145
544,37.63964219783993,-264.5329681815776,-9.35890459069722,75.5559051272918,-378.09973107629753,-60.430099648057656,264.85323334097995,382.64559703761495
545,39.461795036996314,-267.6942364906378,-8.670987445291235,94.2378314256001,-353.1711366588489,-69.04677455240339,267.893806580227,375.19717453204106
546,41.20870946053188,-270.8461705008403,-8.428639457037395,113.09424773895581,-327.0223771190713,-79.0351814592632,271.02181055787554,369.9248706196747
547,42.8649379944616,-273.9666875074245,-8.681210558102794,131.84803034724584,-299.65842524096536,-90.42261865627397,274.2329837111905,366.92617034126823
548,44.41274561068948,-277.0326101762461,-9.47170650283515,150.23085565043547,-271.10334970047603,-103.22321103717202,277.5215491144128,366.2649056223567
549,45.83175299460398,-280.0195628702329,-10.83531054193336,167.98981569896523,-241.40459735810967,-117.43520747981012,280.87963665863924,367.9694092700221
550,47.09869502725477,-282.90189069539946,-12.798046525023612,184.89334301584108,-210.63704446350772,-133.03831414757732,284.29671694863083,372.0311189325974
551,48.18733356168705,-285.6526205071936,-15.375632857476763,200.73625898271268,-178.90661103598595,-149.99114840435496,287.7590791995323,378.4036121190936
552,49.06856054179188,-288.2434845750997,-18.57257316122184,215.34379090785563,-146.35322818358566,-168.22890632177905,291.249387595264,387.00205448928256
553,49.71072153660241,-290.6450280801675,-22.381523614685502,228.57443910093588,-113.1529521959805,-187.66134435026336,294.7463513564503,397.7030515361878
554,50.08018087522559,-292.8268208855595,-26.782968668192442,240.32161642874314,-79.51903260268568,-208.17118171124338,298.22454293186416,410.34490794084536
555,50.142138031542245,-294.7577918491362,-31.7452262710151,250.51402889983868,-45.70176474551648,-229.61303314840143,301.6543960516801,424.7283186211354
556,49.86169127646041,-296.40670003221993,-37.22479129841632,259.1148167563535,-11.986991283187656,-251.8129804350539,305.0024105373819,440.617539792402
557,49.205129733263476,-297.74275101973564,-43.167012312186564,266.11953050000756,21.306838788267388,-274.56888420471256,308.2315832254659,457.74211518875484
558,48.141419795306774,-298.7363577335052,-49.507083214653896,271.55307301372585,53.8330921401416,-297.6515242766833,311.3020736107974,475.79925830383166
559,46.643837290955325,-299.3600335576108,-56.171318883199426,275.4657935496812,85.22283429352693,-320.80663606971007,314.1720988269395,494.4570106301281
560,44.69168365945801,-299.58939200758414,-63.0786735602767,277.92896635533845,115.09209441826292,-343.75788267370183,316.799036202469,513.3583017122435
561,42.27201351585336,-299.4042129513722,-70.14245363418911,279.02991958385013,143.05037507364426,-366.21076684516225,319.140694518745,532.1260228182026
562,39.38129280270348,-298.7895222827605,-77.27217303685786,278.8670925471599,168.71021818084535,-387.85744541072665,321.15669924556306,550.3691877340649
563,36.0269012919741,-297.7366217395124,-84.37549932503086,277.54528716870436,191.69759202143328,-408.3823619507753,322.8099242684362,567.6901913608831
564,32.22839045636584,-296.2439997883088,-91.36024013218709,275.17134293080574,211.66282190210472,-427.46856470210184,324.06789428375237,583.6930944436114
565,28.018408048667286,-294.3180542334545,-98.13632137963404,271.8504094151443,228.29174777971687,-444.8045286796336,324.9040789279313,597.9927702428221
566,23.443205149126896,-291.97356292071805,-104.61770926683215,267.6829266969618,241.31675549521015,-460.09125809532,325.2990022123769,610.2246576164558
567,18.56265139305977,-289.23385048143933,-110.72422745902055,262.7623625275148,250.52729670296475,-473.0494117286457,325.2410990730297,620.0547858401166
568,13.449700698998393,-286.1306157644718,-116.38321997001158,257.17370526299925,255.77949061126793,-483.4261743873956,324.72726460572574,627.1896788441712
569,8.18927319779595,-282.70340507875767,-121.53101064276407,250.99267689518692,257.0043936337698,-491.0015954715452,323.7630601008738,631.3857169266278
570,2.8765480495582363,-278.9987387671882,-126.11411345255333,244.28560975421163,254.2145360750746,-495.59413245942824,322.36256187782857,632.4575353706847
571,-2.3853057695884536,-275.06892089528736,-130.09015490096533,237.10991776740974,247.5083620167575,-497.06517184386183,320.5478621170558,630.2850709708682
572,-7.487900495842216,-270.97058205432415,-133.42848032644824,229.5150818365015,237.0722714645987,-495.32234931184655,318.34825311993035,624.8189254723884
573,-12.3208108621313,-266.7630219775665,-136.1104290503742,221.54405445385962,223.18005103047784,-490.3215500827285,315.79914562957686,616.0837935353345
574,-16.775046519869804,-262.50643089465586,-138.12927753874737,213.23497055473854,206.1895856249717,-482.0675341988152,312.9407864568992,604.1797947973627
575,-20.746674241151705,-258.26007569543117,-139.4898638044416,204.62303276486605,186.53686074023489,-470.61319534714164,309.8168496307959,589.2816468770391
576,-24.140433064675836,-254.08053861480616,-140.20791898632623,195.7424244602797,164.7273840240341,-456.0575213962268,306.4729780856494,571.6357110165629
577,-26.87317829426694,-250.0200920868869,-140.30914265447035,186.62809809155164,141.32526802269854,-438.54237736743437,302.9553495827875,551.5550283192556
578,-28.87699240531323,-246.12528390519336,-139.82806642176413,177.31729203624386,116.94031691153542,-418.24827533520664,299.3093319969666,529.4125379848949
579,-30.10181288618742,-242.43579274541446,-138.80675564559286,167.85064748479138,92.21354397876368,-395.38932976545135,295.5782809223027,505.6327269392787
580,-30.517448329285056,-238.98359685730946,-137.29340137268835,158.2728261872088,67.80160989958081,-370.2076201869314,291.8025188106033,480.6820011448388
581,-30.11488339498517,-235.79247988653898,-135.34085441564864,148.6325676935995,44.36071165487778,-342.9671949705844,288.01852140196024,455.05809196277113
582,-28.906808725101023,-232.87787877652008,-133.00515089697126,138.98216774794923,22.530466750799107,-313.94794977439386,284.2583252211686,429.2788168992084
583,-26.9273511258243,-230.24706071468512,-130.344074186665,129.37640428895565,2.918327199286988,-283.4396019209972,280.5491597634288,403.8705053964666
584,-24.23101968729983,-227.89960008397708,-127.41579234412062,119.87098085683515,-13.914975858626713,-251.73595841531287,276.91329940859345,379.35638118837517
585,-20.89092217002292,-225.82811307476598,-124.27760344497236,110.52059617524722,-27.468510057846842,-219.12964220363241,273.3681225135168,356.2451681488779
586,-16.996340285158603,-224.01919750546594,-120.98481411444293,101.37678032303567,-37.31236608338544,-185.90740140251637,269.92635804337675,335.02016118891436
587,-12.649780147175573,-222.4545188250528,-117.5897697405864,92.48565919398969,-43.09673489898445,-152.34608317115007,266.5964933532667,316.12898081534485
588,-7.963633768121249,-221.1119803646381,-114.14104842120109,83.88581734528229,-44.5586343924893,-118.70931129603694,263.3833105321239,299.9742107358836
589,-3.056598700113004,-219.96691659741902,-110.68282459545348,75.60642374556788,-41.526173963721064,-85.24486737307568,260.2885135947305,286.9051019110566
590,1.9499936368650794,-218.99325224479384,-107.25440246114495,67.66576606355673,-33.920335347729726,-52.18274188630475,257.31140549409474,277.2105120838137
591,6.935793974106016,-218.16457717419055,-103.88991389614206,60.07030913944431,-21.754331819592448,-19.733795083245894,254.4495731423594,271.1132347878769
592,11.78485845765203,-217.45509660126726,-100.61817091276394,52.81435499677374,-5.130683288300156,11.911050616256498,251.69954073201262,268.7658535027569
593,16.388757558164944,-216.84042738763,-97.46265866901712,45.88033827607962,15.763790016757996,42.58117450340674,249.05735653748155,270.24823197028155
594,20.649269361420725,-216.29822338230832,-94.44165177240406,39.23974565732304,40.664798635986585,72.12626693859993,246.51908567087855,275.56671733552463
595,24.48058009299365,-215.8086249088901,-91.56843437469405,32.85460429279739,69.23894131427977,100.416067564377,244.0811904413828,284.65508570858964
596,27.810941378935787,-215.35453874839095,-88.85160372957029,26.679446046140395,101.09326144842072,127.33990430545268,241.7407902780306,297.37719940026705
597,30.583761452748156,-214.92176445872616,-86.29543749384406,20.663624463314367,135.78565980390715,152.80608980302415,239.49580358782964,313.53127580047965
598,32.75813469919939,-214.4989898894791,-83.9003068450201,14.753842072569183,172.83581888155896,176.74121477305567,237.34498326953818,332.8555988485133
599,34.30883905760438,-214.07768284783089,-81.66312015925789,8.896737997765529,211.73630526774286,199.08936076526035,235.28786488268457,355.0354456768485
600,35.22585256547639,-213.65190701444118,-79.57778520135072,3.0413900562432237,251.9635388060218,219.81123984280262,233.32465105620972,379.7109604639957
601,35.51345756990101,-213.21808878947553,-77.63568104367907,-2.8583995509534796,292.9883498799446,238.8832573308519,231.45605739563712,406.4856871833037
602,35.1890129460219,-212.77475843964237,-75.82613368554051,-8.842142218634788,334.28588658657196,256.2964868847597,229.6831440515503,434.93547160981615
603,34.28148051393095,-212.32228447353498,-74.13689111583115,-14.941102279506865,375.34467983631623,272.0555449295547,228.0071537112069,464.61745769808846
604,32.82979179971394,-211.86261527410238,-72.5545941458269,-21.177182993266005,415.67472386368377,286.1773537247998,226.42937178895605,495.0789305980537
605,30.88113602461066,-211.39903717962355,-71.06523886410568,-27.562272306004324,454.8144795390081,298.6897882202865,224.95101884809455,525.8657942064227
606,28.48924087146143,-210.93595380488262,-69.65462543644963,-34.09803226836744,492.336755510056,309.63021052328247,223.57317958954397,556.5305114013269
607,25.71270549706406,-210.47868772956124,-68.30878666894843,-40.776091677938446,527.8534650645051,319.04390615401803,222.29676775726725,586.6393764967128
608,22.61343169002667,-210.03330295355894,-67.01438860335246,-47.578583294522105,561.0192926075838,326.9824473194798,221.12252245001892,615.7790290736534
609,19.255185117941114,-209.60644477864494,-65.7590945881733,-54.47895531445834,591.5343314321698,333.50201915690303,220.0510287192803,643.562154005486
610,15.702305251695623,-209.2051929542905,-64.53188391838748,-61.44298156694516,619.1457736875097,338.66175416371874,219.0827539323416,669.6323428812925
611,12.018570681048146,-208.83692394666602,-63.32331639666178,-68.42989569354772,643.6487448436113,342.5221267232966,218.2180911192662,693.6681167593728
612,8.2662168611926,-208.5091789650109,-62.12573506713213,-75.3935807695209,664.886379876454,345.1434628672939,217.45740129640407,715.3861295441202
613,4.5050963026199184,-208.22953567214455,-60.93340089076778,-82.28375648306186,682.7492383711128,346.5846197169692,216.8010483183458,734.543585877344
614,0.7919669140484751,-208.0054828968297,-59.74255527720247,-89.04711981142957,697.1741520393565,346.9018844038528,216.24942174633568,750.939917873423
615,-2.820107619822293,-207.8442987363042,-58.55140908475059,-95.62841066755044,708.1425917121901,346.14813402124537,215.80294509635263,764.4177717626675
616,-6.282261260808553,-207.75293300889433,-57.36005969307518,-101.97138979043875,715.6786323273484,344.3722868887528,215.46206837376505,774.8633588400263
617,-9.550246632438567,-207.73789521831196,-56.17034070333489,-108.01973064787816,719.8465842522513,341.6190619242884,215.2272450056699,782.2062252798328
618,-12.584784073549153,-207.8051492832796,-54.985611441769535,-113.71783846455786,720.7483479673774,337.929048170698,215.09889427640002,786.4184926861233
619,-15.35184517244646,-207.96001642010975,-53.810495529410005,-119.01161586968058,718.5205374384478,333.3390714802446,215.0773512117684,787.5136162967816
620,-17.822873273221433,-208.2070877274223,-52.65057920282191,-123.84919498435042,713.3314064856759,327.88283081842286,215.16280648314006,785.5447015147648
621,-19.97494016851105,-208.55014815920487,-51.512080797894804,-128.18165015744367,705.3776032253473,321.5917632510478,215.3552392789985,780.6024130734675
622,-21.79083608267707,-208.99211368358294,-50.40150289277814,-131.96369527687162,694.8807709995498,314.4960851284786,215.65434628905638,772.8125057424982
623,-23.2590894049438,-209.53498348900007,-49.32527812852975,-135.15435664166023,682.0840104066971,306.62594821162065,216.05947003326494,762.3330018808078
624,-24.373913412797584,-210.17980901781243,-48.28941884871478,-137.7175991444677,667.2482159938633,298.01264449588064,216.5695297327577,749.3510399391234
625,-25.135079042144135,-210.9266813025195,-47.29917974359694,-139.62287250299056,650.6483025750719,288.6897928820924,217.18295776146405,734.0794195579713
626,-25.547715092178933,-211.77473759454125,-46.358741969907555,-140.8455379263801,632.569339553862,278.69444443946526,217.89764451572555,716.7528732081165
627,-25.62203965006174,-212.72218772943444,-45.47092677188574,-141.36713569637195,613.3026164270024,268.0680499584676,218.71089436953773,697.6241009616766
628,-25.37302860805952,-213.7663601969303,-44.636946210286,-141.17546113599698,593.1416681305959,256.8572428145792,219.61939526260218,676.9596132733312
629,-24.820028625293546,-214.90376757354105,-43.85619803317913,-140.26442921130072,572.3782945110545,245.11440115020622,220.61920439609187,655.035435856172
630,-23.986322670646963,-216.13019078900612,-43.12611109659351,-138.63372434118193,551.2986136318706,232.89796557406137,221.70575244415073,632.1327401310338
631,-22.898656541134745,-217.44078143796875,-42.44204731300991,-136.2882493955143,530.1791936280099,220.27250149697076,222.87386850055228,608.533471521229
632,-21.58673472935598,-218.83018084343746,-41.797265932780796,-133.23740420945452,509.2833121360401,207.30850824359237,224.11782754170994,584.5160551997716
633,-20.082693855570355,-220.2926538542849,-41.18295577814855,-129.49423754357443,488.8573956575786,194.0819894865741,225.4314214824972,560.3512639183939
634,-18.420561594736203,-221.8222345894966,-40.5883405301604,-125.07452590914959,469.1276932198193,180.67381061715798,226.80805403215572,536.2983344515249
635,-16.635708580100136,-223.41288073991245,-40.00086123409859,-119.99583712807822,450.29723906857015,167.16887773653391,228.24085871127846,512.6014173508339
636,-14.764300158213686,-225.05863278178632,-39.406438860356516,-114.27663575536462,432.5431577090049,153.6551796062822,229.7228387539079,489.4864389480512
637,-12.842754206687685,-226.75377456968823,-38.789817921210215,-107.93548229856053,416.01436144699073,140.22273807805465,231.24702721540368,467.1584452365149
638,-10.907210700056645,-228.49299209989263,-38.134989636881095,-100.99036983554109,400.8296858084532,126.9625144213411,232.80666527984346,445.7994850689471
639,-8.993018547795796,-230.27152756387952,-37.42568998072164,-93.45823155552003,387.0765018881715,113.96531877802582,234.39539633614197,425.5670756410614
640,-7.134245573249485,-232.0853259754072,-36.64596436360722,-85.35464206447851,374.80983681830475,101.32076781816461,236.00747275645253,406.5932769617468
641,-5.363218257178707,-233.93117152169955,-35.780787107988154,-76.69372473428824,364.0520242361746,89.11633171338084,237.63797138486646,388.9843843996806
642,-3.7100986680003687,-235.80681032809392,-34.81672053171077,-67.488267243651,354.792896107214,77.43650602968464,239.2830125266069,372.82122998995345
643,-2.202506383136765,-237.71105566223594,-33.74259556499574,-57.75003775650257,346.9905159328495,66.3621373058105,240.93997585047046,358.16006463875345
644,-0.8651928222876412,-239.64387097226708,-32.55019333553249,-47.49028481059846,340.57244175334597,55.96992305183535,242.60770531261718,345.0339753883731
645,0.28022588612479193,-241.6064257352736,-31.23490504628688,-36.72039500154115,335.43749590301104,46.33209772604287,244.28669417248435,333.45477516693336
646,1.2154735106134433,-243.60111884355175,-29.796345916034017,-25.452674340938877,331.45800757293927,37.516306010544284,245.9792404003247,323.41528758509065
647,1.9257545022345142,-245.63156394941734,-28.23889826500666,-13.701212440124081,328.4824843142129,29.585653605354143,247.68956210018914,314.8919370637044
648,2.399832709337921,-247.70253067477256,-26.572159180131354,-1.4827840918215822,326.33866016515213,22.598914144541432,249.423861876174,307.84754560386375
649,2.6300529333343534,-249.81983495934116,-24.811269527799357,11.182259393245191,324.8368614811087,16.61085921605478,251.19032843606882,302.2342323276115
650,2.612313179778575,-251.9901713620347,-22.977103241477824,24.269156963467857,323.7736269114054,11.67266746397266,252.99906341255513,297.99631063409316
651,2.3459977392088818,-254.22088023566218,-21.096298690896923,37.74800948533164,322.9355153042629,7.832359050476766,254.86192174793524,295.07308032273284
652,1.833882510851297,-256.51964372140293,-19.201117538422594,51.583201081083224,322.1030346659594,5.135194106000944,256.792255378239,293.40141821878626
653,1.0820241366239356,-258.89410664587695,-17.329120876677113,65.73301198024548,321.05462671118846,3.623969053835686,258.80455256775144,292.9180805689277
654,0.09964358346819807,-261.35142167421475,-15.52265761846991,80.14946002233029,319.57064493265216,3.3391437431683477,260.913969120341,293.5616434388059
655,-1.1009870733975948,-263.8977223866712,-13.82816585562777,94.77840045308093,317.43726920367095,4.31873589019072,263.1357527221517,295.27402296842354
656,-2.5046485828238017,-266.53753309591633,-12.295293898471769,109.55990253908503,314.4503062886545,6.5979278167512145,265.4845676112652,298.0015348835082
657,-4.093266364902981,-269.27312986974727,-10.975853872784976,124.42890667382657,310.41883274100337,10.208343898929183,267.9737332836791,301.6954712651259
658,-5.845991190057813,-272.1038729192833,-9.92262728514008,139.31614779120437,305.1686438217127,15.176975065095718,270.61439761196146,306.31219124035687
659,-7.739273450871731,-275.02553577830975,-9.188048921232944,154.14931140916767,298.54547843240425,21.5247482020292,273.4146711034924,311.8127398434465
660,-9.746939253373471,-278.0296611727095,-8.82280237395737,168.85436921737983,290.41799476288145,29.26476206115575,276.3787546380637,318.1620247201556
661,-11.840279144075442,-281.10297690555876,-8.874366679960248,183.35702365130993,280.6804736933878,38.40023550853171,279.506097553328,325.32759281140704
662,-13.988161809072174,-284.22690714930826,-9.385558426243456,197.58417715229024,269.2552265341607,48.92223695356764,282.79062601849205,333.27805837060055
663,-16.157185675714185,-287.37721485559405,-10.393117048125232,211.46533330352992,256.0946803481263,60.8072839124288,286.2200828604183,341.9812399502464
664,-18.31188129745058,-290.523809312628,-11.926382779795048,224.93383478301317,241.1831081863139,74.01491766016368,289.7755191446636,351.4020681639808
665,-20.414977015538636,-293.6307492095694,-14.006116715869137,237.92784757947058,224.5379637939866,88.48536901917151,293.43097488792955,361.50032927003633
666,-22.427739953898506,-296.65646613267216,-16.643510521451454,250.39101219173625,206.21077191725857,104.13743725829657,297.15338151830844,372.2283132650524
667,-24.31040400245075,-299.5542265604138,-19.839429241672004,262.27270018270457,186.28751790673684,120.86670504033683,300.90271243866465,383.5284404682437
668,-26.022695762066885,-302.27284248193547,-23.583924157226072,273.52783776619765,164.8884758043694,138.5442088481871,304.63240058803615,395.3309484231138
669,-27.524467786041026,-304.75763195215745,-27.856043649037545,284.1162861279726,142.16741435665227,157.0156768757501,308.29003338326396,407.55173170888906
670,-28.776445166056995,-306.9516212989689,-32.623958812523355,294.00179984558184,118.31012672549099,176.1014353091395,311.8183258511687,420.09044058531623
671,-29.741086200275653,-308.79697034512765,-37.845407551555304,303.1506188504744,93.53224245424536,195.59706917660301,315.1563620781148,432.82895910316756
672,-30.383550558546528,-310.2365909392818,-43.46844667925762,311.5297843861921,68.07629880240191,215.27490509203278,318.24108327488807,445.6303973397792
673,-30.6727592951811,-311.2159173707653,-49.43248701341173,319.1053034066228,42.208071239854625,234.8863597243436,321.00898778908487,458.33874287489743
674,-30.582520696975024,-311.684775109443,-55.66957284386801,325.84031602607075,16.212187479148046,254.16516931216321,323.3979945334982,470.7793197926977
675,-30.092684953899344,-311.5992824243687,-62.105856105231496,331.69344292835154,-9.612926297096564,272.83148197920036,325.3494073242182,482.7601948882066
676,-29.190279974287268,-310.9237088961085,-68.66320874454848,336.6174988669698,-34.96069609969865,290.5967565005293,326.8099049244202,494.07464562801897
677,-27.870571642719245,-309.6322069215077,-75.26091505448383,340.5587492975608,-59.52255737983432,307.1693698241662,327.7334717934161,504.5047592729927
678,-26.1379858878338,-307.71032825880775,-81.8173888084171,343.45685651149125,-82.99451176912088,322.260793370037,328.0831791209221,513.8261673702852
679,-24.00682825096677,-305.1562387247479,-88.25186644710723,345.2456101765202,-105.08396073177445,335.59215814635076,327.8327259241872,521.8138394600925
680,-21.501739699562453,-301.9815515457855,-94.4860354366907,345.85447064974727,-125.51667735381409,346.900994698246,326.96765676156326,528.2487734456929
681,-18.6578349445656,-298.211714325824,-100.44556441949861,345.2108813390263,-144.04375864262522,355.9479091551862,325.48618630924403,532.9253382644922
682,-15.520480773138848,-293.8859057860619,-106.06150750737139,343.24323946169153,-160.44837822359938,362.5229436104122,323.3995809300928,535.6589565746887
683,-12.144686086664837,-289.0564246814806,-111.27155844426832,339.8843618212467,-174.55213427236396,366.4513692025906,320.73207158009956,536.2937678153123
684,-8.594091782743304,-283.7875819262689,-116.02113189479753,335.07524902403344,-186.2207638112934,367.5986741137105,317.5202984281916,534.709889151972
685,-4.9395668915484165,-278.15413497317627,-120.26425015629358,328.76893860906915,-195.36897848265625,365.8745358046002,313.81231287257015,530.8298947564531
686,-1.2574371265976563,-272.23932824591355,-123.9642157180939,320.93424134271703,-201.9641755139545,361.23560569925036,309.66618517773594,524.6241612770991
687,2.3726072820673614,-266.132623119034,-127.09405440507594,311.55916939655594,-206.02879576488212,353.6869828778146,305.148284427091,516.1147758947677
688,5.869856950829306,-259.9272147532126,-129.63672055629866,300.6538842738212,-207.64113967467557,343.2823083517509,300.3313112254083,505.37776853613536
689,9.155095399864237,-253.7174408491556,-131.58506413888858,288.25301243595464,-206.93450884906417,330.122470197188,295.2921721989433,492.5435067903291
690,12.153176032929565,-247.59618911210106,-132.94156872166556,274.41719709009845,-204.09461058523823,314.3529691408434,290.1097884481791,477.7951762179671
691,14.79555267451985,-241.65240608907186,-133.71787762169245,259.2337776513613,-199.3552389579649,296.16005092177915,284.86292752130214,461.3653560322627
692,17.022649625225114,-235.96880060463874,-133.9341323182277,242.81651708802943,-192.9923243080708,275.7657625849123,279.6281405984485,443.5307872267728
693,18.785961628225646,-230.61982134281558,-133.61815186625304,225.30433392833018,-185.31651940686584,253.4221316693,274.4778745844614,424.6055140699502
694,20.04978513775075,-225.6699715692372,-132.80448453905493,206.85904024014758,-176.66456194171047,229.40469761269864,269.4788144184597,404.93265707265834
695,20.792499081271444,-221.17250589268704,-131.53336369893148,187.66213694442268,-167.38971563093997,204.00564232515492,264.6904958893278,384.87514181837656
696,21.007334986129408,-217.16853546387637,-129.849599471885,167.910768996052,-157.85164210337965,177.52677166763047,260.16421498146474,364.80575843761403
697,20.702601541878263,-213.686550030656,-127.80143663586445,147.8129901577327,-148.4060886100143,150.27259224143853,255.9422470406618,345.0969560382545
698,19.9013555509636,-210.74234857892128,-125.43940752588797,127.58252570705676,-139.39478949038758,122.54370977417025,252.05737803954904,326.11078128530664
699,18.64053779494357,-208.33935555891233,-122.81520688090843,107.43324813094002,-131.1359704761657,94.63074825027898,248.5327408037995,308.18934913018137
700,16.969616882275538,-206.4692874394196,-119.98061345038613,87.57359397298063,-123.91581470483614,66.80895484273164,245.38194098777097,291.6461883726481
701,14.948805359288606,-205.11312470739702,-116.98648076033199,68.20114952514308,-117.98120000124656,39.333616818949444,242.60945050775615,276.7587411514509
702,12.646929406989416,-204.2423372602526,-113.88181657226696,49.49762048323748,-113.53395237397655,12.436375059788261,240.2112396780398,263.7622225195668
703,10.139045798363401,-203.8203061730171,-110.71296723363284,31.62437832184946,-110.72678550601819,-13.677523300728796,238.17561331068214,252.84497330423864
704,7.503907168685721,-203.80388192476704,-107.52291949144185,14.718746366641435,-109.66101538766802,-38.8310314129985,236.48421074331597,244.14537307739607
705,4.8213790144088975,-204.145018311393,-104.35072866273269,-1.108846565100313,-110.38605821641109,-62.876204404837296,235.11312557699088,237.75032263286354
706,2.1699094425742786,-204.79242248272968,-101.23107842133264,-15.776755679991744,-112.90064308201791,-85.69426502590116,234.03409829178634,233.6952559447609
707,-0.37585399867002883,-205.6931648591532,-98.19397375169684,-29.233004020871043,-117.15560305432852,-107.19492834742513,233.21573422109807,231.9655981175274
708,-2.7472165558049007,-206.7941981360503,-95.26456467003139,-41.45515255730168,-123.05805254095029,-127.31509903325988,232.62470087194168,232.49954706190334
709,-4.883287435563019,-208.04374211711655,-92.46309419930319,-52.44918871242717,-130.47671741133203,-146.0170643671381,232.22686246262512,235.19202280643927
710,-6.732476062216279,-209.39250035688565,-89.80496026252075,-62.24750402488253,-139.24815812834757,-163.28630711441815,231.9883157381637,239.89960083927525
711,-8.253597621348058,-210.79468472703633,-87.30087825647286,-70.90606738408515,-149.18361425496087,-179.12905533465613,231.87629908023686,246.4462260341206
712,-9.416570777930502,-212.20883408344756,-84.95712952408137,-78.50093165387582,-160.07619937040357,-193.56967322367356,231.85995577547413,254.62949202008113
713,-10.202708671558296,-213.59842248099312,-82.77588076719607,-85.1242365786832,-171.70818622077866,-206.64798028788664,231.91094116785123,264.2272667578507
714,-10.604621114444253,-214.93226043931472,-80.75556025548886,-90.87988764068994,-183.85814040440297,-218.41656810565541,232.0038715806252,275.00444756340295
715,-10.625760711200439,-216.18469935688748,-78.89127798283813,-95.87909746435801,-196.30768504434343,-228.9381667350277,232.11661980416775,286.7196370500551
716,-10.279657853348228,-217.33565424179375,-77.17527831607433,-100.23597287830013,-208.84770734115673,-238.28309793281326,232.23046731982487,299.1315450970953
717,-9.58889872079773,-218.37046361990855,-75.59741496811151,-104.06331736450075,-221.28384974275912,-246.52684050484467,232.33012727237482,312.0049409547669
718,-8.58390615512504,-219.27960801967956,-74.14563915766878,-107.4687967263895,-233.44116303366928,-253.74772458634246,232.403654676242,325.1160038271086
719,-7.301585371255298,-220.0583100372987,-72.80649244054148,-110.5515874065693,-245.16783512893457,-260.0247665137826,232.4422616613139,338.2569492061958
720,-5.783895080123842,-220.70603988879,-71.5655959004258,-113.39959452659572,-256.33794661983853,-265.43565419540795,232.44005604781594,351.23984085363054
721,-4.076400141065723,-221.22595073363087,-70.40812735185631,-116.0872932293876,-266.8532406557828,-270.0548944034357,232.39372152435368,363.89953318768704
722,-2.2268549257464088,-221.624267912352,-69.31927812534816,-118.6742149409549,-276.6439288603212,-273.9521376917357,232.30215734463485,376.0957241091487
723,-0.2838578217214763,-221.9096554858496,-68.28468094659239,-121.20407181109903,-285.6685850953299,-277.19070258282716,232.16609472956446,387.7141319588839
724,1.7043924170397955,-222.0925820845215,-67.2908004257456,-123.70448915325353,-293.91320388192895,-279.82632671688776,231.98770603744887,398.6668404714109
725,3.6912174463112737,-222.1847061281101,-66.32527784493506,-126.18729779665068,-301.389519652859,-281.9061771967895,231.77022126163362,408.8918808848849
726,5.632444904143671,-222.19829800573402,-65.3772224418087,-128.6493259819398,-308.13269682557825,-283.46815401109245,231.51756454258964,418.3521400110727
727,7.487253499699983,-222.14571391958552,-64.43744239017472,-131.07362342051525,-314.19850941223956,-284.54051815516283,231.23402122938663,427.03369677050415
728,9.218877466065655,-222.03893302908068,-63.49861018474015,-133.43104757760725,-319.66013311093286,-285.14186934499077,230.92394378906334,434.94369745361996
729,10.795173504652634,-221.88916650136392,-62.55535896959193,-135.6821429202117,-324.60467310517157,-285.28148706217195,230.59150269126252,442.10788198190073
730,12.189055069197488,-221.7065442189273,-61.60430832552898,-137.77924645055327,-329.1295476337129,-284.96003379427964,230.24048637750158,448.5678701985719
731,13.378799378059762,-221.49988239090914,-60.64402014583826,-139.66875612403888,-333.3388412263769,-284.1706020418452,229.8741527383284,454.3783094992529
732,14.348232374625171,-221.2765332762846,-59.67488757819869,-141.2935018146145,-337.33973271496365,-282.90006857918155,229.49513331978162,459.6039738992556
733,15.086796520942556,-221.04231648137403,-58.69896252531387,-142.59516076650144,-341.2390920892413,-281.1307023142903,229.10539059578207,464.3168910589196
734,15.589506243974876,-220.80152951520535,-57.71972955849067,-143.51666077831769,-345.14032740714777,-278.84195758419554,228.70622768630625,468.59355915113616
735,15.856796217237163,-220.55703333962322,-56.74183593711117,-144.00451489648248,-349.14054877444016,-276.0123742921785,228.2983486434178,472.5123010996693
736,15.894268403044006,-220.31040662887077,-55.77078859095535,-144.01103151616525,-353.3281013875058,-272.62150091741324,227.88196591226458,476.1507907835154
737,15.712344797130376,-220.0621604913274,-54.81262951815214,-143.4963438080838,-357.7805043253352,-268.6517564975476,227.45694995911035,479.5837750668004
738,15.325834034449501,-219.81200363817993,-53.87360125071774,-142.4302025560657,-362.5628167598794,-264.0901530009452,227.02301452013518,482.88100734988575
739,14.753421460387722,-219.55914658411163,-52.95981387668217,-140.79347718254155,-367.72643903282267,-258.92980932901804,226.57992965172636,486.10540272703156
740,14.017094070001306,-219.3026325407912,-52.07692445481839,-138.57931157558556,-373.3083429814774,-253.1712013928212,226.12775384634003,489.3114214588252
741,13.141513878078463,-219.04168208493934,-51.22983844380539,-135.79388507712892,-379.3307143054889,-246.82310798781987,225.66707577983624,492.54368590547324
742,12.153355508112162,-218.77603816145995,-50.42244123386592,-132.4567353840126,-385.80098001876297,-239.90322825707116,225.19925552902248,495.8358359653652
743,11.080625651422809,-218.50629741659392,-49.65736641830475,-128.6006097167723,-392.71218641604287,-232.43846227386555,224.72665429936353,499.2096291158388
744,9.951983316550084,-218.23421352136276,-48.93580619456856,-124.27082371766882,-400.0436875077427,-224.46486088364813,224.25284111065304,502.6742930067107
745,8.796080416739052,-217.96295844060876,-48.25736804824445,-119.52412408453827,-407.76210025588665,-216.02726392672514,223.78276485308513,506.2261407610161
746,7.6409421290221,-217.69732868517332,-47.61998055189608,-114.42707045497977,-415.8224807470415,-207.17865700001647,223.32288078840529,509.8484611215671
747,6.513405439374801,-217.4438853993686,-47.01984982969512,-109.05397365146676,-424.1696742095546,-197.9792857491397,222.88122191569545,513.5116966645613
748,5.438632326890161,-217.21101967294504,-46.451467097440954,-103.48444986694128,-432.7397911228192,-188.49557313631863,222.4674076808532,517.1739227849188
749,4.439711242044072,-217.00893775181333,-45.90766661127581,-97.80067220550198,-441.46176132383783,-178.7988892134142,222.09258531938687,520.781637493842
750,3.5373569883772458,-216.84956473285231,-45.3797322057876,-92.08442045819994,-450.25891797198767,-168.96422487000785,221.76930256132795,524.2708670083678
751,2.749714856198497,-216.74636959059464,-44.85754939223048,-86.41404528714916,-459.05056371741216,-159.0688211760399,221.51131424857417,527.5685847852833
752,2.0922700490360917,-216.71411865930534,-44.329799044527384,-80.86147250580547,-467.7534728186317,-149.1908046069053,221.33332935671072,530.5944325360842
753,1.5778584832570177,-216.76856860716242,-43.78418841768951,-75.48937575978843,-476.28328562780064,-139.40787579627684,221.25070867275062,533.2627215468691
754,1.2167703155355374,-216.92611313618704,-43.207715635443286,-70.34864121622313,-484.5557559750257,-129.79609556971164,221.2791265943674,535.4846820666811
755,1.016933246116677,-217.2033998709915,-42.586964485921854,-65.47623616182695,-492.48781749666136,-120.4288068810693,221.43421285218466,537.1709183266759
756,0.9841588881117511,-217.61693499439173,-41.908427051958704,-60.893575521272425,-499.998441695806,-111.37572488575047,221.7311911780065,538.2340175039695
757,1.1224325228673142,-218.1826930184132,-41.15885223414676,-56.60545742667399,-507.00926823625326,-102.7022197530936,222.184531885924,538.5912530604138
758,1.4342246589359477,-218.9157475900779,-40.32561843261005,-52.599612595174186,-513.4449963295033,-94.46880809340897,222.80763391002594,538.1673165957613
759,1.9208022117551469,-219.8299365350201,-39.39712829651106,-48.846884162316336,-519.2335347964523,-86.73085935234518,223.6125491218315,536.8970078091645
760,2.5825179680802233,-220.9375707479073,-38.363222395812386,-45.302026664113825,-524.3059173492317,-79.53851357845485,224.6097580257729,534.7278095633126
761,3.4190592340538597,-222.24919246376598,-37.2156070045994,-41.905086926671004,-528.595998819604,-72.9367970170415,225.80800164220113,531.622274613283
762,4.429639849832948,-223.77338431177182,-35.9482891259436,-38.583307327951545,-532.0399573206253,-66.96591252305755,227.2141699946192,527.560152382236
763,5.613123610767966,-225.51662676029147,-34.55800958352742,-35.253474243096946,-534.5756363601696,-61.66167338095193,228.83324353423114,522.5401881531831
764,6.968071216906213,-227.48319842383333,-33.044662516155896,-31.824621539542942,-536.1417694629137,-57.05604231985596,230.6682803741184,516.5815331394701
765,8.492707072168344,-229.67511138727832,-31.411687160870205,-28.200990021552595,-536.677137845099,-53.17773275552899,232.7204395629489,509.7247121964934
766,10.18480655359235,-232.09207231646533,-29.666415888708404,-24.28513782812231,-536.1197191108721,-50.05282682277617,234.9890289773779,502.03210652900617
767,12.041508625043924,-234.73145981332675,-27.820361527392578,-19.981093495493322,-534.405891525434,-47.7053646591359,237.47156595408757,493.5879214168755
768,14.05906257584193,-237.5883092904226,-25.889427177164908,-15.19744285226064,-531.4697635654325,-46.15786165219144,240.16383956399858,484.4976231665228
769,16.232520905919568,-240.65529836150347,-23.894022773910404,-9.850243626595645,-527.2427014239994,-45.43171489453213,243.05996517963865,474.886844488111
770,18.555392782192758,-243.92272799334773,-21.859074298942268,-3.8656681051141866,-521.6531273091614,-45.54746669266529,246.1524242774034,464.8997726168675
771,21.01927406617984,-247.37849715646058,-19.813913662117095,2.817715385983177,-514.6266581910546,-46.52490121099093,249.43208495587115,454.6970490775678
