time,ax,ay,az,gx,gy,gz,accmagnitude,gccmagnitude
0,17.613128733088868,-240.24642637368814,-69.15530114569175,-6.111531642450662,-19.925901352837133,14.76673700040176,250.66855964971097,25.524932525093817
1,17.53213348582879,-240.13117176548116,-68.83001352618649,-3.090177968088021,-17.55396404469698,14.666665987379442,250.4737194548415,23.43375995036734
2,17.425873480951335,-240.00431007311713,-68.5104590064847,-0.08132695449888155,-15.244050909751401,14.562918671943427,250.2668362574321,21.29062596468834
3,17.298184020915894,-239.8643204146348,-68.20007430938578,2.868898978927367,-13.01243713120457,14.443745127986263,250.0474401897167,19.13028635201081
4,17.15297684236052,-239.70995816912222,-67.90281864445073,5.7108342101001055,-10.874751780440624,14.295688814267024,249.81546888683403,16.99140044872446
5,16.99414360943485,-239.54032154464792,-67.62314661436297,8.391817870770165,-8.845728174497609,14.103723646358565,249.57132182966956,14.916180141838073
6,16.825473465310356,-239.3549100020517,-67.36595940880288,10.856856740046252,-6.938927626867566,13.851440569164703,249.31590259574526,12.949938822069685
7,16.65058750212631,-239.153672499717,-67.13653250349803,13.04940139835207,-5.166438731815454,13.521283882118972,249.05064673142272,11.140539544955026
8,16.472892090197398,-238.93704386168818,-66.94041812675991,14.912230614479569,-3.5385574418575287,13.094836719423817,248.77753320816862,9.537743934976994
9,16.295552031499646,-238.70596783595317,-66.78332130730723,16.38843540311424,-2.06345626300921,12.55315411771461,248.49907774010478,8.192465585407255
10,16.12148347550455,-238.46190563660153,-66.6709493830866,17.422490602444267,-0.7468537087466961,11.877141054152194,248.21830665727865,7.155933828874357
11,15.95336552011438,-238.20682900135077,-66.60883619684536,17.961398325345044,0.40830246254747293,11.047971707912248,247.9387105348407,6.478775806599306
12,15.793668497393107,-237.94319714589838,-66.60214357345276,17.955884367564686,1.4021229617470192,10.047544913433164,247.66417740277967,6.210026789823939
13,15.644696117360052,-237.67391753607174,-66.65544398399503,17.3616256956548,2.238019474285005,8.858969264743353,247.39890615598404,6.3960808001415135
14,15.50863783710551,-237.40229105303806,-66.77248960782936,16.140484525155554,2.9228858641776894,7.467069638391956,247.1473016911911,7.079595932031362
15,15.38762703179,-237.13194272912912,-66.95597435056457,14.261722275203189,3.467203033007893,5.858905188418055,246.91385417061542,8.298371638894137
16,15.283799999619136,-236.86673973367388,-67.20729670883192,11.703164898007197,3.8850543655969387,4.024287313706492,246.7030056074321,10.084218724597829
17,15.199350920694451,-236.61069878874147,-67.52633249868363,8.452289758710384,4.194041492714102,1.9562848351151798,246.5190077553498,12.461846777819387
18,15.13657877562014,-236.36788573438167,-67.91122712880367,4.507203376511305,4.415093579787117,-0.3482972846690512,246.36577604463199,15.447797984437642
19,15.097923596187206,-236.14231043968084,-68.35821720576442,-0.12252109023949427,4.572167359154571,-2.8884798610717253,246.24674489339148,19.049460245071682
20,15.085990703020656,-235.9378205720589,-68.86149092704034,-5.4151777201812195,4.691839521353655,-5.658726335618771,246.16473003495273,23.264195889295397
21,15.103562439361205,-235.7579979054399,-69.4130960854364,-11.336463640429214,4.802797700511067,-8.648628511467741,246.12180356555913,28.07862460442867
22,15.153597373569683,-235.6060609412811,-70.00290361519347,-17.83924612693661,4.9352409060016855,-11.84267435729168,246.11918731614824,33.468100085198515
23,15.239217233012,-235.4847776579475,-70.61863347093173,-24.863588226469528,5.120204612107251,-15.22010983000651,246.1571699290879,39.39641898992902
24,15.363682090174986,-235.3963921165441,-71.2459482813081,-32.33705693013636,5.388829567817149,-18.754904985387416,246.23505262173205,45.81579775130428
25,15.530354556131126,-235.34256836261875,-71.86861866594714,-40.17533349249113,5.771596513579433,-22.415832524919026,246.35112797742124,52.66714745309473
26,15.742653946296286,-235.3243546128271,-72.46876227291204,-48.283139637772635,6.2975512675227385,-26.166664415945526,246.50269523958337,59.880669370321385
27,16.00400161275327,-235.34217015270121,-73.02715640212104,-56.55548588247108,6.993546072682177,-29.966489400388742,246.68611452207205,67.37678409378273
28,16.317758886290168,-235.39581662355576,-73.5236215667032,-64.87923883689596,7.883523769967284,-33.77015114421493,246.89690102722747,75.06739572917274
29,16.68715927964544,-235.48451433336405,-73.9374706073632,-73.13499320927285,8.987871404331653,-37.52880352252382,247.12985869694265,82.85747987132825
30,17.11523672904765,-235.60696289261645,-74.24801505575059,-81.1992218428956,10.32286938378488,-41.19057615892476,247.37925072299277,90.64697049824359
31,17.604751675528384,-235.7614239738047,-74.43511747249553,-88.94666436333999,11.900261281058807,-44.70133998336906,247.63900216352675,98.33290743307707
32,18.158116683613557,-235.9458224429106,-74.47977580248114,-96.25290294582975,13.72696762257509,-48.00555942226702,247.90292776004011,105.81179353576094
33,18.77732307876724,-236.1578605575089,-74.36472367394377,-102.9970633016832,15.804964265023512,-51.04721506263741,248.16497604159903,112.98210021059671
34,19.46386987713935,-236.39513841219437,-74.07502899160653,-109.06457090215271,18.131341939785152,-53.77077835798524,248.41947897884828,119.74685179138946
35,20.21869622800164,-236.65527250564972,-73.59867200671424,-114.34988692407418,20.698558073240072,-56.122218222057,248.66139494145656,126.01621408715263
36,21.04211869186731,-236.93600348501406,-72.92708333715437,-118.75914520267197,23.494885027568913,-58.05001819493274,248.8865317997971,131.71000960186316
37,21.93377476975277,-237.23528402772322,-72.05562230937741,-122.2126102553629,26.505050579901116,-59.50618222152494,249.09173694766156,136.7600812515545
38,22.892574029610746,-237.5513385039199,-70.98397659619484,-124.6468770947917,29.711057096665836,-60.447206873109664,249.27504187283094,141.1124275392211
39,23.91665792209076,-237.88268739452414,-69.71646552479903,-126.0167364950789,33.093156004060056,-60.834997996808006,249.43575056609063,144.72903532065635
40,25.003368969806093,-238.2281312086794,-68.26223174523858,-126.29663542731922,36.63094454537007,-60.63771024673602,249.57446336871223,147.58934210414816
41,26.14922948122705,-238.5866907085283,-66.63530918708494,-125.48167230342881,40.30454332714888,-59.8304887023421,249.69303067826056,149.69126888408636
42,27.349929367558975,-238.95750264242596,-64.85455919548632,-123.58808074453756,44.09580658863963,-58.39609288857984,249.79443423582967,151.05177706867588
43,28.600322173466473,-239.33967302755644,-62.94347105030051,-120.65317345255477,47.98951290930769,-56.32538524548787,249.8825975091013,151.70691886122418
44,29.89442815295795,-239.73209329083554,-60.92982726188346,-116.73473843366453,51.974482088991415,-53.61766882091117,249.96213080929078,151.71136865983928
45,31.225443044881033,-240.13322803101283,-58.84523776141262,-111.9099018504191,56.04456370208748,-50.28086291236231,250.03802089504194,151.1374422839716
46,32.58575095487443,-240.54088646630726,-56.724550409751764,-106.27349343354123,60.19944390734556,-46.33151044242361,250.11527859966978,150.07362940929303
47,33.96693941092008,-240.95199246596303,-54.60514856407398,-99.93596993073997,64.44521956884864,-41.794616524654884,250.19856129781118,148.6226808634496
48,35.35981449575342,-241.36237012683495,-52.52615020479452,-93.02096812698649,68.79469333483311,-36.70332332620289,250.29178967771625,146.89930540066132
49,36.754414338935405,-241.76656283389366,-50.52752734763534,-85.66257077715822,73.26735104142844,-31.09843146885603,250.39778006466716,145.0275401805667
50,38.14002027696437,-242.15770338551522,-48.649168622270274,-78.00237620025453,77.88899431415423,-25.027782597625055,250.51791409252542,143.13786610011837
51,39.505166381538125,-242.52745099609714,-46.92991129854489,-70.18646554494137,82.6910163324639,-18.545521294303025,250.65186656706837,141.3641441552994
52,40.837649430106225,-242.86600796669583,-45.40657130021949,-62.36236126580011,87.70932632254804,-11.711257128635125,250.79740992388827,139.84045254046927
53,42.124542585437034,-243.16222486567335,-44.113000851959555,-54.67606658047589,92.9829468715039,-4.589149202032015,250.95031007109174,138.6979061420604
54,43.3522171319677,-243.40379855773918,-43.07920338362658,-47.269268972192656,98.55232601405389,2.7530640200617067,251.10432403875905,138.06154011923292
55,44.50637768398006,-243.5775626863237,-42.33053401046762,-40.276781429897355,104.45742196352069,10.24506740918875,251.2513050729326,138.04733712983935
56,45.57211732023593,-243.66986549131613,-41.88701112809959,-33.82428330697655,110.73563152169626,17.81498366944894,251.38141584068055,138.7594734612032
57,46.533999974505164,-243.66702529393433,-41.76276045456434,-28.026408692232646,117.41964312965035,25.390380767962125,251.48344541863625,140.28785309248286
58,47.376177884939736,-243.55584973857498,-41.96560759599317,-22.98521440362455,124.53530190641635,32.899255389370005,251.54522087745434,142.70599084155637
59,48.08255166099298,-243.32420110022673,-42.496829448274546,-18.78904274735592,132.09957667899715,40.270977315955996,251.5540997155576,146.06929649666978
60,48.6369792080178,-242.96158679238803,-43.351068947597675,-15.51177697799797,140.11871789799451,47.437181289241366,251.49752527580299,150.41380141861427
61,49.02353711937002,-242.45975178605653,-44.51641225094125,-13.21247118378095,148.58669050821345,54.332594491133,251.3636237412784,155.7553576450314
62,49.226834359377136,-241.8132481834555,-45.97462276961955,-11.935322408719673,157.48395733190455,60.895789421912234,251.14181861947375,162.08932704147665
63,49.232373719572266,-241.0199569168615,-47.70152280627695,-11.709942336343737,166.77667635460014,67.0698538083198,250.8234371220359,169.3907645591116
64,49.02695232079684,-240.08153753377587,-49.667510683040206,-12.551879545498076,176.41635968681993,72.8029714314418,250.40228266578904,177.615085454017
65,48.59908877144123,-239.00378412861738,-51.83819883228416,-14.463341342991013,186.3400234899498,78.04891053929423,249.87514871419847,186.69919197891065
66,47.93946164454659,-237.79686845288163,-54.17515609779163,-17.4340658155596,196.47083783418094,82.76741971595321,249.24225110633614,196.56302130873303
67,47.04134177039931,-236.47545485602691,-56.63673539910077,-21.442298687237255,206.71926464652347,86.92453439591459,248.50755866617428,207.11146398086964
68,45.900999482463554,-235.05867576052373,-59.178966035330895,-26.45583432256052,216.98465195117305,90.49280020703556,247.67900505824903,218.2365914063424
69,44.51806745805508,-233.56996071606994,-61.75648840222721,-32.43308467779281,227.15723457267418,93.45142161551229,246.76856846061406,229.8201223536634
70,42.89584028274265,-232.03671667596785,-64.32350788568637,-39.3241436971807,237.12047609617906,95.78634569846801,245.7922096823318,241.73605195524124
71,41.0414934425301,-230.4898619315329,-66.8347442909666,-47.07181768821568,246.75367461890045,97.49029121918993,244.76966386281563,253.85336295439163
72,38.96620709298825,-228.96322099027861,-69.24635356006127,-55.612595132142204,255.93474594011863,98.56273259169139,243.7240857848926,266.03873779842235
73,36.685183481524184,-227.49279249101997,-71.51679986762485,-64.87753294334007,264.5430924481527,99.00984695309182,242.6815540349912,278.15919196734427
74,34.217550975656046,-226.11590693669953,-73.60765838236813,-74.79304102977899,272.4624641549104,98.84443066442903,241.67044460915247,290.08455378727194
75,31.586151956233703,-224.87029540638054,-75.48433176503754,-85.28155340516918,279.58372020183873,98.08578944617011,240.72068980063696,301.6897240737913
76,28.81721622214676,-223.7930942272351,-77.1166665823773,-96.26208190328947,285.80740478208213,96.75960429756776,239.86294299021372,312.8566603119192
77,25.939926012880786,-222.9198136795778,-78.47945906831458,-107.65065730295518,291.0460606857194,94.89777348510873,239.12767409608153,323.47604445796554
78,22.985883250276853,-222.28330112441293,-79.5528429500957,-119.3606719178995,295.2262161741829,92.53822920158441,238.54422385108418,333.4486102653409
79,19.988493973625562,-221.9127304667269,-80.32255534541771,-131.30314708358173,298.28999591081896,89.72472587784951,238.13984771636578,342.6861244254492
80,16.982288946189854,-221.83265053602062,-80.78008004042545,-143.38695812171844,300.1963232643366,86.5065954088325,237.93878202900697,351.11203467569555
81,14.002202749268179,-222.0621246495143,-80.9226707654863,-155.51905767560262,300.92169832671124,82.93846260809957,237.9613657657719,358.66181601995413
82,11.082835965159532,-222.61399215869343,-80.7532603233006,-167.60474485674652,300.4605521399521,79.07991208854787,238.22325088945513,365.2830617662293
83,8.257725839562264,-223.49428002376388,-80.2802644453765,-179.5480313634143,298.82519153453774,74.99509580264535,238.73473243372,370.93537759339165
84,5.558649896778264,-224.70178837786162,-79.51729179539839,-191.2521557091412,296.0453595303467,70.75226914275255,239.5002261580304,375.5901430100158
85,3.0149846393191315,-226.22786877678365,-78.48277325885971,-202.6202923530484,292.16744293485783,66.42324323368308,240.51791681416944,379.2302047233076
86,0.6531382472004148,-228.05640765903823,-77.19952430211254,-213.55649361991945,287.2533617922681,62.08274213454588,241.77959403333858,381.84956068859054
87,-1.5039275522791498,-230.1640207532902,-75.69425372332255,-223.96688882870419,281.37917541097977,57.80765625354951,243.27068587509416,383.45308257902155
88,-3.437075510314423,-232.52045700000218,-73.9970307676145,-233.76114712849312,274.6334378541294,53.67618736864532,244.9704924998687,384.05630901288936
89,-5.131264564372776,-235.08920320780285,-72.14072071045041,-242.85418854162347,267.115333221227,49.76688607869467,246.85261457023364,383.6853232495799
90,-6.57571399124203,-237.82827338484827,-70.16039701216513,-251.16810265742288,258.9326190276831,46.157588994883106,248.88556320684694,382.3767086947528
91,-7.763963532989787,-240.69115979837,-68.09273630546956,-258.6342083128737,250.1994056151877,42.92427013021823,251.0335310055757,380.17755530950814
92,-8.69383700915069,-243.62791668217216,-65.9754009635681,-265.19516328975953,241.03380152581977,40.139828244148035,253.25729712241144,377.1454719769487
93,-9.367319730799798,-246.58634242941812,-63.84641287580087,-270.8070136288543,231.5554592414114,37.872838708348425,255.51523402771878,373.34854594328914
94,-9.7903616082542,-249.51322235709208,-61.74352144424296,-275.4410601922395,221.8830619949349,36.18630409807365,257.7643795137123,368.8651819925989
95,-9.972618428734524,-252.35559202868524,-59.70356898387468,-279.08541725980547,212.13179927926316,35.136441618205424,259.9615353007479,363.7837517784378
96,-9.927143625231864,-255.06198086525995,-57.76185790014031,-281.7461449411853,202.41088473029762,34.77154730014126,262.06435339081406,358.2019879751405
97,-9.670042115590523,-257.58359730866965,-55.95152614417884,-283.4478539154309,192.82117392929652,35.13097650767555,264.0323730931352,352.2260685692106
98,-9.220096576488494,-259.87541999632793,-54.302940097891764,-284.23370658284125,183.45294057252667,36.2442776216167,265.8279751734576,345.9693533258145
99,-8.59837495241048,-261.8971641604013,-52.84311670356674,-284.1647713555478,174.38386740204024,38.13051080759732,267.41722463433115,339.55075639963735
100,-7.8278262063235164,-263.6140985182626,-51.59518891740995,-283.3187238883107,165.67730410863783,40.797776491595975,268.7705798808245,333.0927647515129
101,-6.932869475406011,-264.99769475789975,-50.57793021090877,-281.7879273406846,157.38083939201945,44.24296866150879,269.8634529259666,326.7191394152171
102,-5.938980229759325,-266.0260987229876,-49.80535469100915,-279.67695994708487,149.52522951449873,48.451756751120165,270.67661222857936,320.55236321777636
103,-4.8722761176602125,-266.6844191049381,-49.286409119150946,-277.09968921381864,142.123721188693,53.39878745737835,271.19642624811655,314.7109215337003
104,-3.7591050261049985,-266.96483569516033,-49.02477121935995,-274.1760153731415,135.17180183866589,59.04808568956718,271.4149516353173,309.3065193281254
105,-2.6256382128173694,-266.8665350983362,-49.01876496512847,-271.02842034068414,128.64740416174203,65.35362356694397,271.3298751833173,304.44134590711377
106,-1.4974717680681047,-266.3954872466906,-49.26139843828117,-267.77846137591575,122.51158362266565,72.26001952741076,270.9443232840563,300.2054973690019
107,-0.399239902525594,-265.56408075916715,-49.74052434276545,-264.5433413932193,116.70967648429757,79.70332722547288,270.26655647339976,296.6746562667085
108,0.6457563750553885,-264.3906385840331,-50.439118383969486,-261.43267247871864,111.17293195816309,87.61187619327094,269.30956927556497,293.9081105998667
109,1.6159015932761231,-262.8988370222117,-51.335667107810416,-258.54552892717464,105.8205951216368,95.90713258445733,268.09061663534834,291.9471731912847
110,2.491595420812556,-261.1170511718828,-52.404654435888126,-255.96786451138416,100.56239810803673,104.50455755046197,266.6306877771199,290.81404109008326
111,3.255555483921069,-259.0776484346093,-53.61713461647738,-253.77034822711948,95.30139729024454,113.31445159716786,264.95394666044785,290.51111528447916
112,3.893088993954937,-256.81624946250184,-54.94137819145817,-252.0066544262088,89.93707590861963,122.24278436350798,263.0871557230435,291.02078472666284
113,4.392328565642149,-254.37097327323542,-56.343576600854625,-250.71222707816187,84.36861702743538,131.1920193810908,261.05909673273857,292.305665474417
114,4.7444276400035,-251.78168058189476,-57.788590072178806,-249.90352377734308,78.49824251375354,140.0619512291897,258.89999964781845,294.3092753254741
115,4.943711188774688,-249.0892268960037,-59.24072238879264,-249.5777332382423,72.23451072901184,148.75057696294,256.6409875926279,296.95711644924353
116,4.987777818000272,-246.33473469894113,-60.66450508525449,-249.7129507853,65.49546867198124,157.15502406019266,254.31354352086973,300.1581330770163
117,4.877550019799309,-243.55889224948803,-62.02547288482119,-250.26878996043285,58.21156256212141,165.17255333106664,251.94900207428662,303.80650805213077
118,4.617270163563594,-240.80128532606838,-63.290912094595484,-251.1874045738001,50.328223106142715,172.70164789931533,249.5780687964709,307.78376046518565
119,4.2144407728470785,-238.0997677115424,-64.43056429720521,-252.39489352283934,41.808056664722955,179.64318974379177,247.23036832350266,311.9611059743571
120,3.679708510432159,-235.48987622159328,-65.41726888307815,-253.80305946450508,32.63259000553593,185.90171493543477,244.9340232963434,316.2020409778646
121,3.0266919644252397,-233.0042963982941,-66.22752951829852,-255.31149102861286,22.80353321514946,191.3867290549979,242.71526625305663,320.3651109994347
122,2.2717538171501004,-230.67238543308622,-66.84199134810657,-256.80993611041674,12.343541730577828,196.0140563306942,240.59808744167327,324.3068221723009
123,1.4337184298660912,-228.5197592856307,-67.24581759447254,-258.18093061409127,1.2964735556824627,199.70719031772404,238.60392220157806,327.8846525032883
124,0.5335364945477904,-226.56795111966903,-67.42895642423393,-259.30264285290286,-10.2728490558008,202.39861062634378,236.7513821650425,330.96011681276605
125,-0.406100601010182,-224.83414793993796,-67.38629176298896,-260.05188890975614,-22.279353115303465,204.03102921283354,235.05603496796002,333.4018362051626
126,-1.3611925552736222,-223.33101170535662,-67.11767513133572,-260.3072690773876,-34.61887428352677,204.5585307937801,233.53023746289597,335.08856005418613
127,-2.306902041497441,-222.06659028547736,-66.62783934820544,-259.95237053226964,-47.16972556049453,203.94757459850956,232.18302759316424,335.9120861635829
128,-3.2180586714058554,-221.04432241322363,-65.92619871040512,-258.8789769669531,-59.79463300909903,202.17782844395288,231.02007997904767,335.7800231402939
129,-4.0696852661436305,-220.26313920149843,-65.02654371123676,-256.99022195161024,-72.34299196078645,199.24281053883726,230.04372971034735,334.61833793098333
130,-4.837535316854709,-219.71766276680634,-63.946641352014495,-254.2036189359476,-84.6533942170335,195.15031915796067,229.25306771060193,332.37363056846823
131,-5.498629509387424,-219.3985000190709,-62.70775458642273,-250.45389668585943,-96.55637497320609,189.9226351650093,228.64410930366498,329.01507717973493
132,-6.0317784904631395,-219.29262683513716,-61.33409638084489,-245.6955646238272,-107.87732725410176,183.59648718635376,228.21003536206587,324.53598127345856
133,-6.418078686861592,-219.38385484799915,-59.85223512491261,-239.90512854988674,-118.43953123081683,176.2227740127044,227.9415028135399,318.9548726824963
134,-6.641367978503702,-219.65337013073625,-58.2904684769469,-233.08287444775218,-128.06724562596992,167.8660435681418,227.8270184413802,312.31609399889345
135,-6.688628475069052,-220.08033020264295,-56.67818215947818,-225.25413760953882,-136.58880843458016,158.60373257503926,227.85336691106184,304.6898167817374
136,-6.550324773535434,-220.64250315460595,-55.04520897924275,-216.46997732970854,-143.839694530184,148.52517587730608,228.00608099926498,296.1714352223875
137,-6.22066799542622,-221.31693058346715,-53.421201724302186,-206.80718506976223,-149.66547868002323,137.73039935255653,228.26993948326535,286.8802943418814
138,-5.697798430568896,-222.08059476159372,-51.835031765105896,-196.36756716117313,-153.92465443937257,126.3287156455051,228.62947642611275,276.95772408417616
139,-4.983882388456758,-222.9110701306554,-50.31422329891887,-185.27646226188182,-156.49126273564696,114.43714776791406,229.069484767804,266.564370441891
140,-4.085121595606482,-223.78713967046824,-48.8844314228553,-173.6804789217621,-157.2572889494218,102.17871182326297,229.5754971144244,255.87684003162067
141,-3.0116760775122007,-224.68935783442038,-47.568970804240216,-161.7444692143547,-156.13479384378482,89.68059609993878,230.1342273300797,245.08370451768246
142,-1.7775039569975137,-225.60054349181226,-46.38840071125145,-149.6477891913784,-153.05775120426043,77.07227850985706,230.7339579297973,234.38094417887754
143,-0.40012397942899214,-226.5061885899203,-45.360171418315865,-137.57993380740746,-147.98357266451237,64.48362690845342,231.36486023416833,223.96694314763064
144,1.0996913073466237,-227.39477102689142,-44.498336242096464,-125.73567019170386,-140.89430716165467,52.04302687229648,232.01923670491155,214.03717957253716
145,2.698282078950209,-228.25796359420633,-43.81333251617489,-114.30982572664657,-131.79750844468936,39.87557931885347,232.69167788028523,204.7787795238991
146,4.369516510594044,-229.0907347720678,-43.31183367902967,-103.49191349646141,-120.72676903326166,28.10140650485486,233.37912984689035,196.36512165543363
147,6.08524289590131,-229.89134134192273,-42.99667352325098,-93.46079490907884,-107.74192300922934,16.83409991558538,234.08087197509477,188.95068869755002
148,7.8157663026925155,-230.66121683260099,-42.86684279511465,-84.37958600288047,-92.92892292829055,6.1793377001210255,234.7984083951277,182.66636070674824
149,9.530337948434575,-231.40476351603763,-42.91755782609893,-76.39100947273477,-76.3993979282126,-3.7663069482673714,235.53528020657959,177.6153336381552
150,11.1976469369221,-232.12905893126947,-43.140400575950025,-69.6133793145812,-58.28990103521854,-12.916351235927326,236.29680858658907,173.86982655111353
151,12.786306066478316,-232.84349062719488,-43.52352916629726,-64.137380770652,-38.760854211174006,-21.195172778357843,237.08978163090865,171.468713829851
152,14.26532557965877,-233.55933480046937,-44.05195747192195,-60.02377705710182,-17.99520028215226,-28.538561111353875,237.92209970574913,170.41618759377315
153,15.60457066488323,-234.28929566782568,-44.707901389433545,-57.30213817331302,3.803228163239971,-34.89405453168543,238.80239516720664,170.68152196820066
154,16.77520018732668,-235.04702282321165,-45.47118795083651,-55.97064755680527,26.41161127775648,-40.221073698031454,239.73964257632727,172.1999764443689
155,17.750085528650644,-235.84662363521585,-46.31972168622596,-55.99700084357962,49.590301896562295,-44.49087123031697,240.74277517400046,174.87484083097735
156,18.504209431837076,-236.7021870191831,-47.230000881367,-57.320368850142586,73.08522578318059,-47.68632373706132,241.82032249817271,178.58058928377335
157,19.015045136304582,-237.62733368761607,-48.1776748753008,-59.85435547568279,96.63050127804887,-49.80159833659404,242.98008266249207,183.16707527938843
158,19.262915703526073,-238.63480626071626,-49.13813244610721,-63.4908420231456,119.95125350129506,-50.841728981935574,244.22884099921615,188.46466316540517
159,19.231332343076005,-239.7361104051788,-50.08711068742297,-68.10457414392879,142.7665946141033,-50.82213824398321,245.57214450863592,194.29015590817733
160,18.90730890336892,-240.94121545889922,-51.001313475948244,-73.5583179939051,164.79273861854512,-49.76813758590185,247.01413883308544,200.45334463339614
161,18.28164762800946,-242.2583199383886,-51.859028364070575,-79.70838979036871,185.74621676428492,-47.71443392029009,248.55747137261082,206.7639757174107
162,17.349189054509196,-243.6936842577248,-52.64073016430166,-86.41034872538613,205.3471574906588,-44.704663022368194,250.20326096051514,213.0389075027265
163,16.109016999956417,-245.25153023713983,-53.32965857295785,-93.52463724286365,223.3225925817556,-40.79096194655223,251.95113154918317,219.10921249005747
164,14.564608360332112,-246.93400464429428,-53.91235623838595,-100.92195441151944,239.40974884286328,-36.03358374249854,253.79930480100435,224.82697284925487
165,12.723917074882301,-248.74120202688263,-54.379153120137076,-108.48815660385233,253.3592826689912,-30.500549257809553,255.74474435404088,230.0715178178333
166,10.599382011667945,-250.67124041912086,-54.724582980202754,-116.12849420310536,264.93841420835565,-24.267323356904466,257.78334282042385,234.75486147618363
167,8.207849758769983,-252.72038212095046,-54.947718372065225,-123.77101330419255,273.9339190373242,-17.416497021208208,259.9101412577177,238.8261187167732
168,5.5704054838359305,-254.88319052294293,-55.05241151583842,-131.36897727071025,280.1549384451539,-10.037452811802206,262.1195697984541,242.27470569045795
169,2.7121080831084674,-257.1527126796272,-55.04742996760191,-138.90219427423878,283.4355742575373,-2.2259890862317167,264.4056971224549,245.13216779081654
170,-0.33837051232809184,-259.5206760296324,-54.946477996259695,-146.3771726987996,283.6372401524297,5.916122047989934,266.7624754885259,247.47252197036624
171,-3.549198079300566,-261.97768669052033,-54.76809701903968,-153.82606505167993,280.65074813752807,14.28166708921837,269.1839674246603,249.4110490473708
172,-6.885919149733718,-264.5134166762749,-54.53544122152466,-161.3044012536515,274.39811564482414,22.758635647220288,271.6645404119824,251.10152367659936
173,-10.312064862054843,-267.1167685641191,-54.27592749658073,-168.88765313601846,264.8340848455449,31.230995354349858,274.1990173162069,252.73192322902096
174,-13.789820685020809,-269.7760083996145,-54.02076198649986,-176.66671373497687,251.94735070053486,39.57961022595742,276.7827727389277,254.51871094656113
175,-17.28073400206468,-272.4788603249485,-53.804348727050694,-184.74241735971114,235.76149755874386,47.6833087367164,279.4117682515546,256.69984234301165
176,-20.746440852833956,-275.21255893858796,-53.66358914122551,-193.21926777754913,216.3356455111598,55.42010015403158,282.0825220700682,259.52669489241083
177,-24.149389011966477,-277.9638575255457,-53.6370844391816,-202.19857930962806,193.76480685198297,62.66852994192002,284.7920109607946,263.2551666348036
178,-27.4535334156349,-280.71899207440094,-53.764256378755086,-211.77126648271295,168.17994955852572,69.30915812412917,287.53750413562483,268.13622664704036
179,-30.624980104629017,-283.46360254646174,-54.084405303613906,-222.01054086119427,139.74775854451863,75.2261387828027,290.3163307824796,274.4062277537967
180,-33.63255644654911,-286.1826143934058,-54.63572779058154,-232.96478886169433,108.67007677321024,80.30887444052163,293.12558491595604,282.2773090315841
181,-36.44828819897621,-288.8600850276051,-55.454319375095416,-244.65091232289342,75.1829977726308,84.45371575461046,295.9617735932719,291.92822292509175
182,-39.04776766491549,-291.47902188148083,-56.573190311325625,-257.04841469279944,39.555569817060544,87.56567439977186,298.8204172070773,303.4959195972518
183,-41.410401634908894,-294.02118085877936,-58.021323731207836,-270.09450964518504,2.0880616303803925,89.56011498539874,301.69561348693554,317.068209734907
184,-43.519532982169224,-296.46685652552685,-59.82280567428063,-283.68051504856663,-36.89026820136579,90.36439049124051,304.57958012796,332.6778065199958
185,-45.36243550452923,-298.79467843804724,-61.99605538899345,-297.64977259457976,-77.02395899843806,89.9193854493959,307.46219473854745,350.29801777560345
186,-46.9301875313685,-300.9814313542047,-64.55318223144477,-311.79730091249354,-117.93475081410426,88.18093232833489,310.3305548290309,369.84031995278053
187,-48.21743556352955,-303.00192020978636,-67.4994922650086,-325.8713460802859,-159.2256502443284,85.12106936092039,313.16858425534474,391.15399564108384
188,-49.222064468547764,-304.8289032247587,-70.83316285241727,-339.57693625311686,-200.48569013978968,80.72911210180867,315.9567153109137,414.0279544276108
189,-49.94479520201159,-306.4331181362489,-74.54509678680054,-352.581475269012,-241.29539047423,75.01251559218638,318.67167719348237,438.19478246317436
190,-50.38873439408343,-307.7834270916248,-78.61895901753147,-364.5223234842492,-281.2328978112112,67.99750812563792,321.28642156379965,463.3369794740422
191,-50.55890222942514,-308.847104588798,-83.03138967683131,-375.016214651783,-319.8807452785561,59.72948018956657,323.7702138507638,489.0952450668062
192,-50.461765727440316,-309.5902891932571,-87.75237825024263,-383.67024971791665,-356.8331342771547,50.273112497563986,326.08891421301,515.0785723764873
193,-50.104803725095714,-309.978612896878,-92.74577673008645,-390.0940990521371,-391.70359456783183,39.712225051904916,328.205464233268,540.8758015970718
194,-49.49612752492361,-309.9780117391451,-97.96992555439478,-393.9129437254244,-424.1328331722807,28.149325393435355,330.08058466957397,566.0681863131831
195,-48.644177213286696,-309.55570824438473,-103.3783657490017,-394.7806061237489,-453.7965379432546,15.704829456123282,331.6736767869227,590.2424420283361
196,-47.55750808326603,-308.68134152700645,-108.92061398187388,-392.3922731580702,-480.41286275305475,2.515923823377179,332.94390626614563,613.0036907533326
197,-46.24467476048517,-307.32820616099326,-114.54298338014623,-386.4962121308784,-503.7492927249703,-11.26496485992119,333.8514358345978,633.9876991065279
198,-44.714213284395385,-305.47454791220486,-120.18944042116371,-376.90392484146304,-523.6285748206548,-25.47212710523354,334.35876189410754,652.8718370143904
199,-42.97471447995846,-303.10485496654917,-125.80249520055351,-363.4982766991004,-539.9334059575972,-39.92898213666781,334.43210263602685,669.3842597857573
200,-41.03497624696199,-300.2110785839196,-131.32412724056226,-346.2392635601721,-552.6096006036113,-54.4509581559028,334.0427810255584,683.3109306309773
201,-38.90421822740456,-296.79371750007437,-136.6967503648112,-325.1672234519588,-561.6675127646165,-68.84883459685142,333.168545460381,694.5002405801798
202,-36.592339526076685,-292.8627053955398,-141.86421723672913,-300.4034453357988,-567.1815606981895,-82.93251182961345,331.794773126159,702.8651327509488
203,-34.11019842071847,-288.4380493133024,-146.77285717914188,-272.14825644407455,-569.2877911584883,-96.5151417317788,329.91550515865373,708.3827832308594
204,-31.46989214574056,-283.55017776233876,-151.3725311913641,-240.6767717787065,-568.1795163468812,-109.41752001565483,327.53426788443386,711.0920195924897
205,-28.685014925921614,-278.23996928894854,-155.61767748245623,-206.3325583411543,-564.1011531516125,-121.47261243030233,324.66464019682047,711.0887624180033
206,-25.770873604919878,-272.5584449067754,-159.4683111361899,-169.51950318924676,-557.3404832976281,-132.53006556611214,321.3305335767654,708.5198515126264
207,-22.74464258484021,-266.566120691356,-162.89093439759336,-130.69218468383025,-548.2196286550226,-142.4605409453853,317.5661588516834,703.5756664439654
208,-19.625443401498433,-260.3320298054121,-165.85931096359457,-90.34504036006977,-537.0850939632944,-151.1597084306676,313.41566297875477,696.4819724594219
209,-16.434338822198573,-253.9324358303052,-168.35505931945738,-49.00061418567437,-524.2972672186191,-158.55174042177677,308.9324300744341,687.4914203860393
210,-13.194236223542461,-247.44927116127383,-170.3680263563732,-7.19716042204033,-510.2197850432903,-164.5921602279652,304.1780533141591,676.8751055701356
211,-9.929699546057561,-240.9683450604804,-171.89641229426283,34.52411364833226,-495.20916681357926,-169.26991532070184,299.22099763865367,664.9145487733182
212,-6.6666730289802,-234.57737533164715,-172.9466302685502,75.63186863452907,-479.6050985171245,-172.60856854479792,294.1349867297085,651.8944035080877
213,-3.432123141938687,-228.36390495760978,-173.5328979695065,115.61720008015868,-463.72170739750896,-174.66652773757477,288.99716074032085,638.0961220822657
214,-0.25360765367569993,-222.41316999092953,-173.67657359916183,154.00561690795865,-447.8401138695397,-175.53626624562887,283.8860630593203,623.7927299779914
215,2.8412172151189536,-216.80598724423524,-173.40526307836353,190.3680889892994,-432.20248042091765,-175.342522603423,278.8795241927322,609.2447699070668
216,5.825138697311036,-211.61672977350108,-172.7517387169939,224.33082824165047,-417.00770130178955,-174.23950571820194,274.05251787729395,594.6973894465863
217,8.671963405713694,-206.91145488430504,-171.75272025547864,255.58349057055324,-402.40879636748605,-172.40717072586182,269.47506811992616,580.3784672727173
218,11.357109860393205,-202.7462437875015,-170.44757616029284,283.88552514963817,-388.51199385387383,-170.0466687204913,265.210285481496,566.4976102371365
219,13.85819808909136,-199.16580453513996,-168.8770055756249,309.070451760858,-375.37741690200187,-167.37510914988326,261.31260640032696,553.2458125131886
220,16.1556154463689,-196.2023807685339,-167.08175947399855,331.0479140635457,-363.02123241095444,-164.61980474718857,257.8263009207134,540.795551158842
221,18.233037488208808,-193.87499825330295,-165.10145410790324,349.80343357842366,-351.41908043145816,-162.01219304227845,254.78430248834263,529.3010985313697
222,20.077883426825995,-192.18906936943162,-162.9735217210907,365.39587179096196,-340.51057718627806,-159.78164342378824,252.20739924631474,518.8988571479053
223,21.681687231677195,-191.13636313222807,-160.73233319136824,377.95269171822747,-330.20467254705176,-158.14936257034122,250.1038102375777,509.707561614784
224,23.040367640367172,-190.6953357217281,-158.4085154466865,387.6631916012754,-320.38564031705266,-157.32260298103998,248.46915306035316,501.82823990075104
225,24.154383035939777,-190.83180477320798,-156.0284741856551,394.7699587992786,-310.9194838054748,-157.48935988162918,247.2867931605965,495.34387776391577
226,25.02876033271118,-191.49994042946156,-153.61412087658542,399.5588584581124,-301.6605471216844,-158.81371304433335,246.5285503102632,490.31878117976504
227,25.67299082174922,-192.64353758871243,-151.18279309614303,402.3479259720503,-292.4581322568233,-161.4319350835945,246.15572563590754,486.79767793853995
228,26.100790445582277,-194.19752698527245,-148.74734951664328,403.4755715971785,-283.1629322763162,-165.44944979527986,246.12040320684412,484.8046374858435
229,26.32972714303213,-196.08967782388692,-146.31641555802958,403.28852738724646,-273.63310191684855,-170.9386860264312,246.36697390350903,484.34191509532627
230,26.380723566149197,-198.24244159207845,-143.8947528791913,402.1299694471161,-263.73979953560615,-177.93783694955175,246.83382596448863,485.38884166228274
231,26.27744935250814,-200.57488500845298,-141.4837251438963,400.3282319174144,-253.37204991554475,-186.45050350918345,247.4551456753343,487.90088422743287
232,26.045622776061908,-203.00465934425748,-139.08183335309224,398.18649392620875,-242.44079690658327,-196.44617545454355,248.16277234357452,491.80899632563023
233,25.712246377307437,-205.449953371154,-136.68529589277185,395.9737692265289,-230.88203906310656,-207.86148407481915,248.8880533867199,497.0193638659799
234,25.304804554184088,-207.83137809790637,-134.28865062276896,393.917463962589,-218.65897092141603,-220.6021470265231,249.5636476964645,503.4136343989919
235,24.850452843368995,-210.07373360153377,-131.8853583454553,392.1976953852565,-205.76308751595377,-234.54551653160246,250.12522841327467,510.84969787983897
236,24.37522876480524,-212.1076119641029,-129.4683887902434,390.94348804433275,-192.2142494418771,-249.54363667203447,250.51304014189333,519.1630669341038
237,23.903312771211848,-213.87079581610368,-127.03077196556809,390.2308884793647,-178.05974834659511,-265.4267126289443,250.67327080980542,528.1688845109744
238,23.456365175926994,-215.3094192764361,-124.5660994739862,390.08296853578105,-163.37245526121754,-282.0068938302359,250.5592049734341,537.6645660951482
239,23.052961078758987,-216.37886688796937,-122.06896235665675,390.4716239836139,-148.24817324396574,-299.0822734438264,250.13213333663478,547.4330613928131
240,22.708140539640777,-217.04439594735916,-119.53531452289599,391.3210207460011,-132.8023481562799,-316.4410079620913,249.36200230439906,557.2466959433693
241,22.433085999169215,-217.2814778062908,-116.96275400264419,392.5124961996685,-117.16631454052047,-333.86546272593444,248.2277971469381,566.8715266292297
242,22.23493365127906,-217.07586370120197,-114.35071806340927,393.8906872722109,-101.48326608599776,-351.13629271262613,246.71766228133723,576.0721177890873
243,22.11672037000876,-216.42338991260533,-111.70059230821175,395.2706298067405,-85.90414172328549,-368.03637354732854,244.82877165762108,584.6166186084278
244,22.07746293545849,-215.329545078857,-109.01573766078003,396.44555472391744,-70.58360961310952,-384.3545059399507,242.5669705684942,592.282000072997
245,22.112361760095332,-213.80882893357125,-106.30144217846498,397.1950963713356,-55.67631357715775,-399.88882753870104,239.94621684361493,598.8592934176104
246,22.213117259722647,-211.88393641507378,-103.56480676135938,397.2936279271586,-41.33352165263742,-414.44987912728345,236.98785410704244,604.1586636698062
247,22.36834365646587,-209.5848039984569,-100.81457512777469,396.518448413581,-27.7002862969672,-427.86328654035333,233.71975260526867,608.0141527582874
248,22.56406247908515,-206.94755636681137,-98.0609190287207,394.6575656538817,-14.913192042452179,-439.9720347273237,230.17535424457031,610.2879367729681
249,22.784256348966718,-204.01339135675053,-95.3151897055211,391.5168482886799,-3.098730787024593,-450.63832484875826,226.39265813854325,610.8739601160775
250,23.011462711012154,-200.82743957658425,-92.58964621311773,386.9263558095307,7.627690703929512,-459.74501778876856,222.41318130632604,609.7008332672495
251,23.22738686180567,-197.43763225529878,-89.89717061523987,380.74569604111593,17.162139991917325,-467.19667692832064,218.28092629651522,606.733908114401
252,23.413513929871595,-193.89360699334304,-87.25097931473869,372.86830212900065,25.412003081134863,-472.9202290656278,214.0413837239672,601.9764730041654
253,23.551700496853957,-190.2456766260632,-84.66433886111201,363.2245636950591,32.29536532784232,-476.8652653794653,209.7405934187768,595.4700372832106
254,23.624728385323277,-186.54388173474646,-82.15029334462145,351.7837876684579,37.740028251751795,-479.0040051773154,205.4242833733116,587.2937012665178
255,23.616805668172493,-182.83714253657004,-79.72140895633768,338.55500195222453,41.68227221052972,-479.3309449301494,201.13710100723577,577.5626318677906
256,23.51400297240213,-179.17252105235391,-77.38953969575905,323.58664828253814,44.06547998890881,-477.8622149448694,196.92194661346662,566.4256864360293
257,23.304616493195958,-175.59459989112756,-75.16561677166516,306.965238461995,44.83873657304112,-474.63466696414775,192.81941454516237,554.062247708839
258,22.979452716184582,-172.14497999908076,-73.05946302872967,288.8130703151165,43.95551653688784,-469.7047183335997,188.86734403333466,540.6783512070942
259,22.53203358610556,-168.86189640158773,-71.07963271765848,269.28511655948864,41.37256312260389,-463.1469815878435,185.10047855547145,526.5022025716244
260,21.958724577250823,-165.77994832926785,-69.23327609022164,248.5652119916274,37.04905263173022,-455.05271143719165,181.55023037543646,511.7791958535639
261,21.258791536445734,-162.9299381574063,-67.52602760519234,226.8616727964806,30.946124477962005,-445.5281035485388,178.24454517679308,496.76655444670706
262,20.434395028120562,-160.33881219801157,-65.96191594329703,204.40248733007746,23.02684147997771,-434.69248107819647,175.20786046555648,481.7277244004304
263,19.49053306403146,-158.02969535085833,-64.54329359888699,181.4302212614848,13.256626976120266,-422.6764056537398,172.46115042896812,466.9266555128916
264,18.434944452414165,-156.02201076223605,-63.270783693615996,158.19678205800417,1.6042054925892706,-409.6197492552663,170.02204909431654,452.62210877016156
265,17.277985441947564,-154.33167487184076,-62.14324201927741,134.95818845762423,-11.956947425385016,-395.6697619162163,167.90504292722673,439.0621288776949
266,16.032491820914952,-152.97135745466107,-61.15773324964237,111.96948907056199,-27.446662258892896,-380.9791671554173,166.1217233987892,426.47881717099995
267,14.71363728337438,-151.95079532206702,-60.309521676622836,89.47996924780499,-44.87567693429972,-365.7043126386055,164.68108938105618,415.0835325971944
268,13.338796853794834,-151.27714715030993,-59.59207850070206,67.72877531195859,-64.24284078943553,-350.00339810185335,163.58988837542046,405.062636696437
269,11.927421530294929,-150.95537561363395,-58.99710941169629,46.9410689906373,-85.53199863532232,-334.03479655932597,162.85298462386854,396.5738831394053
270,10.50092715274558,-150.98864191089405,-58.5146077408648,27.32480208873932,-108.70865001444318,-317.95547879885066,162.47374132120018,389.74353445560934
271,9.08259710112732,-151.37869707689745,-58.13293960676338,9.068172805541323,-133.71649397303543,-301.91954565032955,162.45440354786837,384.66426942304577
272,7.697495128735901,-152.1262541711045,-57.838967917680726,-7.66220764180294,-160.47398206044622,-286.0768679194423,162.79646810891896,381.3939253311294
273,6.3723816311163395,-153.23132551973578,-57.61822163000667,-22.72244388490171,-188.87101138499267,-270.5718304933271,163.501026133808,379.9551006250404
274,5.135623976460972,-154.69350977559986,-57.45511531892195,-35.991820098935655,-218.7658949387708,-255.54217507561893,164.56906421150003,380.3356253563234
275,4.017089218512528,-156.51221491497262,-57.333222118458735,-47.372668149134995,-249.98274762906055,-241.11793523938442,166.00171034913453,382.4898890176741
276,3.0480057451793314,-158.68680566823878,-57.235600661707494,-56.789735238922184,-282.3094232511032,-227.42045770509912,167.80041249252554,386.3409971644429
277,2.260779397391089,-161.2166673581507,-57.14517385987113,-64.18916593349151,-315.49613000508765,-214.56150449212922,169.9670398522415,391.7837092966065
278,1.6887494453665626,-164.10118245160209,-57.04515424729061,-69.53722738665131,-349.25484032915386,-202.64243136646382,172.50390063464332,398.68809067517253
279,1.3658705560821398,-167.33962075365255,-56.919507544058106,-72.8189142632521,-383.25959511509143,-191.75343843675736,175.41367354330114,406.9037902519363
280,1.3263085240339587,-170.9309484663594,-56.75344358389036,-74.03657036234698,-417.14778315691603,-181.97288869878068,178.6992541410475,416.26483620318726
281,1.60394004413866,-174.8735649171739,-56.53392204198529,-73.20865634384725,-450.52245443526976,-173.36668994085684,182.36352053382052,426.5948206264124
282,2.2317501171754928,-179.1649785266247,-56.250159277307354,-70.36877686462324,-482.95570127085836,-165.98773501510522,186.40902569315497,437.71232719295944
283,3.241124777126581,-183.80143559968485,-55.8941218336357,-65.56505652102955,-513.9931153817803,-159.87539540653614,190.8376260711504,449.43644158191665
284,4.661041806723907,-188.77751694533953,-55.460991714784,-58.859923897547056,-543.1593022496841,-155.05506363338523,195.65005813259233,461.592175754393
285,6.517168021390319,-194.08571830943686,-54.94958859870582,-50.3303286531355,-569.9644073124917,-151.53774157705539,200.8454762211158,474.0156343057245
286,8.83087841240508,-199.71603121760918,-54.3627347147411,-40.06837952070655,-593.9115813005498,-149.3196745927902,206.42096684646725,486.5587542927327
287,11.618219632468115,-205.65554102241643,-53.707549050988575,-28.182352556389645,-614.5052844149109,-148.3820353536415,212.3710559079229,499.0934587758295
288,14.888847580170099,-211.88805859292148,-52.99565879758594,-14.797980275728627,-631.260301275431,-148.6906668671031,218.68722634343942,511.51507858649336
289,18.644975707644093,-218.3938010117196,-52.24331750925727,-0.059895330482311715,-643.7113113330068,-150.19590076283717,225.35746400360105,523.7449163443547
290,22.880376567119015,-225.1491347455031,-51.47142138717504,15.866930464506225,-651.4228335559342,-152.83247426642072,232.3658490125203,535.7318511296389
291,27.57948344933328,-232.12639206539777,-50.70541715692479,32.7959370339108,-653.9993402961588,-156.519576526948,239.69220840225205,547.4529107179379
292,32.716641270227655,-239.2937682729472,-49.97509700937896,50.51811908560368,-651.0953137978065,-161.16106136953707,247.31184351464242,558.912769921295
293,38.255555853632465,-246.61530399601654,-49.31427784973581,68.80176935346609,-642.4250004153433,-166.64586833140478,255.19534292795433,570.1421674296205
294,44.14898838039738,-254.0509539228174,-48.76036365928053,87.3930235204929,-627.7716030996694,-172.84869632680298,263.3084889264415,581.1952688820412
295,50.33873706516526,-261.5567410937652,-48.353791103379514,106.01738868662444,-606.9956431262201,-179.63097394477114,271.6122630348819,592.1460401101962
296,56.75594107864455,-269.08499428083604,-48.13735967794386,124.3824048492125,-580.0422185907668,-186.84216690006676,280.0629539044489,603.0837310218874
297,63.321732323294576,-276.5846649900469,-48.15544897727479,142.18154477961332,-546.9468913706075,-194.3214564003884,288.61236884864485,614.1076069717055
298,69.94824890413686,-284.0017201728088,-48.45312752725532,159.09940345320095,-507.83994785308334,-201.89981209962446,297.20814861239904,625.3211003750057
299,76.5400101638367,-291.2796067172506,-49.075160332589654,174.81816540144993,-462.9488036197776,-209.4024697812145,305.7941834519511,636.8255903353677
300,82.99563740838128,-298.3597840420737,-50.06492582186227,189.02526867698543,-412.5983596274007,-216.65180685887734,314.3111271450853,648.7140510078306
301,89.2098877332384,-305.1823214521412,-51.463257092105614,201.4221099945774,-357.20916701155113,-223.47058830202138,322.69700397669743,661.0648377572916
302,95.07595174336413,-311.6865570907128,-53.30722720162077,211.7335608600195,-297.29331756048884,-229.68553233636973,330.8879019072465,673.9358998988063
303,100.48795064250707,-317.811815012917,-55.628903821840865,219.71799401210865,-233.4480440673906,-235.1311206454033,338.81874291548104,687.3597152690872
304,105.34355528100652,-323.49817588344445,-58.454104851543185,225.17745795571832,-166.3470857128129,-239.65355380797362,346.42411894601094,701.339230936905
305,109.54664016978619,-328.6872951085084,-61.80119331998612,227.9675880847088,-96.72994521431235,-243.11473147753688,353.63917924623166,715.8450633285117
306,113.00987979039238,-333.32326008698965,-65.67995637543804,228.00680772827874,-25.389234151052097,-245.39612025321483,360.4005525354555,730.8141591847868
307,115.65719325027966,-337.3534759745253,-70.09061838047307,225.2843524197619,46.843631437953356,-246.40236197986923,366.64728579253836,746.1500475465748
308,117.42594688310078,-340.72956711045435,-75.02304099964394,219.86664678036473,119.11406323476068,-246.0644727497054,372.32178078387403,761.7247262364508
309,118.26883286795213,-343.4082792253658,-80.45616268781203,211.9015771882811,190.5608866086422,-244.34248906783017,377.3707099401614,777.3821302646261
310,118.15535472344719,-345.35236587627764,-86.35772546543173,201.6202371213165,260.333464279813,-241.22743252714216,381.7458947249786,792.9430322318586
311,117.07286635111602,-346.5314414562067,-92.68432792285964,189.33577838187975,327.6089115461414,-236.74248689206047,385.4051319011118,808.2111348658963
312,115.02712877295355,-346.92278289260156,-99.38183015174704,175.43908291917796,391.6089405173768,-230.94330977261862,388.3129557848359,822.980041463335
313,112.04236678899123,-346.51206302471394,-106.38611943433598,160.39107864923756,451.61586875309865,-223.9174325479519,390.44132746166383,837.0407376060249
314,108.16082579445786,-345.2940005603456,-113.62422597434289,144.71165944897245,506.98733999615786,-215.7827341489048,391.7702446642521,850.1891910083415
315,103.44184648967682,-343.27291392895296,-121.01575685487218,128.9653336435618,557.1693309382664,-206.6850043172296,392.2882679435506,862.2336771091193
316,97.9604919374988,-340.463168348717,-128.47459551772158,113.74391363780066,601.7070579839248,-196.7946384286713,391.992959146009,873.0014650894653
317,91.80577728127423,-336.8895058706831,-135.91079616771367,99.6467648173425,640.2534523628335,-186.3025284683893,390.89122655316487,882.3445490694448
318,85.07856722541993,-332.58724595134726,-143.2325912302829,87.25934155719106,672.574941873411,-175.4152340888945,388.9995674614097,890.1441763482147
319,77.88921931071475,-327.6023386503219,-150.34842864245158,77.13093152102148,698.5543635602279,-164.34953560761858,386.3441943092324,896.3140001567415
320,70.35506033400667,-321.9912445455836,-157.16896536206033,69.75267837927528,718.1909313186784,-153.32648917051318,382.9610259744875,900.8017591671032
321,62.59778634321126,-315.8206074161298,-163.60896114875146,65.5370270555188,731.5972885040374,-142.56512396322503,378.89552278572984,903.5894537807139
322,54.74087104610175,-309.1666814283962,-169.5890361431698,64.79971162749159,738.9937766848484,-132.27594129682723,374.20234292347993,904.6920503989948
323,46.90705289859136,-302.1144772624126,-175.0372703704622,67.74527946703263,740.7001365979288,-122.65439283807196,368.9447996078752,904.1548052268743
324,39.21595068794439,-294.7566024505099,-179.89062929443762,74.45693405990016,737.1249210605902,-113.87452670574088,363.19410287632707,902.0493637974056
325,31.78183660589902,-287.19178883132366,-184.09619755601634,84.89121731886259,728.7529452345109,-106.0829932278011,357.0283767104392,898.4688602716749
326,24.711579817212094,-279.52312157544895,-187.61219673068652,98.87777723812322,716.1311349737903,-99.3935971680631,350.53145132734335,893.5223042706657
327,18.102764963911998,-271.85600643415376,-190.40875670152064,116.12420681761853,699.8531654093389,-93.88257350870083,343.79144078860105,887.3285932555032
328,12.04198851130716,-264.2959317180694,-192.4684074223654,136.22571026606795,680.5433111445893,-89.58475407115107,336.8991266720929,880.010518277765
329,6.6033394870492295,-256.94609684430225,-193.78626034914322,158.67915654300543,658.8399542736581,-86.4907854419131,329.946178629715,871.689136501791
330,1.8470783940821127,-249.904989126528,-194.36985727062228,182.9009165699692,635.3792134723051,-84.54555398113665,323.02325210752844,862.4788638054232
331,-2.1814624713336372,-243.26399514655867,-194.2386780656805,208.24774557047448,610.7791638815418,-83.64796587280873,316.2180126483541,852.4835949564227
332,-5.452724671319282,-237.10513355200854,-193.4233161966418,234.03986339817624,585.6251106430839,-83.65221136099204,309.61314492365176,841.794087788176
333,-7.953476369623299,-231.49899315949835,-191.96434881495546,259.5853034286974,560.4563541410557,-84.37060580161852,303.2844118333395,830.4867520310936
334,-9.687032447261211,-226.50295372502958,-189.91094453771683,284.20454859315197,535.7548362286702,-85.57804419160367,297.2988329523175,818.6238661487703
335,-10.67310724171997,-222.15975637975887,-187.31926447791852,307.25445853877966,511.9359805659661,-87.01803447906175,291.71305106204625,806.2551169087986
336,-10.947275001567222,-218.4964767551297,-184.2507203767842,328.1505217544788,489.3419402821161,-88.41019535424333,286.57195040631746,793.4202347523834
337,-10.560026681890733,-215.52393718090454,-180.77015782640456,346.3865439948339,468.237353831292,-89.45902290947988,281.90758147484917,780.1524037914891
338,-9.575428008505655,-213.2365764424505,-176.9440328639382,361.5510069378798,448.8076000921272,-89.86365202670979,277.7384356635025,766.4820727057237
339,-8.069401839355683,-211.61277790130848,-172.83864704086795,373.3394910154726,431.1594487113961,-89.32826652926244,274.06910015137026,752.4407853779023
340,-6.127676280275525,-210.6156404019616,-168.51850015845272,381.56274276233097,415.3239267365116,-87.57275241203538,270.8903096432769,738.0646816743028
341,-3.843456885094867,-210.19416182196798,-164.0448121600891,386.1501675755274,401.2611666999261,-84.34314763699246,268.17939780047533,723.3973782260126
342,-1.314894880915299,-210.2847925630841,-159.47425687972603,387.1487317020482,388.8669607658072,-79.42142628334778,265.9011375125655,708.4920148987018
343,1.3575673190902542,-210.8133058807572,-154.8579407261275,384.7174524811804,377.9807168342874,-72.63416801782496,264.0089458936928,693.4123354921645
344,4.073887293643094,-211.69692378958248,-150.24064891475342,379.11783511361745,368.39449331907724,-63.85970626313818,262.44641726101577,678.2327540299635
345,6.737063960808971,-212.84663130679212,-145.66037050765712,370.7007707235956,359.8627784876301,-53.03341716957782,261.14913562010616,663.037435143882
346,9.255645724566497,-214.1696080010563,-141.148101491965,359.8905387243074,352.11267764568714,-40.15090119811296,260.0467077782396,647.9184838864711
347,11.546028237841783,-215.57170441335563,-136.72791293334404,347.1666524295847,344.85417785473885,-25.26891320751419,259.06494986508125,632.9733933980586
348,13.534473339632727,-216.95989217342597,-132.4172596477058,333.04434783801867,337.79017650422236,-8.504008396963272,258.1281545648601,618.3019361728045
349,15.158791572474302,-218.24462049165925,-128.22749484059932,318.0545400298505,330.62598771795234,9.971016631244987,257.1613642792698,604.0027054075539
350,16.36964320196204,-219.34201758095105,-124.16454884870221,302.7240590846178,323.0780789271243,29.9327025097885,256.09257677050687,590.1695174259655
351,17.131426506655462,-220.17588259398207,-120.22972623822496,287.55692846804425,314.8818373181867,51.114246070259796,254.8548141760026,576.8878760727316
352,17.422737065669136,-220.6794212330968,-116.42057517909062,273.01736592271476,305.79821956155683,73.21420269727732,253.387993135454,564.2316782072674
353,17.236397526122367,-220.79668617432037,-112.73178566717263,259.51507513321314,295.619195134824,95.90615831059179,251.64054268855438,552.2603099358492
354,16.579073209783136,-220.4836919309996,-109.15607782749433,247.39326383537968,284.171950721346,118.84892425204664,249.57072704498054,541.0162502770684
355,15.470503927672786,-219.70918273528454,-105.68504721024995,236.91968068379575,271.32187793163445,141.69680105816977,247.1476415828509,530.5232662874258
356,13.942395576739802,-218.45504130149556,-102.30994006553877,228.28081948631603,256.9744161969593,164.10947546242645,244.35186189711305,520.7852537241384
357,12.03702586807681,-216.7163358746627,-99.02233778201436,221.57930434410582,241.0758638951109,185.76115689811778,241.17573710968423,511.7857510248627
358,9.805626455077974,-214.50101272178918,-95.81473579809708,216.83434925972486,223.61330023723121,206.34862126149048,237.62332983950284,503.4881316497166
359,7.306608411907128,-211.82925107319352,-92.6810080554079,213.98508447475766,204.61377561093698,225.59790545339,233.71001602622758,495.83646032301556
360,4.603699251190027,-208.732507258269,-89.61675318353723,212.89646028873324,184.142927933254,243.26948039129383,229.46176798775699,488.7569822244547
361,1.7640576449707903,-205.25228416393443,-86.61952296449417,213.36737693943564,162.3031680204661,259.16181694486517,224.9141535285263,482.16020049857394
362,-1.143572762168128,-201.438670843628,-83.68893729216065,215.14064496556904,139.23155095138412,273.1133433000982,220.11109246645745,475.94348618108455
363,-4.050615970333442,-197.34870461210173,-80.82669296789861,217.9143524104217,115.09741751132907,285.0028692663379,215.10341932086337,469.9941552325096
364,-6.890276642568089,-193.04461370136326,-78.03647641080174,221.35420103567498,90.09985540259085,294.7486197854602,209.94730670389245,464.1929391569199
365,-9.598976916575845,-188.59200212551528,-75.32379284730344,225.10637128564025,64.46499882338387,302.3060740377107,204.7026079019151,458.41776782855305
366,-12.117590298184007,-184.05803968270584,-72.69572684091256,228.8104833312118,38.44316073843154,307.66484630615986,199.4311791334705,452.54777470871335
367,-14.392455820252517,-179.50971900418907,-70.16065103454916,232.11223775660724,12.30577655426608,310.84486901322754,194.19524195710412,446.4674248630197
368,-16.376165090203305,-175.01223813902868,-67.72790146553035,234.6753432950052,-13.657868721053049,311.8921467682122,189.05584403952403,440.07065490412714
369,-18.028123547880668,-170.62756117872615,-65.4074384378106,236.19236994123617,-39.14415636610886,310.87434346849676,184.0714716709215,433.26490185731535
370,-19.31489516196555,-166.41320093621633,-63.20951131199762,236.39420408986737,-63.83891176891283,307.87644384225797,179.2968599245802,425.9748867084064
371,-20.210346860288784,-162.42125711054845,-61.144343421209264,235.05782927301797,-87.4214511990173,302.99669828397583,174.78203644794485,418.14601078673996
372,-20.69561497104017,-158.6977313335918,-59.22184967628469,232.01221294322292,-109.5688902484425,296.34301805700477,170.57162307181133,409.7472222269853
373,-20.758920570034736,-155.2821276871624,-57.45139469371532,227.1421468454524,-129.9606912787735,288.0299403570854,166.70440642639107,400.77321781195286
374,-20.395263831821975,-152.20733429823198,-55.84159404771802,220.38996446257485,-148.2834117042812,278.1762334379769,163.21317528841203,391.2458632419368
375,-19.606029322983723,-149.49976900299316,-54.40015602500862,211.75514115466464,-164.23560013564418,266.9031650684203,160.1248091296059,381.2147415621876
376,-18.39853449285624,-147.17976044000739,-53.13375643652608,201.29186788673422,-177.53277414000772,254.33341613196868,157.4605899887317,370.7567734606247
377,-16.785552105887152,-145.26212603446567,-52.04793500651848,189.10477475564824,-187.91240243643202,240.59058680464273,155.23669914448698,359.97489218483895
378,-14.784834033664378,-143.75690077525599,-51.14699906363448,175.34306235026668,-195.13880641774094,225.79921574382456,153.46485185677022,348.99579697566
379,-12.418659194710706,-142.67016567384564,-50.43391914276926,160.19337269067748,-199.00789159080205,210.08521270514143,152.15301809116258,337.96684845658626
380,-9.71342314210711,-142.00492226739854,-49.910202022880135,143.871791252762,-199.35161952274444,193.57659147139424,151.3061747980593,327.05220344870617
381,-6.699281230468772,-141.76195950308033,-49.57572979416572,126.61541096411766,-196.04213568576216,176.40438261095753,150.9270360910436,316.42831234534367
382,-3.40985153762275,-141.9406620699578,-49.42855849561579,108.67390222876756,-188.99547796239588,158.70360427073368,151.01671171350696,306.2789188954289
383,0.11802224587654475,-142.53971502902823,-49.46467603347753,90.30151627258252,-178.17480288345453,140.6141738794938,151.5752515478659,296.78971204788115
384,3.844453916228086,-143.55766833161974,-49.67772561709589,71.74990220703371,-163.5930789727356,122.28165400227334,152.60204421926088,288.14278610102724
385,7.7266559730828925,-144.99333564660634,-50.05870703020405,53.26204512461063,-145.31520556798978,103.85774091221037,154.0960499909227,280.5110722613521
386,11.719056700113384,-146.8460133969737,-50.59567324941444,35.06754047741539,-123.45951892667844,85.50042348918902,156.0558606211773,274.05291345053644
387,15.773415285346351,-149.11551676960732,-51.273444190123655,17.3793176129124,-98.1986450422461,67.37376115912244,158.47959042478837,268.9069639996665
388,19.838960077676703,-151.80203914165682,-52.07336276273492,0.3918210961399158,-69.75965205597613,49.647250886875305,161.3646129337489,265.1876040053992
389,23.862576425726676,-154.90584979174582,-52.97312079234582,-15.719440388654458,-38.42344727496487,32.494772986716654,164.70716617386302,262.9810609518104
390,27.789070210071014,-158.42685192306308,-53.94668330116706,-30.79715544131683,-4.5233577836233545,16.0931225208105,168.50185653469865,262.3424251913315
391,31.561530997584935,-162.36402885058973,-54.96433880083187,-44.70053169551719,31.5571675316902,0.6201469279576777,172.7410963362683,263.29372818673824
392,35.12181472719239,-166.71481065847235,-55.99290041723599,-57.302981273713996,69.38779070795772,-13.747478394749969,177.41451341563544,265.82322101394243
393,38.41116022725125,-171.4743966882832,-56.99607786829222,-68.48950540032105,108.49549395440498,-26.836795756083436,182.50837237880887,269.8859446080234
394,41.3709470552156,-176.63507076635085,-57.935033627766934,-78.15412323920523,148.36978455567728,-38.481383284772555,188.00504654920698,275.40562379696655
395,43.94359452677849,-182.18554598729352,-58.76912829757488,-86.19767715383828,188.46888489035075,-48.524389010573586,193.88257705823068,282.2778485712952
396,46.07359363298503,-188.1103741629657,-59.456850710726044,-92.52631240548321,228.2268623341193,-56.82171662285666,200.11435109778736,290.374435188247
397,47.70865505252596,-194.3894519259563,-59.95691801869761,-97.05087592642222,267.0616165178628,-63.245290703993106,206.6689253924949,299.5487939861705
398,48.80094805453038,-200.99765120983474,-60.22952039230193,-99.68740910424626,304.383603964765,-67.68632158919378,213.5100138322797,309.6420756797653
399,49.30839733837199,-207.9045966592527,-60.23767466864006,-100.35882705385889,339.6051448479039,-70.05848317213517,220.5966503730989,320.48982618063803
400,49.195998219452655,-215.07460662743463,-59.94864229963316,-98.99778600128073,372.1501256604191,-70.3009114642028,227.8835301936883,331.9288523404812
401,48.43710518575093,-222.4668078577433,-59.33536022962997,-95.5506464068975,401.4638870059597,-68.3809278435163,235.32152398176765,343.80398715552354
402,47.01464477722207,-230.035426749424,-58.37782939897585,-89.98234831113491,427.02306923850307,-64.29638883466394,242.858352308042,355.97444240482815
403,44.92220121428256,-237.73025247676586,-57.064404570564825,-82.28193350929891,448.34518150700836,-58.07756408129985,250.43939962400754,368.319449124284
404,42.164922673809905,-245.4972596440795,-55.392930908035915,-72.46838290083,464.9976622681015,-49.7884462779908,258.00864097722615,380.74291167000837
405,38.76019812602818,-253.27937120977595,-53.37167676498986,-60.596392191632745,476.6062108629287,-39.52740192410192,265.5096495953591,393.1768392658333
406,34.738059570069126,-261.0173365164484,-51.02001799456609,-46.76168864463793,482.8621886915631,-27.427080850319285,272.88665032261764,405.58336926063504
407,30.14127222446859,-268.6506945698297,-48.36883639540544,-31.10549668319917,483.5289126903161,-13.653516536442503,280.0855824333471,417.9552573984401
408,25.02508515128647,-276.1187893212879,-45.46060337171816,-13.817788953917283,478.446691070034,1.5956312294880763,287.05513538975055,430.3147796820602
409,19.456626205855986,-283.36180186557255,-42.349129120262,4.860992224915799,467.5364799989923,18.09371521779675,293.74772253439426,442.7110643348512
410,13.513937576776039,-290.3217643674384,-39.09896726908565,24.639995706047294,450.8020695323407,35.5886166975603,300.12036042436074,455.21594701831333
411,7.284661232924932,-296.9435220860391,-35.784474669579694,45.179986255805545,428.3307383419638,53.807103737389845,306.1354253071613,467.9185145505038
412,0.8643972170159412,-303.1756128215711,-32.48853596694196,66.09743914155698,400.29235143944777,72.45996656782285,311.76126287079774,480.91856980225333
413,-5.645228294857303,-308.9710373131885,-29.30097259060777,86.97073223378212,366.93691470007315,91.24783477851135,316.97263274700634,494.3193118028529
414,-12.138734550839404,-314.28789943637906,-26.316665652089196,107.34838259439461,328.59064439277086,109.86755220619507,321.75097512050877,508.21957805329964
415,-18.509134326994896,-319.08990112802707,-23.633431549921156,126.75919114212155,285.6506561260639,128.0189575466655,326.08449276943674,522.7060359946304
416,-24.65038510824356,-323.3466832925705,-21.349697654700535,144.7240737817059,238.57842039739077,145.41189228014758,329.9680474531145,537.8457306067235
417,-30.459862081311023,-327.0340101251462,-19.56203330211108,160.769273024562,187.89216567319593,161.77323339495823,333.4028745767,553.6793879924705
418,-35.840767101181484,-330.1338001921224,-18.362598457223708,174.44056455862514,134.15843078025753,176.85372856926733,336.3961246408308,570.2158360733648
419,-40.70438723174734,-332.6340132113702,-17.836578563990486,185.31800261344046,77.98297543293577,190.43439869879464,338.9602443924213,587.4278342313296
420,-44.97212044408626,-334.5284067563887,-18.05967885083887,193.03068995992226,20.00125273647251,202.33226987988888,341.1122150848213,605.2495112890264
421,-48.57719454151999,-335.8161820982658,-19.095754451579065,197.27101581515097,-39.131366199695115,212.40520640258663,342.87267010472766,623.5755075218246
422,-51.46601792432179,-336.50154308988186,-20.99465391762586,197.80777984131365,-98.74944432911788,220.5556388736201,344.26491960681534,642.2618139895949
423,-53.59911681233066,-336.5931961508002,-23.79035259391178,194.49761460764276,-158.18725747250542,226.73301673597197,345.31391555399915,661.1282112134664
424,-54.951632287449215,-336.1038225942992,-27.499448219812283,187.29413470364935,-216.788371386699,230.93486050805723,346.04519619247,679.9621352595484
425,-55.51337108793174,-335.04955637320614,-32.12008344071507,176.254281591647,-273.9149086911464,233.2063436208525,346.483853915527,698.5237460374186
426,-55.28842535326163,-333.44950060411037,-37.63134843436975,161.54140322565698,-328.9564147620502,233.63839382718635,346.6535741452487,716.5519418736412
427,-54.294397149878655,-331.32531477170744,-43.99320161128206,143.42470975732653,-381.33824611921636,232.36436618921536,346.57579462771935,733.7710566964165
428,-52.56128219267814,-328.7009009939138,-51.14692780211739,122.27488270835197,-430.529416089127,229.5553993577359,346.26903351574026,749.8979903096874
429,-50.13008241954601,-325.602211828773,-59.01613252395102,98.55578301917545,-476.0498406159344,225.41461994929355,345.7484299299378,764.6495546879909
430,-47.05122794584573,-322.0571938187826,-67.50824921489288,72.81239714839693,-517.4769314059482,220.17040301314663,345.02553188865477,777.749863203633
431,-43.38289474528393,-318.0958706247304,-76.51651522233294,45.6553685110688,-554.4514825672567,214.0689282029692,344.10835368313775,788.9376346458741
432,-39.189304837960385,-313.7505575696511,-85.9223533247635,17.74266781902947,-586.6827884143536,207.36629125980417,343.0017084148272,797.9733162503776
433,-34.53909065714316,-309.05618601627725,-95.59808013114893,-10.240859071887776,-613.952912857265,200.32043974691913,341.7078022867497,804.6459365168753
434,-29.50379442620318,-304.05070191207534,-105.4098520584569,-37.60518335964778,-636.1200061394463,193.18320170033644,340.2270568036511,808.7795724251204
435,-24.15655666688638,-298.77548951174543,-115.2207544288163,-63.677057765471396,-653.1205374614248,186.19266612829935,338.55910565845795,810.2392620965305
436,-18.57102590268986,-293.2757608307001,-124.89393946087628,-87.82127012263184,-664.9702895573721,179.56615428515363,336.70389757107097,808.9361317985545
437,-12.820496181700786,-287.6008458884,-134.29572356101121,-109.46026030957286,-671.7639512004639,173.49398966739824,334.6628269123004,804.8314609349158
438,-6.977253660393876,-281.8043197213877,-143.29856157535994,-128.0912974930961,-673.6731518264668,168.13423375767638,332.43981147728226,797.9394008684886
439,-1.1120920886424923,-275.94390992705524,-151.78382342115822,-143.3005856045704,-670.9428124342843,163.60850715825106,330.04224079666653,788.3281004278243
440,4.7060571922694505,-270.0811423464304,-159.64430506723812,-154.7738604424937,-663.8857397886931,159.99896691142203,327.4817274512105,776.1190668747452
441,10.410440514190235,-264.2807004143239,-166.7864107593318,-162.30323700572876,-652.875465571781,157.3464651077429,324.77460613446493,761.4846927302278
442,15.936798922159857,-258.6094931061956,-173.13194791623656,-165.79024084241865,-638.3374243384982,155.64987433619555,321.9421390919213,744.6439917019414
443,21.22373339188194,-253.13544505494198,-178.61948249024078,-165.2451021216315,-620.7386659543415,154.8665337931934,319.01040123673783,725.8566985664786
444,26.213150128654807,-247.92603909321892,-183.2052127728325,-160.78250629795667,-600.576398430337,154.91374703289912,316.00983372770656,705.415988572879
445,30.85080117276579,-243.0466560558578,-186.86333446328874,-152.6140890759795,-578.3657436054344,155.67124888327524,312.97447155068784,683.6401547846657
446,35.08691854074846,-238.55876952726774,-189.58588884798877,-141.03804678425257,-554.6271506583033,156.98455387224172,309.9408689149857,660.8636420849965
447,38.87692462049288,-234.518064493017,-191.38210777743527,-126.42631390821636,-529.873944075186,158.66909831422936,306.946765546876,637.4278709451155
448,42.18218899783841,-230.9725580611554,-192.2772917805783,-109.20983820821367,-504.6004802119706,160.515088272945,304.0295557542209,613.6722890016804
449,44.97079299840979,-227.96080658218466,-192.3112786522216,-89.8625541239258,-479.27135017014206,162.292961687343,301.22463822356536,589.9260600558845
450,47.21825792729877,-225.51028562670706,-191.53657665174148,-68.884706075673,-454.3120002360409,163.75936302779215,298.5637355767439,566.5007362538119
451,48.90819107421124,-223.63602669591006,-190.016247307155,-46.7861935814147,-430.10105244498914,164.66351365558066,296.07327719656365,543.6841643100987
452,50.03280504553094,-222.33958696785882,-187.82162733175838,-24.070592350376284,-406.96450789286064,164.75384307086375,293.7729364184308,521.735764328191
453,50.593271033653636,-221.60841597982002,-185.0299780527108,-1.2204485504139349,-385.17191588798545,163.78472836616234,291.67440464971355,500.88320978897053
454,50.599875078181746,-221.41566651917375,-181.722145258937,21.31564732920533,-364.9345022154532,161.5231740297841,289.78047165343344,481.32044717922827
455,50.07195737643453,-221.72047720689406,-177.9803038636629,43.13381539492353,-346.40517467198475,157.75525379598002,288.0844645903916,463.20693201960074
456,49.03762683515417,-222.46873276768187,-173.8858515563761,63.883206075265555,-329.68026440592985,152.29213194226259,286.5700798829951,446.6679236849573
457,47.5332548127543,-223.59428637616705,-169.51750474228885,83.27175078197017,-314.802815621861,144.97548404270754,285.211622786741,431.79566788770603
458,45.60276224934025,-225.02060809844497,-164.94963912438638,101.06933334597106,-301.76720125040515,135.68214685824236,283.97465062446537,418.65129528331977
459,43.296722507156545,-226.66280524865323,-160.25090643914234,117.10848249153646,-290.5248159615385,124.32784368118725,282.81699751190473,407.26727080146725
460,40.6713081330852,-228.42994503790004,-155.4831481192318,131.2827780495966,-280.9905788674737,110.86985505200664,281.6901415239328,397.650236612552
461,37.78711368612538,-230.22759762863524,-150.70061605922407,143.5432357419915,-273.0499657518606,95.30853542936224,280.5408601477717,389.78410007812545
462,34.70788917533498,-231.9605090912054,-145.94950023348332,153.8929870691078,-266.5662850983367,77.68761394524006,279.313107213595,383.6332266391603
463,31.499219874458845,-233.5353093490903,-141.26775265377776,162.3806036815921,-261.38791508398504,58.09326099837645,277.95003501503174,379.14560779052084
464,28.22718852099083,-234.86316030264442,-136.68518720544444,169.0924321233614,-257.35523209823253,36.651950532424735,276.3960795809089,376.2558879104345
465,24.957055254269648,-235.8622535824587,-132.22382580823353,174.14430754246183,-254.3069869064837,13.527198047129422,274.5990251490495,374.88815199657904
466,21.75198907504697,-236.4600749138356,-127.89845391192695,177.6730058369551,-252.08592279175733,-11.084696341898493,272.51196554390793,374.9583993111651
467,18.67188198238909,-236.59536207606084,-123.71734314227079,179.82777419664964,-250.5434798596242,-36.95972569510984,270.0950850312081,376.37665435230275
468,15.772273082367727,-236.2196955659766,-119.68309610036997,180.7622516917051,-249.54348870493172,-63.851864193224564,267.3171891373254,379.0486945227471
469,13.103404832968303,-235.29867514201754,-115.793567795455,180.62705649121955,-248.96482108494308,-91.49912941353027,264.15692672703364,382.87740121766217
470,10.709427481208529,-233.81265098032134,-112.04281984916562,179.56327664828117,-248.70303038478545,-119.62977177879245,260.60365792278986,387.76376569386395
471,8.62776123140038,-231.75699448895048,-108.42206729982702,177.69705877808062,-248.67107506948457,-147.9683474362139,256.6579375330533,393.6076010441484
472,6.88861936588933,-229.14191019206856,-104.92058328181365,175.13544395815987,-248.79926837032758,-176.2414486241677,252.33159979119827,400.3080252289573
473,5.514689868145919,-225.99180595507423,-101.52653364870727,171.96355240197994,-249.03463211793954,-204.18289617727345,247.64744670390627,407.7637864530634
474,4.520968372052209,-222.34425368972956,-98.22772119348866,168.24316723258258,-249.33984852274173,-231.53823959501176,242.63855847432518,415.8735014099195
475,3.914731755682165,-218.24858613142436,-95.01222677798282,164.01271310814823,-249.69200000109885,-258.068457786868,237.34725958821736,424.5358705514126
476,3.6956396898667623,-213.7641869474171,-91.86894167354795,159.28856907928494,-250.08126581560248,-283.5528047401724,231.8237875558058,433.64992484018376
477,3.855951111307347,-208.95854088043586,-88.78799122569956,154.0675997459524,-250.50970943767692,-307.79079552791467,226.12472235968917,443.1153473778208
478,4.380843804547445,-203.90511735209162,-85.76105444504228,148.33073785982174,-250.99024734347438,-330.60337595666306,220.3112428315941,452.8329017666312
479,5.248827557690251,-198.68116458625568,-82.78158737866416,142.04740789713586,-251.54584377253198,-351.83336062101694,214.4472811428841,462.7049869372053
480,6.432243990634927,-193.36549184689815,-79.84496021276547,135.18054582612953,-252.2089316604524,-371.3452566412389,208.5976483183235,472.6363250848887
481,7.897848465729281,-188.03631511477275,-76.94851906741427,127.69194644835885,-253.02102143359318,-389.0246123762079,202.82620241969667,482.5347754393204
482,9.60747095123189,-182.76923684349953,-74.09158356771619,119.5476568670754,-254.03242944710811,-404.77704144679103,197.19412719039198,492.3122527176528
483,11.51875300836507,-177.63542357979915,-71.27539079991193,110.72313319680435,-255.30203820522192,-418.5270727174701,191.75838280590764,501.8857165680956
484,13.585957231672419,-172.70003626465484,-68.5029953206976,101.2078880411789,-256.89699158230854,-430.2169670869462,186.57038201922387,511.1781883241847
485,15.76084372980789,-168.0209570817059,-65.77913345574775,91.00937916831916,-258.8922294096042,-439.80562304120076,181.67493450921395,520.1197449447425
486,17.99360579819108,-163.6478442236751,-63.11005830262999,80.15592576908179,-261.36977544912656,-447.2676664918782,177.10949006041193,528.6484378015106
487,20.23385398460744,-159.62153256560964,-60.50335001068847,68.69848759710621,-264.4177087987635,-452.5927885534488,172.90369806721984,536.7110861797969
488,22.431634602797555,-155.9737845907751,-57.96770444251211,56.711202729079304,-268.12876883311475,-455.7853600847159,169.0792875038509,544.2639014357178
489,24.538465844265,-152.72738253437595,-55.51270237869897,44.29064858852215,-272.59856581807816,-456.86431681697877,165.65025849297828,551.2729065626186
490,26.508372341921753,-149.89654013191358,-53.148560903273825,31.553863898709704,-277.92339179792486,-455.863276598229,162.6233644237037,557.7141260783021
491,28.298897492040986,-147.48760116507805,-50.885868331676136,18.635241437506114,-284.1976481802086,-452.830823286624,159.99885270629062,563.5735313697643
492,29.87207195718668,-145.49998265129773,-48.735303938087235,5.682467931091659,-291.5109269100017,-447.83087207914963,157.77142311880752,568.8467359878658
493,31.19531645172537,-143.92731325220294,-46.70734384845115,-7.148256396300794,-299.9448007384757,-440.9430197349138,155.93135555633026,573.5384434549011
494,32.242257200527334,-142.75871235431438,-44.81195493064193,-19.69744400294494,-309.5693945156209,-432.262780586392,154.46575400573073,577.6616570792582
495,32.99343343674591,-141.98015232836661,-43.05827949428831,-31.80769211297248,-320.43982340386646,-421.901615030405,153.35985086167457,581.2366677281382
496,33.43687800626251,-141.57584568946996,-41.45431518389025,-43.32889429315095,-332.59259514487854,-409.98667045238193,152.59831532055892,584.2898425161111
497,33.56855469873428,-141.52960018656375,-40.00659653902514,-54.122997774742714,-346.04208172454986,-396.66017390436593,152.1665115022779,586.8522458742818
498,33.39263940909954,-141.8260880996608,-38.71988710339839,-64.06804391732902,-360.7771707562835,-382.0784393713482,152.05165598814034,588.9581348117628
499,32.9216363718909,-142.45198095023468,-37.596893420910675,-73.0612766957166,-376.75820867518695,-366.4104777084738,152.24383023534838,590.6433819495727
500,32.17632491320513,-143.39690705151258,-36.638014476315824,-81.02116466845345,-393.91434675510214,-349.8362219951538,152.736810260159,591.9438921778012
501,31.185535899928986,-144.65419650011918,-35.8411418281916,-87.88825145655568,-412.14139748211494,-332.5444033601558,153.52868356256326,592.8940902910721
502,29.985760083526216,-146.22138621154392,-35.201526562158385,-93.62482358660213,-431.3003031544795,-314.7301310908164,154.62223127164438,593.5255659959017
503,28.620592814921416,-148.10046649688735,-34.711729045712936,-98.2134577354654,-451.21631051336664,-296.5922452361355,156.02506196746768,593.8659671925919
504,27.140021254009543,-150.29786050467095,-34.36166616850178,-101.65457746978616,-471.678934194907,-278.330519365965,157.74949265695915,593.9382303434726
505,25.59956141504374,-152.82413834714842,-34.13876824916705,-103.96320875341475,-492.4427772218622,-260.1427953183861,159.81218176968488,593.7602264490044
506,24.059253411191737,-155.69347825755082,-34.02825408415028,-105.16517087774038,-513.2292582321472,-242.22213069413357,162.23352826203137,593.3448819835775
507,22.58252427736115,-158.92289692507887,-34.013527817359495,-105.29297292826253,-533.729272679067,-224.75403406841528,165.03685931810006,592.7008066098457
508,21.234928972135638,-162.53127972848225,-34.076695688587435,-104.38170395974994,-553.60678928626,-207.91385335399926,168.24743631265196,591.8334252948156
509,20.08278190553803,-166.53824880265657,-34.19919461154655,-102.46520674953669,-572.5033545060876,-191.86437067382028,171.89131462586715,590.7465742902187
510,19.191693897987278,-170.96291271917298,-34.36251823032665,-99.57280993444621,-590.043447999963,-176.75364374733235,175.99409764781927,589.4444817918426
511,18.625032900510675,-175.82254591497568,-34.54901988093006,-95.72686181368644,-605.8406029861131,-162.71312039838017,180.57962879810006,587.9340188555632
512,18.442330930329447,-181.1312486308006,-34.7427661576948,-90.94126220593822,-619.5041784669761,-149.8560405080937,185.66866740819913,586.2270780044942
513,18.697664283212728,-186.8986388133225,-34.93041012218566,-85.22112845375959,-630.6466473097025,-138.27612951701377,191.2775947110624,584.3429186922687
514,19.43803905489862,-193.12862604476584,-35.102050068941054,-78.56366099489453,-638.8912458878468,-128.04658009294988,197.41719487540897,582.3103118810523
515,20.70181937216378,-199.8183140310422,-35.25203831758699,-70.9601969601812,-643.8798180069371,-119.2193142527789,204.09155301829423,580.1693206255219
516,22.517241435172537,-206.9570726636298,-35.37970455982861,-62.39936171664814,-645.2806781700114,-111.82451732392899,211.29710758106881,577.9725688034545
517,24.901061834887276,-214.52581361446076,-35.48995956669557,-52.87115269894019,-642.7963164596018,-105.87043767861687,219.02188864313683,575.7858742835786
518,27.85739234178127,-222.49649536912767,-35.593747379547374,-42.37172119140551,-636.1707685679304,-101.34345170843989,227.24496696195655,573.6881536220557
519,31.3767743250201,-230.8318749436894,-35.70831747551122,-30.908559355862685,-625.1964787048126,-98.20840092557474,235.9361309969713,571.7705403032261
520,35.435543800975225,-239.4855145162072,-35.85729282349994,-18.505754901482074,-609.7204893061262,-96.40921581480957,245.0558011407924,570.1346952407529
521,39.99553306146921,-248.40204218646718,-36.07051504223832,-5.208947282152502,-589.6497993220989,-95.86984753234931,254.5551822144872,568.8903251703131
522,45.00414718237268,-257.517657658785,-36.38365372927778,8.91039019582053,-564.9557428666034,-96.49553247982742,264.37664755535326,568.1519612437413
523,50.39484359817229,-266.76086652832316,-36.837573252024626,23.7517062067569,-535.6772531722736,-98.17441516844465,274.4543413855701,568.0350869582286
524,56.088030434151456,-276.05342146163275,-37.477456908700574,39.183494411880154,-501.9228940903555,-100.7795506647037,284.71498100017516,568.6517419983105
525,61.99238458611308,-285.3114447600334,-38.351695580667,55.0430551539379,-463.8715632195326,-104.17129838862918,295.07883654255613,570.105766403745
526,68.00657404420211,-294.44670402356627,-39.51055600949339,71.13808826226719,-421.77179681984694,-108.20010366002771,305.4608632275317,572.4878861923752
527,74.02135149732744,-303.3680103696826,-41.00465270858973,87.25021276331952,-375.93963599761963,-112.70964247501148,315.77195832901043,575.8708741523826
528,79.92196904154449,-311.98270678356255,-42.88325717271119,103.140400651005,-326.75504494995806,-117.54027976695026,325.92031298095577,580.3050437099786
529,85.59084817492521,-320.1982129140527,-45.192488212099924,118.55619763717522,-274.65690419278883,-122.53276396233083,335.81282712611784,585.8143447840756
530,90.9104263098909,-327.92359220760056,-47.97343739344231,133.2404905606581,-220.1366340774804,-127.53205380960932,345.35655508360736,592.3933239982925
531,95.76609162133349,-335.07110776604605,-51.260292980565374,146.94147517834537,-163.73053660494213,-132.3911505023222,354.46014937623085,600.0051844894026
532,100.0491128815103,-341.5577347572566,-55.078533577794694,159.4233851491332,-106.01097701457151,-136.9747922712128,363.035271857445,608.5811317719446
533,103.65947045268697,-347.3065996044394,-59.4432679520996,170.47746815472553,-47.57656111399962,-141.16286243837047,370.99794395047337,618.0211230742386
534,106.50849863429411,-352.2483193902051,-64.35779935901554,179.93264234552763,10.9585006162977,-144.85336662692782,378.2698118179494,628.1960522683394
535,108.52125724848226,-356.32221869183155,-69.81249057240908,187.6652387483859,68.97561688711863,-147.96485000517953,384.77930711267527,638.9513074520773
536,109.63856067107344,-359.47740526547403,-75.78399959962556,193.60723526783138,125.86337122813627,-150.43814941063593,390.46268924615686,650.1115417956547
537,109.81860475768025,-361.6736906633883,-82.2349457383194,197.75241740689606,181.02912856863753,-152.23740558760792,395.26496070761675,661.4864098855015
538,109.03814587746056,-362.88234706199904,-89.11405096164626,200.15996159423602,233.9103966056813,-153.3502951192438,399.14065277086905,672.8769508323642
539,107.29320116998458,-363.08669707418125,-96.35678227506855,200.95503047355976,283.98564151748974,-153.7874775373212,402.05448452120805,684.0822537498174
540,104.59925470834223,-362.2825385681004,-103.8864967491578,200.3260964631607,330.7842648273234,-153.58128786800722,403.9819027543615,694.906026145015
541,100.99097003827477,-360.4784109485826,-111.61606336074803,198.5188701076919,373.895466664978,-152.78373518189875,404.9095131954765,705.1627036279192
542,96.52142519786815,-357.69571247300087,-119.44990674318804,195.82690143028657,412.9757501083533,-151.46389022355896,404.8354141015469,714.6827897867831
543,91.26090139008438,-353.96867913445266,-127.28639096859021,192.57914054610123,447.7548619082266,-149.70475840036644,403.7694410571673,723.3171946359606
544,85.2952704866974,-349.34423308603596,-135.02044092527402,189.12497662756348,478.04001661068526,-147.59973991820277,401.7333260717183,730.9404401274059
545,78.7240389636377,-343.8817013719386,-142.54628855950634,185.81750096433396,503.71831226999353,-145.24878048491172,398.76076508861854,737.4527062994633
546,71.65811593471315,-337.65239430399663,-149.7602328983781,182.99593034566945,524.7573123382083,-142.75431758430756,394.8973772608773,742.7807815155711
547,64.21737917292874,-330.73901981323877,-156.56331478559574,180.96824787748042,541.2038329402363,-140.21713100543096,390.20052931106875,746.878038288412
548,56.52811320637972,-323.2348995367554,-162.86382482722345,179.99514318849103,553.1810294255506,-137.73221191695882,384.7389910417578,749.7235790657014
549,48.720386149202376,-315.2429479014017,-168.57957971281405,180.27625438388685,560.8839145027308,-135.38476958562185,378.59238436608655,751.3206959073867
550,40.925417837528315,-306.8743788557299,-173.6399129102299,181.9395446371294,564.5734609584018,-133.24649428903854,371.8503880590601,751.6947813291215
551,33.27297542243619,-298.2471159158262,-177.98733007530416,185.0344188958564,564.5694494894822,-131.37218545171933,364.61166401387345,750.8908247577298
552,25.88881977390092,-289.48389809082585,-181.57878099593668,189.5289365744208,561.2422255196664,-129.79683652149345,356.9824788792669,748.9706304170936
553,18.892221112241554,-280.7100946314775,-184.38650358929152,195.31123086481418,555.003537828212,-128.53324877420778,349.0750081336571,746.0098954319274
554,12.393565735119012,-272.05126299623936,-186.3984048323926,202.19501686260108,546.2966526961494,-127.57023233146093,341.00532757349396,742.095290850927
555,6.492085154764482,-263.63050505237203,-187.61795913973685,209.9288616154358,535.5859697800901,-126.87144749556008,332.89111853018386,737.3216922284092
556,1.2737510532525378,-255.56569501901507,-188.06362501348204,218.20869992498137,523.3464030539731,-126.37494112126846,324.8491359236936,731.7897049051778
557,-3.190609093676636,-247.9666679418224,-187.76780313685742,226.69291394245514,510.05282078445117,-125.99343641470597,316.99251012915005,725.603612004193
558,-6.846913067405692,-240.93246846372594,-186.77538067605246,235.01915998768604,496.1698507885038,-125.61543547826456,309.42797205969754,718.8698300884295
559,-9.659076866394523,-234.5487653750129,-185.141925118614,242.82203253495862,482.14234221364165,-125.10718830596855,302.2531038351925,711.6958851721066
560,-11.609859030473185,-228.88553731547387,-182.93160512167594,249.75061283807838,468.38673070692835,-124.3155667172187,295.55372389119276,704.1898303252135
561,-12.701245935257218,-223.9951289198787,-180.21492511731188,255.4849656198737,455.2834874692678,-123.07185432645298,289.40151536784805,696.4599382919115
562,-12.95434294427485,-219.910764985179,-177.06636496127047,259.7507239418924,443.170759275709,-121.19642262140809,283.85200073622053,688.6144445665248
563,-12.408755532057171,-216.6455937229581,-173.56201601988582,262.33103506680555,432.3392422291737,-118.50420956604344,278.942954701348,680.7611052526456
564,-11.121465905943651,-214.19231004043732,-169.7773011184571,263.07531699663497,423.02828729337796,-114.81085532509226,274.6933322414337,673.0063710855585
565,-9.165232235563982,-212.5233874513697,-165.78485825069194,261.9044797383896,415.42321243675985,-109.93928720346439,271.10276997420056,665.4540523303029
566,-6.626557579015868,-211.59192398313672,-161.6526576340811,258.81247929124464,409.6537896740661,-103.72649130268005,268.1516977372894,658.2034409470491
567,-3.603292678499016,-211.3330843301749,-157.44240943258262,253.8642798840851,405.7938776797309,-96.03016932466834,265.80207415268006,651.3469489417474
568,-0.20195013907617002,-211.66609817072148,-153.20830590110927,247.19048870090015,403.86217437894095,-86.73496069852722,263.99873569698696,644.967401544106
569,3.465183289552619,-212.49675360710845,-148.99612712061827,238.97908852402463,403.8240630098337,-75.75791525280268,262.6713240854704,639.1351817939408
570,7.283044470286793,-213.72030583766107,-144.84272399458314,229.46482189520856,405.59451575388346,-63.052929674938355,261.7367324700003,633.9054545188438
571,11.136808349735958,-215.22470511222488,-140.77587604233628,218.91687246815573,409.0419997487583,-48.61390931188466,261.10198810125877,629.3157013334461
572,14.91482752975356,-216.89403520484905,-136.8145053545379,207.62554378062447,413.99330223994133,-32.476481298823074,260.6674687590741,625.3837759420823
573,18.511409834768568,-218.61204442750594,-132.96921277111142,195.88865232500007,420.23915811337224,-14.71816074973881,260.33033350616705,622.1066451047344
574,21.82935382950899,-220.26564618677236,-129.24308899487767,183.99833095233578,427.5405289014376,4.54304613658096,259.9880364426616,619.4599219978601
575,24.782171621725126,-221.74826589741838,-125.63274304235838,172.22888165482323,435.6353528944938,25.151534691872914,259.54178634771375,617.3982340318377
576,27.295939729059025,-222.9629160791456,-122.12948396648454,160.82622642227093,444.2455659594922,46.91834302269718,258.8998161520136,615.8564054320453
577,29.310732077934855,-223.8248916807971,-118.72058955014633,149.99938609381314,453.0841853266547,69.62652424210542,257.98033429158767,614.7513833048006
578,30.781604097736636,-224.26399282328882,-115.39059762659264,139.91427750353407,461.8622552787194,93.03737586274767,256.7140448661209,613.9847985525752
579,31.67911291533085,-224.22620164446712,-112.12256141860021,130.68996883056528,470.29547370557736,116.89721479281813,255.0461443714011,613.4460304197229
580,31.989375115860256,-223.67476287191403,-108.89921895913227,122.39738366101766,478.11034939350685,140.9443693553771,252.93772826974276,613.015633413964
581,31.713679638449285,-222.5906430242138,-105.7040370130713,115.06030783107391,485.04977773457347,164.91606375534383,250.36656908572598,612.5689842449643
582,30.86768843459349,-220.9723694126165,-102.52210071466091,108.65844003164467,490.8779624217124,188.55489407788102,247.32725717829624,611.980010818245
583,29.480270906770183,-218.83527581836762,-99.34083060201979,103.13214451516353,495.38464779689457,211.61463541910183,243.8307239778877,611.1248731021383
584,27.59202933016114,-216.21020524894388,-96.15051856291228,98.38851489119756,498.3886568771089,233.86517317651087,239.90319361086998,609.8854761788756
585,25.253581042971533,-213.14174025282085,-92.94468316259339,94.30834044667694,499.7407512180904,255.0964132774301,235.58463114927048,608.1527090756838
586,22.523668831605846,-209.6860471972992,-89.72025252087253,90.7535757604515,499.3258399999566,275.1210915954534,230.92677339478675,605.8293190563642
587,19.46717333657591,-205.9084324192987,-86.47758899583003,87.57494393629453,497.06456809182083,293.7764677913994,225.99084074043273,602.8323495194644
588,16.15310033933613,-201.88071507627274,-83.22037442839397,84.61934694658902,492.91430879907693,310.92494968977405,220.8450361509971,599.0950897903987
589,12.652611630272196,-197.67852376308576,-79.95537800870756,81.73680777048446,486.8695797057789,326.453748119468,215.56193985459677,594.5685062117944
590,9.037161281653503,-193.37862181639878,-76.69213130970581,78.78672356147922,478.96189277660517,340.27370665441646,210.21590648812577,589.2221453953547
591,5.3767902446672995,-189.05636041137592,-73.44253664233418,75.64326285524938,469.2590453973229,352.3174841776661,204.88056592295462,583.0445215161783
592,1.7386219460821046,-184.78334970523017,-70.2204352788223,72.1997892512146,457.8638589566897,362.5372893573688,199.62652034131887,576.0430190000027
593,-1.814409500383589,-180.62542662841088,-67.04116097142473,68.37223652735925,444.91237628691965,370.9023741408874,194.519318497882,568.2433585628288
594,-5.224578321434765,-176.64098359862416,-63.92110147714142,64.10139477427597,430.5715380374874,377.3964881285247,189.61777361225842,559.688687080513
595,-8.440124647274393,-172.87970591616298,-60.87728666813459,59.35409459086806,415.03636933128814,382.0154779610733,184.97267451112384,550.4383592749596
596,-11.415752886679954,-169.38174772552227,-57.92701666112547,54.12329889778483,398.52671997928593,384.76518737278263,180.62592136668283,540.5664812483444
597,-14.112883332413569,-166.1773581111487,-55.08753762815762,48.42713262037621,381.28361236345467,385.65977689791436,176.61009860950804,530.1602826164515
598,-16.499678368339975,-163.28695091860735,-52.37576684670463,42.30690259109978,363.56525957447315,384.72054050084125,172.9484790935079,519.3183761824655
599,-18.550872069543413,-160.72159485000333,-49.80806246891846,35.82418599964277,345.6428219177463,381.97525290516916,169.65543595150749,508.148953113069
600,-20.24743767588301,-158.4838847349936,-47.40002805761373,29.0570966364473,327.7959724966642,377.4580392195743,166.737222377966,496.76794905702843
601,-21.576131396334812,-156.56914104465693,-45.16633798597683,22.09587336404183,310.3083425802717,371.20972025522326,164.1930654606341,485.2972040237874
602,-22.52895333940606,-154.9668730937044,-43.120568022890254,15.037972372425399,293.4629151954133,363.278554757633,162.01650875849228,473.8626269967175
603,-23.102567030504026,-153.66243229954242,-41.27501600031168,7.982880120030154,277.53743106448746,353.7212750574696,160.19692994870698,462.59236551145057
604,-23.297717884016347,-152.63877554790787,-39.640500071836556,1.0268929570722016,262.7998648476586,342.60429625122964,158.72115462532634,451.6149709500106
605,-23.11868811780578,-151.87825527457022,-38.22612623027902,-5.741872037934869,249.50402206400443,330.00497135321444,157.57508518383528,441.0575426430883
606,-22.572820969153028,-151.36435248028772,-37.03902188312048,-12.247965797344644,237.8852988675761,316.01276584643387,156.74526466756964,431.0438292487727
607,-21.67014080285739,-151.08327187322868,-36.0840376978707,-18.43233742368333,228.1566392074315,300.73023409094435,156.22029960637587,421.6922658812042
608,-20.4230880105568,-151.02532499923237,-35.36342499246567,-24.255074934070926,220.50471803512545,284.27369591299015,155.99207340148283,413.1139314359868
609,-18.846378813581808,-151.18603756139967,-34.876500324897975,-29.69696877457726,215.08637604060803,266.77353272129585,156.0566926479301,405.410423075931
610,-16.956990684375768,-151.56693059636723,-34.619312592192486,-34.75976756332552,212.02533125768872,248.37404685319302,156.41512244861985,398.6716635788932
611,-14.774264779171911,-152.17594074870397,-34.584330942309826,-39.46506471132107,211.409195662252,229.23285381913124,157.0734823254454,392.97368101361894
612,-12.320108215417505,-153.0274613728567,-34.76017412291305,-43.85183232249284,213.28683016188967,209.51980311901488,158.04299062202827,388.376426916077
613,-9.619271591696286,-154.14200259090228,-35.131403420434424,-47.97270083298655,217.66607850082278,189.41544787826027,159.33956132046706,384.92172586912443
614,-6.6996708539197645,-155.54548413619474,-35.678401941846836,-51.88916443675597,224.51192872338018,169.10910525136688,160.98307234167922,382.6314725969337
615,-3.5927174584977557,-157.26818953520046,-36.37736255855821,-55.66596846466923,233.74515890488303,148.79656696165256,162.99633837251616,381.50620853400795
616,-0.33361696498508747,-159.34342378166383,-37.200405246299674,-59.365000412806396,245.24153067104672,128.6775313552896,165.4038339101234,381.5242146664871
617,3.038405956576649,-161.80592896404644,-38.115841647562604,-63.03905617125421,258.8315982605431,108.95283437916686,168.23022334798094,382.64124849781297
618,6.479998175095299,-164.69012295087987,-39.08860035406078,-66.72588265931837,274.3012012210849,89.82155706325771,171.49876419445002,384.79102929585827
619,9.943723952086598,-168.0282346415927,-40.080820714913514,-70.44290416856713,291.39270427127417,71.47808221688324,175.229656392292,387.88653910149327
620,13.378300075851607,-171.84841491734412,-41.05261607218178,-74.18302040458876,309.80703801424255,54.10916463022427,179.4384147313423,391.82216201244415
621,16.729045965310075,-176.1729050536186,-41.962999430114714,-77.91181925625307,329.2065792982364,37.89106904098087,184.13434233859343,396.47663747750505
622,19.938563566923726,-181.01634394496887,-42.77095609308442,-81.56647820573934,349.2188908357369,22.986820386239867,189.31918117543358,401.71676088082114
623,22.947649194043088,-186.38429183750299,-43.436639358052744,-85.05653846108757,369.44131728698557,9.543602896916743,194.98601017637048,407.4017303926178
624,25.696425816415356,-192.27204100307304,-43.92265746879749,-88.26663063389935,389.44641054449335,-2.3096606643793662,201.1184527471478,413.3880136224373
625,28.12567063775731,-198.6637727717164,-44.19541312654542,-91.06111671857886,408.78813147407203,-12.464520456823065,207.69024263545734,419.5345891669994
626,30.17829989986412,-205.53210586958943,-44.2264513097572,-93.29049751087778,427.0087497255866,-20.83497155464981,214.6651810632945,425.708403558781
627,31.80096128269061,-212.838063789507,-43.99376745527576,-94.79932470555488,443.64633804482247,-27.359152581613674,221.9974993479511,431.7898703362136
628,32.94567457353173,-220.53146989629533,-43.48302649123756,-95.4352594911689,458.24273322981793,-32.00073133937419,229.63262119825583,437.67822308744974
629,33.57145413962533,-228.55175917848052,-42.68864375120275,-95.05884024855548,470.3518129292955,-34.749931202624865,237.50829865918865,443.29651846383246
630,33.64584284671225,-236.8291759962454,-41.61468126702383,-93.55346530792724,479.5479166708327,-35.62414612716244,245.5560764336249,448.59607073847326
631,33.146286978715686,-245.28630880245882,-40.27551724167089,-90.83506549147471,485.43422207921077,-34.66808850135798,253.7030221637919,453.56009074856854
632,32.06128582752303,-253.83989673788108,-38.69625250120491,-86.86093686978046,487.65087454840074,-31.953414466928,261.8736464172068,458.2063037574999
633,30.391257931980405,-262.40283050044314,-36.912825064330384,-81.63722710235912,485.8826616390505,-27.57777728631388,269.99192674634463,462.588336709872
634,28.14907772106335,-270.88626201581127,-34.97181218622756,-75.22461794194076,479.8660227469595,-21.663271861452653,277.9833459589788,466.79569753370185
635,25.36025029507736,-279.2017345933308,-32.929907893772864,-67.74181926823049,469.3951906860306,-14.354252701615478,285.77685557863896,470.9522175490812
636,22.06270711091524,-287.26324717189806,-30.85307274575852,-59.36658167144479,454.32727571133756,-5.814532572855175,293.30668076007834,475.21289079000775
637,18.30622073491392,-294.9891723497692,-28.81536106316764,-50.334038941358685,434.5861255092073,3.7760018762003438,300.5138918868495,479.75911787965197
638,14.15145214413521,-302.3039575697684,-26.897439129114908,-40.9323025367978,410.1648279745521,14.225289999812013,307.3476801002704,484.79244302519504
639,9.668658757877289,-309.1395516013447,-25.18481604631403,-31.495342188629863,381.1267673375357,25.3334139240948,313.76628860389167,490.5269563362006
640,4.936104823040635,-315.436513730149,-23.765817526849162,-22.39329719285273,347.6051967654492,36.897205088845446,319.73756820446687,497.18061518638336
641,0.03822744848868142,-321.14478002381844,-22.729342412315958,-14.0204705636057,309.8013483243291,48.714990143230494,325.239143471702,504.96581230949164
642,-4.936378782339527,-326.2240787362153,-22.162452307342427,-6.781362987358293,267.98115905046564,60.59130970480608,330.25819426247693,514.0795788301335
643,-9.89708831986505,-330.6440043280797,-22.147855844979873,-1.0752050149199313,222.4707443557761,72.34143588884882,334.79087517963274,524.6938513645982
644,-14.753407293206688,-334.3837757610276,-22.761359856327786,2.720458098442421,173.6507922386787,83.79551590104903,338.84141185215145,536.9462477921486
645,-19.41709590898303,-337.4317189799672,-24.069368940299388,4.266488867642533,121.9500804079879,94.80217952081348,342.42092705449,550.9317814220084
646,-23.804176683854795,-339.78452546469987,-26.126521366988648,3.2784792707311228,67.83833190729197,105.23146788510444,345.54606132925227,566.6958959071831
647,-27.836761271245337,-341.44634807260684,-28.973551838989373,-0.4580785193696806,11.81862339384206,114.97696910544101,348.23746176970144,584.2291265082687
648,-31.44463949197604,-342.42780159250736,-32.63546986496691,-7.074531008347981,-45.58045454002092,123.95708185971752,350.51821865268903,603.4635972774848
649,-34.566588594841384,-342.7449378771056,-37.1201363690832,-16.608440270997775,-103.81271137310748,132.11536944303518,352.4123322469071,624.2714635807991
650,-37.15137762348147,-342.4182636793714,-42.417310749109504,-28.996256476799697,-162.32220537562227,139.42001119409525,353.9432909351119,646.4653199409844
651,-39.158459553106255,-341.47186325902834,-48.49822567970466,-44.069832849767714,-220.55092658791506,145.8624021941958,355.13283649202765,669.800524094903
652,-40.558361008966074,-339.9326777283815,-55.31572717880279,-61.5571803636392,-277.9462542719098,151.45499157206518,355.9999829258006,693.9793429564722
653,-41.332794548342115,-337.82997984765296,-62.80499313368283,-81.08767292944266,-333.968167118415,156.22848081594506,356.5603421815298,718.6568039980992
654,-41.474530673667765,-335.19506783328393,-70.88481624210873,-102.20169432810644,-388.0962156383792,160.22852382427777,356.82579400332963,743.4481315261849
655,-40.98707515149541,-332.06118555449905,-79.45940971667157,-124.36447548411823,-439.8362861324022,163.51207991709725,356.80451876296416,767.9376511726331
656,-39.88420118334069,-328.4636592404509,-88.42066877490733,-146.98362104462996,-488.7271903244034,166.14357160246368,356.5013909087073,791.6890420767479
657,-38.18938501734,-324.4402222621527,-97.65080030657701,-169.42958764139965,-534.3471004952484,168.19099336010638,355.9187069442138,814.2567872046129
658,-35.93518742042104,-320.0314801637003,-107.02521931207164,-191.05817390469613,-576.3198147440118,169.72210839066418,355.05719679977415,835.1986050491173
659,-33.16261211768563,-315.2814495050271,-116.41560514856104,-211.2339354020392,-614.320782510337,170.80085798499982,353.91724377375385,854.08854063104
660,-29.920456573205765,-310.23808890341303,-125.69301315380284,-229.35336532266268,-648.0827534144738,171.4840921286446,352.5002192888372,870.5302698624427
661,-26.264652111315403,-304.953731995425,-134.73094569824423,-244.86669682338893,-677.4008438168868,171.8187089315292,350.8098274367368,884.1700639193604
662,-22.25757238305014,-299.485332291092,-143.40829762346127,-257.2972866589694,-702.136757916929,171.8392643113544,348.85335207083756,894.7088031136525
663,-17.967275303856486,-293.8944398988935,-151.61210093412774,-266.2577181981091,-722.2218648894326,171.5660840187101,346.64270574654955,901.9124385731509
664,-13.466636998543615,-288.2468488700383,-159.24000058210208,-271.4619885856347,-737.6588283786249,171.00388138076323,344.1951936255171,905.620368880158
665,-8.832338446688105,-282.6118789759724,-166.20239739582354,-272.7333879807245,-748.5215141075441,170.14086033288078,341.5339245658906,905.7513097956397
666,-4.14367589862987,-277.06128391035253,-172.42419774468794,-270.00791107538083,-754.9529668316231,168.94826778189193,338.6878240787386,902.306370699665
667,0.5188172710553578,-271.6678060950514,-177.8461153987007,-263.3332460219359,-757.161346940953,167.3803540748392,335.6912280966959,895.3691999372732
668,5.074929432818424,-266.50342407826304,-182.42548187167205,-252.86355957730146,-755.4138419252214,165.37470584548754,332.58306155513543,885.1032161095656
669,9.446481284664381,-261.63736060083585,-186.13653851036918,-238.85044496450323,-750.0287052341322,162.8529305283853,329.4056310544585,871.7460968584805
670,13.559139231919874,-257.1339372375907,-188.97020609651986,-221.6305288277435,-741.3657077217672,159.72169297522066,326.2030857511086,855.6018411170294
671,17.344266032453916,-253.05037463582954,-190.93335354460922,-201.6103508498856,-729.8153977498803,155.8741265778587,323.0196237579108,837.0308422645943
672,20.74073159581642,-249.43464505974228,-192.0476130978405,-179.24923291995276,-715.7876418275512,151.19165808872575,319.89754045115694,816.43849472465
673,23.696601464796952,-246.3234856533917,-192.34781160757234,-155.04093659927122,-699.6999517443631,145.54629196440266,316.8752277662248,794.2628950766757
674,26.17062178695694,-243.74067657843514,-191.8801030629982,-129.49495651523492,-681.9660975067754,138.80339389808188,313.9852382563461,770.9621875347541
675,28.133427116027367,-241.69567843948795,-190.69989520651066,-103.11830160328206,-662.9854651368842,130.82499415722322,311.25252420929354,747.0020490997775
676,29.568410100343087,-240.18270881454833,-188.86966348986712,-76.39856823078759,-643.1335545204903,121.47360136206198,308.6929515772162,722.8437274851565
677,30.472208612180992,-239.18031900659864,-186.4567407273433,-49.78900887210942,-622.7539344986774,110.61647975967352,306.3121727199982,698.9329550559938
678,30.854784691322525,-238.6515102605621,-183.53116260428587,-23.696155426542926,-602.1518873739733,98.13030189529034,304.1049228099713,675.6899810240744
679,30.739089260591147,-238.54440471753512,-180.16363912409426,1.5296173335093768,-581.5898874484169,83.90604798337004,302.0547834709612,653.5008992274788
680,30.160325264317073,-238.79346139153924,-176.42371099084193,25.600387191163517,-561.2849709496198,67.85398707159224,300.1344345907357,632.7103979266396
681,29.164838351501217,-239.32120260868666,-172.37813844001096,48.29381620133263,-541.407969983778,49.90854664954432,298.3063919764077,613.6160143481183
682,27.80867783972139,-240.0403929877571,-168.0895585686577,69.45325505007428,-522.0845034038579,30.032859502479813,296.5242056325183,596.463933631687
683,26.155881364433426,-240.8565925725828,-163.61543580733294,88.9850869520102,-503.3975455158047,8.222771443719022,294.7340720262251,581.4463259985158
684,24.27654447921979,-241.6709893629273,-159.00731844983446,106.85367564853999,-485.39133241070215,-15.489897773796669,292.8767946465212,568.7001678935796
685,22.24474178510809,-242.38340510913213,-154.3104018370619,123.0743466034903,-468.0763183602352,-41.03502544723519,290.89001124957264,558.3074462129126
686,20.136369234983132,-242.89536232213953,-149.56338617299178,137.70486514405104,-451.434863747525,-68.30293817220966,288.71059425053437,550.296604567713
687,18.02697827575733,-243.11310006531133,-144.7986048068102,150.83588563444323,-435.4273235432494,-97.14434770191889,286.2771234922021,544.6450615414917
688,15.989671451905089,-242.9504309166058,-140.0423879622819,162.58083816199564,-419.99821289885017,-127.3715174047976,283.53232843024426,541.2826161605713
689,14.09312578220132,-242.3313408857533,-135.3156179581182,173.0656994242221,-405.0821545800725,-158.7606465790629,280.4253995135217,540.0955563500169
690,12.399804284787743,-241.19224713606954,-130.634425467532,182.419066908046,-390.60936065148127,-191.05540045719718,276.9140757516372,540.9313008552424
691,10.96440726219202,-239.4838440132223,-126.01097295611974,190.7629227480223,-376.51046467800614,-223.97145921301234,272.96642655855794,543.6034306835904
692,9.832603643859416,-237.1724850768387,-121.45427189211682,198.2044365039518,-362.7205946636484,-257.20191334138264,268.5622604120592,547.8969971390825
693,9.040069598535595,-234.24106677446824,-116.97098507860045,204.82911275790568,-349.1826525455372,-290.4232976956231,263.69411018096827,553.5740229597724
694,8.611847801212575,-230.68939763997648,-112.5661739427777,210.69553633332242,-335.8498339092319,-323.30203348981394,258.36776444909464,560.3791340655351
695,8.562027229447622,-226.5340551820455,-108.24396120670427,215.831901934829,-322.6874736803262,-355.50103771382464,252.60233476007423,568.0452680300391
696,8.893731175227822,-221.80775053827114,-104.00809009979174,220.23443611795432,-309.6743352371291,-386.6862636369211,246.42986907719447,576.2994022812991
697,9.599391149051115,-216.55823767837896,-99.86237063526777,223.86773215453698,-296.8034709787645,-416.5329545813668,239.89454041420956,584.868234668809
698,10.661277084067166,-210.8468183741186,-95.81101070551551,226.66693013479747,-284.08277440325264,-444.7314244932386,233.0514552403966,593.4837370317238
699,12.052249844944539,-204.7465054839638,-91.85883486371196,228.54159345195873,-271.5353217638002,-470.9922199022875,225.96513818104003,601.888493274249
700,13.736700201043291,-198.339915145854,-88.01139718406941,229.38106446652748,-259.19957077480115,-495.0505644927236,218.70775782956002,609.8407296826463
701,15.671638584293408,-191.71696369377642,-84.27499716144898,229.0610293697862,-247.12944980825895,-516.6700352437516,211.3571638796129,617.1189472391467
702,17.807901543693276,-184.9724480796129,-80.65660962306298,227.45098493154632,-235.39433779945296,-535.6454637076879,203.99480897187803,623.5260722795958
703,20.091443328500567,-178.2035893155617,-77.16374127092367,224.422275966323,-224.07890580239032,-551.8050939196543,196.70362973679246,628.8930508894263
704,22.464684028751524,-171.50761652266172,-73.80422790082298,219.85635966132122,-213.28276808505913,-565.0120572234822,189.5659601611944,633.0818219767652
705,24.867888758829174,-164.97946441874362,-70.58598760111533,213.6529498870201,-203.11987556568883,-575.1652428591261,182.66154646391945,635.9876130490327
706,27.240555177877397,-158.70964993355852,-67.51674613351922,205.73770085892772,-193.71757843625332,-582.1996517221589,176.06572641079723,637.5405115916653
707,29.522789029479654,-152.7823846860191,-64.60375092620097,196.0691053045453,-185.21528827173745,-586.0863204635854,169.8478278111931,637.7062745340137
708,31.6566492176405,-147.2739696618565,-61.8534894676194,184.6443081483401,-177.76268186981355,-586.8318955742674,164.06983104344815,636.4863494603575
709,33.587445040874236,-142.25150683556942,-59.27142635721749,171.50357333757862,-171.51740753541878,-584.4779237330475,158.78532904332792,633.9170944279888
710,35.264968474649905,-137.77195001132733,-56.86177096376469,156.73318942896034,-166.64227701350396,-579.0999069707376,154.03880558376778,630.0681986949098
711,36.64464397271777,-133.8815042363636,-54.62728479976765,140.4666589991274,-163.30195035088573,-570.8061509971285,149.86523938937154,625.0403245532044
712,37.688577581443475,-130.61537028560116,-52.56913460522742,122.88408660920007,-161.65914471429608,-559.736414616187,146.29002833720878,618.9620108106504
713,38.36648673871721,-127.99781853591855,-50.68679392313336,104.20975708854958,-161.8704203724315,-546.0603496760949,143.32921543329317,611.9859005484356
714,38.65649229794446,-126.04256563536602,-48.9779927796728,84.70797613957461,-164.08161707898003,-529.975706156607,140.98998708937307,604.2843781024795
715,38.545755205453695,-124.75341816536024,-47.43871218905377,64.67732396421039,-168.42303183086779,-511.7062671528541,139.27140497342518,596.0447210700893
716,38.03094194882147,-124.1251402528667,-46.063217914739205,44.44354503887072,-175.0044444243293,-491.49947504697406,138.16532574703012,587.4638913426788
717,37.118505493869385,-124.1444969968023,-44.844126502825084,24.351358806768005,-183.91011026741063,-469.6237142252489,137.6574586122114,578.7431040937303
718,35.824771908528476,-124.79142279463206,-43.77249614318495,4.75552284558653,-195.19385019117624,-446.3652273340455,137.72850890439625,570.0823246857063
719,34.17582692208445,-126.04026325435171,-42.83793535544842,-13.988491171227702,-208.87437413126955,-422.0246595408057,138.3553568803787,561.6748495990423
720,32.20720088662369,-127.86104117984644,-42.02872375964792,-31.53383948426774,-224.9309793427093,-396.9132456116928,139.5122240072761,553.7021278461064
721,29.963354801395635,-130.22070070001155,-41.331941181784146,-47.55130812278999,-243.29976442839106,-371.3486749529344,141.17178395931128,546.3289739968654
722,27.496974218712722,-133.0842884423301,-40.73360389279986,-61.73764630033126,-263.87049825183794,-345.6506881930843,143.30618162479976,539.6993141562956
723,24.868081875567484,-136.41603628534057,-40.21880959297628,-73.82294863811141,-286.4842779873029,-320.1364744992316,145.8879301953964,533.9325937207203
724,22.142983566943688,-140.18031639574386,-39.771895444319235,-83.5768614401236,-310.9321030230873,-295.1159512384933,148.89066343979667,529.1209617582192
725,19.393064914334804,-144.34244581103803,-39.376615658248674,-90.8134542701947,-336.9544806954064,-270.8870166027858,152.289727283478,525.3273315936423
726,16.693459168664514,-148.86932461330505,-39.01634658081868,-95.39466775323886,-364.242165111196,-247.73087129774433,156.06260163069285,522.5843997150026
727,14.12160792644291,-153.72989857325132,-38.67432759694477,-97.23231742899704,-392.4381106970841,-225.90750741583426,160.18914978958674,520.8946838588637
728,11.755737692437378,-158.89544387723274,-38.3339453026011,-96.28869773745286,-421.14069676012025,-205.65146142922953,164.65169878723034,520.2316144099752
729,9.673275884889167,-164.33967809511088,-37.97906646966358,-92.57588677480977,-449.908247811216,-187.16792431152396,169.43495934540448,520.5416799254187
730,7.949230494104552,-170.038707796115,-37.59442290112949,-86.15389920516226,-478.26483687181224,-170.62929577902284,174.52579943482186,521.7475875255534
731,6.654558409213248,-175.97082895852242,-37.166048680848576,-77.12787025715289,-505.7073164262278,-156.17226224799896,179.91289006027463,523.7523531535247
732,5.85454856890644,-182.11620128538922,-36.68176737833727,-65.64447708988803,-531.7134758088852,-143.89546993034745,185.5862459994029,526.4441875383926
733,5.607247546592398,-188.45642157535855,-36.131723173221644,-51.887814188868255,-555.7511770013341,-133.85785594510872,191.53668742018797,529.7019944568699
734,5.9619566311259256,-194.9740243461985,-35.508945665824875,-36.07493660791852,-577.2882761026544,-126.07769166962044,197.75525056282913,533.4012530092901
735,6.957830524750043,-201.6519398688861,-34.80993366968954,-18.451269797732348,-595.8030987136235,-120.53238381337104,204.23257691108174,537.4200202576634
736,8.62260837538269,-208.47294052112778,-34.035238791148515,0.7139404078314272,-610.7952076138715,-117.15906929291822,210.95831039733554,541.6447695016452
737,10.971508189202723,-215.41910589188842,-33.19002521862398,21.131997328766953,-621.7961828523115,-115.85602854439618,217.9205311755846,545.975775869364
738,14.006315802980748,-222.47133529727353,-32.28457819944865,42.498842621641444,-628.3801287321487,-116.48492683782179,225.1052523203907,550.3317759741391
739,17.71469929497543,-229.60893297326857,-31.334730853913037,64.49881231263784,-630.173628979457,-118.87387368940037,232.49600220469847,554.6536616873665
740,22.069778626617552,-236.80928586790253,-30.36217793053051,86.8080585765645,-626.8648893958622,-122.82126711188802,240.07351001153785,558.9070174829344
741,27.02997816274853,-244.04764688551907,-29.394646095974334,109.09768802579697,-618.2118340442635,-128.1003635327634,247.81550506536794,563.0833721679958
742,32.539186324518724,-251.29702849601273,-28.465893277704012,131.03671335630276,-604.0489529948626,-134.4644873615364,255.6966332260236,567.2001032767004
743,38.52724189972789,-258.52820390076033,-27.615514199812537,152.29494989844343,-584.2927331500609,-141.6527681583486,263.6884864697032,571.2989997551886
744,44.91076054131862,-265.7098063592806,-26.88853517463025,172.54600836461333,-558.9455358795377,-149.39627004690942,271.7597357753776,575.4435508677894
745,51.59430781390166,-272.80851237221316,-26.334787875077915,191.47053890187826,-528.0978151841356,-157.42435936001837,279.8763529313765,579.7150839382819
746,58.47191671967214,-279.7892913647377,-26.008058770571562,208.7598704104952,-491.92859906079593,-165.4711442125781,288.0019039246746,584.2079205376729
747,65.42893773363076,-286.61570331593794,-25.96501803228187,224.1201645258974,-450.7041874765294,-173.28181477343304,296.0978951087322,589.0237615957544
748,72.34419779289937,-293.25022642529063,-26.2639390609121,237.27716674364223,-404.77505612851445,-180.6187152803187,304.1241533358615,594.2655483251436
749,79.09243134672795,-299.654599321857,-26.96322742614501,247.9815883852703,-354.5709981992498,-187.2669869471561,312.0392226036385,600.0310780953116
750,85.54693184095315,-305.7901661494764,-28.119785989167433,256.015093215671,-300.59458654568334,-193.0396328634242,319.80076218258426,606.4066803571067
751,91.58235700228056,-311.6182173999227,-29.78725140974706,261.19679363236753,-243.41309312897815,-197.78186993431922,327.3659341101875,613.4612725992437
752,97.07760784620642,-317.10032380061625,-32.01414620028132,263.39008738344563,-183.64905521442282,-201.3746477944335,334.69177084251544,621.241113533411
753,101.9186915228862,-322.1986643245028,-34.84199986758558,262.50959191158097,-121.96972195587827,-203.73723055159087,341.7355166191745,629.7655441628584
754,106.00147360667718,-326.8763522707928,-38.303501988480804,258.5278649127578,-59.075644622872055,-204.8287553911406,348.45493899479277,639.0239545740476
755,109.23422704903201,-331.09776534823663,-42.42075831502629,251.48154116699882,4.311313492515979,-204.64870429267563,354.8086103494047,648.9741385396828
756,111.53989257939162,-334.82888682076543,-47.203726778526814,241.47647147346558,67.46027388489941,-203.23625305955667,360.75616310772165,659.5421083294121
757,112.85797788321894,-338.03766518113576,-52.64891206633545,228.69142430499832,129.64368588065506,-200.6684963799312,366.25852674291923,670.6233502557786
758,113.14603891780926,-340.69439963468346,-58.73839426560701,213.37990968557193,190.14947400491565,-197.0575880846403,371.27815903641306,682.0854181424457
759,112.38070444030912,-342.7721578764955,-65.43925866539854,195.86971233924382,248.2927674973496,-192.54687966454603,375.77928780073154,693.7716941525063
760,110.5582224892124,-344.24723116503463,-72.70348052285395,176.55978001322364,303.42700816366823,-187.30618338011502,379.728181566464,705.5060971269528
761,107.6945240312942,-345.0996296970463,-80.46830087387163,155.91420299030347,354.95424884496487,-181.52632411454576,383.09346819789323,717.0984873382636
762,103.82481380987406,-345.3136191265887,-88.65710764048586,134.45313981322923,402.3344689095123,-175.41317204198566,385.84651907261565,728.3505012309278
763,99.0027115952418,-344.8782969430626,-97.18081088652512,112.74068882204435,445.09374626215396,-169.1813630614498,387.9619133973252,739.0615481350563
764,93.29897880254912,-343.78820511918747,-105.93967333412273,91.36987209831359,482.8311389232521,-163.04791444337675,389.41799225219864,749.0347119799525
765,86.79987625783409,-342.0439723319357,-114.82552948624205,70.94508440688743,515.2241456863144,-157.22592991198678,390.19750470772277,758.0823243853436
766,79.60520909155075,-339.6529741601468,-123.72430238938396,52.06255883423627,542.0326381987283,-151.9185640966767,390.2883385152785,766.031009979927
767,71.82612408766926,-336.6299917941433,-132.51871049623855,35.28960151928299,563.1011894329865,-147.31338518151125,389.6843154723817,772.7260460244952
768,63.58273230649944,-332.9978382310775,-141.09105216238285,21.143530313898626,578.3597669694568,-143.5772417175954,388.38601754244604,778.0349179792361
769,55.00163383118629,-328.78790651206594,-149.32596365179293,10.07138803706656,587.8228104082033,-140.85170977354295,386.40159626026207,781.8499814955719
770,46.21342032771545,-324.0405803341533,-157.1130656344146,2.431558255796467,591.5867626862968,-139.24917331564245,383.7475074456256,784.0901575605252
771,37.35022339818,-318.80543782034977,-164.34943632475958,-1.521634577773373,589.8261655116805,-138.84957484053675,380.4491075712776,784.7016020253064
772,28.543362091102058,-313.14117833991656,-170.94186832653688,-1.6494138255824304,582.7884529643096,-139.69786290395868,376.54104774629513,783.6573217064542
773,19.92112307904413,-307.1152118279931,-176.8088751951392,2.064554231621256,570.7875847480723,-141.8021547501419,372.06740586002616,780.9557675942543
