time,ax,ay,az,gx,gy,gz,accmagnitude,gccmagnitude
0,5.141359274266378,-244.96606206889453,-122.79397816329653,-43.13312874020714,4.039653761966786,-8.033055169065687,274.0635770666567,44.01544327983372
1,5.2111741760578205,-245.22857001576992,-122.78187604102543,-43.91882625410178,4.475568586729922,-7.821660986255301,274.2949499018045,44.78571946340386
2,5.2736378089703795,-245.4895353048716,-122.77196265678771,-44.67928290547065,4.872457884453738,-7.61524570075157,274.52589643999494,45.52810121228623
3,5.327475781897905,-245.74689884282296,-122.76494099116921,-45.40497530904017,5.2192615746942606,-7.41654825018855,274.75486974411433,46.233152208124636
4,5.371569026893757,-245.99866934660565,-122.76159823811241,-46.0875421166234,5.505336366568074,-7.227914158498576,274.9804237211763,46.89268489857818
5,5.404995028759456,-246.24295682265242,-122.76279751535752,-46.72006255305465,5.720706691539411,-7.0512008748909984,275.201239996577,47.50004583120148
6,5.427064126309179,-246.47800159020827,-122.76946467929685,-47.29730336979022,5.856304114592155,-6.887699923777408,275.41614846178896,48.0503679080495
7,5.437349561707278,-246.70219817790368,-122.7825700557308,-47.81592619947434,5.904188411098994,-6.7380792888694625,275.6241407915719,48.54078119409859
8,5.435710380513971,-246.91411379081478,-122.80310508474004,-48.274648148814315,5.857744112899935,-6.602348551905317,275.82437665389375,48.97057475957634
9,5.4223067107479865,-247.11250141348145,-122.83205402701951,-48.67434961611113,5.711847167272191,-6.4798482799251165,276.01618274535423,49.34130320376276
10,5.397607279949444,-247.29630791225372,-122.87036111506107,-49.01812471175125,5.462997343218383,-6.369264057371634,276.19904516715883,49.65683293818698
11,5.3623892868976,-247.46467761862104,-122.9188938928309,-49.31127126910241,5.109413110949934,-6.2686644576758255,276.3725959302842,49.92332497079333
12,5.317730989618794,-247.61695178602983,-122.97840387801209,-49.561219287221604,4.651086896067853,-6.175561219367198,276.5365944780428,50.14915285681881
13,5.264997613815079,-247.75266414477335,-123.04948600706072,-49.77739878318157,4.089799860982592,-6.086989032415524,276.69090511353176,50.34475670592574
14,5.205821418219724,-247.87153272077637,-123.13253856409538,-49.97105041791677,3.4290966674283223,-5.999601750234642,276.8354712773386,50.52243662587314
15,5.142076952998982,-247.97344819764598,-123.22772544619771,-50.154984739880305,2.674221973059424,-5.909781560690355,276.9702877919381,50.69609157923694
16,5.075852642554053,-248.05845929459161,-123.33494263475217,-50.34329819106098,1.8320216448912237,-5.8137576390522305,277.09537236921244,50.880912045658576
17,5.009419766359882,-248.12675579709986,-123.45379059569254,-50.55105577086621,0.9108127781712577,-5.707730996369339,277.2107377552951,51.09303673852421
18,4.945199753189292,-248.178649964403,-123.58355408422945,-50.79395108024413,-0.07977244562803673,-5.5880025572368,277.3163658482818,51.349184540738854
19,4.885730520447078,-248.21455704236075,-123.72319058920309,-51.08795421541689,-1.1289632808564227,-5.45110188609215,277.412185013382,51.66627263749846
20,4.833632388132521,-248.23497559609774,-123.8713284760316,-51.44895689151861,-2.2250410309832493,-5.293914362735457,277.4980517197003,52.061030769866186
21,4.791573873238629,-248.24046846025522,-124.02627574896634,-51.89242276917572,-3.3555372207837495,-5.113804907010564,277.5737376260851,52.549620121388415
22,4.762237481707991,-248.2316453260125,-124.18604015924485,-52.43304969959772,-4.50743281811154,-4.908736500999702,277.6389233454192,53.14726404945388
23,4.748285521396566,-248.2091482519645,-124.3483610526708,-53.08444972116511,-5.66735228893922,-4.677381728625433,277.69320019928136,53.867896923422535
24,4.752325947749032,-248.1736415620701,-124.51075286917626,-53.85885212538602,-6.821746856087494,-4.419225359102336,277.73608120936143,54.72383675172609
25,4.776878237849022,-248.12580756018332,-124.67055958882783,-54.76683459624431,-7.957062249838982,-4.134655669783152,277.76702225605624,55.72548693728141
26,4.824339164772274,-248.06634917598726,-124.82501866769634,-55.817087075054644,-9.05988751778723,-3.8250417933108594,277.7854537052329,56.88107219168097
27,4.896948090773375,-247.99600006808154,-124.97133218395834,-57.01621240690176,-10.11708308707337,-3.492793990363962,277.7908218946129,58.196413185717795
28,4.996751162578871,-247.91554189852928,-125.10674209905663,-58.368566891740926,-11.115888145139017,-3.1414035113468857,277.78263876738356,59.67474382721468
29,5.1255638307254,-247.8258275243255,-125.22860578618615,-59.87614262607367,-12.04400935137072,-2.7754586865915014,277.7605367320966,61.316574142050655
30,5.284931567558846,-247.72780789128413,-125.3344674659744,-61.53849211241678,-12.889694707304729,-2.40063405313722,277.7243247474786,63.11960067030337
31,5.476089408349043,-247.62255974408026,-125.42212123944613,-63.3526942432381,-13.64179787600933,-2.0236495729040747,277.67404107149514,65.0786652143626
32,5.699921739841512,-247.5113110895318,-125.4896621489009,-65.31335967116337,-14.289839105810458,-1.6521972067028856,277.6099983120326,67.18576185102786
33,5.956924427423883,-247.3954616824117,-125.53552279763792,-67.41267290802604,-14.824068952941925,-1.2948323229151129,277.532817228738,69.43009144372924
34,6.247171784142399,-247.27659647649375,-125.55849404269284,-69.64046820759069,-15.2355401191807,-0.9608278728645309,277.443446795734,71.798162419075
35,6.57029092129733,-247.15649067847568,-125.55772910938832,-71.98433617263353,-15.516191060640418,-0.6599902193410888,277.34316905048365,74.27393614300424
36,6.925445669108888,-247.03710547701866,-125.5327315512132,-74.42975787179645,-15.658942908594362,-0.4024370831296626,277.2335881560059,76.83901469741356
37,7.311331703340871,-246.92057372007736,-125.48332887938273,-76.96026295825389,-15.657809028573913,-0.19834022795696302,277.116603947829,79.47286817318961
38,7.72618397705184,-246.80917503961555,-125.40963493027311,-79.55760787676934,-15.508014480551957,-0.05763804843098876,276.9943710190003,82.153097803952
39,8.167797072172183,-246.7053003345429,-125.31200468271746,-82.20196984713087,-15.206120847400683,0.010274142789625762,276.86924505064593,84.85573047061267
40,8.633558566417523,-246.61140610521687,-125.19098530314982,-84.87215212704362,-14.750150406366766,-0.0031340481376087763,276.74371862443496,87.55553949053198
41,9.120494942792957,-246.52995982906572,-125.04726690583435,-87.54579633016905,-14.139702459242983,-0.10520615346633014,276.62034921641634,90.2263863986296
42,9.625329030653056,-246.46337829535202,-124.88163601091692,-90.19959845422676,-13.376053856443011,-0.3017899079424472,276.5016824674912,92.84157879116079
43,10.144547513790226,-246.41396146455776,-124.69493409001684,-92.80952670003019,-12.462235347663839,-0.5969546487565304,276.39017411129646,95.37424019517532
44,10.674476676611226,-246.38382492463865,-124.48802306936784,-95.3510408784455,-11.403075301074386,-0.9927476851306486,276.28811413495447,97.79768910603644
45,11.211364280678257,-246.3748343571901,-124.26175930359165,-97.79931487200385,-10.205202529152778,-1.4890007538540686,276.1975568698576,100.08582548280857
46,11.751465231699544,-246.388545491328,-124.0169772869319,-100.12946493550233,-8.87700056424115,-2.0831954982518246,276.12026063586103,102.21352383486877
47,12.291128425140794,-246.42615269060926,-123.7544841115949,-102.31678737839373,-7.428506967246982,-2.7703942036777653,276.0576401276684,104.15703241196651
48,12.8268818341551,-246.48844868151832,-123.47506531049036,-104.33700929099979,-5.8712533167286205,-3.5432389042390597,276.01073397349296,105.89437787980751
49,13.3555126725304,-246.5757972641997,-123.17950215754101,-106.16655542550677,-4.218044440923367,-4.3920186533814105,275.9801890296571,107.405774193851
50,13.874139504682008,-246.6881202771679,-122.86859970272022,-107.78283301562169,-2.4826790395170404,-5.3048015939585795,275.9662621063425,108.67403302884634
51,14.380273527156099,-246.82489948811664,-122.5432238581106,-109.16453410154257,-0.679617714512038,-6.267625858293027,275.96883886547505,109.68497090279988
52,14.871866848271885,-246.98519332726403,-122.20434491297145,-110.29195193079651,1.1763919327953272,-7.264741479613702,275.98746856145425,110.42780510976505
53,15.347346373382198,-247.167667529283,-121.85308412128647,-111.14730464936375,3.070720645178836,-8.278894387123454,276.02141224307314,110.89552715134352
54,15.805632772196857,-247.3706379073904,-121.4907595730211,-111.71505636459256,4.989279197144798,-9.291643067299015,276.0697011325732,111.08523915360632
55,16.246144819045817,-247.592122670459,-121.11892751082986,-111.98222335171815,6.918942073882429,-10.283698473810292,276.13120119270053,110.99843645257198
56,16.668790014973187,-247.82990096417709,-120.73941562315865,-111.93865221126445,8.84795964068546,-11.23527812019363,276.2046794385024,110.64121873085263
57,17.07394276768969,-248.08157382399122,-120.35434551206843,-111.57725744647142,10.766346843973102,-12.12646582377142,276.2888674255983,110.02441311936967
58,17.462411579478157,-248.34462359863156,-119.96614232711804,-110.8942080915329,12.666238299531564,-12.937569120801514,276.3825175899444,109.16359542140299
59,17.835396748366087,-248.6164681433213,-119.57753044049859,-109.88905621807406,14.542201377709318,-13.649466867021403,276.4844487186753,108.07899959292328
60,18.19444002492149,-248.8945066381446,-119.19151501609493,-108.56480386785798,16.391500326618296,-14.243940020835485,276.5935777523715,106.79531029216315
61,18.541367490850092,-249.17615472780167,-118.81135025105318,-106.92790879432214,18.214305344743,-14.703979180533757,276.70893626510764,105.34133825650167
62,18.87822672768289,-249.45886777042082,-118.44049578780991,-104.98823288421721,20.013840645814327,-15.014063202436796,276.8296712465762,103.74958298871876
63,19.207219215318837,-249.74015221888587,-118.08256335453592,-102.75893965749093,21.7964649917539,-15.160404228745325,276.95503115023854,102.05569111597676
64,19.530628840287324,-250.0175663313432,-117.7412561960017,-100.25634827405551,23.571677266150587,-15.131155747398717,277.0843394324506,100.29782132169048
65,19.850747346454728,-250.28871227541435,-117.42030422910503,-97.49975093243877,25.352038995138482,-14.916581897357947,277.2169587362884,98.51592792405064
66,20.169797497873276,-250.55122211879822,-117.12339795432229,-94.51119893633319,27.15300586014583,-14.509188049226488,277.35224928600513,96.75097554636893
67,20.48985467840188,-250.80274025562468,-116.85412399480082,-91.31526090993565,28.992661580083055,-13.903814565838182,277.4895250254225,95.04409778415209
68,20.812767674819014,-251.0409047003255,-116.6159048522542,-87.93875549804622,30.89135019884096,-13.097697335179697,277.6280107950259,93.43571410296833
69,21.140079480662994,-251.263329547288,-116.41194510711603,-84.41046077385752,32.8712066310806,-12.090499890403962,277.76680356120863,91.96462165465279
70,21.472949090939927,-251.46759077342256,-116.24518574191355,-80.7608032588606,34.95558988612297,-10.884322458773804,277.90484036713553,90.66708186745089
71,21.812075437255388,-251.65121739433437,-116.1182674225733,-77.02153033113412,37.16842818454562,-9.483693013170333,278.04087517189134,89.57592475712725
72,22.15762485555422,-251.81168972067653,-116.03350253702298,-73.22537036845972,39.533489687407325,-7.895544391902916,278.17346608057807,88.71969622780868
73,22.509163743240002,-251.94644608775997,-115.99285488384433,-69.40568512263918,42.073596310085144,-6.1291799990414955,278.30097376137917,88.12187483884782
74,22.865598248453882,-252.0528989628241,-115.99792539161129,-65.59611866696093,44.80980071928366,-4.1962287961466265,278.4215712113794,87.800184501982
75,23.22512288510467,-252.12846080776077,-116.04994216854391,-61.830246889307894,47.760547911455674,-2.110588575571211,278.5332645162969,87.7660282817838
76,23.585179946897675,-252.17057954931846,-116.14975344876028,-58.1412309195031,50.94084278233266,0.11164488227024283,278.6339238754529,88.02406587191685
77,23.94243160018747,-252.17678303038514,-116.29782250503045,-54.561477117879626,54.36144409227403,2.452266122936909,278.7213239371821,88.57195353131881
78,24.292746546795385,-252.14473139846805,-116.49422414186866,-51.122305485574714,58.028103626464556,4.891069743436324,278.7931923395808,89.40026062375827
79,24.63120302621792,-252.07227603816204,-116.73864274049242,-47.853627841674296,61.94086755026366,7.405985815967909,278.847265176854,90.49257185209395
80,24.95210957485463,-251.95752339610303,-117.0303719395495,-44.783637034291694,66.09345522923161,9.973245507690315,278.88134790078595,91.82577916306316
81,25.249044429401337,-251.79890191225286,-117.36831601994425,-41.938508822707036,70.47272922761589,12.567581468249854,278.8933800038197,93.37056228491525
82,25.514913927505585,-251.59523029236075,-117.75099302121124,-39.342118748010535,75.05826886615628,15.162467407505192,278.88150180166565,95.0920520021967
83,25.742029886357752,-251.34578553497929,-118.17653959603236,-37.01577713954098,79.82205862999082,17.730400816074603,278.84412177319854,96.9506656063802
84,25.922205733033994,-251.0503693973379,-118.64271768813731,-34.97798631410029,84.72830181038346,20.243231929167564,278.77998319801094,98.90309953490394
85,26.046870967964743,-250.7093722492705,-119.14692332679932,-33.244225017431226,89.73336889397156,22.672540760470753,278.6882291683891,100.9034600590181
86,26.107203239916018,-250.3238334738265,-119.6861980236695,-31.826766150310018,94.78588920822325,24.990062300996428,278.5684653269215,102.90450897849779
87,26.094276912128485,-249.89549770153036,-120.2572432686441,-30.734534530143492,99.82699304954153,27.168157798161847,278.42081980198816,104.85899754131165
88,25.999226559386877,-249.42686610006632,-120.85643847980892,-29.97301148033621,104.79070989696065,29.18032754597565,278.24599969668583,106.72105819120185
89,25.81342334489007,-248.92124154778543,-121.47986260272188,-29.544192163666445,109.60452639626193,31.001758093496825,278.04534306634883,108.44762039999513
90,25.528661687530665,-248.38276585264077,-122.12331937948002,-29.4465997705269,114.19010570398481,32.60989444892877,277.8208646453422,109.99981405649318
91,25.137353129555684,-247.8164464686981,-122.78236599151589,-29.675358092133525,118.46416759907616,33.985025771445265,277.57529281506083,111.34432192572783
92,24.632723913329812,-247.2281695781957,-123.45234428636239,-30.22232087085357,122.33952648042079,35.110871074125846,277.31209458253113,112.454641658138
93,24.00901244333279,-246.62469598394614,-124.1284132747095,-31.076252887694668,125.72628180468533,35.975149449138094,277.0354847544021,113.31221762846687
94,23.26166252965927,-246.01363605089082,-124.80558121089476,-32.22305440793928,128.53315242273447,36.570117240922265,276.75041517032065,113.90740335709705
95,22.387508147015236,-245.40340007622268,-125.4787354329865,-33.64601794760575,130.6689424423029,36.89305259471009,276.4625399603067,114.24021636830784
96,21.384945420232256,-244.80312100825867,-126.14266826174894,-35.326104985146664,132.04412170869668,36.94666620209664,276.1781533724975,114.3208492826707
97,20.25408755204692,-244.2225472525284,-126.7920976314257,-37.24223051620417,132.5724991094016,36.73941623498363,275.9040976561131,114.16990416958026
98,18.996898318116976,-243.6719042252803,-127.42168165487315,-39.37154493361219,132.17296227226265,36.28570578916519,275.64763956991686,113.81832220434124
99,17.617299571005045,-243.16172430242062,-128.02602686547908,-41.689704971220536,130.77125343554408,35.605942943889396,275.41631521864144,113.3069878338416
100,16.121248012524227,-242.70264597367338,-128.59969036283886,-44.1711278879372,128.3017486717749,34.7264469008963,275.2177441716495,112.68599602882625
101,14.516776415987787,-242.3051844458587,-129.13717656356218,-46.78922556698947,124.70920627744471,33.679188493074356,275.05941530428714,112.01358256589887
102,12.813994647605426,-241.9794776224685,-129.6329297803886,-49.516617885200965,119.95044977036213,32.50135934515257,274.94844853693064,111.3547301477117
103,11.025046436185503,-241.73501319938313,-130.08132441681036,-52.32532767989833,113.99595116745448,31.234770675436323,274.8913385316152,110.77947680343469
104,9.164018940560311,-241.58034441283803,-130.47665512334382,-55.18696282662556,106.83128059125474,29.92508962848472,274.8936882930417,110.36096651182666
105,7.24680356932586,-241.52280361773072,-130.8131297878958,-58.07289404068266,98.45838843537344,28.620927674344287,274.95994236077763,110.17329447630583
106,5.290907905025813,-241.56822425137253,-131.08486872295845,-60.95443962952257,88.89668625205816,27.372801763905155,275.09313075232103,110.28921032229869
107,3.315219837287114,-241.72068278571948,-131.28591381385576,-63.80307018957906,78.18389244880524,26.23199455938185,275.29463593173097,110.77775135078453
108,1.3397262284882145,-241.98227294922873,-131.41025157485478,-66.59064691952207,66.37660918982489,25.2493451775149,275.5639957448866,111.70188469956602
109,-0.6148102212356353,-242.35292470992565,-131.45185391927032,-69.28970672656989,53.5505979641496,24.47400641593617,275.89875535487926,113.11624166339155
110,-2.52721079232052,-242.83028003926677,-131.4047400027923,-71.87380568643621,39.80072337124807,23.952208173389483,276.29438055178576,115.06502925925385
111,-4.376270746271088,-243.4096360762916,-131.2630618096066,-74.3179298004501,25.24053799598458,23.726069386034386,276.74424321051595,117.580203106123
112,-6.141171811072997,-244.08396390920342,-131.02121519585037,-76.59897847905478,10.001486040973633,23.83250187561655,277.2396870500845,120.67998156601996
113,-7.801908427477613,-244.84400795125603,-130.6739767876422,-78.69632176984489,-5.76829009846535,24.30224867241067,277.77017830935995,124.36777362477876
114,-9.339718171376546,-245.67846706027814,-130.21666539641888,-80.59242684044982,-21.9055478216764,25.159096392399494,278.32354169978834,128.63158179513184
115,-10.737506174522771,-246.574254365181,-129.6453245378695,-82.27354225149342,-38.23394451917713,26.419295998796883,278.88627726839246,133.4439258544633
116,-11.980253098571335,-247.51682846748355,-128.9569204498562,-83.73041984483518,-54.56642674196683,28.091218789871714,279.44394893401363,138.76231310899257
117,-13.05539619536515,-248.49058454409072,-128.14954800673414,-84.95904385138991,-70.70798381720324,30.175264988242088,279.98163082268337,144.53025648774147
118,-13.95317311986007,-249.47929011211792,-127.22263536822412,-85.96132607505221,-86.45873020085206,32.664031411588475,280.48439343708816,150.67881467924244
119,-14.666918450062749,-250.46654707719853,-126.17713718488709,-86.74571641239481,-101.61727008052725,35.542733101912496,280.9378084217392,157.12860130446873
120,-15.19330333301891,-251.43625952270287,-125.0157057132442,-87.32767142363895,-115.98428745230143,38.78986214035354,281.3284485403858,163.79218552899815
121,-15.53250930427743,-252.37308583712826,-123.74282924829836,-87.72992169925428,-129.36629505417662,42.37805564003127,281.6443587430723,170.5767866114886
122,-15.6883281212774,-253.26285433571113,-122.36492783346453,-87.98248216955508,-141.5794661394151,46.27513442637793,281.8754749565119,177.38715069519674
123,-15.668180507766102,-254.092923395691,-120.89039723404896,-88.12235840105143,-152.4534642593668,50.445264621401805,282.01396937700974,184.1284899324226
124,-15.483048210747665,-254.85247012232904,-119.32959368429317,-88.19291594215196,-161.8351782997201,54.850186984410165,282.0545044502139,190.7093616629991
125,-15.147315842810087,-255.53269560809352,-117.69475404271101,-88.24289814960983,-169.59226341293987,59.45045441000041,281.99438236052356,197.04436855909083
126,-14.678521565089143,-256.1269398471444,-115.99984880193139,-88.32509944121087,-175.61638382796068,64.20661734812329,281.8335826727898,203.05656900617262
127,-14.097018578772614,-256.63070500172194,-114.26036877717904,-88.4947239947775,-179.8260516282307,69.08030053777102,281.5746874164974,208.67950004596614
128,-13.42555240980728,-257.04159140568015,-112.49304984242464,-88.80748275055407,-182.1689574640868,74.03512211338939,281.2226996665991,213.8587324627865
129,-12.688761872672824,-257.3591558087835,-110.71554333223315,-89.31750226627103,-182.6236958175432,79.03741704781156,280.78476777682056,218.55289852893796
130,-11.912614249834919,-257.58470542699285,-108.9460424920223,-90.07513563346748,-181.20079967762535,84.05673997294309,280.2698323271096,222.73415697082956
131,-11.12378758293708,-257.72104404593034,-107.20287770766262,-91.12477683356593,-177.94301763779706,89.06613658690875,279.6882162885621,226.38808623211918
132,-10.349015018671833,-257.772187622935,-105.50409511072067,-92.5027850316192,-172.92479010235658,94.04218703435592,279.0511807671073,229.5130252657247
133,-9.614407897460694,-257.74306672636527,-103.8670342327092,-94.23562461960563,-166.2509093264654,98.96483778718166,278.37046900454584,232.11890967019954
134,-8.94477580031505,-257.63923206460794,-102.30792045250386,-96.33832068601662,-158.0543786565653,103.81704979177577,277.65786031232295,234.22567827585772
135,-8.3629631024406,-257.4665775558685,-100.8414870416842,-98.81331792224947,-148.49351755415853,108.5842993819726,276.9247535468774,235.86134918293223
136,-7.8892225013307264,-257.23109305071335,-99.48063971273582,-101.6498135220593,-137.74838880833792,113.25397427464334,276.1817968000234,237.05988263919616
137,-7.5406460816861705,-256.9386560917407,-98.23617391127665,-104.82361175019646,-126.01665104998064,117.81470963160935,275.4385763840513,237.85895923345365
138,-7.330673443151011,-256.59486908470575,-97.11655221538194,-108.29752096114962,-113.50896178712237,122.25570870703493,274.70337423512495,238.2978043694526
139,-7.268694283680515,-256.2049450373748,-96.1277467113463,-112.02228509645693,-100.4440723528256,126.56608931904225,273.982998831571,238.4151830760094
140,-7.3597599150654,-255.77364174368572,-95.27314922138757,-115.93801344882502,-87.04376528214726,130.73429185121321,273.28269081630634,238.2476728561389
141,-7.604414837866524,-255.3052412349954,-94.55355043633756,-119.97604701989775,-73.52778613260904,134.7475774424072,272.6061008812319,237.82829768198928
142,-7.998655946762589,-254.80356882324446,-93.96718705305929,-124.06117901204519,-60.10891590456534,138.5916372753924,271.9553343264551,237.18557608349894
143,-8.53402327153861,-254.27204433902136,-93.50985388973645,-128.11413200819172,-46.98831815781317,142.25032616740734,271.3310542362488,236.34300414937917
144,-9.197822423329685,-253.71375722769312,-93.17507582495472,-132.05418536544306,-34.351278428448445,145.70552654013238,270.7326334793781,235.31896357371932
145,-9.973475138002563,-253.13155691274318,-92.95433256872575,-135.80184281202003,-22.363434665918057,148.9371426059404,270.15834474643145,234.1270181063788
146,-10.840990482575334,-252.52815022397607,-92.83732794535618,-139.28143170993974,-11.167578096578355,151.92321936324578,269.60557760957823,232.77654036621678
147,-11.777545370631588,-251.90619870565828,-92.81229451922783,-142.4235316845601,-0.8810856806129791,154.64017674915263,269.07107210415035,231.27359569765937
148,-12.758158999798583,-251.26841014367324,-92.8663238222245,-145.1671410344921,8.405971102845019,157.06314601795313,268.55115940036364,229.62200075266662
149,-13.756441753931945,-250.61762042696867,-92.98571203129005,-147.46150377566946,16.632011178413304,159.16639306211073,268.04200147785843,227.82447134654907
150,-14.745395230173429,-249.95686359913077,-93.15631080360878,-149.2675370802156,23.764406518136,160.9238119420771,267.5398231048938,225.88377601238128
151,-15.698236790539285,-249.2894293984457,-93.36387330938084,-150.5588167977101,29.799220837307114,162.30947131940331,267.041130696273,223.8038175659468
152,-16.589219977717452,-248.61890848500693,-93.59438638607813,-151.32209655786426,34.76023813268579,163.2981966961981,266.54291360822214,221.59057402771438
153,-17.394421748704243,-247.94922573361043,-93.83438106063754,-151.5573531697261,38.697311523059895,163.86617207478443,266.0428239622565,219.25284180449552
154,-18.092468890452615,-247.28466143942236,-94.07121525433861,-151.27736774875268,41.6840800917504,163.99154545005288,265.5393311515675,216.80273763085822
155,-18.66517892681339,-246.6298592776147,-94.29332407904619,-150.50686844232192,43.81511822306334,163.65502312878465,265.0318469291724,214.25593092509445
156,-19.09809482791784,-245.98981876795608,-94.49043449547676,-149.2812767111921,45.20259730179944,162.8404382384627,264.52081666084734,211.63159436167018
157,-19.380897424180485,-245.3698692500628,-94.65374206838509,-147.64511434232827,45.97255297984263,161.53527917713697,264.0077722567436,208.95207692166102
158,-19.50768429028769,-244.77562230523856,-94.77604819591893,-145.65014183557122,46.26086221949728,159.73116440222904,263.4953427814373,206.24231961724286
159,-19.477108808748316,-244.2129002628383,-94.8518567219878,-143.3533094334356,46.209042818001244,157.42425097963235,262.9872199286848,203.5290485154567
160,-19.292377972281667,-243.68763976326125,-94.87742939531545,-140.8146087609894,45.959993793632414,154.61556575991094,262.4880773316214,200.83979163215332
161,-18.961112060394182,-243.20577104486506,-94.8508002805512,-138.09491502275745,45.653797378828926,151.3112499504645,262.00344481016026,198.20177500319082
162,-18.495073498111285,-242.77307539771292,-94.7717500246741,-135.25390681803745,45.423701874959704,147.52271020764624,261.5395408829705,195.6407585091643
163,-17.90977587703434,-242.39502494903357,-94.64174177773441,-132.34814348175976,45.392398924610035,143.26667204775515,261.10306903420667,193.1798740383616
164,-17.22398721171349,-242.07661065982734,-94.4638213184831,-129.42936941929435,45.668698903761346,138.56513409997345,260.7009852703854,190.83852772966463
165,-16.459144024335636,-241.82216611614328,-94.24248439533599,-126.5431019952755,46.344694606923824,133.445224215883,260.3402463728777,188.6314246588139
166,-15.638694887047873,-241.63519614416333,-93.9835145968061,-123.72754457046281,47.493486923447406,127.93896053343931,260.02754977363327,186.56776853614076
167,-14.78739366378434,-241.51822008874896,-93.69379543769008,-121.01284950531318,49.1675275889177,122.0829222098348,259.7690768964321,184.650680804234
168,-13.93056388083947,-241.47263949220974,-93.38110087018566,-118.42073785575585,51.397614168171394,115.91783572396315,259.57025188897416,182.87687311424352
169,-13.093356409872678,-241.49863880076128,-93.05386900970534,-115.96446400074487,54.19255200511429,109.48808352863507,259.4355268057726,181.23659492497353
170,-12.300022918352843,-241.59512569579346,-92.72096432733248,-113.64909576787193,57.53947769394132,102.8411425830202,259.36820250505195,179.71386452323935
171,-11.57322715661005,-241.7597149537821,-92.39143379667158,-111.47206499065825,61.4048192782623,96.02696107520785,259.3702919923128,178.28697781908377
172,-10.93341490226708,-241.98875677254077,-92.07426252570373,-109.42393100300558,65.73585032121917,89.09728250802777,259.4424300509925,176.92927560148289
173,-10.398261250095274,-242.2774076687642,-91.77813434044405,-107.4892914349414,70.46277856843936,82.10492720501159,259.5838301617012,175.610137405472
174,-9.982211123119292,-242.61973966196916,-91.51120266293424,-105.64777162857897,75.5012954894577,75.10304212250104,259.7922872448406,174.29615962417625
175,-9.696125637134555,-243.00888168945104,-91.28087684897362,-103.87502629924722,80.75550093114109,68.14433064808158,260.0642228485839,172.9524677453829
176,-9.547043413221674,-243.43718609108066,-91.09362890026082,-102.1436943332784,86.1211078918606,61.28027489876759,260.3947680892173,171.5441080271003
177,-9.538062170558078,-243.89641250575804,-90.95482507320568,-100.42425894785653,91.48882642851513,54.56036391199296,260.77787886189424,170.03746258123246
178,-9.668342060257432,-244.37792154406222,-90.86858626912588,-98.68577963884206,96.74782320373993,48.031341952140615,261.2064774590243,168.40163339981632
179,-9.933228366853319,-244.872871053146,-90.83768015173708,-96.89647805277593,101.78915424414596,41.73649182065095,261.67261465546716,166.60974481649697
180,-10.324487467620967,-245.37240858651188,-90.86344677763061,-95.02417579250223,106.50907301766769,35.71496853259545,262.167646491632,164.64011970153527
181,-10.830646260179352,-245.86785479938874,-90.94575833944577,-93.0365970500389,110.81212370745045,30.00119907292585,262.6824204414907,162.47729190176642
182,-11.437421649143007,-246.35087388255337,-91.08301257730899,-90.90156198279577,114.6139401348683,24.62436420822756,263.2074664229783,160.11282569110764
183,-12.128223320888772,-246.81362868313508,-91.27215852684093,-88.58710723605162,117.84368352115162,19.607978373873095,263.73318906797675,157.5459218543664
184,-12.884710315147666,-247.24891963088027,-91.50875247666127,-86.06157737300569,120.44606636498868,14.96958315703935,264.2500586067093,154.78379889982526
185,-13.687380215085604,-247.65030786883568,-91.78704136651994,-83.2937346745611,122.3829242529002,10.720568452106283,264.74879855659356,151.84184609975543
186,-14.516169347271317,-248.01222404613935,-92.10007058282086,-80.25293437226777,123.63431149891613,6.86613269416307,265.2205692008804,148.74355192253716
187,-15.351043228483402,-248.33006504407206,-92.43981332806598,-76.90940754521169,124.19910937137384,3.405389679067766,265.6571466382164,145.52021645502904
188,-16.17255846236885,-248.60028145387489,-92.79731930624507,-73.23468457137787,124.09514694434104,0.33162465322944346,266.05109791995494,142.21045955248118
189,-16.962380049248715,-248.82045888025908,-93.16288103394079,-69.20217862339811,123.35884447227049,-2.3673029761962634,266.39595331745113,138.85953821301916
190,-17.703741201952628,-248.98939602833295,-93.526216329237,-64.7879322732948,122.0443981702342,-4.70841847803397,266.68637686672275,135.51848798504295
191,-18.381835924298215,-249.10718194966952,-93.87666528903111,-59.9715122458538,120.22253394183917,-6.712965881362622,266.9183358590917,132.24310496311926
192,-18.984137680340265,-249.17527376792918,-94.20339939105003,-54.73701938453624,117.9788661600773,-8.405636397094543,267.08926888747817,129.09278756247534
193,-19.50064046874311,-249.19657475163825,-94.49563946183072,-49.07416483799411,115.41190586739263,-9.813715206501438,267.1982505663409,126.12926076129568
194,-19.924021530693892,-249.17551085412694,-94.74287842855975,-42.97935131869463,112.63077020619318,-10.966174662327015,267.24614931954517,123.41520959603784
195,-20.249727731677105,-249.1181019686074,-94.9351042923027,-36.45669167313867,109.7526509004072,-11.892744515196927,267.23577292692806,121.01285308784908
196,-20.475990266738833,-249.0320224168539,-95.06301875387531,-29.51889669015107,106.90010360360719,-12.622990531421253,267.17199512285265,118.98249413627664
197,-20.603774570847445,-248.9266438510793,-95.11824732335567,-22.18796967255266,104.19822144910407,-13.185431807137745,267.0618556390032,117.3810847297768
198,-20.63667401626024,-248.81305293643734,-95.09353733275148,-14.495655484412682,101.77175491109652,-13.606724595529457,266.9146257136206,116.26084831958606
199,-20.580757109602523,-248.70403596660304,-94.98294079825344,-6.483604776142301,99.74223613915417,-13.91093710032711,266.7418312226598,115.66800148852532
200,-20.444378502048895,-248.61402297197404,-94.78197938372642,1.7967718540161257,98.22515970966211,-14.118935879058622,266.5572261944868,115.64161445113682
201,-20.237964210610887,-248.55898483634638,-94.48778879519992,10.284771190741166,97.32726417246053,-14.247900432563982,266.37671048092125,116.21264438126188
202,-19.97378097095242,-248.55627830460614,-94.09923988592884,18.911184836059682,97.14395112505697,-14.310978254916218,266.2181866772571,117.40316773944805
203,-19.665698533423242,-248.62443542537207,-93.61703366232018,27.599393851701773,97.75687209205373,-14.317088060620236,266.10135293291495,119.22582880792709
204,-19.328951962447775,-248.7828958340518,-93.04376730229583,36.26674760428372,99.23170912909212,-14.270874115233006,266.04743000218673,121.68351271634903
205,-18.979908745536417,-249.05168221787432,-92.38396830370594,44.826195079029546,101.61617315805698,-14.172809673290246,266.0788226675557,124.76924322889997
206,-18.635843037797887,-249.45102121108818,-91.64409405171898,53.18812944835806,104.9382444359884,-14.019442669301114,266.21871747030673,128.46629892626785
207,-18.314716908035933,-250.0009138922239,-90.83249441964492,61.26240019553604,109.20468184791308,-13.803772288330983,266.4906205544092,132.74853629955055
208,-18.034966163513946,-250.72066215616118,-89.9593354323702,68.96044132172658,114.39983132684878,-13.515741197111163,266.9178415012493,137.58090460209218
209,-17.815286390239706,-251.62835953631117,-89.03648255738182,76.19745900744373,120.4847678759409,-13.142825401281177,267.52293134392875,142.9201347929206
210,-17.674413497828446,-252.7403573293221,-88.0773429865593,82.89461783144613,127.39680939184515,-12.670702159584327,268.32708534548783,148.7155831312113
211,-17.63089246309046,-254.07071884909888,-87.09666740596714,88.98116198419712,135.0494427008263,-12.083976126777365,269.34952337667005,154.91020866095926
212,-17.702828126434085,-255.63067618764762,-86.11031309468592,94.3964077799277,143.33270206468924,-11.366944671037778,270.6068626770498,161.44166301862464
213,-17.907612746115632,-257.42810496719966,-85.13497153287099,99.09154681648893,152.1140373189389,-10.504384798159668,272.11249933093217,168.24347090997134
214,-18.261626501190324,-259.46703318602215,-84.18786494091947,103.0312052630594,161.2397023808981,-9.482345995406344,273.8760158573295,175.24628014675375
215,-18.779909184355944,-261.74720033898177,-83.28641736624624,106.19471314777013,170.536684889184,-8.288935221061699,275.90263286545076,182.3791607684359
216,-19.47580384598607,-264.26368252310635,-82.44790713800819,108.57704705449314,179.81518429669185,-6.915081818846322,278.1927227655506,189.57093281302213
217,-20.360576052580676,-267.006598199228,-81.68910873060075,110.18941932679826,188.87162937999412,-5.35527103201515,280.74140302722526,196.7515013110005
218,-21.44301560674148,-269.96090762364065,-81.02593332230546,111.05949593535699,197.49220782870603,-3.608234895162095,283.5382253900254,203.85317500262457
219,-22.729030833165424,-273.1063167009726,-80.47307861102067,111.23123296249048,205.45686158615743,-1.6775885559500445,286.5669757484366,210.81194237381388
220,-24.221248489334954,-276.41729332332216,-80.0436996662725,110.76432778031555,212.54368321878948,0.42760147541585797,289.80559726487724,217.5686753749532
221,-25.9186345914971,-279.86320148134405,-79.74911355670197,109.73328545135651,218.53363185938858,2.692332987748955,293.2262468243828,224.07022831608597
222,-27.816152747354568,-283.4085558565728,-79.5985510018875,108.22610419817065,223.21547276398863,5.095286449373138,296.7954924410639,230.27039758475956
223,-29.90447704749006,-287.0133972976589,-79.59896821708254,106.34258686754038,226.39083227545822,7.6085681570410015,300.47465670105464,236.1307074218521
224,-32.169776388300036,-290.63378736226275,-79.75493127974667,104.19228905257444,227.87924974375812,10.197603077795321,304.2203085898556,241.6209880975495
225,-34.59358635297896,-294.2224176983348,-80.06858357691834,101.89211956113198,227.52309945424932,12.821204003909772,307.98490281744284,246.71971527414692
226,-37.15278334885322,-297.72932728986035,-80.53970416411978,99.56361554912057,225.19224882090018,15.431843405545417,311.71756187038284,251.41408288905018
227,-39.819673412928424,-301.10271756435327,-81.16586127078597,97.32992300913115,220.78831443480627,17.976151674341292,315.3649915678769,255.69978657235035
228,-42.56220490853887,-304.28985221858517,-81.94266075330222,95.31252356345601,214.24837605342006,20.395659996609943,318.87251605639915,259.5805009726
229,-45.344310395492016,-307.2380254488281,-82.86408392780952,93.62776099168984,205.54801177833173,22.62779772957943,322.1852130283179,263.06704343381216
230,-48.126378479714624,-309.89557905812717,-83.92290282451214,92.38323622128307,194.70352710582966,24.607142927947667,325.2491244874434,266.1762294701452
231,-50.86585159146321,-312.21294570497605,-85.1111536210659,91.67415820477643,181.77326749103764,26.26691086682361,328.01251270460523,268.92944330151977
232,-53.51794055622298,-314.1436926093979,-86.42064138646276,91.57976014400082,166.85792891414584,27.540649513663524,330.4271254980986,271.350969132257
233,-56.03644180351568,-315.6455377749531,-87.84344248099393,92.15991466008154,150.09981252913065,28.36409371334965,332.4494303676063,273.4661537557256
234,-58.374638479462476,-316.6813096025665,-89.37236680219583,93.45210516322436,131.681004575062,28.67711292589244,334.04177418014865,275.2994938947583
235,-60.486262645719464,-317.2198207721588,-91.0013424000396,95.46892984740143,111.82049645276496,28.42567338259933,335.1734247069557,276.87275610975405
236,-62.32649166830739,-317.2366282711912,-92.72569087692162,98.19632367238144,90.77028815377014,27.563727866098084,335.82145251688826,278.20323796391796
237,-63.852947383804775,-316.71465318382246,-94.54227305334118,101.59267484535036,68.81054139453546,26.05494752342127,335.97141625102756,279.3022668910439
238,-65.02666230003014,-315.6446363274926,-96.44949851012164,105.58897810972748,46.243872638092164,23.87422029559524,335.6178206633759,280.1740156303145
239,-65.81297473150147,-314.025409726557,-98.4472063434776,110.090104590346,23.38890779222156,21.008857028418724,334.76432484328865,280.81469980824284
240,-66.18231614825807,-311.8639704545323,-100.5364343830448,114.97718373054414,0.5732614572017841,17.4594651621549,333.42368806787437,281.2122161373971
241,-66.11085958849444,-309.1753532286695,-102.71909875918206,120.11100386547227,-21.8738525103123,13.240467842708432,331.61745305711486,281.3462696400518
242,-65.58100673412441,-305.9823103789657,-104.99760615720872,125.33626423496509,-43.62913679809904,8.380261718062224,329.3753803600955,281.1890142135597
243,-64.58170146484181,-302.3148200399704,-107.37441975977576,130.48646570968052,-64.38259208435932,2.9210191116247644,326.7346613352723,280.70619184136444
244,-63.10856783364459,-298.20945301047874,-109.85159865941824,135.38921080747696,-83.84450483347035,-3.081850379897045,323.73894845618497,279.8587121223156
245,-61.1638794284656,-293.70863412735326,-112.43032997781285,139.87168708632709,-101.75180090984419,-9.560557556166176,320.4372489209845,278.6045771077354
246,-58.75637452610292,-288.8598350423342,-115.11047257719851,143.766121252449,-117.87355608613525,-16.436085935552676,316.88273035299164,276.9010318425559
247,-55.9009372493778,-283.7147327104003,-117.89013039063103,146.91500770270343,-132.01549483565447,-23.619613246556728,313.13148619894565,274.70680843512463
248,-52.61816933688476,-278.32836271299306,-120.76527173616505,149.17593331043676,-144.02335479771185,-31.014177229262256,309.2413041544227,271.98433011906826
249,-48.933880434570725,-272.7582897603229,-123.72940876493378,150.42584188650778,-153.78504385427138,-38.51656174859413,305.27047464772085,268.7017516806376
250,-44.87852704458952,-267.0638102345307,-126.77334889025974,150.56460899515938,-161.23156803431345,-46.01937901846224,301.2766690804778,264.83473359156596
251,-40.4866309016389,-261.3051941679554,-129.88502792088082,149.5178309471177,-166.33675932074718,-53.413321536810706,297.31590982727454,260.36787728592253
252,-35.79620579999796,-255.54296721651116,-133.04943266902083,147.23876883310203,-169.11587996758217,-60.58955297064662,293.4416463979505,255.29578420598247
253,-30.848217391300143,-249.83722756210196,-136.24861891872237,143.70942598802202,-169.62322068210804,-67.44220143507253,289.7039451421157,249.62373615787985
254,-25.686093655192717,-244.24698872019314,-139.46182865423623,138.94077179520082,-167.94884098367137,-73.87091267257182,286.14879389151236,243.36802413765358
255,-20.355295641674438,-238.82953726198247,-142.66570807590253,132.97215379809847,-164.21461991595015,-79.78341566035606,282.81751832559837,236.55597403021332
256,-14.902949810258859,-233.63979473385834,-145.83462490286874,125.86996267331432,-158.56979492528797,-85.09804928543137,279.74630384147963,229.22572978276202
257,-9.377535645385095,-228.7296756977848,-148.94107970723317,117.7256307312564,-151.18616834691986,-89.74619494658218,276.96581545445184,221.42585861089788
258,-3.828615538349777,-224.14743865251097,-151.9562016694581,108.6530546222705,-142.2531567251489,-93.67455497954487,274.50090866518127,213.2148394716187
259,1.6934117274233962,-219.93703297999272,-154.85031455071814,98.78553748286494,-131.97284927687872,-96.84721025655034,272.37042589625776,204.66048617356728
260,7.137556911492146,-216.13745186295412,-157.59355457197063,88.27234604210763,-120.55522834396886,-99.24738328178064,270.5870753927389,195.83934115930143
261,12.4525111797118,-212.78210702865238,-160.15651914379725,77.27497587094012,-108.21368656507391,-100.87882777691631,269.1573917288893,186.83605713556446
262,17.586967412517897,-209.89824519441999,-162.5109243846054,65.96321463334058,-95.1609531740769,-101.76676444972283,268.0817786637037,177.74276414054705
263,22.490014792360373,-207.50642785458615,-164.6302496722514,54.51109010587762,-81.60551663619937,-101.95828704971825,267.3546355747178,168.6584023915822
264,27.11162437328082,-205.62009580798818,-166.49034836330287,43.09278756328223,-67.74860478413908,-101.52217369719973,266.96456794988376,159.6879889250594
265,31.40323624162804,-204.2452382190503,-168.07000499041735,31.878620149869324,-53.7817588341426,-100.54805571687878,266.89468083998514,150.94178012033518
266,35.31845035896108,-203.38018368979414,-169.3514209809512,21.031136057308064,-39.88501556333178,-99.14491896256253,267.12295248711746,142.53429288802286
267,38.813813807390865,-203.01552811874436,-170.32061359333161,10.701447363785537,-26.225692494988905,-97.43893936690422,267.6226840423345,134.5831535645264
268,41.84968758698089,-203.13421097882772,-170.96771644145124,1.0258662929463542,-12.95775264682317,-95.57068322879934,268.3630204057657,127.20775358292732
269,44.391167130227224,-203.71174792021765,-171.28717447551261,-7.877066281748239,-0.2217062173360821,-93.69173161740109,269.3095365684392,120.52770307606372
270,46.40902319585046,-204.71662332576003,-171.27783113991646,-15.909080004169171,11.855014509722878,-91.96081570181761,270.42488318201214,114.66108679379356
271,47.88062455074489,-206.11084175719844,-170.94290997979954,-22.99413168557554,23.15729286562193,-90.53957470233034,271.6694841784855,109.72254082097619
272,48.79080115023346,-207.85063224198217,-170.2898966912794,-29.079764345316523,33.58128443086314,-89.58806948208316,273.0022778957272,105.82118317356378
273,49.13260617834776,-209.88729417090403,-169.33033039561624,-34.137832721635014,43.03321454390561,-89.26020134177737,274.38149135082983,103.0584453908738
274,48.90793691187393,-212.16816837433603,-168.0795149911125,-38.16458104589569,51.428146367487905,-89.6991959491852,275.76543528997564,101.52586439332495
275,48.12797765493642,-214.6377119222215,-166.55616302717453,-41.18008192475983,58.6888471226547,-91.03331524109511,277.11330570374486,101.30290329406269
276,46.8134328837413,-217.2386505913125,-164.7819856560897,-43.22706879016534,64.74486772969598,-93.37195478622246,278.3859758023515,102.45487655978631
277,44.994525214709334,-219.91317910684225,-162.78124265178988,-44.36921773347521,69.53192957090326,-96.80227047313868,279.5467611166734,105.03105926331925
278,42.71074069677178,-222.60417659408208,-160.58026601700132,-44.68895618357505,72.99168388450786,-101.38645720931865,280.5621395452363,109.06306177526118
279,40.01031291618584,-225.25640344644512,-158.2069692968697,-44.28489349953497,75.07187745418132,-107.15977485713547,281.4024079192683,114.56354830451396
280,36.94944716079872,-227.8176460920419,-155.69035265300317,-43.268979432604354,75.72692562034892,-114.12938463786764,282.0422571424583,121.52536763645645
281,33.5912961314228,-230.23977781829083,-153.06001152507798,-41.76349877242518,74.91886256816062,-122.274024923432,282.46124932853996,129.92114587852444
282,30.00470905879622,-232.479706722577,-150.34565487975286,-39.898004651392256,72.61861130605041,-131.54452118100792,282.6441827200679,139.70336573984974
283,26.262786056562504,-234.50018580345701,-147.57663811294765,-37.80628140872006,68.80749333160023,-141.86509313660764,282.58133354638613,150.80492938920648
284,22.441278455164774,-236.2704649799484,-144.78151583988284,-35.62341396052025,63.47888173861899,-153.13539470199618,282.2685682099481,163.14017719246164
285,18.61688313515605,-237.76677017629788,-141.98762079370186,-33.48302696945106,56.63989181783134,-165.23319981639548,281.7073238729537,176.60631565505162
286,14.865484157051624,-238.97260025245905,-139.22067618034427,-31.51474489661046,48.3129998200943,-178.0176303116702,280.9044600925344,191.0851953520141
287,11.260398056684032,-239.87883822775257,-136.5044493674817,-29.841912846845666,38.53748294499216,-191.33280990427707,279.87198811864187,206.44537273201368
288,7.870679798878669,-240.48367873854804,-133.86045423009196,-28.57960672320425,27.370581098638233,-205.01182083011918,278.6266875408903,222.54438712059732
289,4.759544344647108,-240.79237884942427,-131.30770780386058,-27.832948424252454,14.888292629892234,-218.8808357879417,277.1896221503499,239.23118464632162
290,1.9829541070780932,-240.8168440561355,-128.8625445480893,-27.695727411756103,1.185730953897436,-232.7632972926922,275.5855683979305,256.34862303271865
291,-0.41158445012489697,-240.57506542600032,-126.5384891318211,-28.249315041505934,-13.623014491843115,-246.48401926814165,273.84237098647174,273.7359946330062
292,-2.3859806584011323,-240.09042720865384,-124.34618675171664,-29.561844796792617,-29.405552093836334,-259.87309213812387,271.9902411648287,291.23150976220603
293,-3.912251461361593,-239.39090686907238,-122.29338881558701,-31.68762242355248,-46.01241803341914,-272.7694832275823,270.06101428870613,308.6746886903193
294,-4.972930957504558,-238.5081913677964,-120.38499131983853,-34.666726513630216,-63.27886541458356,-285.02423884962883,268.08738412714416,325.90861877717464
295,-5.561193282034642,-237.47673478574197,-118.62312308967266,-38.524762524768164,-81.02719627592329,-296.50321215148085,266.10213214688343,342.78204268335776
296,-5.6806936005870075,-236.33278331019068,-117.00728083295134,-43.27274065208003,-99.06959939198973,-307.08926029380103,264.13737058361806,359.1512533661994
297,-5.3451403974636325,-235.11339429557282,-115.53450742462671,-48.907058885524336,-117.21143467962897,-316.6838746878265,262.2238184740859,374.8817806347558
298,-4.577619951985779,-233.85547637878884,-114.19960897343496,-55.409585279512015,-135.2548830161207,-325.20822814528105,260.39012975387925,389.8498617651059
299,-3.4097008576542533,-232.59487702780856,-112.99540516770467,-62.74784608399766,-153.00286033694096,-332.60364252663095,258.6622916604485,403.9436948062532
300,-1.8803523812991805,-231.36554213180955,-111.91300633402494,-70.87533705853723,-170.26307874181896,-338.8314993149296,257.06310978264804,417.0644775597911
301,-0.03471496839063427,-230.1987693163888,-110.9421097447591,-79.73198226885381,-186.85212600865742,-343.8726327532033,255.61179321260755,429.12723758600833
302,2.077236049954615,-229.12257281379576,-110.07130711811378,-89.24476668273073,-202.59942890508574,-347.7262599356959,254.32364962267974,440.0614589100275
303,4.402091547710019,-228.1611732170576,-109.28839506184646,-99.3285655582586,-217.3509653448841,-350.4085138689588,253.20989601028361,449.8115096653856
304,6.884433143702554,-227.3346205877703,-108.58068047344251,-109.88718560819751,-230.97259599028777,-351.9506536600177,252.27758663723955,458.33687239985653
305,9.468241800819937,-226.65855445547447,-107.93527361649748,-120.8146215389077,-243.35289735060385,-352.3970306296797,251.52965561826414,465.6121760895766
306,12.098254103485647,-226.1440994859252,-107.33936265911434,-131.99651820528942,-254.40539548457403,-351.8028905392371,250.9650678876269,471.6270269668351
307,14.72123367061117,-225.79789122648646,-106.78046477737045,-143.31181470544934,-264.07012145424113,-350.2320906278598,250.5790690561572,476.38563476044794
308,17.28712961447255,-225.62222260896127,-106.24665039053248,-154.63453395147977,-272.3144356485801,-347.75480613399316,250.36352214442698,479.9062322279673
309,19.750098780950577,-225.6152990015497,-105.72673855902552,-165.8356713954741,-279.1330965054982,-344.4452947184385,250.30731744931379,482.2202888836343
310,22.069373443774502,-225.7715875431318,-105.21046287671157,-176.78513083367986,-284.54757830685,-340.37977908917924,250.39684077679723,483.37152425842453
311,24.209960995245243,-226.08224505721128,-104.68860825277406,-187.35365370089858,-288.60467101519686,-335.6344986906729,250.61648472869007,483.4147314560028
312,26.143166954174493,-226.5356077799634,-104.1531198413393,-197.4146905306871,-291.3744212056254,-330.28397123297134,250.949187464305,482.4144278273198
313,27.846937329467764,-227.11772527433575,-103.59718605686305,-206.84616876825942,-292.94749575991517,-324.39949474117657,251.37698323211913,480.4433558872342
314,29.306020994166804,-227.8129202062793,-103.01529804963327,-215.53211939389178,-293.43206793419375,-318.0479111751487,251.88154892178082,477.5808636269691
315,30.511957197384262,-228.60435528331695,-102.40328817483261,-223.36413518986603,-292.95033778208887,-311.2906437509759,252.4447310426672,473.9111985622142
316,31.462897690144594,-229.4745888927599,-101.7583499148783,-230.2426449432167,-291.63480538846443,-304.18301195829036,253.0490381785602,469.52175367157986
317,32.163277064145696,-230.40610205581046,-101.07904142278902,-236.07799894438764,-289.6244162972255,-296.7738208975404,253.67808529751247,464.5013053772085
318,32.62334844355835,-231.38178121739597,-100.36527431218136,-240.79137014031755,-287.0606948204511,-289.1052149351641,254.31697822884996,458.9382835960433
319,32.85860424815514,-232.3853439175062,-99.618288602776,-244.3154810627905,-284.08397379300965,-281.2127797457335,254.95262894173342,452.91911166348973
320,32.889103235731085,-233.40169735827138,-98.84061406136922,-246.59516920203362,-280.8298198875055,-273.12587147601124,255.57399487521437,446.5266500688523
321,32.7387255237086,-234.4172232084317,-98.03601775647115,-247.58780398737937,-277.42574257693445,-264.8681469409393,256.17223849430894,439.8387732692182
322,32.434376944719375,-235.41998557384758,-97.20943750332088,-247.2635684068403,-273.98826262263293,-256.4582644960034,256.74080642594924,432.92710420662706
323,32.005163143429726,-236.39986269374168,-96.36690090315274,-245.60561832630668,-270.62040278777084,-247.910721696218,257.27543075168376,425.8559270029089
324,31.48155257872989,-237.34860631831626,-95.51542972118695,-242.61013265134548,-267.4096495482041,-239.2367932349456,257.77405802112116,418.6812946301153
325,30.894546326779817,-238.25983569112566,-94.66292924670373,-238.2862670821728,-264.4264202449743,-230.4455311281014,258.2367140967874,411.4503449537651
326,30.274871443572046,-239.12897555613725,-93.81806188022934,-232.65602286516955,-261.72305593771756,-221.54478885353416,258.6653149679302,404.2008353437495
327,29.65221366067682,-239.95314960591517,-92.99010347351876,-225.75403936281424,-259.3333468073139,-212.5422322967029,259.063435142662,396.96090308640856
328,29.05450422519049,-240.73104211674806,-92.18878020065766,-217.6273154644461,-257.27258478747933,-203.44630284498183,259.43604607945315,389.74905612828456
329,28.507274563704787,-241.46274097443663,-91.42408344905425,-208.3348602193332,-255.53812724540083,-194.2671015878541,259.78923731488436,382.5743961314836
330,28.03309104235304,-242.1495748578137,-90.70606070658536,-197.94726812863755,-254.1104456262854,-185.01716801728244,260.129932568045,375.4370731301209
331,27.651080400669255,-242.7939561764914,-90.0445817218493,-186.54620974534748,-252.95462345533124,-175.71213157533413,260.4656123166686,368.3289677914968
332,27.37655447263198,-243.39923961744537,-89.44908121519481,-174.2238241051526,-252.0222584281578,-166.37121955778295,260.80405325998316,361.2345930051323
333,27.220740635422274,-243.96960392502373,-88.92828187698056,-161.0819968347202,-251.25371325184125,-157.01761000078744,261.15309370129836,354.1322012041904
334,27.190622202847486,-244.50996192414962,-88.48990391205474,-147.23150746140686,-250.58064956964373,-147.6786231635535,261.5204321589847,346.9950778571518
335,27.288890883240615,-245.02590100237595,-88.1403696234171,-132.79103196844346,-249.9287692841345,-138.38575015290752,261.9134645182579,339.7929955153597
336,27.514011506162465,-245.52365351647816,-87.88451335464343,-117.88599176417846,-249.22067874031467,-129.1745222472063,262.3391629344864,332.49379710269073
337,27.860397387859603,-246.0100940302523,-87.72530852864196,-102.64724723964126,-248.37878453796668,-120.08422964677882,262.80399762204723,325.0650721261919
338,28.318692781294086,-246.4927580420885,-87.66362443139565,-87.20964220777721,-247.32812623970213,-111.15750370643009,263.3139006792744,317.4758856080792
339,28.876156716380486,-246.97987507397053,-87.69802558254663,-71.71041407803517,-245.9990517823137,-102.43978209555523,263.87426927265216,309.6985172797
340,29.517140179182817,-247.48040779069584,-87.82462581937821,-56.28749290408969,-244.3296464100744,-93.9786815198625,264.49000388966067,301.7101682069928
341,30.223646106669154,-248.00408822982146,-88.0370075936954,-41.077719647322965,-242.2678353612728,-85.82330712102348,265.1655760115787,293.49459346537384
342,30.975959177757733,-248.56144222084575,-88.32621471697918,-26.215019421170304,-239.77309387237634,-78.02353073203392,265.9051185287724,285.04362244502585
343,31.753329919734103,-249.16379362651054,-88.68082428101965,-11.82856866026394,-236.81771438213843,-70.62927103827496,266.7125316266393,276.3585323195287
344,32.53469535298534,-249.82324106944802,-89.08710098371058,1.959004210081077,-233.3875986041439,-63.68980678099049,267.59159672900176,267.4512442718267
345,33.29941650285896,-250.5526011015587,-89.52923471715123,15.03334711458222,-229.48255947659814,-57.253149287386236,268.54609125591475,258.34531512045436
346,34.02801184129591,-251.36531307270465,-89.98966012031622,27.29000871156978,-225.11613320082006,-51.365493303989126,269.5798972431325,249.076698187695
347,34.702865197020394,-252.275302136317,-90.44945484783896,38.635931793546824,-220.31491380369312,-46.07075636927564,270.69709717719746,239.69424653995213
348,35.30888689424703,-253.29679792355924,-90.88881133514646,48.99079461514295,-215.117432095635,-41.410207963758914,271.90205069068975,230.2599298718138
349,35.83410780040917,-254.44410748502193,-91.28757457195677,58.288183908285205,-209.5726085116602,-37.422181385884166,273.19944601115327,220.84873459185937
350,36.27018753589172,-255.73134217126278,-91.62583574365941,66.4765868043451,-203.7378164373618,-34.14185434140063,274.5943202697878,211.54821657630654
351,36.61282021441996,-257.1720992185435,-91.88456867282457,73.52019125066259,-197.67660049596796,-31.601078921580825,276.0920429931226,202.45767892435978
352,36.86202349555919,-258.7790999377435,-92.04629292543632,79.39948625691811,-191.45610378548182,-29.828238085355235,277.6982573443157,193.68695378581373
353,37.02229917543469,-260.56378762394047,-92.09574434928582,84.11165485615916,-185.14426946208692,-28.848103917735287,279.41877399570393,185.35477819923275
354,37.10265596353087,-262.5358897150355,-92.02053091676268,87.67075437193681,-178.80689486805719,-28.681672714191535,281.2594130638995,177.5867683884529
355,37.1164876539273,-264.70295038883074,-91.81174947047701,90.10768063966172,-172.5046294175195,-29.345953240149083,283.2257905357176,170.5130139200704
356,37.08130273219858,-267.06984166642485,-91.46453777735448,91.46991498056224,-166.29001914138414,-30.8536872501112,285.32304719456283,164.2653308278473
357,37.01830454181638,-269.63826318119436,-90.97853652509058,91.82105416316796,-160.20470969632163,-33.2129854235646,287.5555203293587,158.97422942831733
358,36.95182440494192,-272.4062431690867,-90.35823771932455,91.24012342235433,-154.2769247327624,-36.42686719161436,289.9263616140722,154.76566661271204
359,36.90861352842378,-275.36765598718455,-89.61319933434885,89.82067064692416,-148.5193372799452,-40.49269945456274,292.43710852650383,151.75766320704716
360,36.91700308925647,-278.5117743978445,-88.7581107848236,87.66963687800943,-142.927448055589,-45.40153694002896,295.0872212806704,150.05687461611512
361,37.00594556901012,-281.8228775491334,-87.81269944298636,84.90599547287455,-137.47857618381462,-51.137375868235964,297.8736019622921,149.7552077619092
362,37.20395429873249,-285.2799375603858,-86.8014746721267,81.65915044282542,-132.13155438604562,-57.676342405942144,300.7901168344993,150.926579375899
363,37.5379624753811,-288.8564085248296,-85.7533124274599,78.06708361588286,-126.82720188035941,-64.98584758142734,303.8271462312589,153.62390969713283
364,38.032127764625685,-292.5201413360869,-84.70089017346874,74.27424016213737,-121.48962377049324,-73.02375023466539,306.9711888144312,157.87644126059502
365,38.70661403420867,-296.2334458723942,-83.67998837306361,70.42914282327058,-116.02835592087642,-81.73757852301844,310.2045479916461,163.6874649896464
366,39.57638762638386,-299.9533187139946,-82.72868062655559,66.68172795931069,-110.34134010307629,-91.06386788356572,313.50512778078627,171.03252630473776
367,40.65007151797816,-303.63184992529085,-81.88643906292522,63.18040308857651,-104.31867693999271,-100.92767856532639,316.8463633003381,179.85817404298015
368,41.92890610681936,-307.2168168235033,-81.19318434459666,60.06883776635013,-97.84706549662205,-111.24235820249783,320.1973074253348,190.0813060448566
369,43.405869339888845,-310.65246635742693,-80.68831055945473,57.48251814538634,-90.81480002407068,-121.90961363325682,323.522890104553,201.5891575958456
370,45.06501048811771,-313.8804809329494,-80.4097145150786,55.54511944993113,-83.11715823887404,-132.8199505566234,326.7843605376725,214.23997136543224
371,46.88105024315394,-316.8411154194722,-80.39285665841693,54.364777798003125,-74.66198362720257,-143.853529140382,329.9399150265059,227.86437809683818
372,48.819294530801926,-319.47448581347095,-80.66987710770002,54.030371187608594,-65.37523863953685,-154.88146810252707,332.94550504486534,242.26750436525964
373,50.83590051674174,-321.72198271760914,-81.26878531886874,54.6079473235976,-55.206288167999766,-165.7676092204586,335.75581113693295,257.23180642726595
374,52.87852108571931,-323.5277754315461,-82.21273618233096,56.137461614561445,-44.13266498174822,-176.37072934645667,338.32535885627834,272.5206074740103
375,54.8873392609562,-324.8403651269784,-83.51939968733691,58.63000983520463,-32.16407207396823,-186.54715913143477,340.60974341817575,287.88228987475424
376,56.79648733939224,-325.6141386469558,-85.20042698096367,62.06575347365717,-19.345391918265626,-196.15373874254695,342.56692072337603,303.0550653013408
377,58.53582742755376,-325.81086853905254,-87.26101419504516,66.39273716445032,-5.758499846935279,-205.05101350995585,344.1585148996877,317.77221643372513
378,60.033050787544745,-325.40110066731876,-89.69956784926337,71.52678052554447,8.477281551812759,-213.10654957571708,345.3510874223515,331.76767879439126
379,61.216033456824825,-324.3653687639808,-92.50748156561461,77.35258435601992,23.20619804524764,-220.19823353955206,346.1173107212567,344.7818157770243
380,62.015366373486,-322.69517631315597,-95.66904087856672,83.72612029767436,38.23859747237757,-226.21741153220776,346.43699007655255,356.56723758949516
381,62.36696192408226,-320.39369125851556,-99.16147735278194,90.47827878058415,53.35495969174409,-231.07172139031715,346.29788170787896,366.8945233073321
382,62.21462774149357,-317.4761092424581,-102.95519173225719,97.41964708768904,68.31132940661797,-234.68747578120283,345.6962627413877,375.55771643425555
383,61.51249431096224,-313.9696564931598,-107.01415754953497,104.34619796057689,82.84599100463039,-237.0114644472843,344.63722043785043,382.3794698378297
384,60.2271859758884,-309.9132224638888,-111.29650362201842,111.0456069479238,96.68716485335808,-238.0120616110057,343.13464291002384,387.2157136338746
385,58.33963469219542,-305.3566320459964,-115.75526011231413,117.30389126025526,109.56145454029704,-237.67955145300274,341.2109097644172,389.9597151261474
386,55.84645107669124,-300.35958489957375,-120.33924224540195,122.91207012039398,121.20273535709238,-236.02562062357475,338.896296839579,390.54540088807494
387,52.760786456892745,-294.9903036619717,-124.9940405998165,127.67257506617409,131.36114716151067,-233.08201039880586,336.22812343716305,388.94982114015363
388,49.11264139968674,-289.323943134814,-129.6630869390938,131.40517613580616,139.81184146529245,-228.89836934268286,333.24968264940514,385.19465456098845
389,44.948599184826115,-283.4408190214818,-134.2887677126703,133.9522279005262,146.36313514143868,-223.53939621985072,330.0090048055592,379.3466746247058
390,40.33098532442465,-277.4245175373699,-138.81356100308824,135.18307482254386,150.8637424413421,-217.0814080093354,326.55750965963796,371.51712442939987
391,35.336475156328575,-271.3599468370024,-143.1811748909061,134.9974899493367,153.2087919687311,-209.60850502579476,322.94860421455894,361.8599752886903
392,30.054190208207668,-265.3313885707351,-147.33766512679182,133.32805853279834,153.34438299578494,-201.20853108029814,319.23628033731774,350.56907574766257
393,24.583340695195005,-259.42060365816957,-151.23250790988558,130.14146244815825,151.27049275798493,-191.96903932163278,315.4737603643341,337.87423317667447
394,19.030486694263228,-253.70504093230014,-154.819600633262,125.43867280143668,147.04211063084236,-181.9734733505937,311.7122307746135,324.0363099774025
395,13.506504550216473,-248.2561910071023,-158.05816127501825,119.25411274349487,140.76854465580533,-171.29775917499313,307.9996949365837,309.3414590684151
396,8.123357798047728,-243.13812091443964,-160.91349713576574,111.65390239987796,132.61091905466614,-160.00747837584703,304.3799670815152,294.0946649091558
397,2.990782627102669,-238.4062181396692,-163.35761664765786,102.73333432794914,122.77795567702024,-148.155758972742,300.8918219050976,278.6127920128474
398,-1.7869946269752315,-234.10616612799868,-165.3696638967969,92.61374498371225,111.5202040999814,-135.7819806058642,297.5683080353021,263.21736829615986
399,-6.114387819067625,-230.27316763387972,-166.9361633689236,81.43894406071743,99.12294986076616,-122.9113471584572,294.4362291548712,248.22734272965306
400,-9.907312341998157,-226.9314277975234,-168.05107089122754,69.37134292340795,85.8980837166437,-109.55533473919051,291.51579370870945,233.95205401960615
401,-13.095670296373079,-224.09390550684125,-168.71563457405574,56.58789286730984,72.17525349939348,-95.71297793539337,288.82043253325975,220.68462884320184
402,-15.625367563588773,-221.76233880993342,-168.93807608220533,43.275912157915755,58.29264180488283,-81.37291476856248,286.3567828773783,208.69599498160647
403,-17.459790493551676,-219.9275468409043,-168.73310781459318,29.62885533476743,44.58771625217689,-66.51607344944351,284.1248365346155,198.22964964968605
404,-18.580692550279757,-218.57000595957777,-168.12130603612044,15.8420637209171,31.388284393633572,-51.118854114450535,282.1182487401112,189.4972732186639
405,-18.98846569689608,-217.66069114317767,-167.12836413618203,2.108533334674953,19.00415411393296,-35.15663763696853,280.32480287978274,182.67523217139802
406,-18.701796500367315,-217.16216522628469,-165.7842540162101,-11.385256350480477,7.719655716015734,-18.607441872143195,278.7270237454214,177.90197925312503
407,-17.756731879123077,-217.02988889197368,-164.1223267525574,-24.463394956925047,-2.2127717157527567,-1.4555432096919023,277.30292883118784,175.27633525037942
408,-16.205202997956015,-217.21371416124455,-162.17838555342018,-36.964398870416424,-10.577784892612971,16.305112541263345,276.0269027875124,174.85662317669244
409,-14.113076865575467,-217.65951448022864,-159.98976405015821,-48.74477946670463,-17.201044892991614,34.6678722587889,274.87067457555435,176.66061752606396
410,-11.557822619298303,-218.31089649946804,-157.59444080464127,-59.68221368132226,-21.95179755295309,53.610853216880216,273.80437049105325,180.6662648420009
411,-8.625892331190935,-219.11093343176003,-155.03021668219546,-69.67820378084272,-24.744143172754697,73.0950545428932,272.7976099636524,186.81312514188627
412,-5.409923693875474,-220.0038581904021,-152.33397596686427,-78.66011846260156,-25.537056426093603,93.06319214992637,271.82060592887234,195.00447638648333
413,-2.005873845522861,-220.9366562871001,-149.54104559814834,-86.58252139254601,-24.333253826895323,113.43931479826597,270.845228342364,205.11001626424567
414,1.4898098800377986,-221.86050315269293,-146.68466056479224,-93.427713348064,-21.177035289161054,134.1292235012084,269.8459884947411,216.96908691426972
415,4.982884772732136,-222.73199770979733,-143.79553791011432,-99.20543887261505,-16.151247964094384,155.02167857716842,268.80090356198235,230.39433917815356
416,8.383787983091612,-223.5141535133573,-140.90155714847765,-103.95173824674373,-9.373534488783159,175.99034008535534,267.69220552346997,245.17574501960857
417,11.609822439247083,-224.17712027488844,-138.02754113033475,-107.72696118198465,-0.9920339682370265,196.8963507130357,266.50686602292416,261.0848615833263
418,14.587000878977438,-224.6986213702486,-135.1951286002018,-110.61299842807716,8.819297369579953,217.5914381196523,265.23691829613153,277.87924842396194
419,17.251513034448017,-225.0641059963721,-132.42272797846715,-112.70982770329736,19.8655871768091,237.92138860498318,263.8795679948048,295.3069397714739
420,19.550797970260597,-225.2666269888027,-129.72554118024124,-114.13150670717386,31.936024867402647,257.7297273942553,262.43709553931524,313.1108753081978
421,21.444219157702676,-225.30646613775718,-127.11564628682132,-115.00177501039325,44.80878946658263,276.86143384035637,260.91656257757836,331.03319592840285
422,22.90335361207833,-225.19053766051258,-124.60212831512158,-115.44944586269227,58.25582080506443,295.16652297881603,259.3293435564127,348.8193164743629
423,23.911918102295296,-224.93160710640356,-122.19124802930693,-115.60377666807278,72.04734892938266,312.50333812629634,257.69051002031637,366.22169682990415
424,24.4653650057797,-224.5473673256586,-119.88663974740486,-115.59000244484943,85.9561183122597,328.74142177571713,256.0180999764374,383.0032468424655
425,24.570187857919585,-224.05941522464525,-117.6895305587106,-115.52520112839319,99.76126439053377,343.76386224019166,254.33230755848018,398.94031935801104
426,24.242982136781958,-223.49217301149002,-115.59897527069774,-115.51463569669454,113.25181905154771,357.4690490221063,252.6546294056006,413.8252682482594
427,23.50931051239057,-222.8717958745086,-113.61210340453144,-115.64868893681619,126.22983777254134,369.7718080159339,251.00700379818196,427.4685727656686
428,22.402423833925504,-222.22510499225496,-111.72437617398032,-116.00047490140513,138.51315317204043,380.6039254026615,249.4109768285058,439.7005531956173
429,20.961889534110497,-221.57858079685488,-109.92985233392838,-116.6241784817456,149.9377672747626,389.91410339314245,247.88692689254955,450.3727226429322
430,19.232177804057383,-220.95744665448905,-108.22146209272407,-117.55414194352902,160.3598980521257,397.66741908817994,246.45337470745423,459.35883331556715
431,17.261252816417265,-220.38486767148692,-106.59128811341695,-118.80468523010408,169.65769549174166,403.8443777264552,245.1264010516873,466.55568119133943
432,15.099211552774255,-219.88128336814137,-105.03085214145743,-120.37061606555454,177.732639435636,408.43966270184075,243.91918876275244,471.8837300360181
433,12.79700658789356,-219.46388679896103,-103.53140507813897,-122.22835771475935,184.51062654096876,411.46068723835765,242.84169956696405,475.2876051211447
434,10.405281793270031,-219.14625668061342,-102.0842174011029,-124.33759836883644,189.94274771979016,412.9260475806287,241.90049040639946,476.7364902871577
435,7.97334185792053,-218.93814349730593,-100.68086579231502,-126.64334804967855,194.0057510916573,412.8639666150048,241.09866836987,476.2244414908383
436,5.548268370885709,-218.84540553816512,-99.31351084700621,-129.07827781607384,196.70217977946936,411.31080202555336,240.43597834487994,473.7706084830132
437,3.174187405998699,-218.87008638943837,-97.97515998722311,-131.5652127856789,198.0601698081857,408.3096765059647,239.90901317004779,469.4193367349195
438,0.8916864031254013,-219.0106215390205,-96.65990928144302,-134.0196556187584,198.13289167589858,403.9092707868901,239.51153239760586,463.2401065204299
439,-1.262628026595327,-219.26215854896842,-95.36315778545908,-136.3522304819209,196.9976201115632,398.16280412535997,239.23487285022682,455.3272563776666
440,-3.256444596888571,-219.61697287584389,-94.08178822906042,-138.47095785348986,194.75441997566284,391.127211752222,239.06843209141883,445.79943412248457
441,-5.061950687824034,-220.0649599202202,-92.81430828121648,-140.28329542182425,191.52444193024593,382.8625148635077,239.00020472295924,434.7987195846902
442,-6.655942835031465,-220.5941831170985,-91.56094708891851,-141.69790660015724,187.44782915568453,373.43136661399734,239.01735088213607,422.4893684650776
443,-8.019863003783742,-221.1914575797103,-90.32370219392459,-142.62614277908304,182.68124573681135,362.89874794814324,239.10677616108404,409.05613540462423
444,-9.139778382987641,-221.8429488185702,-89.10633234575678,-142.98324637794494,177.3950479190235,351.33178054896604,239.2557022913436,394.7021459429975
445,-10.006320473343694,-222.53476644282563,-87.9142924221935,-142.68929859919015,171.77013060638518,338.79962087465856,239.45220850286688,379.64630117169787
446,-10.614596446672957,-223.2535337055103,-86.75460798451572,-141.66994919048267,165.99449253743032,325.37339902204735,239.6857247925129,364.1202153276434
447,-10.964082406262733,-223.9869153926807,-85.63568906994719,-139.85697621326443,160.25957385637435,311.12616866932797,239.94746058113105,348.3647049669634
448,-11.058504553794112,-224.72408883905806,-84.56708542623056,-137.18873187711253,154.75642872426684,296.13283923561494,240.23075527539288,332.6258680750907
449,-10.905710600598617,-225.45614563922385,-83.5591880669944,-133.610535248499,149.67180279902902,280.4700683347642,240.53134077883357,317.15081170296696
450,-10.517530320473709,-226.17641472497994,-82.62288440259118,-129.0750729310939,145.18419067092103,264.21610126061546,240.84750970768434,302.18310656337525
451,-9.909621244762622,-226.8807007061433,-81.76917615619232,-123.54286355997553,141.4599516246792,247.450553969263,241.1801867492382,287.9580653684684
452,-9.101293380787121,-227.56743459654106,-81.00877081192225,-116.98283094378904,138.6495634757819,230.25414565628554,241.5329041507288,274.6979572754933
453,-8.115305532149453,-228.23773719386895,-80.35165838760051,-109.37301498980777,136.88409393590572,212.70839518091614,241.91168566211425,262.60728258161726
454,-6.977625200970869,-228.89539832684085,-79.80668571680746,-100.70143089977437,136.27196742885144,194.89530125373034,242.32484621100738,251.86823925648426
455,-5.71714402580749,-229.54677774086096,-79.38114012954499,-90.96706709541881,136.89610289989864,176.89702912291014,242.78271697732913,242.63651595692815
456,-4.365341215668906,-230.2006354536281,-79.08035370310475,-80.18099219304516,138.81149498873043,158.79562658293327,243.2973073403067,235.0375448977488
457,-2.955888540113122,-230.86790102251064,-78.90733852973224,-68.36752245388169,142.04330657761403,140.67278976874596,243.881916570153,229.1633423645776
458,-1.5241921926979467,-231.56139245660376,-78.86246297829472,-55.56538504824762,146.58553452778597,122.60969465509821,244.5507093370608,225.07005469521573
459,-0.1068692480352242,-232.2954965561026,-78.94317874569556,-41.82880065737047,152.4003017312499,104.68690369088685,245.3182701892309,222.7763131839477
460,1.25884060872492,-233.0858231887695,-79.14380853495068,-27.228402334260103,159.41781706156604,86.98434887481851,246.19915300183055,222.26248266233944
461,2.5357240204268634,-233.94884615009076,-79.45540437522949,-11.851906201993698,167.53703048357826,69.5813833743293,247.20744172692946,223.47086575925462
462,3.6872958574802652,-234.9015424850558,-79.86568677337162,4.195547284011643,176.62699395179064,52.556884382984,248.35633822383082,226.306898522089
463,4.67854261755315,-235.96104034183918,-80.35907481744826,20.79145609885889,186.52892043544182,35.989381386177435,249.6577913040152,230.64134386923624
464,5.476692136789954,-237.14428273319348,-80.91681674519157,37.7964882202726,197.05891409996738,19.95717736288015,251.12217842352973,236.3134581302568
465,6.0519908248988346,-238.4677113787273,-81.51722913225608,55.05553358240523,208.01132498320666,4.538426389232887,252.75804798180826,243.13507377448326
466,6.378466311293108,-239.94697155409503,-82.1360506981027,72.39931090871015,219.16266213035954,-10.188870006674,254.57192636050831,250.89550944643548
467,6.4346505832337355,-241.59663595488578,-82.74691379071565,89.64654302515581,230.27598088105668,-24.146983475026012,256.56819002069017,259.3671876619163
468,6.204236696122225,-243.42994318567318,-83.32193295611386,106.60669031697753,241.10564355874678,-37.25872744309086,258.7489993761677,268.31181182492395
469,5.676641171947942,-245.45854468380418,-83.83240585979746,123.08320625222372,251.40233862138862,-49.44789752287133,261.11428792309414,277.4869281757717
470,4.847444434176373,-247.69225276457436,-84.24961758876654,138.8772525344826,260.91823151899086,-60.639898553332344,263.661797431017,286.6526752684569
471,3.718683241359472,-250.1387822012583,-84.54573527392192,153.791785188122,269.4121113430077,-70.76256254797875,266.3871481433687,295.57850421789476
472,2.298972392314542,-252.8034785646416,-84.69477591042161,167.6358970591831,276.65439190553474,-79.74714983564968,269.2839321180373,304.0496386257448
473,0.6034383368635284,-255.68902857540698,-84.67362573149103,180.22927745245988,282.43182624134334,-87.52951249929778,272.3438180951918,311.87303618572577
474,-1.346545131780149,-258.7951508924677,-84.46308395237233,191.40662778253824,286.5518022341248,-94.05138557111452,275.5566574126538,318.882617649117
475,-3.5238194658071347,-262.11826986524284,-84.04889699765462,201.02185683741686,288.84610591775487,-99.26175867920975,278.9105822493486,324.94354623552636
476,-5.896091845757992,-265.65117955568115,-83.42274199573798,208.95187530862697,289.17406787363956,-103.11827078063664,282.392089691249,329.9553738225374
477,-8.426752038581476,-269.38271039684867,-82.58311142188121,215.09982070033314,287.42504470887314,-105.58856535715395,285.98610758670014,333.85391968784376
478,-11.075823725556745,-273.2974156241472,-81.53604558439197,219.39757212340874,283.52022781247797,-106.65154489515282,289.6760406035974,336.611811375454
479,-13.801010057196821,-277.3752984309333,-80.29565770135584,221.80745803100456,277.41381011339257,-106.29847227688907,293.443797137874,338.23769094973284
480,-16.558788135413277,-281.59160311390315,-78.88439940140738,222.323113631376,269.09357184212075,-104.5338811957195,297.2697999570568,338.7741657882692
481,-19.305505936384428,-285.91669401462883,-77.3330241347352,220.9695006691004,258.5809614729387,-101.37627378014072,301.1329862401176,338.2946505934915
482,-21.998437370697314,-290.3160448913383,-75.68022238680558,217.8021510374206,245.93074403507114,-96.85859603182848,305.0108063722637,336.8992958230387
483,-24.59675550556822,-294.75035878064426,-73.97192383871874,212.90572855780258,231.2302683507166,-91.02848602728739,308.8792351429785,334.7102209865138
484,-27.062389404743605,-299.1758347677332,-72.26028412423953,206.39201532324068,214.59837719253142,-83.9482844479204,312.71281276838664,331.8662708487071
485,-29.360736097567127,-303.5445934497054,-70.60239379672085,198.39742183427342,196.18396221809508,-75.69478424717511,316.4847349547724,328.5174977897322
486,-31.461205647847812,-307.8052669900657,-69.05876218161566,189.0801020520662,176.16415700280962,-66.35868199466087,320.1670099113732,324.8195565124873
487,-33.33758403860812,-311.9037522419556,-67.69163871013446,178.61673636786338,154.7421664494207,-56.04368456807883,323.7306955840746,320.9281860733895
488,-34.96820581642871,-315.7841166892161,-66.56324020136003,167.19903461776804,132.14474247350404,-44.865226431765585,327.14622325351877,316.9939492236957
489,-36.335936631445676,-319.3896379295405,-65.73395541465865,155.0300080632559,108.6193261738983,-32.94876624964768,330.38380561284396,313.1573949261966
490,-37.42797532605108,-322.66394958258957,-65.26059818800684,142.32005951606163,84.4308816406497,-20.427655159458467,333.4139202396269,309.5448005423785
491,-38.235495893642025,-325.55226105784396,-65.19477701157166,129.28294062320103,59.858447144634226,-7.440598772850609,336.20785417593623,306.26463226448595
492,-38.75316060021564,-328.0026159110456,-65.58144128151613,116.13162439719126,35.19142938801689,5.87123354644701,338.73829232677923,303.40483598041453
493,-38.978545498578846,-329.9671529968721,-66.45765265166835,103.07414226356548,10.725669135030577,19.367369058029116,340.979930895102,301.0310380385194
494,-38.91152704937921,-331.4033352754324,-67.85161448506676,90.30944159616328,-13.240686529285039,32.911353363215795,342.9100960292147,299.18569866384445
495,-38.55368249255592,-332.2751120564942,-69.78197438279705,78.02333344522175,-36.41145891694515,46.37410482122504,344.50934639297486,297.8882213879159
496,-37.90775645943013,-332.5539812162911,-72.2573953249564,66.38462041956768,-58.49679885702413,59.63715690871181,345.76203611688766,297.13598011499477
497,-36.97724223439282,-332.2199185135272,-75.27637205255586,55.54151996133314,-79.21755876029697,72.59563094228083,346.6568118074943,296.9061816182897
498,-35.76611859649259,-331.2621419782774,-78.82725430982885,45.61852595376121,-98.30958880431825,85.1607723320236,347.18701497446744,297.15843673572795
499,-34.27877239841568,-329.6796810674453,-82.88843179170885,36.713876208518734,-115.52786892300212,97.2618804447288,347.35096101943327,297.8378721894441
500,-32.52012236040951,-327.4817231965437,-87.42864042033575,28.89780496872651,-130.65040224515477,108.84746972872581,347.1520693193937,298.87858379548453
501,-30.49594091327444,-324.68771410423057,-92.40736567395558,22.2117452164923,-143.48182354276733,119.88552240237387,346.59882614664474,300.20721921666643
502,-28.213350514734408,-321.3271931775527,-97.77534117386968,16.668594537132453,-153.856706063185,130.36273252797392,345.7045719851679,301.7464898995602
503,-25.681452827050922,-317.439351519626,-103.47516153546472,12.254069723666968,-161.64256545161277,140.2826954862458,344.48711587391705,303.4184461773786
504,-22.912037062079644,-313.0723110761907,-109.44204033189743,8.929064105317579,-166.74255210386963,149.6630604377723,342.96819124871445,305.14739739906855
505,-19.920308596864256,-308.28213801534747,-115.60474401142054,6.632815301738769,-169.097799201014,158.5317304039478,341.1727800634122,306.86240667683575
506,-16.725579123218804,-303.1316205820741,-121.88672254793792,5.286616343786983,-168.6893663049459,166.9222605704335,339.128343334914,308.4993271640984
507,-13.351862903579436,-297.6888572502622,-128.20744125265412,4.797771591732024,-165.53969723643425,174.86866702294273,336.8640042695394,310.00237172764275
508,-9.828328681897762,-292.02571239498894,-134.4838987137644,5.063505670898082,-159.71349725634275,182.39991192207773,334.4097328095325,311.3252238196112
509,-6.189563000744161,-286.21620281092294,-140.6322955250825,5.9745671376049385,-151.31792597871603,189.53437264905085,331.7955772317225,312.4317076419442
510,-2.475608190605286,-280.33487915453895,-146.56979964547608,7.418320671020963,-140.501999405291,196.27462677563352,329.050980030585,313.2960431907492
511,1.268252849618717,-274.45526195283554,-152.21633981580297,9.281189277290032,-127.45510179209488,202.60288768328166,326.2042031514388,313.9027208917792
512,4.991982956159803,-268.6483824936835,-157.4963514138627,11.450388590935228,-112.4045315104448,208.47740497158443,323.2818737205267,314.24604602582025
513,8.641554978226136,-262.98146552635706,-162.34040138995005,13.81498172309112,-95.6120469682265,213.83009955588844,320.30864822863487,314.32942581411027
514,12.159988918008755,-257.51677499591597,-166.68663036681798,16.266363127304107,-77.36943579875029,218.56563817816712,317.3069829750757,314.1644964227146
515,15.488643572091581,-252.31062867188152,-170.48196790635504,18.69834042657004,-57.993195029951316,222.56207082394656,314.29699274068895,313.7702036183428
516,18.568729636356466,-247.41257549555908,-173.6830967521386,21.00701539638126,-37.81847200054317,225.67306391275162,311.29637801816557,313.17195036772176
517,21.342995490993648,-242.86472300370716,-176.25715894331668,23.090668315794627,-17.19246670684974,227.73166984840083,308.32040263737366,312.4009031069547
518,23.757521472554565,-238.70120197748886,-178.182208280929,24.849828433416217,3.5324695016576366,228.55548729071057,305.38190707227653,311.49350823816843
519,25.76354565873061,-234.94776060151187,-179.4474193412344,26.187673184301058,24.00578867753023,227.9529926374626,302.4913471731904,310.4912205071994
520,27.319236323407974,-231.62148883618394,-180.0530643722231,27.010844340859446,43.88550803024454,225.73076548350517,299.6568527964688,309.4403973794096
521,28.391324729697743,-228.730682749926,-180.01026784819283,27.2307047146621,62.844553760232294,221.70129041870555,296.8843050298498,308.39227849168714
522,28.956517203850183,-226.27486555561669,-179.34054603191748,26.76499143859634,80.57649885922547,215.69099378368315,294.1774336989059,307.4029508954991
523,29.002616729660954,-224.24498496413415,-178.07513736210535,25.539761694518784,96.80055493449495,207.54816552732214,291.53793822336996,306.5331976449389
524,28.52929983593896,-222.62380417946522,-176.2541304720994,23.49148451154025,111.26573230785944,197.1504217269472,288.96563489493894,305.8481357003909
525,27.54851207903174,-221.3864966158466,-173.92540128210547,20.569113744743927,123.75413626910029,184.41138170624853,286.45863296492524,305.41656621028875
526,26.084463127513327,-220.50144347745123,-171.14337899471306,16.735981132173915,134.08341335620503,169.28626470925354,284.0135413137606,305.3099841427189
527,24.17321941830634,-219.93122063787925,-167.96767169664375,11.971367236215817,142.10839406666008,151.7761548263585,281.6257072544038,305.6012232503803
528,21.861908412105144,-219.6337489321692,-164.46159318999128,6.271633435401687,147.72199493565194,131.93073899410487,279.28948892491854,306.3627445424321
529,19.207563708722216,-219.5635718628534,-160.69064085053046,-0.349175715007617,150.85544513828316,109.84938983623917,276.9985621221768,307.66460991187165
530,16.275654453977086,-219.6732178618389,-156.7209776337765,-7.859324023232548,151.4778957224453,85.68053970954558,274.7462607035079,309.57221548019714
531,13.138354789592753,-219.91460067484925,-152.61796918380887,-16.210003658602794,149.59545956561936,59.61937010605998,272.52594650787705,312.1438893974668
532,9.872618501956579,-220.24041045307118,-148.4448203581137,-25.336582455988086,145.24972271653934,31.903916526327926,270.331400289234,315.4284834259333
533,6.558129779603889,-220.60544893109966,-144.26134641658004,-35.160436501599406,138.51576642893687,2.8097582250312305,268.15722011608534,319.46310304994785
534,3.2752030654548725,-220.9678641733853,-140.12290468032117,-45.591284491695745,129.49974477230214,-27.356479341652705,265.99920907751596,324.27112313310965
535,0.10270383911690223,-221.2902437700364,-136.07950398512028,-56.52990426655673,118.33607342131505,-58.2645371082952,263.85473093194287,329.86062208010316
536,-2.8839418124193865,-221.54053031143505,-132.17510226608573,-67.87108615448612,105.18429746500838,-89.56854908996826,261.72301127970775,336.22333645576293
537,-5.614587604989904,-221.69272966856548,-128.4470969964552,-79.50666503676267,90.22571591694482,-120.91536950313635,259.60536323830485,343.3341936208176
538,-8.026005243836718,-221.72739096325185,-124.92600844015688,-91.32847387638485,73.65984527570012,-151.95288890820052,257.50532024655354,351.15142964317505
539,-10.063278996484083,-221.63184677920302,-121.63535118950911,-103.23107446574393,55.700803023120606,-182.33804368334523,255.42866399825115,359.6172525194721
540,-11.680926965640467,-221.40021264620088,-118.59168494027932,-115.11414357637875,36.57368501027292,-211.74425064058101,253.38334200797556,368.65897382359793
541,-12.843731036985927,-221.03315543925177,-115.80483092916857,-126.88442103265741,16.510999863079306,-239.86803597479104,251.37927626173774,378.19050877951383
542,-13.527268363076352,-220.53745012176537,-113.27823612647228,-138.45715684159902,-4.2507893383459106,-266.4346728343357,249.42807094511141,388.1141354321163
543,-13.718146966740921,-219.92535225924246,-111.00946347886448,-149.75702428160605,-25.474579221888575,-291.20269238871265,247.5426325751491,398.32240614681746
544,-13.413956507865217,-219.21381941529137,-108.99078378515361,-160.7184930559877,-46.9257718810599,-313.96718706760055,245.7367197142735,408.7001166993492
545,-12.622952457376828,-218.4236179961884,-107.2098437220684,-171.2856813716639,-68.37523887817365,-334.5618791129869,244.02444209825896,419.1262573825918
546,-11.363497870260758,-217.5783537127229,-105.6503852440416,-181.4117292474276,-89.6020984347336,-352.859979908096,242.4197308330719,429.4758944424356
547,-9.663291684290424,-216.70346394464292,-104.2929936209845,-191.0577579449974,-110.39630583570685,-368.7739129154391,240.93580241808047,439.62195588527214
548,-7.558416037067355,-215.82520926288956,-103.11585402871738,-200.19150102707775,-130.56105875621324,-382.25401290620607,239.58463969489276,449.4369198617259
549,-5.092237514553618,-214.96969951093388,-102.09549919853563,-208.78570903619794,-149.91501776624955,-393.2863444329827,238.37651236464953,458.7944230404606
550,-2.3141985586347924,-214.16198730230073,-101.20753281666966,-216.8164400366029,-168.29433838381695,-401.88980210114585,237.31955840922208,467.5708182391062
551,0.7214644736698098,-213.42525841749804,-100.42731523222733,-224.26135097691355,-185.5545057748373,-408.1126643325044,236.4194455139595,475.64671433559795
552,3.957040873647234,-212.78014420328014,-99.73059987691033,-231.09810003408464,-201.57195773646401,-412.0287722168114,235.6791284117347,482.908528035339
553,7.332668880007968,-212.24417575145938,-99.09411077165431,-237.30295898493196,-216.24547694396017,-413.73349741016557,235.0987140930404,489.25006826947345
554,10.787631749595755,-211.83139359623095,-98.49605359461788,-242.8497188066216,-229.49733001793132,-413.339649673434,234.67544228771868,494.5741618208484
555,14.26159953658704,-211.55212007343385,-97.91655501946659,-247.7089524301366,-241.274128597556,-410.97345733245925,234.40378369156997,498.79431481354635
556,17.6957942141892,-211.41289442554174,-97.33802736643288,-251.8476768190801,-251.54738586182955,-406.77073428639864,234.2756531807162,501.83639011646045
557,21.034061060572412,-211.41656348761146,-96.7454578516132,-255.2294332362898,-260.31374057459465,-400.8733264519639,234.2807299008035,503.64026637897814
558,24.22383473465982,-211.56251387649235,-96.1266236423033,-257.81478081752243,-267.5948198399845,-393.42590958208973,234.40687097329447,504.16143112186313
559,27.216993526206117,-211.84702562851427,-95.47223544348867,-259.56217581658166,-273.436711786291,-384.5731897343295,234.64060105176767,503.3724488580719
560,29.970599169634067,-212.26372267693944,-94.77601346187679,-260.4291886803417,-277.90902105838455,-374.45753750280096,234.96765644938674,501.2642364798872
561,32.44752197916627,-212.80409270240787,-94.03470019822196,-260.37399468199726,-281.10348410620446,-363.217067673955,235.37356020610264,497.847072976838
562,34.61695193787656,-213.45804778684135,-93.24801435148494,-259.35706155213865,-283.13212848364986,-350.98415769440356,235.84420324183478,493.15126961229373
563,36.454796088063375,-214.21449787460696,-92.41854915653549,-257.3429489402702,-284.1249709840271,-337.88438200552343,236.36640662347943,487.2274302935403
564,37.94396162503432,-215.0619111141761,-91.5516172857626,-254.30212918613836,-284.2272631259535,-324.03582573963945,236.9284410875661,480.1462400739397
565,39.07452311097982,-215.98883843164947,-90.65504390692085,-250.21273727156995,-283.59630846064863,-309.5487312036502,237.5204824694671,471.9977326353535
566,39.8437717918148,-216.9843838140066,-89.73890991962503,-245.06216121077173,-282.3978933511874,-294.5254245010374,238.13498546637257,462.8900054070386
567,40.25614541662736,-218.0386064042913,-88.81524812620077,-238.84839345304056,-280.8023901922253,-279.0604677769045,238.76696267531742,452.9473735337959
568,40.323038171406665,-219.14284534422964,-87.89769525915464,-231.58107890153224,-278.9806084468437,-263.2409847550398,239.4141605030574,442.3079803019944
569,40.062492160521515,-220.2899630748609,-87.00110228139019,-223.28221454406878,-277.0994834255175,-247.1471129138403,240.07712803243336,431.1209101939638
570,39.49877413860556,-221.4745072521049,-86.14110486692745,-213.9864773847936,-275.31770464673485,-230.85254390117143,240.75917922302602,419.54287928483035
571,38.66184371571236,-222.69279536141875,-85.33365632257097,-203.74117905859188,-273.7813943424838,-214.42512342457735,241.4662530288723,407.734603846699
572,37.58672173803491,-223.94292943964163,-84.5945270269056,-192.60586518648222,-272.6199518998709,-197.92749162386366,242.2066802261131,395.8569696738635
573,36.3127696587379,-225.22475093946343,-83.93877770602758,-180.65159374259875,-271.94218173796526,-181.41775381629574,242.99086979972347,384.0671403188042
574,34.88289226889477,-226.5397475628204,-83.38021768854924,-167.959938406882,-271.8328204887489,-164.95017878055248,243.830931149544,372.514751236976
575,33.34267724349026,-227.89092475840954,-82.93086256789695,-154.62176935093913,-272.3495746100702,-148.57592685827237,244.74025064001438,361.33833824985487
576,31.739485814615364,-229.28265449953395,-82.60040787474101,-140.73586516968453,-273.52077185727563,-132.3438126719365,245.73304192989167,350.66214270425024
577,30.121509616377512,-230.72051286609684,-82.39573654573694,-126.40740673360068,-275.34371941596066,-116.30110700990704,246.82388908661233,340.593422819068
578,28.536809233324636,-232.21111580919305,-82.3204785589924,-111.74639808149443,-277.78384787647724,-100.49437955792675,248.02729981487312,331.22038192719174
579,27.032350109758845,-233.76195947473263,-82.3746413738645,-96.86605246074123,-280.77470345422535,-84.97037904648317,249.35728348277175,322.6108005901004
580,25.653051327903196,-235.3812680561994,-82.55432972056128,-81.8811744163342,-284.21883077573995,-69.77694056209263,250.82696543369843,314.8114317698925
581,24.44086254869656,-237.0778488113045,-82.85157251361962,-66.90656250468152,-287.9895651447874,-54.96390185402042,252.4482456946363,307.84818732572865
582,23.433884259199626,-238.86095092685244,-83.25427294740855,-52.05545255682642,-291.9337267313331,-40.584002129674225,254.23150685885773,301.7271110777328
583,22.66554638516946,-240.7401225307356,-83.74629516968172,-37.438018694328896,-295.8751802073193,-26.69372876711902,256.18537281073253,296.43609962956384
584,22.163860299993903,-242.7250584581513,-84.30769743552888,-23.159948252978996,-299.61919297044085,-13.35407026609281,258.31651723999954,291.94729823941356
585,21.950759364285986,-244.82543046493774,-84.91511738060025,-9.321106924937277,-302.95749450029325,-0.6311282790817175,260.62951867603164,288.22006660800275
586,22.041543450355974,-247.05069147346046,-85.54231012962232,3.9856885597836116,-305.6739099557227,11.403461617135868,263.12675712873005,285.2043799841883
587,22.44444338699452,-249.40984612157834,-86.16083470677312,16.675771106854903,-307.5504142438467,22.672351017007443,265.80834642339914,282.84450600104
588,23.16032158942096,-251.9111813200897,-86.74087906690374,28.67357558813838,-308.3734298402948,33.09258922431174,268.6720960068014,281.08277860008326
589,24.182524823513393,-254.56195266824204,-87.25220916504252,39.91341798515473,-307.94017397653454,42.576064428251414,271.71349633301054,279.86327859955367
590,25.49690366275559,-257.3680254129351,-87.66522255304349,50.340073716218576,-306.06484983589,51.030307176996054,274.9257227795199,279.1352271744713
591,27.08201051429887,-260.33347212234344,-87.95208163858635,59.90912665583451,-302.58447353962976,58.35967537753316,278.2996542296842,278.8559050046647
592,28.909484059425935,-263.4601332550002,-88.08789574214008,68.587063198041,-297.3641351828203,64.46692501469754,281.82390380664157,278.99292721554974
593,30.944622602194716,-266.7471511688617,-88.05191447938721,76.35109376703957,-290.3015086254341,69.25515357050823,285.4848606019229,279.5257330220572
594,33.147142323366296,-270.19049265003844,-87.82868808128171,83.1886983062326,-281.33045086218334,72.63008447671312,289.26674251384156,280.44618872945836
595,35.47210920324907,-273.7824795001216,-87.40914361326666,89.09691242593115,-270.42356633329763,74.50264195461436,293.15166141497207,281.75825180351393
596,37.871025974320546,-277.5113507252328,-86.79152063124732,94.08139588946739,-257.5936524478995,74.7917475743378,297.119702731228,283.4766992948706
597,40.29304842855161,-281.360882887371,-85.98210718612738,98.15535252739126,-242.89398704053087,73.42725398554131,301.14902216061193,285.6249819569746
598,42.68629910959396,-285.3100965247747,-84.99571923680318,101.33839630049107,-226.41746284560278,70.35291843752792,305.215962791454,288.23232054880236
599,44.999240974662435,-289.33307557078695,-83.85587494361292,103.6554756696867,-208.29461461607167,65.52930940831308,309.2951963621391,291.33020705350424
600,47.18206876727278,-293.39892319713437,-82.59463007818623,105.13597023337246,-188.69061903697107,58.93653386341913,313.35989283356434,294.9485065058242
601,49.18807119277752,-297.4718719416992,-81.25206030730264,105.81305498346227,-167.80137690789306,50.57667002716088,317.38192270766314,299.11137445809015
602,50.97491247099404,-301.51155920904154,-79.87539748388235,105.72339019506438,-145.8488144753775,40.47579111085109,321.3320962406795,303.8332141348935
603,52.50577808722368,-305.47347206565667,-78.51784705051907,104.90714721830136,-123.07556915760368,28.685470267628546,325.1804423212783,309.1148994593351
604,53.75032782502044,-309.30955825241074,-77.23712996929541,103.40833286884106,-99.7392534785214,15.28366812884101,328.8965271124977,314.94048545532917
605,54.685400964816054,-312.96899383987073,-76.09380479740241,101.2753348956924,-76.10651464944524,0.3749234505934496,332.44980914016054,321.27461247606607
606,55.29542527569571,-316.3990921814176,-75.14943447061931,98.56157944830856,-52.44711877623064,-15.910205217767956,335.81002443451143,328.06078084500103
607,55.572494031546455,-319.54633397692817,-74.46466879250487,95.32616646229464,-29.02828297681031,-33.416465657320266,338.94759363147404,335.2206261228767
608,55.51609383355474,-322.3574945229275,-74.09731745555882,91.6343296931024,-6.109455091246056,-51.965989443632616,341.8340431290313,342.65426565002025
609,55.13248947845362,-324.7808416606902,-74.10048899927001,87.55755812071554,16.062297382020684,-71.36107079942208,344.4424343121672,350.24172227874175
610,54.43379826860572,-326.7673764430672,-74.52086792857781,83.17322067380161,37.25617459809817,-91.38756762668567,346.74779775223794,357.8453710932538
611,53.43681203153196,-328.2720878947032,-75.3971951618871,78.56356141271658,57.260744408324975,-111.81882164439106,348.72757205466405,365.31330694709067
612,52.16164762171023,-329.25519316450936,-76.75900615479665,73.81397790614328,75.8862424753006,-132.41997634151355,350.36204857899315,372.4834974465608
613,50.6303232689703,-329.683334540794,-78.62566659656419,69.01055802572857,92.96610729442989,-152.95255854402618,351.63482274653285,379.18856558181807
614,48.865367198710864,-329.530704769132,-81.00572786194898,64.23692505323625,108.35782613767793,-173.1791809501822,352.53324955793846,385.2610345143018
615,46.88856589294611,-328.78007142606714,-83.89660447473257,59.570523961072574,121.94320000030895,-192.86821787250588,353.04889517960095,390.5388602394203
616,44.719952231601006,-327.4236696446056,-87.28455592094424,55.07856902094591,133.62815620462928,-211.79830375776368,353.1779686706998,394.8710724533306
617,42.377118401022656,-325.46393056506446,-91.14493879346688,50.81395712578073,143.3422448397781,-229.7625039942513,352.92170961972306,398.12333575194293
618,39.874914299932264,-322.91401076285945,-95.44268677729401,46.81151840127349,151.0379493622097,-246.57201143207666,352.2867006195093,400.18322855492795
619,37.225559508813376,-319.79808552390296,-100.13297878755756,43.08500529872554,156.68992385816387,-262.0592315264159,351.28506983092154,400.96501799874557
620,34.439158741284196,-316.1513666053917,-105.16206943641674,39.625191892825825,160.29424331779427,-276.0801345570504,349.934549176707,400.41369812161224
621,31.52457277515467,-312.0198052069956,-110.46827512887087,36.3993556860818,161.86772446729717,-288.5157742993901,348.25835795329834,398.5080736847224
622,28.490564987086607,-307.45944701647323,-115.98312374461838,33.35225713903195,161.4473492247707,-299.27289828722905,346.28488969979105,395.26272023048114
623,25.34712106325855,-302.53542117095,-121.63267814448005,30.408554802926503,159.08980401071486,-308.2836061818713,344.0471920423981,390.72872012097054
624,22.10682674784276,-297.3205680091868,-127.33903266872314,27.47644286516097,154.87113467875542,-315.5040514725734,341.5822443134402,384.99314257079845
625,18.786185001507516,-291.893737235508,-133.02196290481896,24.452204607621745,148.8865039007962,-320.9122289251141,338.93005391019113,378.1772906729092
626,15.406758929165434,-286.33781319361793,-138.60068955891228,21.22534365311096,141.25002047631824,-324.5049450036893,336.13260665300476,370.43378292015325
627,11.996039112510653,-280.73754352724274,-143.99570221780223,17.683968473119734,132.09458646131347,-326.2941275103245,333.2327166304604,361.94257887413113
628,8.587951618603853,-275.17726009475103,-149.13057998969796,13.720143306386312,121.57168083881945,-326.3026881484592,330.2728265618239,352.9061012015895
629,5.222943942194941,-269.73858665115506,-153.9337433227816,9.23496472267933,109.8509734797727,-324.56020011695637,327.2938110146807,343.5436451489119
630,1.9476093146639013,-264.4982269894566,-158.3400736526192,4.14316910740366,97.11964687869084,-321.09868419246254,324.33383254060607,334.08529508305463
631,-1.1861650437770097,-259.52592047619817,-162.29234356157767,-1.6228807163848233,83.58130049800465,-315.9488044867556,321.42729549147197,324.765581538609
632,-4.122513048914204,-254.88264013506986,-165.7424086936883,-8.109941450544504,69.45432569378835,-309.1367558025083,318.6039347025579,315.81711105586896
633,-6.803327047441473,-250.61909315548567,-168.65212312288304,-15.341441327237993,54.969667709392006,-300.682079030867,315.888067518795,307.4643883259116
634,-9.170347469248629,-246.77456678178913,-170.99395200571857,-23.315875636740017,40.367932632777546,-290.59657415391325,313.29802904256127,299.9180300337773
635,-11.167508455573206,-243.3761457005795,-172.7512689098204,-32.006052433367685,25.89584722893709,-278.88439993141276,310.84580285621405,293.36954481926637
636,-12.743421163786683,-240.43831166824833,-173.9183394251041,-41.3591730274037,11.802132433719937,-265.5433641869863,308.5368530519397,287.9868240638765
637,-13.853861688761656,-237.96292314235475,-174.5000061625742,-51.29772018980448,-1.6670992020125428,-250.56732680099725,306.37015792242346,283.9104529447423
638,-14.464124579090829,-235.93956248872797,-174.51110150266962,-61.721123513055566,-14.273271093989894,-233.94956497467368,304.33844074373553,281.25091063349794
639,-14.551106185577074,-234.34623068975787,-173.9756224353304,-72.50817066664834,-25.790415838829343,-215.68689073042907,302.4285884720849,280.08668505026566
640,-14.104993992737674,-233.15036349256872,-172.9257064024095,-83.5201288882312,-36.0102002589484,-195.7842660248704,300.62224476043656,280.4632855137413
641,-13.13045756053249,-232.3101373247757,-171.40044903301214,-94.60452794530119,-44.74670798581391,-174.25963241965113,298.8965594649169,282.3931010008488
642,-11.647262467178697,-231.7760269431554,-169.44460546496657,-105.59953222711336,-51.840797448684135,-151.14866052180778,297.2250729365572,285.85602658957373
643,-9.690259289996412,-231.49256925555926,-167.10721786448275,-116.33879762133826,-57.16387548158314,-126.50912915459745,295.5787102226544,290.8007674061947
644,-7.308733455596416,-231.40027958038306,-164.44021331943634,-126.65667329756161,-60.62095551969586,-100.4246641826556,293.9268580667511,297.1467261937163
645,-4.565136539490226,-231.43765894352828,-161.49701798218857,-136.39357536343246,-62.15289998092452,-73.00759987004854,292.23849611595176,304.78638348649434
646,-1.5332528777384575,-231.54322511871686,-158.33123380381844,-145.40133372631016,-61.73777511522595,-44.40076912889602,290.4833523592017,313.58808446195985
647,1.7041150608491464,-231.65749694387122,-154.9954218492661,-153.54829868989023,-59.39127188145673,-14.778081029377303,288.6330507892047,323.39915183912547
648,5.057835021433431,-231.72486161308427,-151.54003012460382,-160.7239910607039,-55.166169557270095,15.656197108393874,286.6622164618484,334.04924951900864
649,8.435382338352149,-231.6952585402384,-148.0124943876312,-166.8430886655397,-49.15084280830894,46.66947188801181,284.54950028707816,345.35392744515246
650,11.743892234972096,-231.52562106669683,-144.4565288012075,-171.84856272478604,-41.46684078509843,78.00412357955027,282.27848427889387,357.11828450165007
651,14.89319141842229,-231.18102824830905,-140.91161117082635,-175.71380909987235,-32.265599707253195,109.38196356940422,279.83842868306607,369.14069267152655
652,17.798679191836655,-230.6355322533606,-137.41265646525042,-178.44366116740792,-21.724386989426474,140.50968309241935,277.22482594940993,381.21653113484444
653,20.38394073083745,-229.87264148516564,-133.98986347960607,-180.07422111567757,-10.041611559891617,171.08508041645138,274.43973303290335,393.1418822699563
654,22.582993224796454,-228.88545453909273,-130.6687133092099,-180.6715020678661,2.568333331238999,200.80381972161038,271.49186275149447,404.7171418170039
655,24.34208807816325,-227.6764548170261,-127.4700946363983,-180.32893122388666,15.880506493346129,229.3664543720439,268.3964263251888,415.750492840893
656,25.621017782916777,-226.2569894020932,-124.4105293155809,-179.1638202325273,29.66493670147088,256.4854399012071,265.1747318899598,426.06118851233066
657,26.393902610379612,-224.64646800152877,-121.50247194929436,-177.31295898768252,43.69202869618974,281.89186702280347,261.85355661360325,435.48258358570166
658,26.649457978672427,-222.8713278601006,-118.75465865209019,-174.9275290370487,57.73768072447455,305.3416613970281,258.46432187602795,443.8648506571269
659,26.390766413516012,-220.96381813840136,-116.17248260186206,-172.16755999868772,71.58796441442486,326.6210238039246,255.04211078084776,451.0773169580478
660,25.634597175425764,-218.9606619845464,-113.75837698450168,-169.1961656046087,85.04325248689618,345.5509207676306,251.62457424966172,457.01036251972323
661,24.410331379355654,-216.90165607637118,-111.51218940945097,-166.1737953338914,97.9217181762657,361.990480099192,248.2507756709129,461.5768320881205
662,22.758560795018443,-214.82826567940324,-109.43153577963714,-163.25272394195045,110.06216860132888,375.8391962520995,244.96002451267142,464.71293090356386
663,20.729434636362914,-212.78226852561414,-107.5121258280947,-160.57197638760803,121.3262097038771,387.03790423329366,241.79074676939345,466.3785969433047
664,18.380830749512526,-210.80449355599416,-105.74805676977913,-158.25285297444086,131.59977061767088,395.56853514639425,238.77943499306966,466.557367320259
665,15.776426106386607,-208.9336913189537,-104.1320753479264,-156.39518300963297,140.79403900692515,401.4527182184819,235.95971336385142,465.2557817279739
666,12.9837370156113,-207.20556228823884,-102.6558116340853,-155.07439827523928,148.84587507928742,404.7493404710777,233.3615443815237,462.5023884007751
667,10.072192664429418,-205.65195864060325,-101.30999004906568,-154.339481962248,155.71778010843553,405.55121347011254,231.01059426295444,458.346435335693
668,7.111297220919789,-204.3002653248743,-100.08462413135292,-154.21181532885706,161.39749541961342,403.9810247414701,228.9277651145372,452.85633924104513
669,4.168926475422783,-203.17295836890645,-98.96920166271136,-154.68491388952813,165.89730070097255,400.18676804340106,227.12889421050673,446.11802541905644
670,1.3097954778424221,-202.28733251006,-97.95286603327682,-155.72501811574207,169.25306785437226,394.33685123958907,225.62461454334718,438.2332233245008
671,-1.405875861281781,-201.65538621789477,-97.02459837409532,-157.27248095988045,171.5231106574749,386.6150736366444,224.4203661816491,429.317785950035
672,-3.923481618251817,-201.28384970527813,-96.17340319264032,-159.24387601736828,172.78685371925818,377.21564802674357,223.51654471584428,419.50007860703744
673,-6.194924786086986,-201.17434024115093,-95.3884982223166,-161.5347350862994,173.14332873129663,366.33841876239296,222.90877097150712,408.9194567369742
674,-8.179288843934508,-201.32362855715624,-94.65950715916418,-164.02281107218053,172.7094934327667,354.1843988844576,222.58826491946323,397.72482585298553
675,-9.843294838080336,-201.7239999902698,-93.9766521499609,-166.57175087067012,171.61836005071868,340.951719697766,222.54230602323625,386.0732524134771
676,-11.161559989555322,-202.36369406497727,-93.33094152795363,-169.03505366557917,170.01691587223684,326.8320580108691,222.7547620152595,374.12857524022917
677,-12.116679116883784,-203.2274065681837,-92.7143473816076,-171.26018502785482,168.0638192293191,312.00758132208966,223.20666828488405,362.05995539409884
678,-12.699153065602019,-204.29683889459042,-92.11996690190664,-173.0927185635705,165.92685911738758,296.64843000730474,223.8768406472194,350.0402993698059
679,-12.907188814334136,-205.55128048638494,-91.5421609921189,-174.38038559182306,163.78017501718756,280.91073759959056,224.74250515178525,338.24449574347676
680,-12.74639436679485,-206.96821144783019,-90.97666351607928,-174.9769284057831,161.8012442019307,264.9351750736462,225.77992978067485,326.8474176596936
681,-12.2293885950131,-208.52391379795418,-90.42065501926616,-174.74567176295676,160.1676559841916,248.8459927183517,226.9650444159751,316.02166117628997
682,-11.375342594670835,-210.19408117252118,-89.87279575034383,-173.5627479750869,159.05370528151815,232.75052417346072,228.27403718376345,305.9350111020093
683,-10.209465460986351,-211.95441780263874,-89.33321409125922,-171.31993140467537,158.62685095050813,216.73911195962756,229.68391684022546,296.74765030033825
684,-8.762444061943052,-213.7812180663983,-88.80344782485423,-167.92705667314183,159.04409691014993,200.88541240221392,231.1730319552307,288.6091539949456
685,-7.069843506632263,-215.65191793139863,-88.28633692018157,-163.3140099933905,160.44836537885737,185.24703976962414,232.72153831021106,281.6553355474932
686,-5.171472650312171,-217.5456095091162,-87.7858677010352,-157.43229382925594,162.96494078474947,169.86651368733163,234.31180645713545,276.0050325146941
687,-3.1107172628679653,-219.443510047392,-87.30696946287942,-150.25617135833724,166.69806941707745,154.7724789696202,235.92876210522047,271.756939718647
688,-0.9338424456710498,-221.3293771901174,-86.85526596038973,-141.78339944900242,171.72780328928872,139.9811713746903,237.5601531419906,268.98660822896863
689,1.3107346282393144,-223.1898633017297,-86.4367857970985,-132.0355581237753,178.10717696017133,125.49810531611598,239.19673874744376,267.74373501969166
690,3.5732006752315257,-225.0148030538939,-86.05763753436985,-121.0579822196985,185.85980351736697,111.3199598241887,240.8323981571057,268.04986797649894
691,5.80312962565052,-226.79743016185793,-85.72365713029347,-108.91929854838622,194.9779710010765,97.43663710452157,242.4641589741499,269.896645660187
692,7.950291079013503,-228.53452087841325,-85.44003704787127,-95.71057021378947,205.4213135145846,83.83346409775423,244.0921472523964,273.24468138105016
693,9.96548031156334,-230.22646331374938,-85.21094810595521,-81.54404924301747,217.11612208369337,70.49350169071747,245.71946362411884,278.0231868761722
694,11.801364594051474,-231.877252663182,-85.03916698587115,-66.55153936741267,229.95534862338613,57.399918833284026,247.35199138838067,284.13041203337355
695,13.41333855744641,-233.49441292100877,-84.92572427155203,-50.88237267885949,243.79934165060362,44.53838003788225,248.99814364385557,291.43495346963374
696,14.760378751292876,-235.08884565635586,-84.8695898505485,-34.701007207489404,258.47733433666957,31.899385162934056,250.6685572063226,299.7779565198752
697,15.805884215166259,-236.67460609750344,-84.86741406862237,-18.184257555979823,273.78968433079035,19.480491109135283,252.37574121917032,308.97620311832173
698,16.51848596673384,-238.2686064572415,-84.91334370804125,-1.5181777797650355,289.51084139663885,7.288337616768959,254.133688187476,318.82604356007437
699,16.872804269004558,-239.89024651120963,-84.99893130268092,15.105375210037497,305.39299471603135,-4.659604718206764,255.95745488545052,329.1080950333051
700,16.8501289921623,-241.56097213472933,-85.11315448940324,31.492458187931668,321.17032833562007,-16.333645671267,257.86272042474513,339.59259606726863
701,16.438995880738645,-243.30376374583926,-85.24255914239623,47.45098494644878,336.56379210411114,-27.69092186250827,259.8653287394389,350.0452754220072
702,15.6356304967743,-245.14255808584966,-85.37153596486988,62.79482738010839,351.28627766971886,-38.674943937909646,261.9808226044563,360.23356782085136
703,14.444232371139721,-247.1016081852507,-85.48273502584405,77.3479879505268,365.048075428612,-49.21569468154677,264.223975812744,369.93298821122613
704,12.877074650662447,-249.20478763282554,-85.55761668378597,90.94873996783191,377.5624791297307,-59.230309091198805,266.6083293205054,378.93346145157255
705,10.95439924354054,-251.47484655317166,-85.57713094820409,103.4536168364736,388.55140021770666,-68.62434526405085,269.14573633347067,387.0453957142717
706,8.70409396659671,-253.93262827533513,-85.52251101673808,114.74111928604594,397.7508539284422,-77.29363073837428,271.8459208119836,394.1052857340614
707,6.161146307573843,-256.59625778917933,-85.37616049445766,124.71500127538461,404.9161839637875,-85.12664370837253,274.7160539319504,399.98063696283725
708,3.3668779030622136,-259.4803158385843,-85.12260735140379,133.3069914380261,409.8269029738098,-92.0073634526703,277.760353629214,404.57401483860207
709,0.36797425485738283,-262.5950158088412,-84.74949079794463,140.47880924518486,412.2910425912882,-97.8185009763992,280.97971327026187,407.8260459603561
710,-2.784665115321343,-265.9454042716447,-84.24854009462533,146.2233460630874,412.1489288945946,-102.44500126627378,284.37136651789285,409.7172306386158
711,-6.037220721875922,-269.53061002126617,-83.61649733035506,150.56490362153053,409.2763250595212,-105.77769478635813,287.92859649839335,410.26846872267
712,-9.33434720281583,-273.34317047064036,-82.8559301972419,153.558417740127,403.58690986154426,-107.71696946412929,291.64049840562734,409.54025154243425
713,-12.62061658897301,-277.3684679365356,-81.97587709209867,155.28764343323127,395.03408573454595,-108.17633590034555,295.4918057015084,407.6305302410458
714,-15.84195617208634,-281.584310876813,-80.99226745364723,155.8623364738358,383.61213039553616,-107.08576691768477,299.46279115884727,404.6713313771673
715,-18.947025947433666,-285.9606956397563,-79.92806715561767,155.4145309441919,369.3567185567427,-104.39470531310974,303.5292552548075,400.8242487794511
716,-21.888483061874414,-290.4597820782353,-78.81311291456849,154.09407365666678,352.34484288827895,-100.0746469519691,307.66261585271053,396.27498877934823
717,-24.624085145435295,-295.0361113500403,-77.68361980810485,152.06362378007637,332.6941576789927,-94.12121611334645,311.8301143208855,391.2271782739863
718,-27.11759007256111,-299.6370865882218,-76.58136909147507,149.49335008423333,310.5617607975263,-86.55565412724636,315.99515327914406,385.89566137914755
719,-29.3394162622187,-304.2037269845542,-75.55260608627334,146.55555535860333,286.14242727779197,-77.42564240995706,320.1177786974543,380.49951633248077
720,-31.267035136581164,-308.6716931625175,-74.64669743660849,143.41943212234912,259.6663146244307,-66.80538226766639,324.1553130531051,375.2550262576777
721,-32.885076269645296,-312.9725669356246,-73.9146121937818,140.24611521754179,231.3961723609344,-54.79486293780402,328.0631367394858,370.36883749168913
722,-34.18513686362995,-317.0353530365252,-73.40730149672792,137.18415472271687,201.62409925897302,-41.51827098562071,331.79560338523476,366.03153491149266
723,-35.16530108814291,-320.7881563980806,-73.17405677137474,134.3654932235917,170.66789590581246,-27.12152890417315,335.3070636057655,362.4118518522542
724,-35.82939120537977,-324.1599783381178,-73.2609260746824,131.90199853900674,138.86705776581084,-11.76899499216115,338.5529633015547,359.651711787857
725,-36.185989886471305,-327.0825698613121,-73.70926222661815,129.8825788687435,106.57844857349706,4.360595453818725,341.4909781731674,357.86227091049926
726,-36.24728968123269,-329.49228008296416,-74.55446481150669,128.3708932343719,74.1716902900509,21.078821609530927,344.0821453673251,357.1210963481183
727,-36.02783930112009,-331.33184111839915,-75.82496171714372,127.40366580508311,42.0243068361352,38.19273554465594,346.2919547092528,357.47057462127134
728,-35.54326577324327,-332.5520359209555,-77.5414559628886,126.98961667869786,10.516665245688472,55.510290877538736,348.0913641860427,358.9175992405779
729,-34.80905574428489,-333.1132011911203,-79.71644176715574,127.10903178023253,-19.973230709964177,72.84582292923378,349.4577061189735,361.4345354439622
730,-33.839477893578014,-332.98652302272166,-82.35397183086776,127.71400906104122,-49.07502436603871,90.02534733100683,350.375451462866,364.96140512034725
731,-32.64672166565141,-332.1550882916247,-85.4496379465764,128.72943622354762,-76.43128158270324,106.89143588215913,350.83680023228504,369.4091782193828
732,-31.240315741217923,-330.6146600622381,-88.9907127801491,130.0547749121337,-101.70266056254711,123.30742639241471,350.8420671575187,374.66400184001577
733,-29.626872991109025,-328.37415073306164,-92.95639620032378,131.56674144227048,-124.5728796938118,139.16072976918724,350.39983489622995,380.5921495299031
734,-27.81018693778815,-325.45577237497946,-97.31811762075061,133.12297193151218,-144.75340522371758,154.36501718133175,349.5268539600284,387.0454374049843
735,-25.79167869587963,-321.8948495336841,-102.03986557863853,134.56672399412727,-161.98781263576495,168.86110702332093,348.2476791588532,393.86683709079716
736,-23.571165954847427,-317.73928571637254,-107.0785420493256,135.73258727620052,-176.0558078099155,182.61642732038453,346.5940453884101,400.896021844022
737,-21.147901307053257,-313.0486820296669,-112.38436403501208,136.4530559516951,-186.77691046021005,195.62300220495837,344.6039991379434,407.9746087822179
738,-18.521809396109106,-307.893116866376,-117.90135167481704,136.56568198938848,-194.01379637423685,207.89399632169085,342.32081521645017,414.9508978527018
739,-15.694841278773206,-302.3516099234634,-123.56794696184168,135.92041348407147,-197.67527265762087,219.45894235572396,339.7917405553074,421.68394727089066
740,-12.672358434897346,-296.510310611159,-129.3178006576461,134.38665695405166,-197.7188324879043,230.35786783376062,337.06661765430806,428.04686208004347
741,-9.464456676934091,-290.4604670151224,-135.08075003150032,131.859597587146,-194.15270929652553,240.6346210685118,334.19644757114065,433.9292102262866
742,-6.087141724365519,-284.29624426338086,-140.7839898522573,128.26536059640873,-187.03732513151016,250.32976545587874,331.2319547313204,439.2385226989862
743,-2.5632739218520677,-278.1124690335318,-146.35341657864984,123.56468537082839,-176.48600383000047,259.4734595555358,328.22221274692777,443.9008807249523
744,1.0767904704967326,-272.00237961963046,-151.7151040329128,117.75489738137395,-162.66480079709788,268.0787621193663,325.21338246679704,447.8606411892528
745,4.794920411424836,-266.0554583145762,-156.79685160796822,110.87008892964386,-145.79129647519053,276.13579309625584,322.2476019766991,451.07939930077924
746,8.545336136509885,-260.35541486164965,-161.5297367789813,102.97954804182858,-126.13221899971794,283.6071425800105,319.36205519647547,453.5343336796321
747,12.275163632785926,-254.9783771438203,-165.84960434293342,94.18459379750887,-103.99980754064407,290.4248513494416,316.58823344170094,455.2161211163076
748,15.925419766167222,-249.99133001038177,-169.69843453500766,84.61407468190784,-79.74689897898811,296.4891938972228,313.95139477176053,456.1266411985606
749,19.43240720974594,-245.45082782895662,-173.02554741466366,74.41885516007291,-53.7608077388185,301.66938564672586,311.47021979142494,456.2767071610131
750,22.729474282607633,-241.401993450152,-175.78861700421393,63.76565090853982,-26.456158371790128,305.80622073391896,309.1566590714818,455.6840504416641
751,25.749071415256438,-237.87780726819003,-177.95448171004932,52.83057709230961,1.7330910108303634,308.71653606061994,307.0159651047602,454.37174750508996
752,28.425015494227427,-234.898685210979,-179.4997456401849,41.792752091227655,30.362139848001796,310.199300077826,305.0468995503642,452.367210957057
753,30.694858248907586,-232.47234293125086,-180.41116865518893,30.828256804605957,58.98402726080413,310.04304585463734,303.2421038625372,449.7017842790839
754,32.502246910365734,-230.59394350568792,-180.68584279094807,20.10469241825805,87.1581809968005,308.03430840837956,301.58861809760646,446.4108971179088
755,33.79916516424201,-229.24652565305357,-180.33115113381544,9.776513723424944,114.45853336482422,303.9666846923246,300.0685289294945,442.5346700043989
756,34.547949298701674,-228.40170741526777,-179.36450448441568,-0.018751435713044762,140.4809485925395,297.6501095561568,298.6597242914697,438.11881063691675
757,34.722986923705555,-228.02065575166003,-177.81285294467457,-9.163346435128679,164.84976422607429,288.9199319857251,297.3367293682471,433.2156195475288
758,34.312021883190745,-228.0553054891633,-175.7119747651322,-17.561194944787918,187.223314947543,277.6453836158634,296.0715973326571,427.8849195780875
759,33.317007516564104,-228.44980195322702,-173.1055534324552,-25.13891830205584,207.29837337838893,263.73705672463484,294.8348284178302,422.1947384445482
760,31.754470573526223,-229.14213149875454,-170.04406536885307,-31.84603986104809,224.81350167968466,247.15305181422394,293.5962928461192,416.22160298156894
761,29.655369613375846,-230.06589478011495,-166.58351303154674,-37.654483978893694,239.5513543023089,227.90351446979437,292.32613672505784,410.0503432385068
762,27.064454006086155,-231.1521705302843,-162.78404886349782,-42.55749990519541,251.34000368853253,206.0533551798998,290.9956543118232,403.77335067363623
763,24.039151430059682,-232.33141365248278,-158.70854170194144,-46.56815516558632,260.05337810910083,181.72303059178356,289.57811350036667,397.4892838146126
764,20.64803158758098,-233.53533045124183,-154.4211376567439,-49.71754595408049,265.6109073232363,155.08735546352648,288.04952289724224,391.3012632356387
765,16.96891057209638,-234.6986752260453,-149.98586289028552,-52.05286131203694,267.9764713787487,126.37240582019014,286.3893283644536,385.31464161710954
766,13.086673155735904,-235.76091564633026,-145.4653081486468,-53.6354141227224,267.15674448980957,95.85065987778034,284.58102522729234,379.6344702439018
767,9.090898853550403,-236.66771905218877,-140.91942637884222,-54.538718902999335,263.19902249600574,63.83459903190475,282.6126706046006,374.36280729812626
768,5.07338192789653,-237.37221796417566,-136.4044668351338,-54.846659371055814,256.18862037163296,30.669052502348595,280.4772794915132,369.59602317676297
769,1.1256356281470372,-237.8360204883591,-131.9720625580499,-54.651753364430256,246.2459253866102,-3.2773866063861172,278.173088905989,365.4222524369981
770,-2.6635329341913225,-238.0299398135962,-127.66848309608616,-54.05349391938155,233.52319029955038,-37.62152009762506,275.70367681819687,361.91912127556924
