time,ax,ay,az,gx,gy,gz,accmagnitude,gccmagnitude
0,-43.32800444119872,-243.8688529974932,-30.005800644760434,-234.2369943734719,-161.91581154043928,-39.30676871795709,249.3522136712107,293.5744139786772
1,-41.14084589394754,-244.38567705677343,-29.93742696191328,-232.33502080156237,-165.8755344726967,-46.645180289578704,249.58640623078608,297.0153141916497
2,-38.99659333767046,-244.91562245214863,-29.80303883368521,-230.67169224567598,-170.2014082336928,-53.89935086947997,249.83343413508132,300.69397401294816
3,-36.913084234360035,-245.45513353683197,-29.594620924870117,-229.2949680552574,-174.88372300433286,-60.981841293678364,250.09151989785062,304.5898889931279
4,-34.90632649268877,-246.0021246063498,-29.305572944289203,-228.2471185213359,-179.90238254716158,-67.81058913813042,250.36029093208268,308.6752246555304
5,-32.990098764488074,-246.55617336772548,-28.930989480675805,-227.56322922691925,-185.2259448008095,-74.31079429759856,250.64094407573742,312.9145285972975
6,-31.175611352396967,-247.11862366884876,-28.46790781450191,-227.2698706098921,-190.8108873418224,-80.41650977532893,250.93632356824403,317.2646599984438
7,-29.47124065678099,-247.69258626540758,-27.915513286529478,-227.3839835513495,-196.60114196262424,-86.07187414368447,251.25090197348737,321.6749651703812
8,-27.88234815604148,-248.28283224095267,-27.27529171774206,-227.91202519115606,-202.52793600279927,-91.23193457144917,251.59065902221406,326.08771915169916
9,-26.4111921675489,-248.89558005169798,-26.551119127616058,-228.84941017307378,-208.50997005713216,-95.86302538863438,251.96285934280382,330.4388438192863
10,-25.056937370534417,-249.53818333709748,-25.749280579758782,-230.18027165136073,-214.4539526495277,-99.94268649077108,252.3757359146227,334.6589033160147
11,-23.815763532537872,-250.21873216915102,-24.878412265187862,-231.87755445052198,-220.25550273330146,-103.45912761602239,252.83809138853997,338.67436842640564
12,-22.6810711869874,-250.9455850906333,-23.94936377983387,-233.90344076346224,-225.80042067649822,-106.4102673573112,253.35883396062604,342.409133209462
13,-21.64377824160326,-251.72685292507364,-22.974980862481722,-236.2100976869067,-230.96631775396065,-108.80239803567062,253.94646806394442,345.78625968671963
14,-20.69269777307351,-252.56985774708724,-21.969812504696673,-238.74072641561375,-235.6245829170777,-110.64854744753093,254.60856256810592,348.72991923497966
15,-19.814983767936962,-253.48059153526484,-20.949750075253558,-241.43088527809707,-239.64265348834473,-111.96662435286608,255.35122037620906,351.1674918772772
16,-18.996628566839483,-254.46319901522034,-19.931609584660077,-244.2100527864329,-242.88654339392667,-112.77744518845323,256.1785733754279,353.0317763662857
17,-18.222993539840633,-255.51950824109457,-18.932671168194283,-247.00339199874907,-245.22356907961674,-113.10274425335024,257.09232581415034,354.2632547326158
18,-17.47935322518871,-256.64863075194546,-17.970192097917078,-249.73367321734023,-246.5252004297892,-112.96326844042838,258.0913675290623,354.8123453565462
19,-16.751432809595045,-257.8466508150447,-17.060911040251074,-252.32330801728094,-246.6699533047416,-112.37705082348407,259.1714761680529,354.6415696998642
20,-16.025919393864296,-259.10642040942787,-16.220561846210877,-254.6964437806177,-245.5462332141132,-111.35794576591802,260.3251247387431,353.72755099795666
21,-15.290928996700067,-260.4174732172064,-15.46341491696707,-256.7810645690274,-243.05503727161448,-109.9144926988173,261.5414074854719,352.06275984140325
22,-14.536413653339359,-261.7660669184538,-14.801863123414044,-258.511041792239,-239.11242453149416,-108.04915746517234,262.8060932108394,349.65692278577524
23,-13.754496029953767,-263.135358488443,-14.24606743018635,-259.82807726300166,-233.6516731601264,-105.75798027832604,264.1018106621375,346.53801657185267
24,-12.93972235951986,-264.50571208849146,-13.803674961292396,-260.6834822597112,-226.6250561280306,-103.03063898893281,265.40836559482347,342.75278221127013
25,-12.089227948056307,-265.8551338102344,-13.479619439282612,-261.03973925295594,-218.0051841149827,-99.85091654390293,266.7031838777255,338.3667093758247
26,-11.202812894966597,-267.15982227536665,-13.276010810787074,-260.87179786092537,-207.78588363793577,-96.19754319739147,267.96186981014085,333.4634610107119
27,-10.282929002116072,-268.39481908893646,-13.192117428869144,-260.1680631236582,-195.98259849543626,-92.0453679553021,269.15886385893936,328.14372948026977
28,-9.33458207163974,-269.53473853885197,-13.224440440595481,-258.9310419909409,-182.63232198458988,-87.36680045610578,270.26817943721863,322.52353743529886
29,-8.365156762884073,-270.55455195524445,-13.36687621406593,-257.17762259060936,-167.79308458982266,-82.13345442131364,271.26419435549155,316.7320175922941
30,-7.384173681681213,-271.4303990317222,-13.610959009422606,-254.93896995442398,-151.5430357700096,-76.31791723161867,272.1224694136899,310.90872453932
31,-6.402990282168609,-272.1403962840202,-13.946172904836178,-252.26003107960852,-133.97916827544734,-69.89556717798366,272.82056438497176,305.20054767795233
32,-5.434458482439077,-272.66541170695444,-14.360319413526328,-249.1986513084529,-115.2157388079011,-62.84636032409917,273.3388204101743,299.7583070736081
33,-4.492552649356286,-272.9897746783756,-14.839925383978082,-245.82431304784822,-95.38243995902228,-55.156512366153315,273.6610776826359,294.7331233776799
34,-3.5919817087826185,-273.10189144525964,-15.37067470019622,-242.21651704268407,-74.62237576259781,-46.8200070511678,273.7752984671335,290.27265952611003
35,-2.7477984640626802,-272.99473927961543,-15.937846989295608,-238.4628360096288,-53.08988774415439,-37.83987132068179,273.6740681440665,286.51733618898163
36,-1.9750177291481994,-272.66621660535026,-16.526747010432008,-234.65668056629028,-30.94827120158128,-28.22916809512699,273.3549511125853,283.59662546833147
37,-1.2882526959616318,-272.11933188222594,-17.1231096530121,-230.89482801770373,-8.367413936872978,-18.0116701864907,272.82068385286544,281.6255284262765
38,-0.7013762753279069,-271.3622204998741,-17.713467466200182,-227.27477541040187,14.478616872307905,-7.222192809586346,272.07919395883334,280.70134161122655
39,-0.2272113532296883,-270.4079860595295,-18.285470244481264,-223.89198874946598,37.414018418672384,4.093423024138967,271.1434411813511,280.90081529681174
40,0.12274853705539267,-269.27436985541374,-18.828149195454316,-220.83712955194113,60.26370715515641,15.878669076461552,270.03108410385516,282.277800721995
41,0.33858833709317077,-267.9832597430051,-19.332121342182816,-218.19334702186887,82.85576444419158,28.0670492536283,268.7639836149541,284.8614741623866
42,0.41219144102405236,-266.5600565262019,-19.789732778155127,-216.03372812596385,105.02384939909736,40.583046387153104,267.367561449984,288.65521130814017
43,0.3374316635205223,-265.03292214503466,-20.195141985297838,-214.4189978628273,126.60955050434464,53.343333329394966,265.8700383656827,293.6361658013543
44,0.11033777584882544,-263.43193895696436,-20.544346543138367,-213.3955573945538,147.4646418948187,66.25817856136932,264.3015816404822,299.75558127862894
45,-0.2707698990090081,-261.7882129812426,-20.835158181689177,-212.99393815374114,167.45320464537897,79.23299293903283,262.6933952621553,306.93983816203746
46,-0.805172853939004,-260.1329559114051,-21.0671322639999,-213.22773576200615,186.4535691727008,92.16996360200869,261.07678816954285,315.0922068282424
47,-1.4896814079808363,-258.4965809414455,-21.241458410254438,-214.09306936519835,204.36003274337264,104.96972306312784,259.48225619554296,324.0952501316819
48,-2.3186003832115643,-256.9078460637548,-21.360819127525648,-215.56859105910564,221.0843066099196,117.53300561528707,257.9386119759583,333.813792912071
49,-3.283739108972128,-255.39307555644987,-21.42922317109851,-217.61604798877497,236.5566506691398,129.76224889448113,256.4721941265167,344.0983559022442
50,-4.37447122237802,-253.9754860007592,-21.4518201755034,-220.18137801592832,250.72665977388823,141.5631051608467,255.10618258215013,354.78893747700096
51,-5.5778488257733025,-252.67463766563284,-21.43470293904579,-223.1962999146297,263.56367479864906,152.84583408963027,253.86004145375185,365.71901936713357
52,-6.878774088136686,-251.50602592801482,-21.384703521253563,-226.58034186897132,275.05680295170055,163.52655613915266,252.74910453864146,376.7196716216473
53,-8.260229366021766,-250.48082099282226,-21.309188883984817,-230.2432381535557,285.21454501622685,173.52835241459138,251.78431213840557,387.62363693339313
54,-9.703564348975608,-249.60575789729822,-21.215861102539762,-234.08761336041232,294.0640411654952,182.78220292802305,250.97210144446376,398.26928357545324
55,-11.188835786613677,-248.8831729496444,-21.112566210630597,-238.0118661341668,301.64996051333924,191.22775996221174,250.31444676466444,408.50432800336904
56,-12.695192458708839,-248.3111775622303,-21.007114690689782,-241.9131597463317,308.0330715504581,198.81395678146137,249.80904049388388,418.18924122826746
57,-14.20129561171904,-247.88395594144438,-20.90711576788488,-245.69042479908393,313.28854031720476,205.49945426635202,249.4496010495521,427.2002663730793
58,-15.685763253035148,-247.59216930364676,-20.819827210357506,-249.24727993505567,317.5040101292801,211.25292934854417,249.22629003659375,435.43198785531234
59,-17.127625371459224,-247.42344629983768,-20.752022217148053,-252.49477976888585,320.7775207132895,216.05320961308874,249.12621777666527,442.79940518300356
60,-18.506776181127503,-247.36293732785467,-20.709874929368826,-255.35390543014134,323.2153257248271,219.8892583698092,249.1340141948591,449.23947637378996
61,-19.80440885313494,-247.39390957241744,-20.698865864055247,-257.7577220841813,324.92966599146155,222.76001414319728,249.23244107524397,454.71210759279364
62,-21.0034180950104,-247.49836002714306,-20.723708039060064,-259.6531393870601,326.0365518508681,224.67408821424553,249.40302197592203,459.2005769465889
63,-22.08875660974953,-247.6576253011825,-20.788293830216343,-261.00222464949064,326.65360227041134,225.64932393193018,249.62666755331514,462.7113917292352
64,-23.047733015962695,-247.852969410522,-20.895661838638276,-261.7830339567887,326.8979817708591,225.71222230766654,249.8842764309863,465.27358998419203
65,-23.870241137921884,-248.06613372780126,-21.04798229829907,-261.98994287189765,326.8844692051261,224.89724007291136,250.1572947955166,466.9375090060641
66,-24.548913498921024,-248.2798365753449,-21.246558819022937,-261.63347479707505,326.7236856930145,223.24596891164768,250.428221366316,467.7730551223562
67,-25.07919524314117,-248.47821322894487,-21.4918436614541,-260.73964080181975,326.52050287856065,220.8062078582079,250.68104791039275,467.8675204412764
68,-25.45933843132886,-248.6471899465273,-21.783463502541316,-259.3488191680864,326.3726474345411,217.63094470387543,250.90162865744395,467.3230029503525
69,-25.69032041150424,-248.77478792284626,-22.120252842829135,-257.514215753839,326.3695135259018,213.77726644586525,251.07797466081888,466.2534961889388
70,-25.775693332402806,-248.85135499820976,-22.500292646944033,-255.29995742848809,326.59119170319445,209.305222988585,251.20047147087243,464.78172344208707
71,-25.721374490103557,-248.86972469475324,-22.920952300717197,-252.77888026948565,327.10772015572473,204.2766720228568,251.262020551794,463.035798638807
72,-25.535388935630998,-248.82530368407947,-23.378933517313147,-250.0300819032779,327.9785619733545,198.7541358316573,251.25810663020843,461.145801412992
73,-25.22757663873957,-248.71609003894747,-23.870315485919697,-247.13631323444037,329.2523095457594,192.79970236667106,251.1867945568204,459.2403566028135
74,-24.809276578128117,-248.5426256559926,-24.390601222715038,-244.1812886177568,330.9666140371762,186.47400306986708,251.04866035834613,457.4433083535654
75,-24.29299955998084,-248.30788716547983,-24.934765597134426,-241.24699496390363,333.14833376482324,179.83529843016905,250.8466620660544,455.8705755913932
76,-23.692100584962244,-248.01712051554333,-25.49730587810602,-238.41107907470385,335.81389026855265,172.9386991414318,250.58595670067285,454.6272688604117
77,-23.02046040763093,-247.6776252409954,-26.072296006788534,-235.7443887107968,338.9698151125641,165.8355460584566,250.27367051317754,453.80513866560705
78,-22.29218468382456,-247.29849516060509,-26.65344622174014,-233.30873686823827,342.6134644442568,158.5729661058222,249.91863020517127,453.48041322444215
79,-21.521327829279638,-246.89032278740999,-27.234170095234983,-231.15495105471706,346.73387263485915,151.19361414323225,249.53106327775674,453.7120698503767
80,-20.721647445326344,-246.46487501910894,-27.80766136110498,-229.32126063414643,351.3127115487269,143.73560294295905,249.12227580937179,454.54057011690986
81,-19.906393902069755,-246.03474775437434,-28.366982955614365,-227.83206608165466,356.3253186288748,136.23261544608502,248.70431587774357,455.98707543293943
82,-19.088138352324528,-245.61300707195497,-28.90517034970156,-226.69712460776128,361.7417553225029,128.7141859321002,248.2896306201872,458.05314737754736
83,-18.278641048288907,-245.2128246056452,-29.415350563430714,-225.9111772518668,367.52785739585494,121.20613017916777,247.89072466507133,460.7209264051164
84,-17.488760404201564,-244.84711478226114,-29.890877326015662,-225.45403330317973,373.64624017348007,113.731099476894,247.51982741348152,463.9537733473054
85,-16.72840184965478,-244.52818163531674,-30.32548175625339,-225.29111880175145,380.05722442571926,106.3092296792643,247.18857639087696,467.6973503834593
86,-16.00650410711469,-244.26738291677074,-30.713436749547373,-225.3744867651898,386.7196523444295,98.95885442155466,246.90772358198515,471.88111164231265
87,-15.331059068176325,-244.0748191743886,-31.04973201911935,-225.6442773193837,393.591567592172,91.69725115846643,246.68687128506386,476.4201680011434
88,-14.709160096914854,-243.95905531986506,-31.330255482549063,-226.03060562122656,400.63073847895953,84.54138970869707,246.53424356718784,481.21748547045155
89,-14.147072697872082,-243.92688191409437,-31.55197546540037,-226.4558440270994,407.795008619527,77.50865528528956,246.45649883220108,486.16637134955056
90,-13.650321313313691,-243.9831228281667,-31.713117125839464,-226.83725239594347,415.04246481584374,70.61752122459015,246.45858824744565,491.1531969347237
91,-13.223786481892548,-244.13049502662244,-31.813325733535713,-227.08989711724874,422.3314174184558,63.888150460007495,246.54366375459745,496.06030009316964
92,-12.871807327110048,-244.3695249864576,-31.853809098173627,-227.1297861362322,429.62019417307863,57.34290894156858,246.71303813362286,500.7690058699775
93,-12.598285001435642,-244.69852479979997,-31.837451638762296,-226.8771348092044,436.8667547410081,51.00677848599489,246.9661981803806,505.1626990230017
94,-12.40678317499047,-245.11362937173402,-31.76889332365402,-226.25966681063497,444.02813986804586,44.907660791780096,247.30087055754151,509.12987957561774
95,-12.300621961889917,-245.6088943015942,-31.654567857659515,-225.21584643156476,451.0597766114653,39.07656831642188,247.71313825701915,512.5671316172691
96,-12.282961871282312,-246.1764520101111,-31.50269583913748,-223.69793424332872,457.91466891961085,33.547701020876595,248.1976038303775,515.3819368985353
97,-12.356874493560966,-246.80672154694454,-31.323229996161967,-221.67475787361505,464.54251071868305,28.35841033291697,248.74759368234905,517.4952682201517
98,-12.525396726474135,-247.48866546512122,-31.127750936608734,-219.13409395502097,470.8887658341068,23.54905301124325,249.35539595000103,518.843902959372
99,-12.791565446524334,-248.2100853057725,-30.929313053764755,-216.08456625314395,476.8937649029243,19.162738076047553,250.01252292350455,519.3824039736647
100,-13.158429672529934,-248.9579456629987,-30.742241353904905,-212.55697829422712,482.49187343478167,15.244969850403896,250.70998767456643,519.0847232213142
101,-13.629037474904388,-249.71871561582427,-30.581881158929086,-208.6050159020351,487.61078708471746,11.843189682500142,251.43858368627247,517.945392408952
102,-14.2063951763774,-250.47871570319415,-30.46430401179133,-204.30527508128262,492.1710099219054,9.006218376950686,252.18915602066062,515.980274491483
103,-14.893396855853531,-251.22445868198366,-30.40597464334138,-199.75659261091118,496.08556903223183,6.783601045806152,252.95285301951844,513.2268595485173
104,-15.692722958811977,-251.94297301667058,-30.423385373882706,-195.07867938613504,499.26001421273594,5.224856237158789,253.72134866291114,509.74409801665655
105,-16.606707978451144,-252.62209933749088,-30.532665671067246,-190.41007888550527,501.592744804711,4.378632009490687,254.487027423512,505.6117730299236
106,-17.637178571711374,-253.25075191438796,-30.749175732297594,-185.90549424248462,502.97569687835556,4.291773286285543,255.24312568108638,500.929421366628
107,-18.78526500443281,-253.81913938633528,-31.087093891090973,-181.73254657464898,503.29541311972565,5.008307490315185,255.98382635221688,495.8148190427376
108,-20.051190501324555,-254.31894131645518,-31.559008284433137,-178.06804394117628,502.43450510891483,6.56835910022488,256.7043060953607,490.40205293650126
109,-21.43404489556478,-254.74343937994144,-32.17552351444035,-175.09385422594227,500.27350357762043,9.007008177304414,257.4007370285277,484.839204163185
110,-22.931550758039002,-255.08760398486325,-32.94489307486125,-172.99248625825692,496.6930771662697,12.353112745485875,258.07024718834293,479.28567258597724
111,-24.539831703608755,-255.34813879755154,-33.8726882093165,-171.9424916195863,491.5765847208074,16.628119806649522,258.71084587608186,473.9091752842995
112,-26.25319363758233,-255.52348696670856,-34.96151365637199,-172.11380492135925,484.8129108801674,21.844894367325075,259.32132153200394,468.88245543647923
113,-28.063930217313743,-255.61380379574905,-36.21078036296565,-173.66314290432064,476.2995202325689,28.006599792529524,259.90112081294996,464.37974226805943
114,-29.962163774916988,-255.6209011380727,-37.616544583645044,-176.7295824193405,465.94565231214705,35.105665781024406,260.450218034459,460.5730077286035
115,-31.935732489466886,-255.54816883194732,-39.17142163599582,-181.43043400007429,453.6755688644306,43.122882010816824,260.9689840030589,457.6280715648181
116,-33.970133785258895,-255.40047814961065,-40.86458079445137,-187.85752106844458,439.4317568502567,52.026655806690776,261.45806258372295,455.7006135461729
117,-36.04853270434494,-255.18407171418104,-42.681825375045825,-196.0739646019053,423.17798619355545,61.77247083840486,261.9182623102594,454.9321596786437
118,-38.15184224210906,-254.90644372028228,-44.60575920133348,-206.11155928851068,404.9021206436379,72.30258070849386,262.35046904109345,455.446117919531
119,-40.258880340131654,-254.57621351378782,-46.616037705346855,-217.96881013027,384.61858332145056,83.54596621329574,262.7555840630378,457.3439475000309
120,-42.346605537924944,-254.2029946175147,-48.68969924777558,-231.60967899020372,362.3703852924384,95.4185780118014,263.1344901817468,460.7015536414549
121,-44.390430353718315,-253.79726019674067,-50.801569999019854,-246.9630700355005,338.23063542112635,107.82387751398595,263.48804631314164,465.56600536728274
122,-46.36460841819176,-253.3702048240688,-52.92473389774335,-263.92306286278097,312.3034622871977,120.6536783604902,263.8171090088974,471.95267748791144
123,-48.24268839097813,-252.93360136462064,-55.031057789482134,-282.3498834953147,284.7242935567544,133.78927956197023,264.1225773828815,479.8429180295427
124,-49.99802499564701,-252.49965108174194,-57.09176093356513,-302.07158710980116,255.65945443502847,147.10287004705017,264.4054563399302,489.1823389317319
125,-51.60433535249529,-252.0808248622033,-59.078017703080604,-322.88641252699455,225.3050642179113,160.45917391953614,264.66693210331675,499.8798204848857
126,-53.03628727872931,-251.68969385379955,-60.96158236391335,-344.56575721886486,193.8852280068166,173.71729695643137,264.90845387871013,511.80730870128286
127,-54.2701053031332,-251.33874874185744,-62.71542505840014,-366.8577128255046,161.64953881599217,186.73272841539185,265.1318159878412,524.8004698817163
128,-55.28417967803498,-251.0402082146898,-64.31436828475447,-389.49109484648966,128.86992299582369,199.35944841142302,265.33923575351844,538.6602485470372
129,-56.059663609233574,-250.80581865644112,-65.73571305037126,-412.17989600301485,95.8368784149384,211.4520899847515,265.53342356298754,553.1553541735245
130,-56.58104426194222,-250.64664848371328,-66.95984339120392,-434.6280901812971,62.855169452509735,222.86810620736205,265.7176426027125,568.0256791761134
131,-56.83667373348158,-250.57288158432024,-67.97079714026418,-456.53471190047424,30.23905514560578,233.46989571199077,265.89575652209317,582.9866255149154
132,-56.81924687819918,-250.59361496760607,-68.75678979899583,-477.5991336695608,-1.6928629666435329,243.12684425083677,266.07226366846527,597.7342902905424
133,-56.526213430004766,-250.71666606920041,-69.31067720365473,-497.5264592913162,-32.623077958850814,251.71724478380534,266.2523165876532,611.9514319963474
134,-55.960112256296185,-250.94839520563053,-69.63034156233606,-516.0329445824625,-62.24079607699528,259.13006377202726,266.44172527201897,625.3141092470148
135,-55.12881587180734,-251.2935484023113,-69.71898475919446,-532.8513483988559,-90.24762517181904,265.26652645207906,266.6469422347025,637.4988537462261
136,-54.04567366375413,-251.7551251840254,-69.58531311118641,-547.7361074189339,-116.3632134752617,270.04149849178344,266.875027023426,648.1902103995313
137,-52.72954279434851,-252.33427494536727,-69.24359940663693,-560.468219559714,-140.33071178554496,273.3846452121971,267.13358742420144,657.0884516106378
138,-51.20469663808958,-253.03022429304758,-68.71361102114116,-570.8597150012525,-161.92192624489695,275.2413523041973,267.4306944521053,663.9172518542254
139,-49.5006020197863,-253.84023637460325,-68.02039674692469,-578.7575921035816,-180.94202578310322,275.5733937592025,267.77476827640737,668.431094421892
140,-47.651558524611104,-254.75960177999872,-67.19392915324846,-584.0470990454108,-197.23366929386347,274.35933397056016,268.17443242921826,670.4221763401474
141,-45.69619582173124,-255.78165927012807,-66.268603533483,-586.6542512793634,-210.6804238700752,271.59465226252905,268.63833405755344,669.7265809744496
142,-43.67682836669924,-256.89784357541254,-65.28259880655051,-586.5474897919366,-221.20935762401882,267.29158014516804,269.17492882227276,666.229501223987
143,-41.63867110231848,-258.09775704123797,-64.27711024066872,-583.738405082582,-228.79270875556438,261.47864497346654,269.7922305723911,659.8693191985301
144,-39.62892486020984,-259.3692620359739,-63.29546851303495,-578.2814758453537,-233.4485560143949,254.19991885148227,270.49752816763095,650.6403799758126
145,-37.695745920194426,-260.6985916127838,-62.38216414583972,-570.2727985121684,-235.24044358625537,245.51397883747683,271.29707451557863,638.594336176375
146,-35.88712029196878,-262.07047663748875,-61.58180045442353,-559.8478129416465,-234.2759445784053,235.49259383099488,272.195755604196,623.8399850289661
147,-34.249669350850944,-263.46828821706356,-60.93800160797386,-547.1780594385683,-230.70418043532015,224.21916470372585,273.1967496861967,606.5415684639215
148,-32.82741910170773,-264.87419468402067,-60.49230512004231,-532.4670319863108,-224.712347519228,211.78695664514416,274.30118862150977,586.9155576785597
149,-31.66057014223808,-266.26933266040623,-60.28306995154858,-515.945221344474,-216.52133551962973,198.29717536563086,275.50783467929557,565.22599477914
150,-30.78430885324743,-267.633991952443,-60.34443235414959,-497.86446885777576,-206.38055402524012,183.85695051666275,276.8127868846363,541.7785136903209
151,-30.227701992586233,-268.94781423901907,-60.70534158694733,-478.4917766609007,-194.56211194473104,168.57729911768655,278.20923126247857,516.9132084881245
152,-30.012716423854393,-270.190005649756,-61.388706679605704,-458.10274153731933,-181.3545176814632,152.57114769436419,279.68724903183494,490.9965574995768
153,-30.153403129422433,-271.3395633518149,-62.410683426076,-436.9747971299343,-167.0560844061259,135.95149330455516,281.23369594569726,464.412644071543
154,-30.655280135791017,-272.3755161744523,-63.78012768410044,-415.3804617839617,-151.96823346780855,118.82978007576084,282.8321645955396,437.55393862417424
155,-31.5149428930901,-273.277178998186,-65.49823672174824,-393.58079633380703,-136.38888970345775,101.31455902612522,284.4630395404076,410.8119207805975
156,-32.71992342432266,-274.02441999084624,-67.55839473186053,-371.81927676436493,-120.60615532032347,83.5104848580943,286.10365247200167,384.5678245077271
157,-34.2488115310093,-274.59793881919654,-69.94623183760419,-350.31627984166585,-104.89243460016918,65.5176846579545,287.72854134563926,359.1837829077366
158,-36.07164274391813,-274.97955293919,-72.63989829501126,-329.26436458976485,-89.49916084524686,47.431511137923394,289.30981377074613,334.99463249982057
159,-38.15054875502501,-275.1524882650054,-75.61054768499146,-308.8245085252173,-74.65225126784549,29.342668782951765,290.8176113182392,312.3006101264693
160,-40.44065699504204,-275.10167011387966,-78.82301515680027,-289.1234253759103,-60.5483868531788,11.337676735591904,292.22066799947567,291.36114040836117
161,-42.89121706122181,-274.81401028242254,-82.23666950522065,-270.2520520437648,-47.352184631613966,-6.500390837407024,293.4869529998675,272.3898700220516
162,-45.446923106959126,-274.27868623888037,-85.80641120180144,-252.26524884987938,-35.194301015250886,-24.09096622133295,294.58438466828574,255.55105933449465
163,-48.049393440373855,-273.48740853805884,-89.48378283126996,-235.18271083237008,-24.170478010941466,-41.35494643568068,295.4815997352774,240.9573943294339
164,-50.63876190488071,-272.4346725926787,-93.21815432512416,-218.99104123856625,-14.341519671653197,-58.21365334853623,296.1487589131535,228.6692342892397
165,-53.1553305665249,-271.1179908036048,-96.95794340734074,-203.646893561449,-5.7341640659667545,-74.58790434405275,296.5583676080129,218.69526521091376
166,-55.54123015627072,-269.53810069065196,-100.65183180875047,-189.08104767958525,1.657203871609042,-90.39729920131681,296.686088561522,210.99448718413518
167,-57.742033864230216,-267.6991440546424,-104.24993983142916,-175.20325078947312,7.868071123235821,-105.55981902975726,296.51152194998406,205.47942737891526
168,-59.70827153106161,-265.6088114256869,-107.70492547226226,-161.90762636536118,12.960635291252613,-119.99181690440668,296.01892796198695,202.02043982841644
169,-61.39679485013774,-263.27844527528606,-110.97297917408561,-149.07843538130706,17.02006499212222,-133.60845796221176,295.19786727582414,200.450929302022
170,-62.7719495655088,-260.7230948461026,-114.01469087392019,-136.59596407090035,20.150294717689032,-146.32464024883797,294.0437361741686,200.5733192880632
171,-63.80651754422381,-257.9615151073962,-116.79577191317699,-124.34231170949293,22.469475411101783,-158.05639803794753,292.5581752320548,202.1655731659226
172,-64.48239979122106,-255.01610239892227,-119.2876202283465,-112.20685998533338,24.105207978778942,-168.72275849845522,290.7493335707775,204.98807255458127
173,-64.79102068432863,-251.91275986768778,-121.4677227931762,-100.09122191098835,25.18969043399307,-178.24799238758376,288.63197451055925,208.79065705240137
174,-64.73344354306676,-248.6806868401281,-123.31989438844329,-87.91349224191512,25.85491018638108,-186.56417169167617,286.22741292862696,213.31963471560357
175,-64.32019763379566,-245.35208780534737,-124.83435638351777,-75.6116522034403,26.228010935960306,-193.61392335374,283.56327957436486,218.32458232709564
176,-63.57082639374212,-241.9617987589383,-126.0076632521254,-63.1460178056626,26.426958586388825,-199.35324971681706,280.6731128683489,223.56476836025135
177,-62.51317567663746,-238.54683128568064,-126.84248791180111,-50.500661496168284,26.556622581090195,-203.75427420900584,277.5957841634979,228.81504895744968
178,-61.18244897167297,-235.14583779768466,-127.34727965086748,-37.68377939633709,26.705378155973655,-206.80776601601775,274.37476785877544,233.8711075746743
179,-59.62006367180949,-231.79850451417065,-127.5358104514461,-24.72701887217108,26.942321264606317,-208.5253005615576,271.05727285685623,238.55393158544473
180,-57.87234835513399,-228.54488184375268,-127.42662697437605,-11.683821809138202,27.31517146281122,-208.94092353187497,267.69325640099544,242.71344349464007
181,-55.98912539375301,-225.42466471695107,-127.04242632752084,1.373124020882521,27.848919011837783,-208.1122043510546,264.33434514250956,246.23122982297807
182,-54.02222573801221,-222.4764380452839,-126.40937400771514,14.355201173078125,28.545251177133235,-206.12058938073562,261.0326912569335,249.02233644491795
183,-52.02398332196537,-219.7369047523837,-125.55638220149459,27.161796258525435,29.382769641439324,-203.07099431504727,257.83979349151247,251.0361244407395
184,-50.04575528370357,-217.2401156807866,-124.51436610996593,39.6846822420595,30.317986772837454,-199.09060771775046,254.8053142552418,252.25620464440524
185,-48.13651134923671,-215.01672209021913,-123.3154952325038,51.81266858604363,31.287064002505442,-194.32691174582231,251.9759243433478,252.69949136087638
186,-46.34153168451305,-213.09327226076368,-121.99245562007872,63.43633383442462,32.20823170093093,-188.94496012164774,249.39420656917076,252.4144355409471
187,-44.70124767908754,-211.49157365472382,-120.5777379945641,74.45265739290623,32.98480768931941,-183.12398568726462,247.09764832778492,251.47851444190454
188,-43.25025473046822,-210.2281411135847,-119.10296537842623,84.76937572535229,33.508711880128516,-177.0534388741067,245.11775095515642,249.99506803110603
189,-42.016520236049665,-209.31374984640155,-117.59827253837288,94.30890218480252,33.66435839440134,-170.92858290238308,243.47928086140095,248.0895819632198
190,-41.020803741866864,-208.75310969521848,-116.09174808419611,103.01166837089563,33.33279450153998,-164.94579057261348,242.19968396097016,245.90552307941851
191,-40.27629966320776,-208.54467439319797,-114.60894841938556,110.83876743680851,32.395948215097604,-159.29770048294654,241.28868091973402,243.59983652610876
192,-39.788506311254174,-208.68059623386142,-113.172490915683,117.77380549185824,30.740843471736568,-154.16839694702296,240.74805617466305,241.33821448780975
193,-39.555318291646024,-209.14683274105923,-111.80173173873439,123.82389561816231,28.263643544907893,-149.72877756667486,240.57164859144416,239.29024604050142
194,-39.56733290446608,-209.9234076028986,-110.51253175276604,129.01975941418308,24.873389693435787,-146.13226540172184,240.74554608585314,237.62455658242217
195,-39.80835516879546,-210.98482339633904,-109.31711191508084,133.41493252690776,20.495312895378753,-143.511009379545,241.2484806539173,236.50404422898805
196,-40.256080630862,-212.30061867889066,-108.22399751253286,137.08410229637866,15.073611518336257,-141.97269773230312,242.05241420236328,236.08131960361015
197,-40.88293032782266,-213.8360571187903,-107.23804847295932,140.12063631707815,8.573606356508826,-141.59808588591673,243.1232995781717,236.49445434097743
198,-41.657008434252866,-215.55293167970387,-106.36057092558757,142.63338930154615,0.9832059299977501,-142.43931362333126,244.42199553848772,237.86314166799662
199,-42.54315050236394,-217.4104626298764,-105.58950341520219,144.7429010390293,-7.6863614515976115,-144.5190578217217,245.90530937600903,240.2853686638517
200,-43.50402893232027,-219.36626449117978,-104.91966982155219,146.57711962245287,-17.400567385727125,-147.83053783291126,247.52713677194416,243.8346931905575
201,-44.501282251023895,-221.37735415091592,-104.34309003550098,148.26680092015334,-28.102347775125402,-152.33836169712777,249.23966530961061,248.55820816430065
202,-45.49663566575808,-223.4011703568767,-103.84933868797907,149.94074712390648,-39.7135793860715,-157.98017376224084,250.99460598349424,254.47526118251037
203,-46.45298192799053,-225.39657384739965,-103.42594168385014,151.7210537517573,-52.13721137541225,-164.66903872804795,252.74441606266214,261.5769781734792
204,-47.33539365132856,-227.32479758753286,-103.05879995563052,153.7185353429238,-65.2599716596924,-172.29647439119668,254.44347693867957,269.82661574263324
205,-48.11204087707673,-229.1503180749153,-102.7326296726697,156.02849495749118,-78.95554785376274,-180.73602610001532,256.0491921765307,279.1607389538614
206,-48.75499092434598,-230.84162145987776,-102.4314080673847,158.72699141174783,-93.08812636836637,-189.84726069319825,257.5229739068148,289.49119094160176
207,-49.2408713748235,-232.37184226218133,-102.13881407939809,161.86774118020165,-107.51616230266268,-199.48004689881088,258.83108992711044,300.7077902578167
208,-49.55138128110377,-233.7192575724202,-101.83865321202569,165.47976966973647,-122.09624778490576,-209.4789830110435,259.9453492419364,312.6816636996679
209,-49.673640206321075,-234.86762537151245,-101.51525639604246,169.56590006625186,-136.68694751112898,-219.68783109834777,260.8436098731948,325.26909863371014
210,-49.60036947827032,-235.80636148377457,-101.15384339945534,174.10213838405122,-151.15247686985143,-229.95381984187213,261.5100992132673,338.3157809075156
211,-49.32990508639663,-236.53055535036074,-100.74084262661606,179.0379819864137,-165.36610930771826,-240.13168517470834,261.93554374336145,351.6612729737663
212,-48.86604682444269,-237.04083011640677,-100.26416111963444,184.29764682257516,-179.2132144674598,-250.0873290115247,262.11711146613203,365.14358190379966
213,-48.21775327426847,-237.34305738980692,-99.71340102531215,189.78217690349103,-192.5938461336573,-259.70099122649367,262.05817668935674,378.60366814382974
214,-47.39869671893373,-237.44794135536466,-99.08002131021146,195.37236901038514,-205.42481820823218,-268.86984816117933,261.7679225262348,391.8897524508928
215,-46.42669588024708,-237.3704905936931,-98.35744570323588,200.93241718240762,-217.6412268458275,-277.5099716781834,261.26080134367584,404.8612895268212
216,-45.323047449359954,-237.12939885583003,-97.5411195571369,206.31415604138044,-229.19739658663354,-285.55760541328004,260.5558772247057,417.3924915096159
217,-44.111779709819416,-236.746358098229,-96.62851958666909,211.36176039303385,-240.06724708915735,-292.96973867265604,259.6760772533856,429.37530187454394
218,-42.818853103496956,-236.24532817882826,-95.61912130681152,215.9167417949499,-250.24409436850368,-299.72398253388695,258.647379994419,440.7217397953605
219,-41.47133331133669,-235.6517876513432,-94.51432943942329,219.82307190079905,-259.73991587841755,-305.81777618896643,257.4979698207326,451.3655560383509
220,-40.09656229084805,-234.9919891117017,-93.31737659633592,222.93225810046056,-268.58412198888857,-311.26697348546855,256.2573847854862,461.26316345056483
221,-38.721351785251166,-234.29224075630628,-92.0331952800253,225.108199512061,-276.8218872418315,-316.1038792572426,254.95568378277122,470.3938276209017
222,-37.37122223591235,-233.57823344178595,-90.6682677789957,226.2316605498067,-284.5121033339937,-320.37482189642066,253.62265607859194,478.75912606444376
223,-36.06970791514885,-232.87442973505412,-89.23045795032073,226.2042145978573,-291.72502237746727,-324.1373622806726,252.28709310913382,486.3817070258619
224,-34.837746496424266,-232.2035282754902,-87.72882825613846,224.95153100432893,-298.53966390633656,-327.4572491667609,250.97613883942682,493.30340121498244
225,-33.69316825585956,-231.58601330912703,-86.17344485722619,222.4259037076898,-305.0410624607758,-330.4052370375248,249.71473106827372,499.582760737162
226,-32.65029677954954,-231.03979565380612,-84.57517316269936,218.60794831380147,-311.3174343524273,-333.053883828062,248.5251420539644,505.2921183484472
227,-31.719669526966165,-230.57994782459136,-82.9454660291755,213.5074253379142,-317.45734233672925,-335.474442868386,247.42662294267652,510.51427620546303
228,-30.907882912929917,-230.21853275535756,-81.29614673077505,207.16317942853482,-323.54693545882867,-337.73395593060206,246.43515284276887,515.3389458355188
229,-30.21756281567159,-229.96452259987262,-79.63918876763857,199.64221629022973,-329.66733848877044,-339.8926428865959,245.56329006882973,519.8590695309666
230,-29.647457744931504,-229.82380156845372,-77.98649450228834,191.03796931219145,-335.8922612461189,-342.00166883698864,244.8201201586657,524.1671572879296
231,-29.19264842262938,-229.79924468332246,-76.3496745674847,181.46783545391574,-342.2858926656745,-344.1013524856429,244.21129280394717,528.3517724487673
232,-28.844864324138793,-229.8908626590958,-74.7398300336036,171.07008386764758,-348.9011374936519,-346.21986083194025,243.73913780629204,532.49429322359
233,-28.592894907895072,-230.09600180100063,-73.16733941673778,160.00026024061688,-355.77824493631897,-348.372415672933,243.40284854276757,536.6660662704688
234,-28.423080907606398,-230.40958697537212,-71.64165265794728,148.42722409607964,-362.94386853229776,-350.5610176299658,243.19872028355974,540.9260527615598
235,-28.319869173743385,-230.82439551846014,-70.17109424624996,136.52896459868015,-370.41058529410157,-352.7746741127825,243.1204302247996,545.319047450024
236,-28.266413091493135,-231.33135041189985,-68.76267789069131,124.4883423920316,-378.1768900988254,-354.99009945529605,243.15934634170324,549.8745280797917
237,-28.24519958877854,-231.9198219228907,-67.42193568154892,112.4889007586862,-386.22766857355043,-357.1728390069538,243.30485294160383,554.6061671085437
238,-28.238683254516886,-232.5779279365768,-66.1527653677278,100.71087953755601,-394.5351383160486,-359.2787548264053,243.5446818366975,559.5120112769604
239,-28.22990816447703,-233.29282438933032,-64.95729994618732,89.32755072396846,-403.060234263587,-361.2557992955326,243.86523928483234,564.5753082175661
240,-28.203098666416302,-234.05097866501416,-63.83580404564925,78.50197659215617,-411.75439968811344,-363.0459946923087,244.2519203361913,569.7659341499096
241,-28.144201626410595,-234.8384205366246,-62.786601608665514,68.38427050417822,-420.5617302426852,-364.5875314859826,244.68940398266562,575.0423536911002
242,-28.041364514003707,-235.6409670881962,-61.80603924689722,59.10941810531605,-429.42140544930345,-365.81689579721956,245.16192444794035,580.3540227986014
243,-27.885336170082866,-236.44441991084528,-60.8884894003893,50.79569294193442,-438.270330836418,-366.6709374236025,245.6535159717036,585.6441299308551
244,-27.669780027506476,-237.2347346220092,-60.026396941071035,43.54367605850711,-447.0459055319397,-367.08879486628206,246.14823037913655,590.852560031078
245,-27.391492720654597,-237.99816427518428,-59.21037196617119,37.435864238690705,-455.68882534576954,-367.0136038354438,246.63032839117417,595.9189622341504
246,-27.050524104770037,-238.7213794280306,-58.42933025804262,32.53682707590223,-464.1458305660629,-366.3939311298539,247.08444690604824,600.7858057579014
247,-26.650197380801217,-239.3915685530528,-57.6706814496344,28.893850429002267,-472.3723102107441,-365.18489564809863,247.4957454029185,605.4013181147892
248,-26.197030182601026,-239.99652317384232,-56.92056353304465,26.53798477490058,-480.33467885850683,-363.3489601671599,247.8500352791918,609.7222127734866
249,-25.700559320998625,-240.52471259811344,-56.164121096504914,25.48540289667902,-488.0124470634603,-360.8563983309151,248.13389639024987,613.7161265719656
250,-25.173073666062496,-240.96535337464334,-55.38582362198618,25.73896273762973,-495.3999113938151,-357.6854586995948,248.33478533782878,617.3636987238427
251,-24.629261538458824,-241.3084786312432,-54.56981929280486,27.28986770009921,-502.50739603585515,-353.8222609514149,248.44114016923626,620.6602332309124
252,-24.08578098460576,-241.54501226170618,-53.70031891871864,30.11931738029052,-509.36198566680685,-349.2604688344961,248.44248608074344,623.6168960233719
253,-23.560763333231797,-241.66685250873067,-52.76200364489529,34.20004610826669,-516.0076995424649,-344.0007909959736,248.3295464075253,626.2614082439167
254,-23.073262290942164,-241.66696888303093,-51.74044907327706,39.4976545085157,-522.5050695798035,-338.0503648570184,248.09436265065344,628.638208284934
255,-22.64266230728606,-241.539515702716,-50.62255745456303,45.971650662760936,-528.9301004329385,-331.42208042557775,247.73042667934448,630.8080675587146
256,-22.288060879210924,-241.27996491696493,-49.396988876400094,53.57613241075972,-535.37260679689,-324.13390037102675,247.23282765511098,632.8471584077341
257,-22.027639929623703,-240.88526019409198,-48.05458194374451,62.26006078644811,-541.9339419467641,-316.2082298531355,246.5984155741617,634.8455868238734
258,-21.8780415989379,-240.3539933294379,-46.58875434128971,71.96709622489547,-548.7241512209879,-307.6713845759139,245.82598246794785,636.9054174083166
259,-21.853763897567436,-239.6866028194613,-44.995873901858864,82.63499335025435,-555.8586040457787,-298.5531984430878,244.91646121583102,639.1382327892629
260,-21.966591711916976,-238.88559303064034,-43.27559130367953,94.19457594623219,-563.4541773331382,-288.8868031436199,243.87314066848276,641.6622838894767
261,-22.225078604547814,-237.95577077736962,-41.431126098408136,106.56834001622154,-571.6250807896604,-278.7086011123162,242.70189432476562,644.5993002682989
262,-22.634094620171588,-236.90449424053847,-39.46949828912402,119.6687584585119,-580.4784300345339,-268.05844084610897,241.4114180416567,648.0710405673212
263,-23.194454721322906,-235.74192701720327,-37.401698174022464,133.3963845601465,-590.1096858027834,-256.97999004090434,240.0134701870955,652.1956713874783
264,-23.90264132598453,-234.48128785747804,-35.24278780131842,147.637872015906,-600.5980865031879,-245.52128822185165,238.5231054436755,657.0840685065104
265,-24.75063263880249,-233.1390845328288,-33.01192818341008,162.26404541469196,-612.0022068380267,-233.7354473092116,236.9588913502342,662.8361372166611
266,-25.72584614392894,-231.73531843958514,-30.732327225824342,177.12816628298248,-624.3557771051519,-221.68145662541357,235.34309475290664,669.5372488980396
267,-26.81120387040955,-230.2936450782208,-28.43110397129427,192.06454531887022,-637.6638963994051,-209.42503877234978,233.70182371216652,677.2548890574743
268,-27.985322942085652,-228.84147458095194,-26.139065296376245,206.88765111888077,-651.8997685071579,-197.03949498892098,232.0651092129291,686.0356083234677
269,-29.22283162799258,-227.40999606544807,-23.890391845716795,221.39185936670037,-667.0020820977801,-184.60647328053236,230.46691037640713,695.9023625803245
270,-30.49480781869122,-226.0341097574558,-21.722230932124607,235.35197403553033,-682.8731469978037,-172.21658994171472,228.94502680761502,706.8523216839066
271,-31.769333740922917,-224.7522515112561,-19.674195444941066,248.52463356795383,-699.377885962142,-159.96983518790657,227.54090222029856,718.8552180688605
272,-33.012157865860075,-223.60609557696569,-17.787769531326845,260.6506902302189,-716.3437665471218,-147.97569654028098,226.29930458931793,731.8522970844822
273,-34.18745232922521,-222.6401232836342,-16.105624034995046,271.4586201221506,-733.5617406048262,-136.35293932253273,225.26786986562868,745.7559201627726
274,-35.25865163504527,-221.90104780912563,-14.670847544411881,280.66898522448423,-750.7882396098438,-125.22899199473191,224.4964988405803,760.4498599087143
275,-36.18935584536643,-221.43708845535744,-13.526102489348254,287.99992823967534,-767.7482523291071,-114.73889492239516,224.0366001256842,775.7903126996348
276,-36.94427889165153,-221.29709189883073,-12.712719840044242,293.1736368516742,-784.1394870222824,-105.02378440426791,223.9401764593416,791.6076391085355
277,-37.490220249776975,-221.52950284353813,-12.26975016499638,295.9236674683029,-799.6375933761672,-96.22889910936235,224.2587567315967,807.7088252693578
278,-37.79703621973431,-222.1811924657047,-12.23299265550589,296.00297064052023,-813.9023899477763,-88.5011131425354,225.0421823074441,823.8806392018917
279,-37.83858562242128,-223.2961599417866,-12.63402700993886,293.1924124668762,-826.5850114368947,-81.9860183844797,226.33726336473066,839.8934353138578
280,-37.593623965637015,-224.91412987359368,-13.499275723026283,287.30953999211926,-837.3358572997782,-76.82459815610015,228.18632873891846,855.5055382761581
281,-37.04662006271239,-227.06907609201156,-14.849126238034886,278.2172959177933,-845.8131900531756,-73.14955418411877,230.6257007113855,870.4681150784556
282,-36.1884697103991,-229.78770967201115,-16.6971433907485,265.83235139069484,-851.6921993925638,-71.08136868825214,233.68413381763247,884.5304225413186
283,-35.01708234721181,-233.0879756665714,-19.049402404091577,250.13269831383022,-854.6743184046157,-70.72420239735469,237.3812637085729,897.445298409128
284,-33.53781856180823,-236.97760875922845,-21.903971252401792,231.16412796340094,-854.49655219345,-72.16174654880386,241.7261180343687,908.9747490820783
285,-31.763758786465445,-241.4528023944631,-25.25056843369219,209.04522382344584,-850.9405586757698,-75.45316155433736,246.71574584277383,918.8954777501407
286,-29.715786443037207,-246.49704858779705,-29.070418001047745,183.97051565038902,-843.8412075658425,-80.62924626973256,252.33402467373477,927.0041945323948
287,-27.422472265794795,-252.08020620725966,-33.336318032489665,156.2114799573089,-833.0943378839576,-87.68898910111977,258.55070503308394,933.1225560241086
288,-24.919750533550424,-258.1578537884907,-38.01293155562946,126.11512961598697,-818.663437561046,-96.59665505783688,265.3207499450379,937.1015955882718
289,-22.25038240012388,-264.670978732787,-43.05730047202436,94.10001159891925,-800.584981337189,-107.27956083724781,272.5840225999166,938.8255272301532
290,-19.463206280910907,-271.54604807000874,-48.419573654022955,60.649525554865505,-778.9721851460025,-119.62668244530644,280.265367709542,938.2148335162389
291,-16.612180342793096,-278.6954970240299,-54.04393072175443,26.302584264730257,-754.0169660981677,-133.4882259180427,288.2751222362675,935.2285794008203
292,-13.755227784332106,-286.018660519678,-59.86967380894625,-8.358243941995662,-725.9899363965696,-148.67627074727076,296.51007888352865,929.8659260184251
293,-10.952902080620909,-293.40315949212396,-65.83245168473836,-42.720846381580195,-695.2383065164197,-164.9665674509597,304.85491126808563,922.1668482931378
294,-8.266896772776457,-300.72673838904893,-71.86557456388628,-76.15954336659632,-662.1816274423081,-182.10153581199646,313.18405320771586,912.2120845886512
295,-5.758432395795769,-307.8595328547269,-77.90137423823957,-108.05243006340633,-627.3053632592853,-199.7944695201075,321.364006472287,900.1223630051337
296,-3.4865612140846185,-314.66672792825693,-83.87256310042768,-137.79948345063426,-591.1523530209641,-217.73490731874668,329.256032483359,886.0569555254331
297,-1.5064380293624489,-321.01154817465004,-89.71354744254094,-164.84076066557284,-554.3122929086757,-235.59508139195736,336.71916495640494,870.2116075063524
298,0.1323880281656301,-326.75850315202075,-95.36165510744632,-188.6739703579257,-517.4094439342927,-253.03730202991503,343.61346359713997,852.8158772844135
299,1.3876005853987246,-331.7767957593302,-100.75824473495467,-208.87068892652985,-481.0888439631271,-269.7220855512179,349.8034148678385,834.1299022712125
300,2.225598563052255,-335.94378864024804,-105.84967264055216,-225.0905226175028,-446.0013723129228,-285.31678266230364,355.1613756018368,814.4405890637385
301,2.6227700156412164,-339.1484161010985,-110.58810268926254,-237.0925860837412,-412.7880769659915,-299.5044200892221,359.57094966117546,794.0572119812231
302,2.5664956842509254,-341.2944265981217,-114.93215324859416,-244.7437765644052,-382.0642247413434,-311.9924329839991,362.93018723235326,773.3064026537
303,2.055827222411902,-342.30334386511754,-118.84738248651227,-248.02346489101672,-354.40356994212675,-322.52094307434083,365.1545006424845,752.526526129275
304,1.1017960754525604,-342.11704286752763,-122.30661836166092,-247.02439097213363,-330.32335365883444,-330.8702316876099,366.1791993954325,732.0614665623627
305,-0.27267566554226563,-340.6998493275703,-125.29014254640259,-241.94973064617665,-310.2705412044945,-336.86707116301596,365.96155988730027,712.2538851231187
306,-2.0332725533647302,-338.0400876612256,-127.78573858955076,-233.10648039976206,-294.609777178725,-340.38961484194726,364.4823611312823,693.4380597344696
307,-4.135181456749931,-334.15102080510144,-129.7886145006949,-220.8954747819596,-283.6134863356519,-341.37060435001246,361.7468358236923,675.9324653810112
308,-6.524356709693542,-329.0711456346612,-131.3012092573744,-205.79849834210634,-277.45447601564086,-339.79873008393747,357.7850052334757,660.0322998449711
309,-9.139108984712156,-322.8638286695693,-132.33289192376336,-188.36307113464093,-276.20130635172694,-335.7180714038369,352.6513858603193,646.002197623859
310,-11.911958387862438,-315.6162879173236,-132.89956136787464,-169.18556754975165,-279.81659249299446,-329.2256405135174,346.4240750155734,634.0693995279444
311,-14.771681829713366,-307.437947478742,-133.02315421098584,-148.89336823923583,-288.1582938051122,-320.46715159931466,339.2032410410536,624.4176533033583
312,-17.645477582785684,-298.45821113423887,-132.73106891437166,-128.12674353451658,-300.9839339456722,-309.6312280380929,331.10906123916845,617.1821098939158
313,-20.46116612566971,-288.8237184495235,-132.0555149714888,-107.52112723378956,-317.957588657742,-296.9423394205419,322.27916589822956,612.4454508518563
314,-23.14934595962388,-278.6951610026103,-131.0327979247346,-87.69036849861097,-338.6593805562712,-282.65282113550603,312.8656592596164,610.2354362195849
315,-25.645426116694548,-268.243746729048,-129.70255297774247,-69.21145525137676,-362.5971365415492,-267.03436699545307,303.03179755258736,610.5240008817391
316,-27.891463593492837,-257.6474072529835,-128.10694180317134,-52.611093703877614,-389.21979677002133,-250.36939578954448,292.94841046608,613.2279542130957
317,-29.837743805090717,-247.08684682733593,-126.28982833426022,-38.35441389875069,-417.93211602689826,-232.94267491114778,282.79015603697536,618.2112584599263
318,-31.44405480331621,-236.7415326912916,-124.29594976569825,-26.83595824780742,-448.1101694981931,-215.0335418194276,272.7317004537509,625.2887832606428
319,-32.68062043111736,-226.7857258724033,-122.17009881555707,-18.373005878470874,-479.11716499434397,-196.9090035382701,262.9439142599529,634.2313643106928
320,-33.528672598775756,-217.3846490720391,-119.9563326527609,-13.201195485474672,-510.3190713880794,-178.81792276949284,253.59017512825272,644.7719383346728
321,-33.980657434345964,-208.69088417249898,-117.69722283930486,-11.472336850101474,-541.0995965239505,-160.9864229086372,244.82286453560636,656.6124865863601
322,-34.040083444418016,-200.84108585220292,-115.43315929420903,-13.25424802128538,-570.874085163778,-143.61456880334333,236.78014100260518,669.4314958472977
323,-33.72103156567258,-193.9530899002521,-113.20171980416154,-18.532421482103505,-599.1019569999255,-126.87431002958809,229.58306610826034,682.8916395492859
324,-33.04735686255457,-188.12348548695536,-111.03711500438865,-27.21330694982566,-625.2973650480503,-110.90861223757472,223.3331515328575,696.6473920831918
325,-32.051619569313004,-183.42571014043403,-108.9697169458878,-39.12899789720113,-649.0378244008589,-95.83165216849574,218.11038606958041,710.3523158196826
326,-30.773789231003292,-179.90871446690022,-107.02567728845335,-54.04311971194312,-669.9706385083704,-81.72991487806756,213.9717908178902,723.6658011182135
327,-29.259769978823815,-177.59623057051235,-105.2266388313143,-71.65773555339273,-687.8170322976765,-68.66400834195227,210.9505385153342,736.259091754736
328,-27.559797626926322,-176.4866635732358,-103.58954162929666,-91.621107198489,-702.3739852478295,-56.67100076470036,209.05565917600927,747.8204877166419
329,-25.72676048100619,-176.55360967867543,-102.12652252353811,-113.53616822397764,-713.5138390895888,-45.76708824813062,208.27233906543114,758.0596792504545
330,-23.814495716537746,-177.74698718891793,-100.84490468993621,-136.9695817301355,-721.181830079792,-35.95041282596021,208.56280392078585,766.7112251520834
331,-21.87611209068815,-179.99474929852917,-99.74727184793916,-161.4612612797427,-725.3917611719241,-27.203870640874538,209.86776070749116,773.5372396697536
332,-19.962387661376624,-183.2051299722261,-98.8316201634822,-186.53423012851474,-726.2200819125071,-19.49777455318078,212.1083556401881,778.3293919579298
333,-18.120288075827826,-187.26935741121488,-98.09157980484679,-211.7046805550752,-723.7986813828111,-12.792262381736963,215.18859032354678,780.9103467767779
334,-16.391646801102794,-192.064754238982,-97.51669775997563,-236.49207471810976,-718.3067207530758,-7.039369749261901,218.99812339963415,781.1347834617648
335,-14.812043369968722,-197.45813039862205,-97.09277391313303,-260.42910509890993,-709.9618369326579,-2.1847145191183883,223.41537275090104,778.8901221786616
336,-13.409909391940062,-203.30936469822547,-96.80224330835215,-283.07131081096605,-699.0110386082948,1.831232143783879,228.3108237763745,774.0970640905438
337,-12.205884940335713,-209.47506470429303,-96.624598742348,-304.0061299594045,-685.7215931174505,5.072285509132623,233.55044312059448,766.7100189801674
338,-11.212440208036726,-215.81219275203995,-96.53684912983935,-322.8611611099425,-670.3721703724358,7.606069285582528,238.99909492595594,756.7174550397043
339,-10.433769256398712,-222.18154839932185,-96.51401024904564,-339.3114113317529,-653.24447198654,9.503868353965247,244.52385838245394,744.1421664872828
340,-9.865954498292114,-228.45100457062958,-96.5296251859929,-353.0853257734242,-634.6155332144708,10.840741780981455,249.99715092642157,729.0414206258356
341,-9.497392391968,-234.4984055047068,-96.556311715722,-363.96942452346474,-614.7508450579978,11.695811667706629,255.29957047513523,711.5069209665252
342,-9.309462686479518,-240.21404884090222,-96.5663327870946,-371.8114154417068,-593.8984058018434,12.152634793350549,260.3223820366467,691.6645094121893
343,-9.277415603435884,-245.50269113714654,-96.53218424619065,-376.5217044191861,-572.2837763860085,12.299561053599367,264.96958839470875,669.6735287198674
344,-9.371444031934375,-250.28503518392483,-96.42719118913581,-378.07328380135255,-550.1061827379718,12.229985338852508,269.1595408569125,645.7257753144817
345,-9.557901706690695,-254.49867787884705,-96.22610127489895,-376.5000413204405,-527.5356802721581,12.04240743459544,272.82606365329843,620.0439893704621
346,-9.800623785905147,-258.0985181034204,-95.90566045290548,-371.8935912497589,-504.7113706355577,11.840227129554188,275.91908363259523,592.8798503978456
347,-10.062303362091518,-261.05664381882707,-95.44515442278556,-364.3987822526674,-481.74063776881394,11.731218117364275,278.4047744682612,564.511468714764
348,-10.305876201962404,-263.36173542490377,-94.82689818250836,-354.20807898892195,-458.69934896469204,11.826643445619819,280.26524079837526,535.2403830824726
349,-10.495866377791339,-265.0180375498651,-94.03665638534011,-341.55504459750597,-435.6329466881364,12.239996055728634,281.4977819256759,505.3880904023565
350,-10.599647489999864,-266.04396338333476,-93.0639788152817,-326.7071678148478,-412.5583387758457,13.085369198800034,282.1137864510562,475.2921440765681
351,-10.58857803342157,-266.47040415387346,-91.90243794458567,-309.95828247631425,-389.46647896122806,14.475482228459304,282.1373182368232,445.30186420793495
352,-10.438975081023294,-266.33882128907754,-90.54975911654232,-291.62082062230286,-366.325517293721,16.519406801803132,281.60346028372743,415.7737070629716
353,-10.132897424913303,-265.699200335273,-89.00783820483018,-272.018126041516,-343.08439160015405,19.320056376739334,280.5564865138947,387.06634512997294
354,-9.658717023332873,-264.60794421574565,-87.28264632189804,-251.47703512061403,-319.67672709649213,22.971517475372497,279.0479322551026,359.53551416883425
355,-9.011465615611632,-263.1257792595877,-85.38402591555057,-230.3209078590682,-296.02491181318294,27.556313652143636,277.13463260158255,333.5286906466018
356,-8.192951468423544,-261.31574097418235,-83.3253870885076,-208.863264708564,-272.0442206353464,33.14270158223816,274.87679394365387,309.37967202416735
357,-7.211649238996013,-259.2412981537506,-81.12331696824964,-187.4021550831948,-247.64687022929584,39.78210262507534,272.3361580538639,287.40314323345564
358,-6.082373671293433,-256.9646641286841,-78.79711823484499,-166.2153516944893,-222.74590039435014,47.506772653556844,269.5743105532991,267.88932483160295
359,-4.825755025855792,-254.54533330349926,-76.3682952066914,-145.55643231243437,-197.25879355652245,56.32780835599805,266.6511767265692,251.0988108889429
360,-3.467540471115013,-252.03887003910594,-73.86000690877017,-125.65177817197568,-171.1107620412398,66.2335801763753,263.6237377897505,237.25771638384353
361,-2.0377508010935856,-249.4959657314711,-71.2965062389105,-106.69848682733897,-144.23765123129493,77.18867094577425,260.5449901125022,226.55326314212036
362,-0.5697255830064183,-246.96176892753166,-68.7025829125515,-88.86316742634988,-116.58842469434408,89.1333852908912,257.46315892830773,219.12993846616314
363,0.9009078520248256,-244.47548286172275,-66.10302557617261,-72.28155877951029,-88.12721393461926,101.983878278556,254.4211672183591,215.086359829171
364,2.3373052489039665,-242.07021528504436,-63.52211549005233,-57.058885985043986,-58.834929743489276,115.63293278694347,251.45635021542353,214.47297071015402
365,3.702480226377761,-239.77305720775996,-60.98316066009917,-43.27085059835253,-28.710443538540613,129.95139427386502,248.60039675248717,217.29067551886465
366,4.960348895766733,-237.60536037540285,-58.50807566681742,-30.965133327595865,2.2286446992352387,144.79024950663074,245.87949081616475,223.4904951428813
367,6.076713034023978,-235.58317808157506,-56.11700928955968,-20.16327788662542,33.945630116503835,159.9833129725735,243.31462047808455,232.97428980108998
368,7.020154391739376,-233.71783045311776,-53.82801973651673,-10.862820670276921,66.38469393463146,175.35046172868752,240.92201715288726,245.59655508594304
369,7.762817369998959,-232.01655378371544,-51.656795882492716,-3.039533782335442,99.47123657123599,190.70133730857202,238.7136860462107,261.1672542036178
370,8.281062525355852,-230.48319387060673,-49.61642228305074,3.3503413107695286,133.11252837751678,205.83941326275664,236.69798871332222,279.45560884094635
371,8.555978836527544,-229.1189054447019,-47.717185829493275,8.367976022151908,167.19865468353612,220.5663102566102,234.88024064561571,300.19473638386097
372,8.573748003241471,-227.92282336484686,-45.96642262908144,12.090037476368657,201.60373342221848,234.6862283510344,233.26329038370923,323.0869944048169
373,8.325858916224067,-226.89267595851987,-44.36840476441192,14.607030402385085,236.18738509236854,248.01035877752153,231.84805142957285,347.809874996608
374,7.809174727651259,-226.0253164420353,-42.92426769323756,16.021927567454064,270.7964358172445,260.36113565593513,230.63396383220353,374.0222813620065
375,7.025858769430299,-225.31715445963235,-41.631980025412,16.449088464595285,305.2668344831891,271.5761919843489,229.6193684444787,401.3710163603838
376,5.983169022097314,-224.7644762076021,-40.48635821109489,16.013437605015085,339.42576426127084,281.5118938592947,228.80178326193035,429.49731651771145
377,4.69313388668663,-224.3636481518978,-39.47912920216907,14.849848873796054,373.0939271377803,290.0463419319376,228.17807773842148,458.04327424771446
378,3.172124512100029,-224.11120572354383,-38.5990441927062,13.102662656329112,406.0879773791759,297.0817489444731,227.74454720665997,486.6580046167414
379,1.4403407826087786,-224.00383424602305,-37.83204592312774,10.925248998719011,438.22307626133414,302.54612594271407,227.49689514298194,515.0034298977748
380,-0.47877069318279797,-224.03825448629212,-37.161490801255255,8.479523574395195,469.31553624817576,306.39423631267647,227.43013579367053,542.7595744844629
381,-2.559147508282581,-224.21102954532796,-36.56842552156589,5.935323853199213,499.1855186358829,308.60780479658376,227.53843359417976,569.629283614201
382,-4.772771891334014,-224.51831322533928,-36.03191624481197,3.469560283149812,527.6597450466933,309.19499659432125,227.8148988260387,595.3423009073962
383,-7.090341375860517,-224.95556238453472,-35.529426920226804,1.2650706319150875,554.5741804515849,308.1892080654491,228.25136095829174,619.6586610498174
384,-9.481931082944053,-225.51723704413058,-35.03724206526256,-0.49087646721305483,579.776643735796,305.6472342132736,228.8381420535366,642.3713741397529
385,-11.917630133125414,-226.19651219569096,-34.53092827888926,-1.6084618650670555,603.1293011189433,301.6468982801079,229.5638525390681,663.3083965945015
386,-14.368136249704149,-226.9850244475584,-33.9858279597071,-1.8975909749404056,624.5109978611284,296.2842450054274,230.41523063796734,682.3338996111752
387,-16.805294576050134,-227.87267488823997,-33.37757810680405,-1.1705520764458819,643.819384408972,289.6704111574835,231.37704487648168,699.3488596681517
388,-19.20256919240503,-228.8475068637682,-32.68264661927292,0.7549748904089449,660.9727941115625,281.9282945613795,232.43207637166114,714.2910060460047
389,-21.5354388117365,-229.89567382160644,-31.878878101093818,4.052610866428191,675.911830461542,273.1891456456929,233.56119411435483,727.1341674305708
390,-23.781711557836754,-231.00150807228428,-30.946040822943818,8.88373951907042,688.6006222521833,263.589203270988,234.74353230497016,737.8870631853883
391,-25.92175741572105,-232.1476964589907,-29.866366264940194,15.393819137763622,699.0277052087844,253.26648943904596,235.95677417098207,746.591585229437
392,-27.93866070269847,-233.31556378471234,-28.625072671565402,23.70863467534673,707.206489045094,242.3578660349764,237.1775418684567,753.3206145476661
393,-29.81829849671919,-234.485459690646,-27.210864395638737,33.930586094222356,713.175270251529,230.99644195719452,238.38188728627546,758.1754134218996
394,-31.54935411110525,-235.63723967729314,-25.61639949426986,46.13511212227803,716.9967540700891,219.3094018432546,239.545873955903,761.2826317673324
395,-33.123277189733095,-236.7508262345055,-23.83871887465572,60.36734853748762,718.7570548248576,207.41630899806032,240.6462358776337,762.7909646078765
396,-34.53420363137127,-237.80683178968735,-21.879630937961128,76.63911740942544,718.5641526709213,195.42791581231168,241.66109501910978,762.867498573761
397,-35.77884922789415,-238.78722166607912,-19.746045832526057,94.92633868198153,716.5457972525345,183.44549554490473,242.57071573773428,761.6937888808852
398,-36.8563906351734,-239.67599272109007,-17.450252981144192,115.16694864689232,712.8468646685833,171.56069037982198,243.358271671502,759.4617146398316
399,-37.768346187004234,-240.45984197963065,-15.010134546629425,137.25940198500732,707.6261929766209,159.85585261647495,244.01059893527028,756.369169125558
400,-38.51846716454204,-241.12879947526713,-12.449306044151298,161.06182587305977,701.0529422972097,148.40483907129104,244.51890887294803,752.6156520235157
401,-39.11264742423656,-241.67680061102695,-9.79717352195732,186.39188663425819,693.3025473791396,137.27420352971262,244.87943412333775,748.3978417626381
402,-39.55885579732764,-242.10217539537442,-7.088894923352728,213.02742172344497,684.5523523049651,126.52471857765954,245.0939831367504,743.9052370497338
403,-39.867091581435965,-242.40803454990146,-4.365231908918915,240.7078824968661,674.9770379308073,116.21314642181501,245.17038024054025,739.315966875492
404,-40.04935899085637,-242.60253549906668,-1.672277996700505,269.1366260866604,664.7439716366765,106.39416836095683,245.12277072667703,734.792876718036
405,-40.11965182788758,-242.69901455473854,0.9389503848475494,297.984087314487,654.008624909585,97.1223745143711,244.97177318031757,730.4800044843096
406,-40.09393517340254,-242.71597509659946,3.41307129092774,326.89185302402257,642.9102161267382,88.45420972568465,244.74446432916173,726.4995619612021
407,-39.990107100469494,-242.67692503423066,5.691051009443993,355.47765019703195,631.567742684704,80.44976906169578,244.47418495747712,722.9495352791357
408,-39.82792092417402,-242.6100601460073,7.711077285598542,383.3412442657229,620.0765675237255,73.17433789457183,244.2001588108401,719.9020102469929
409,-39.628847667357256,-242.54779299256035,9.409589321434373,410.0712238456217,608.5057195512735,66.69957776388436,243.96691992701284,717.402314694472
410,-39.41585916053485,-242.52613008253812,10.722455415719313,435.25262208858345,596.8960551665278,61.10427010587803,243.8235475258778,715.4690498166767
411,-39.2131142730142,-242.5839029039603,11.586282474751068,458.47529343330365,585.2594090019317,56.47454505158572,243.82271151782552,714.0950561656626
412,-39.045534159548566,-242.76186137572728,11.939835138553033,479.34292903945186,573.578836448257,52.90354107162509,244.0195358957217,713.2493282132407
413,-38.93825725593326,-243.10164129282944,11.725536145072924,497.48255641527686,561.8100191803488,50.49046244661672,244.4702918643627,712.8798556927261
414,-38.91597114616583,-243.6446205148184,10.89101387175819,512.5543305906062,549.8838686368516,49.33902459251647,245.23093762947317,712.9173319066463
415,-39.002126176819246,-244.43068205108136,9.390657880841243,524.2613874813018,537.710322224007,49.5553014560011,246.35552734728225,713.2796306399337
416,-39.21804436948131,-245.49690590201794,7.187139091371375,532.35949645783,525.183284051956,51.24501376642235,247.89451778994126,713.8769159570867
417,-39.5819461667345,-246.87621554097373,4.252848265200282,536.6662200016253,512.1866175918951,54.510321030340414,249.8930076693656,714.6172146096906
418,-40.10792619292491,-248.59600919321463,0.571204928869374,537.0692651999512,498.6010531114848,59.44620284683436,252.3889510308766,715.4122505926332
419,-40.80491695238748,-250.6768104815525,-3.8622114129603027,533.5336964326832,484.3118293071175,66.13653546172344,255.41139241478194,716.183317050003
420,-41.67568581947051,-253.1309774314948,-9.038754787792714,526.1076728682856,469.216847317732,74.64998656830099,258.9787773416646,716.8669436703814
421,-42.71591557758026,-255.96151300332048,-14.936075102840475,514.9263802508049,453.23507749299284,85.0358644498101,263.0973967855258,717.4201093222066
422,-43.9134220264276,-259.16102385510374,-21.5177884051536,500.2138457304809,436.31492635976,97.32006620486723,267.7600282314807,717.8247513228538
423,-45.247563614882075,-262.71087654739796,-28.73348690027792,482.28235867506794,418.44224497595917,111.50127399070632,272.94483821766187,718.0913356501819
424,-46.68889729056899,-266.58060156324734,-36.519111342122706,461.52927050522305,399.6476424540082,127.54754833025194,278.61461151987703,718.2612775710372
425,-48.19913127379688,-270.7275950277494,-44.797697390411685,438.4310129827807,380.0127623150798,145.39346408402048,284.7163699356381,718.4080401146924
426,-49.73141884291217,-275.0971654638892,-53.4804949820108,413.5342567019351,359.67518680078797,164.93792806490708,291.1814384835267,718.6367884298879
427,-51.231027313917686,-279.62296785262447,-62.46844608945863,387.4442287136752,338.83165690190873,186.04280747473976,297.92600828209265,719.0825402447999
428,-52.63640330011337,-284.22785926925667,-71.65399207614954,360.81031834033416,317.73933408849905,208.53248494518616,304.8522330649435,719.9068240884595
429,-53.88063920439809,-288.82519912127316,-80.92316796495349,334.3092203788053,296.7148828003596,232.19443819406618,311.84988003657253,721.2929339870777
430,-54.8933269313258,-293.32060224715235,-90.15792805467618,308.6259909364026,276.13121914445446,256.78091908035066,318.79853553236916,723.4399471578447
431,-55.60276357629114,-297.61413472852087,-99.23863615763018,284.43351786938683,256.4118490232925,282.01177691342156,325.57034193235046,726.5557440587312
432,-55.93845163359814,-301.6029204729095,-108.04664511600836,262.37102911379253,238.02280592419737,307.578433306696,332.03321522262826,730.8493318698195
433,-55.83381487716736,-305.1841022652407,-116.46688510114475,243.0223711508476,221.4622922925747,333.1489707254833,338.05446392228794,736.5228167423295
434,-55.22903226407198,-308.2580754635605,-124.39037920462766,226.89487833054835,207.24822566414312,358.37424559830635,343.50470179630594,743.7633906259217
435,-54.073877337709625,-310.73188762468186,-131.71660815429667,214.3997126729423,195.90398777960738,382.89488197771817,348.2619210762883,752.7356898228795
436,-52.33044061897151,-312.5226750238409,-138.35565322208387,205.8345738999611,187.94276748107305,406.3489463225654,352.21557185748696,763.5748423218176
437,-49.975608020827025,-313.5609892610649,-144.23005674658523,201.36965313021986,183.85097177692955,428.38005131295665,355.27047868928764,776.3804526252113
438,-47.003169895309085,-313.793856108727,-149.27635223361446,201.0376261817482,184.0712496321279,448.64559044479944,357.3504188336424,791.2116862388793
439,-43.42544338967658,-313.18740683867605,-153.44622977669297,204.72835252773285,188.98572561216838,466.8247703369402,358.4011900334904,808.0835269042384
440,-39.274305569632354,-311.72893155675246,-156.70731653609775,212.18876540600527,198.9000715338641,482.62609041526866,358.3930103473976,826.9642052428883
441,-34.601555835389235,-309.4282254806812,-159.04356499511064,223.02821235901342,214.02905024745817,495.7939263346323,357.3221188683218,847.7737510470573
442,-29.478552528505006,-306.3181316209591,-160.45525249084687,236.72924336692896,234.484143879566,506.11390849495024,355.21148237686197,870.3836077696092
443,-23.995099193964414,-302.4542239865809,-160.95860365486686,252.6635618689718,260.26382739817893,513.416850463967,352.1105561059248,894.617261362633
444,-18.257589428838614,-297.91362015737417,-160.58505352346137,270.112574239274,291.2469662085805,517.5810694840911,348.09409307652754,920.2518628864058
445,-12.386453676936652,-292.7929568164379,-159.38017436893378,288.2917204668152,327.1897045992632,518.5330440848828,343.2600422337806,947.0208486806104
446,-6.512984221298143,-287.2056032792174,-157.40229478528101,306.377566685041,367.72607465596076,516.2464611254577,337.72661765068557,974.6175696813399
447,-0.7756436989383572,-281.2782236651392,-154.7208458344442,323.53650762378993,412.3724009896094,510.73980449099673,331.62865688952235,1002.6999266256983
448,4.684013763553471,-275.14682648101245,-151.41447624477638,338.95387371655613,460.5354158985528,502.0727199576781,325.1134146544919,1030.8959735769133
449,9.72566193377777,-268.9524602340479,-147.56898629612758,351.8622612171471,511.5238432709271,490.34144899206086,318.33595739725183,1058.810407698955
450,14.214604045697142,-262.83672514877435,-143.27513717524073,361.5679912918841,564.5630672395497,475.6736561456359,311.45433536351436,1086.0318179833255
451,18.02609315058115,-256.9372744555915,-138.62639817353627,367.47473759003935,618.8123811409171,458.22298090508303,304.6247109475075,1112.140525495833
452,21.04940927712343,-251.38347468203057,-133.71669736610866,369.1035239864861,673.3842195491818,438.16362783322194,297.9966169133024,1136.7168151068672
453,23.19153962623859,-246.29238373227824,-128.63824207289906,366.10847131374607,727.3647146963467,415.68527227237166,291.7085063168079,1159.349334783886
454,24.38032311895134,-241.76518923091237,-123.47947347391593,358.2878538428935,779.8348897344596,390.98850733794984,285.88373938809247,1179.6434245925939
455,24.5669422471691,-237.88422867183525,-118.32321523112444,345.5902058497116,829.8918040994989,364.2809964028601,280.62713271684146,1197.2291348417416
456,23.72767224791341,-234.7106883931341,-113.2450687707716,328.1153909723896,876.6689978534401,335.77442877254896,276.022173923108,1211.768702073876
457,21.86482843367438,-232.28305126825651,-108.31209801492277,306.11070915111475,919.355638069741,305.6823094518514,272.12898118671814,1222.963272678468
458,19.00688514730683,-230.61633422518534,-103.58183415393604,279.9622657501716,957.2138461199987,274.2185508453066,268.9830618386459,1230.5586955613696
459,15.207772475385818,-229.70212724218678,-99.10161726605764,250.18196362523918,989.5937748767569,241.59677817219662,266.59489790661286,1234.3502453269646
460,10.54538797874312,-229.50941620966933,-94.90827728804675,217.3906005803762,1015.9461039242107,208.03021394053994,264.9503593042372,1234.186182772597
461,5.119388842655516,-229.9861437816236,-91.02814315102698,182.29766148908888,1035.831723411131,173.73197224310374,264.0119175513732,1229.9701066904215
462,-0.9516462888472538,-231.06143585319197,-87.47735670421896,145.67848592266776,1048.9284783694575,138.91557278859497,263.7206049833447,1221.6620967014314
463,-7.533577880259909,-232.64839755144612,-84.26245792493434,108.3495673551039,1055.0349414867667,103.79547869086008,263.9986373080005,1209.2786883246251
464,-14.480467471102974,-234.64736285907992,-81.38120025540938,71.14279673130343,1054.0712708635388,68.58747125222546,264.7525927498212,1192.89175649617
465,-21.63861230001209,-236.9494675631019,-78.82355000038885,34.87949800208894,1046.0772883357954,33.50869812125335,265.87702090973386,1172.626410662339
466,-28.85072086527269,-239.44040712894736,-76.57282154488432,0.3451118922817969,1031.2079820847816,-1.2227340565587137,267.25834052365605,1148.658022536673
467,-35.96009874233533,-242.00423956734107,-74.60690025771932,-31.73463731213668,1009.7266932731042,-35.38870820225344,268.77887819373444,1121.2085167952307
468,-42.81471840371388,-244.52709788020593,-72.89950666299225,-60.715311058391016,981.9962891217631,-68.77262435861853,270.32089965162675,1090.5420564454575
469,-49.27105430305165,-246.90068646692885,-71.4214582186011,-86.05236682161514,948.4686531393561,-101.16149518075254,271.7704906370822,1056.9602500539845
470,-55.19757517847176,-249.0254502708409,-70.14188850703195,-107.31622858681838,909.672836901615,-132.34855205845398,273.0211556186597,1020.7969995701076
471,-60.47779954798304,-250.81332377346652,-69.02938776154375,-124.20337335428168,866.2022178607085,-162.1362636122632,273.9770189492347,982.4130972504748
472,-65.01283752781501,-252.18998818401803,-68.05303359225248,-136.5431410211505,818.7009961766555,-190.33963455521078,274.5555338562531,942.1906697905366
473,-68.72336176420785,-253.09658793726302,-67.18328669851729,-144.3001338556782,767.8503431062519,-216.7896277099111,274.6896286172563,900.5275581221329
474,-71.55097147782563,-253.4908805027551,-66.392733134792,-147.57223126907624,714.3544869345486,-241.3365361888161,274.3292448229082,857.8317128242732
475,-73.45893528840412,-253.34781540647683,-65.65666194096566,-146.58439974189812,658.9269927644674,-263.85312679782527,273.4422483185651,814.5156777052621
476,-74.43231949658995,-252.65955845583807,-64.95347420008027,-141.6786211489006,602.2774625034626,-284.2373796976289,272.01471796687565,770.9912275458724
477,-74.47752783719164,-251.4349948109425,-64.26492649908154,-133.3003903800061,545.0988534727309,-302.4146631853442,270.05063970710665,727.6642197874427
478,-73.62129567017459,-249.69875926129203,-63.57621810944874,-121.98234054336713,488.05558988309195,-318.3392058636997,267.5710526544561,684.9297135956051
479,-71.90919578341163,-247.4898535506259,-62.87593674347485,-108.32563707352718,431.7726216632794,-331.9947606828599,264.6127096392261,643.1674026899692
480,-69.40372428083742,-244.85991883063468,-62.15588218092325,-92.97983725722807,376.8255694201212,-343.3943948621761,261.22632640017457,602.7374001408804
481,-66.18204333066107,-241.87123649538898,-61.41079015894789,-76.62193663508683,323.73208154860214,-352.5793842143707,257.4745016103114,563.9764039539083
482,-62.3334628845014,-238.5945329531611,-60.63798065225388,-59.935318034678104,272.9445182746933,-359.6172370109902,253.42939414953244,527.1942623953584
483,-57.95674605549527,-235.10666357198224,-59.8369551731845,-43.5892847330961,224.84406608439878,-364.59891818747656,249.1702448215965,492.670948961051
484,-53.15732294768692,-231.4882484652102,-59.00896708888849,-28.21980049928027,179.73637272107214,-367.635386514872,244.78082747953363,460.65394995211636
485,-48.044495587383246,-227.82132837672654,-58.15658719047227,-14.411981074486242,137.84877586374694,-368.8535928288694,240.34690972814383,431.3560635609594
486,-42.728712308079814,-224.1871029958973,-57.283283893195055,-2.6847893806955536,99.32917629215069,-368.3921143930901,235.9537963783555,404.9536083182995
487,-37.318983446487984,-220.66380686285575,-56.39303372218794,6.5217142847548,64.24657818439887,-366.3966174091309,231.68402002284768,381.58504037680507
488,-31.920501522856043,-217.3247699845109,-55.48997361375931,12.856320654817706,32.59328564730928,-363.0153456495573,227.61523303912563,361.349982764353
489,-26.632518499916,-214.2367017942995,-54.57810260036588,16.06367630560161,4.288707150850037,-358.3948279409855,223.81834467512672,344.30867443947216
490,-21.54652082324385,-211.45822854908567,-53.66103705434648,15.988302350645053,-20.815319620917172,-352.675981207484,220.35593627109833,330.4818513211087
491,-16.744730308275347,-209.03870600306982,-52.741820989154746,12.57567627076069,-42.92780857404793,-345.9907602170108,217.28097762840366,319.8510738474182
492,-12.298945961340845,-207.0173214643877,-51.822790876588975,5.87050753287071,-62.31067361535463,-338.4594720913465,214.63585835225658,312.3595147284445
493,-8.26972892287219,-205.4224921970821,-50.905492786166214,-3.9875928237299405,-79.26973806079451,-330.18883568004594,212.45173971943748,307.9132157371727
494,-4.705920470938447,-204.27156054706572,-49.99064814321322,-16.770791417072576,-94.14492430133892,-321.27082589676013,210.74822515867757,306.3828137300709
495,-1.6444720566884996,-203.57078009505136,-49.07816298500267,-32.171758789661844,-107.29986281535221,-311.78230377175373,209.533340687111,307.60572440388813
496,0.8894427824697664,-203.31558148360813,-48.16717439909481,-49.814108410564224,-119.11117340760318,-301.7853966528664,208.80381052412,311.388758958014
497,2.8820716422395467,-203.49110123325943,-47.256127022400406,-69.26419288973241,-129.9576794754521,-291.32856157693254,208.5456075144449,317.5111355272521
498,4.330522920653318,-204.07295188356693,-46.34287217018407,-90.04389105930692,-140.2098182694226,-280.4482396396382,208.73475296651569,325.72783560234654
499,5.242044944071459,-205.0282072967699,-45.424782365394314,-111.64401819853758,-150.21950648716012,-269.17099090832966,209.33833616680602,335.77324692265495
500,5.633186794210739,-206.31657298872923,-44.49887471176178,-133.53799890159613,-160.31071086557566,-257.515988194513,210.31572020224402,347.36502928661537
501,5.528880191922887,-207.89170787839194,-43.56193765219443,-155.19545732442643,-170.7709572787622,-245.49774350359573,211.61989777674265,360.20813872466306
502,4.961477218756022,-209.70266098629483,-42.610657083926995,-176.09540240424235,-181.84398875546276,-233.12894245361366,213.19895852545642,373.9989484607678
503,3.9697729456168647,-211.69538467133333,-41.641739386038765,-195.73871554993067,-193.72375260684535,-220.42326831230432,214.99762814550934,388.4294115480501
504,2.5980357588395493,-213.81428524728403,-40.65203043264382,-213.65968411095176,-206.54985981565437,-207.39810733581808,216.95883966245069,403.19121900602136
505,0.8950617779603156,-216.0037722881124,-39.63863092471539,-229.4363638892393,-220.40461689786426,-194.07703970083915,219.02529829346642,417.9799172909915
506,-1.0867364519107827,-218.209769436442,-38.59900925541948,-242.69959596331705,-235.31168305128747,-180.49203456511756,221.14100344012493,432.49895827910717
507,-3.2922025894431215,-220.381151919429,-37.53111354039431,-253.1405450449056,-251.23635535264205,-166.6852828352958,223.25269417303758,446.4636618127322
508,-5.6642711057727455,-222.47107918400158,-36.43348427677939,-260.5166666868149,-268.0874341090122,-152.71061636516828,225.3111880664686,459.60507369479836
509,-8.144768560178187,-224.43819493525072,-35.30536828993873,-264.65604767577867,-285.72057152600985,-138.6344770982722,227.27258723230744,471.6736999981886
510,-10.675188969161514,-226.24767107980662,-34.14683336959216,-265.4600973660289,-303.94296219228426,-124.53641387634511,229.09932959656166,482.44309196540956
511,-13.197451966546735,-227.87207635885315,-32.95888163937289,-262.9045977047058,-322.5191961194853,-110.5090980548544,230.76106763051783,491.71324594314774
512,-15.65465215815647,-229.29205470508015,-31.743558527432807,-257.0391468819354,-341.17806635158576,-96.65786140531692,232.2353608369205,499.3137716851321
513,-17.99180628646426,-230.4968025210511,-30.50405337928931,-247.98505666165346,-359.62010444507007,-83.09977076721754,233.5081722674676,505.10677189935313
514,-20.156601857907198,-231.48433800668786,-29.244787431531527,-235.93178712478093,-377.52560807889995,-69.9622634050363,234.57416308546917,508.9893675227761
515,-22.100147154208667,-232.26155920972946,-27.971485115847585,-221.13202507161043,-394.5629245831018,-57.381375020387225,235.43678254556522,510.89579768209256
516,-23.777718305453053,-232.8440906191546,-26.691225305637666,-203.8955335882993,-410.39676109541045,-45.49959895676192,236.10815369953005,510.79902102261855
517,-25.14949449697567,-233.2559210117114,-25.412469779672094,-184.58191978858483,-424.696305279907,-34.46342053760779,236.60875774708117,508.7117461130017
518,-26.181267678214986,-233.5288381421954,-24.145066567005472,-163.59248466569744,-437.1429589313678,-24.42057507449993,236.96692244888774,504.68682269081114
519,-26.845108776042622,-233.70166899893127,-22.90022587849491,-141.3613323971697,-447.43750914187564,-15.517082375672173,237.21812267979848,498.81693218404473
520,-27.11996888058034,-233.81933789737045,-21.69046608965962,-118.34592562904737,-455.3065869741197,-7.894115120798771,237.40410424185396,491.23352501123907
521,-26.992191587399073,-233.93175866523805,-20.52952690752005,-95.01727795233283,-460.5082910617922,-1.6847636375212451,237.5718455543371,482.10496383441387
522,-26.455911913331203,-234.09258142884016,-19.43224677746083,-71.84997512444734,-462.83688288898594,2.989234539754036,237.77237571847795,471.63384678484016
523,-25.51331806494909,-234.35781875655235,-18.41440216821005,-49.312213069183606,-462.12649160713266,6.0207257021968745,238.05947151142027,460.0535034544397
524,-24.17475482420946,-234.7843797677733,-17.492507894421056,-27.85603413327965,-458.25379905173725,7.320250731034237,238.48825976915694,447.62367973919703
525,-22.45865129986297,-235.42854389017614,-16.68358010918668,-7.907934648100627,-451.139709437054,6.818949159609918,239.1137549907934,434.6254552058395
526,-20.391261004462333,-236.34440799030287,-16.004866702926883,10.139992154486736,-440.7500412030305,4.471166326824462,239.98936451379623,421.3554668781559
527,-18.006208313614025,-237.58234151240688,-15.473553046880435,25.938222285358016,-427.0953079146313,0.25667298317770776,241.16539505821677,408.11954333300963
528,-15.343842087921777,-239.18748404805976,-15.106453802727117,39.18712789950787,-410.22967830394623,-5.817589047683399,242.68759472473403,395.22587970018736
529,-12.450404450015958,-241.1983185389852,-14.919703493183219,49.64332273463091,-390.2492209627269,-13.716311997056929,244.59576370472988,382.9779054273625
530,-9.377030287074971,-243.6453513224827,-14.928459371883303,57.12488943603835,-367.2895468580708,-23.37524018690556,246.92246520867556,371.66701175696323
531,-6.1786008014154765,-246.5499277965938,-15.146629550640126,61.51535870527887,-341.52296404882514,-34.70124389684079,249.69186573718835,361.5653152339444
532,-2.9124820305631802,-249.92320996952787,-15.58663715447401,62.76632011434894,-313.15525555492906,-47.573069374068766,252.91873113654734,352.9186383179819
533,0.36281382775857357,-253.76533983882635,-16.259227606320117,60.89856028184096,-282.4221848620515,-61.842760509683146,256.60760215125833,345.93988937976053
534,3.58900086999938,-258.0648105287252,-17.17332155965303,56.00164813121036,-249.58582494107236,-77.33772213640427,260.75217052061623,340.80302261585746
535,6.709378612574807,-262.79806531742565,-18.3359113311536,48.2319201866966,-214.93079628685044,-93.86337011827851,265.33487403507337,337.6377537243682
536,9.67012928024335,-267.9293428383981,-19.751994691521812,37.808860691334026,-178.76048754414222,-111.20629108145087,270.326726219931,336.52519898638315
537,12.42150597657425,-273.41078442626196,-21.424537078902087,25.009919466539394,-141.39331906101492,-129.13781643188915,275.68739320729657,337.494592593725
538,14.918868534641302,-279.18281639193265,-23.354452048590066,10.163861409922124,-103.15909548259337,-147.41790267054398,281.3655266807253,340.5212182058455
539,17.123530698980094,-285.17481573584763,-25.540590158775192,-6.357208523195583,-64.39547857483227,-165.7992039864413,287.2993574740305,345.5256646357006
540,19.00339148404907,-291.30606241888125,-27.979728253965234,-24.146955629073936,-25.444596295272817,-184.03122407905224,293.41754952770304,352.37448213217937
541,20.53333440891331,-297.4869748394326,-30.666553744806855,-42.77483371375689,13.350210602094052,-201.86444171231813,299.64030845455915,360.8822762709708
542,21.69539004035386,-303.6206176539353,-33.59364152225737,-61.79675473318072,51.64751656671232,-219.05431741025106,305.8807328717921,370.81523348834145
543,22.478669139772165,-309.6044626683576,-36.75142426010002,-80.7661335589441,89.11083733200812,-235.36510517811726,312.0463899116901,381.8960287228333
544,22.87908509431344,-315.332374530104,-40.12815977851541,-99.24502141056747,125.41158629930943,-250.57341114261686,318.0410890799721,393.8100240607149
545,22.898894720270476,-320.69678383873105,-43.70990156717421,-116.81504030874055,160.23199930481272,-264.4714585722159,323.766821209455,406.2126295078551
546,22.546095414494072,-325.5910016624941,-47.48048028426612,-133.08783794798094,193.26806832347356,-276.8700342700333,329.1258221068539,418.73766396977015
547,21.833723307272322,-329.91162190568633,-51.42150500577407,-147.7147966034008,224.23252274024992,-287.6011039122712,334.0227141073156,431.006526489332
548,20.779100740781075,-333.56095202515087,-55.51239322438642,-160.39574987325943,252.85788913042043,-296.520093220512,338.3666735733896,442.6379645160628
549,19.403081333604657,-336.449408582992,-59.73043812369372,-170.88648598331199,278.89964588784636,-303.5078376644641,342.0735687379031,453.2582066028069
550,17.729336737935615,-338.49781227529303,-64.05092055024738,-179.00484482488775,302.13946710134786,-308.47220508426665,345.0680104836311,462.5112100269627
551,15.783721219699084,-339.63951762374427,-68.44727148688783,-184.63524686239393,322.3885214160328,-311.3493923856412,347.285259003245,470.0687580412643
552,13.593739233027053,-339.8223156686574,-72.89128882967758,-187.73152517721368,339.4907581314793,-312.10488897086316,348.6729320856396,475.6401265368416
553,11.1881283489721,-339.01005374925563,-77.35341005111712,-188.3179679305005,353.32607779194694,-310.7340866693374,349.1924660653079,478.98102768560835
554,8.596556478795723,-337.18392443811194,-81.80304004898704,-186.48851912048556,363.8132524776468,-307.2625008162466,348.8202878834794,479.9015325843177
555,5.8494196884068135,-334.34338529067134,-86.20893117140221,-182.40413245617194,370.91243691237725,-301.74555290912696,347.54866557083517,478.2726810766895
556,2.9777165253904396,-330.5066815764523,-90.53960999226466,-176.28832687474187,374.6270999897233,-294.267855259883,345.38621400161236,474.03150908183767
557,0.012968011429056802,-325.71095489476994,-94.76384283519306,-168.42105059554777,375.00521054238584,-284.9419351160058,342.35804228098704,467.18426383341
558,-3.012849894664641,-320.01193097197654,-98.85112938820056,-159.1310191436066,372.13953199602594,-273.90634187961115,338.50553808516383,457.8076344296697
559,-6.067392463025013,-313.48318964473066,-102.77221121496238,-148.7867460638431,366.166916388758,-261.32309733844295,333.88579242259107,446.0478957486568
560,-9.118076373086257,-306.2150289814109,-106.49957985494929,-137.78652851924207,357.2665354912434,-247.37447517864885,328.5706756445782,432.117943624097
561,-12.132271360989005,-298.3129438018821,-110.00796785703989,-126.54768098398546,345.65704038428953,-232.25913117016498,322.64558228832925,416.2922831101211
562,-15.077562112099827,-289.89574671531267,-113.27480571956234,-115.49532805905237,331.59269515834245,-216.18764660212605,316.20786869257006,398.9001141281263
563,-17.922080905809207,-281.093367309913,-116.28062830684367,-105.0510724475998,315.35858009002953,-199.37759082828399,309.36501338079773,380.31673407770876
564,-20.634904382749337,-272.04437212574027,-119.00941576790203,-95.62184714334559,297.26500074866203,-182.04824947950004,302.232535814062,360.9535399432051
565,-23.18650220806941,-262.893254067152,-121.44885619147777,-87.58924293760481,277.641269823017,-164.4151984148074,294.93171390055636,341.24695921363264
566,-25.549221531662127,-253.7875445677457,-123.59052004310144,-81.29957489254633,256.82904759807883,-146.68492609635985,287.5871442961978,321.64666760033265
567,-27.697789036331,-244.87480517308052,-125.42993956901849,-77.05491646586871,235.1754358977773,-129.04971657992888,280.32419210815306,302.60346221656164
568,-29.609811890290793,-236.29955782273808,-126.9665894829139,-75.10528987453915,213.0260209348651,-111.68300119467486,273.26637860695314,284.55715368321796
569,-31.26625965395028,-228.20021573131964,-128.20376818328882,-75.64215848611505,190.7180554422185,-94.7353700621418,266.53275760801165,267.9248229737639
570,-32.6519104375315,-220.70607984609526,-129.14838157509874,-78.79332402034828,168.57396206320135,-78.33140656229637,260.2353337595753,253.08976234898427
571,-33.755745731480246,-213.93446925353135,-129.81063456024353,-84.61929099801307,146.89532963552952,-62.56747099954396,254.4765790561216,240.3913873296933
572,-34.57127909545669,-207.98805692333175,-130.20363860101503,-93.11112645626284,125.95756182080729,-47.51051680206608,249.34710697302597,230.11637017934075
573,-35.096804516890714,-202.9524839330516,-130.342947346728,-104.18981735935039,106.00532253079452,-33.19797651386024,244.92356593483055,222.49120620985158
574,-35.33555123892966,-198.89432498764006,-130.24603575357997,-117.70711267112624,87.24890314966395,-19.63870834520644,241.26681459136452,217.6763839846897
575,-35.295733661953186,-195.8594748751166,-129.93174092019956,-133.4478306128621,69.86161094232415,-6.814949460361216,238.4204397946647,215.76229109511613
576,-34.99048766718843,-193.87201880650267,-129.4196846358909,-151.13361075850378,53.97824519507533,5.314818608321739,236.4096735552517,216.76695017567042
577,-34.437688196607546,-192.93363896838318,-128.72969824874616,-170.428090286115,39.69468784257478,16.8122225250658,235.24075720149327,220.63564537634858
578,-33.659646857544836,-193.02359507452417,-127.88126992001327,-190.94347837432935,27.068590697983606,27.75472696402874,234.9007894468323,227.2424659331387
579,-32.68269247528516,-194.09929866207952,-126.89303274453516,-212.2484875515772,16.12109560132721,38.230923258459484,235.35808042155017,236.39375764078892
580,-31.536641684341415,-196.09748016020424,-125.78230977396267,-233.87755267064713,6.8394811645918585,48.33557373439609,236.56301659633974,247.83343142080298
581,-30.254170539663235,-198.93592555380718,-124.56472898834072,-255.34122651509998,-0.8194057180621241,58.16461653620675,238.44942285777077,261.2500282570952
582,-28.87010141384777,-202.51573720528202,-123.25391815498104,-276.1375880895384,-6.925100849011758,67.8103359876199,240.93638897904262,276.2853814062576
583,-27.42062194751433,-206.72405254376756,-121.86128669620494,-295.76444003110817,-11.569037124926927,77.35689563948371,243.9305096210844,292.54465315582223
584,-25.9424546176718,-211.43713612949753,-120.39589929760774,-313.7320112322245,-14.859805015800728,86.87641500746045,247.3284708439084,309.6074604468178
585,-24.47199681773966,-216.52374588042437,-118.86444383882244,-329.5758257933727,-16.918332796859403,96.42574688688636,251.0199025363047,327.03974818786634
586,-23.044452429056847,-221.8486634419055,-117.27129399027261,-342.8693554949858,-17.873142802502386,106.04408076633094,254.89040548635583,344.40602686186884
587,-21.692976833236106,-227.2762721187941,-115.61866422059289,-353.2360450464454,-17.855817068268312,115.75146038726886,258.8246543237589,361.2815662016915
588,-20.447858147619414,-232.67406394037238,-113.90685187842696,-360.360291368589,-16.996780367182815,125.54826147750882,262.7094737920857,377.2641319002661
589,-19.335757997997398,-237.91596073287394,-112.13455752645646,-363.99697240610334,-15.421483600050758,135.41563109410984,266.43678633772555,391.9848685622214
590,-18.379035122769004,-242.8853426527067,-110.29927109345202,-363.9791575540762,-13.24704790798527,145.3168451614722,269.90633419979036,405.11796851785715
591,-17.59517428246291,-247.4776912282305,-108.39770805413542,-360.22368872556393,-10.579411002778153,155.19949815951028,273.02808909468183,416.38882002924737
592,-16.996341178907798,-251.60277192145844,-106.42627709781897,-352.7343952288671,-7.511002313759318,164.99840090438693,275.7242768421847,425.58039623657976
593,-16.589081339943974,-255.18630239868125,-104.38155884475249,-341.6027934774184,-4.1189619330246305,174.6390310491425,277.9309619524178,432.5377242071959
594,-16.37417719908937,-258.1710754786206,-102.26077424532896,-327.0062202350118,-0.4639086652010217,184.0413578610519,279.5991568580979,437.1703577253652
595,-16.346672871599168,-260.51752838754453,-100.06222145045925,-309.2034506955363,3.4107467176382094,193.12384892804798,280.6954405677715,439.4528632427547
596,-16.496070435770005,-262.2037710674313,-97.7856612890434,-288.527953941637,7.4789567318542005,201.80746210221793,281.20209073506544,439.4234098901726
597,-16.806695077814172,-263.22510492304997,-95.43263408588442,-265.37903101403396,11.731685425034257,210.01943124823842,281.11675062376474,437.180625353735
598,-17.258219647882754,-263.5930790427735,-93.00669427727031,-240.21115800736942,16.17608529738451,217.6966689304469,280.4516676652838,432.8789342790743
599,-17.826332571154957,-263.3341432856967,-90.51355387059162,-213.52191330691554,20.834249255251112,224.78863219662927,279.23255287376725,426.7226315547847
600,-18.48352730458058,-262.48796654502945,-87.96113094926932,-185.8389026561266,25.74159306213914,231.2595276152089,277.4971200521123,418.9589595561309
601,-19.1999870756455,-261.1054941353537,-85.35950475499405,-157.7061098275488,30.9449307281338,237.08976685595417,275.29337048969586,409.87045943201775
602,-19.944535529963485,-259.24682116624183,-82.72078385318056,-129.67009754411853,36.50030998118265,242.2766225235211,272.6776930376927,399.7668563737685
603,-20.685621968484092,-256.97895965627436,-80.05889796833665,-102.26646620082097,42.47067752411362,246.83407383022032,269.71285151107617,388.97672168295344
604,-21.392308975178395,-254.37357633857536,-77.38932687903014,-76.00694941620479,48.923444436978826,250.79187109369997,266.46593149211844,377.8391333555478
605,-22.03523043719473,-251.50477525682547,-74.72878110639202,-51.367487534177336,55.92802110744665,254.19388496025212,263.006316421255,366.6955337798337
606,-22.58748923563851,-248.4469937077748,-72.09484910104118,-28.777574712150667,63.55338868936226,257.0958387901389,259.40375779881157,355.8819592708149
607,-23.02546617999714,-245.2730717238615,-69.50562460119059,-8.611123870712701,71.86577035810951,259.56254915971897,255.7265963970638,345.7217923336452
608,-23.32951498509356,-242.05254471960336,-66.97932628912672,8.820961919103704,80.92646040677407,261.6648186512198,252.04018133442668,336.5191642474202
609,-23.48452212075887,-238.85019700951852,-64.53392017554069,23.27638167829906,90.78986233246536,263.47613621594303,248.40552261256263,328.55311310096033
610,-23.48031507956084,-235.72490132016742,-62.18675339886567,34.585122589487575,101.50177851629597,265.06934323052957,244.8782009263729,322.0725809916566
611,-23.311907926328377,-232.72875664072265,-59.954206286148874,42.651229977264535,113.0979842101324,266.51341834241487,241.50754665171667,317.29231370748323
612,-22.97957879143952,-229.90652419757131,-57.85136759182308,47.452708960170504,125.6031078870254,267.8705221640647,238.3360882637784,314.38970653055645
613,-22.488779978398338,-227.29534943867938,-55.89173597508056,49.039659031694114,139.02982941545756,269.1934248881603,235.39925944902404,313.5026202722097
614,-21.849887190139196,-224.92474717909965,-54.08694918540605,47.53079037288033,153.37839793592974,270.52341712451516,232.7253443056836,314.7281717117104
615,-21.07779967082981,-222.8168180181759,-52.44654121103638,43.10851082136106,168.63646355625153,271.8887779418355,230.33563174665457,318.1224819233324
616,-20.191407596766815,-220.986657216184,-50.97772687468258,36.01280397211104,184.77921140473478,273.3038455237672,228.24474390996505,323.70134455247455
617,-19.21294680672063,-219.442912647237,-49.68521306835305,26.534141025706056,201.76978302968476,274.7687063181571,226.46109927973632,331.44175433003835
618,-18.16726397965999,-218.18844629882182,-48.57103597496281,15.00568121271765,219.55996806925424,276.2694893655411,224.98746940862472,341.28421477410905
619,-17.081017587423272,-217.22105404061986,-47.634424163119405,1.7950177332392807,238.0911478716,277.7792249717694,223.82158858475543,353.13572432685226
620,-15.981841202946374,-216.53420090902387,-46.87168828460734,-12.704281692140672,257.2954717202099,279.25920238547627,222.9567783661004,366.87332363026763
621,-14.89749591469042,-216.11773368134217,-46.27613915678409,-28.081107839524783,277.0972449728352,280.6607408515913,222.38255334453163,382.3480746877462
622,-13.85503778465513,-215.95853864654902,-45.83803718024241,-43.915010366695505,297.4145061672964,281.9272732396829,222.08518042241724,399.38933617849415
623,-12.880024795694519,-216.04111974603757,-45.544577221605216,-59.78399157523408,318.16076639573805,282.99663194505325,222.0481708468415,417.8091983561639
624,-11.99578588799142,-216.34808017554732,-45.37991415157605,-75.27175619567093,339.24687866312775,283.80342317128674,222.25269178953167,437.4069453984391
625,-11.222772651377843,-216.86049866456736,-45.32523505452923,-89.97431871602598,360.5829976402127,284.28137806230455,222.67789195011056,457.97342219205774
626,-10.578012019201202,-217.55819956368777,-45.35888463479073,-103.50590883380276,382.0805817214911,284.3655773539051,223.30114308100448,479.2951956871338
627,-10.074675855440065,-218.4199231240747,-45.4565504623648,-115.50415293361684,403.65438036281824,283.99445989174654,224.09820603504357,501.1584173505746
628,-9.721780643430678,-219.42340855490016,-45.591514384197275,-125.63454333226048,425.22434119179775,283.1115437264967,225.04333553493393,523.3523119346411
629,-9.524027572453756,-220.54540744658237,-45.73497564458709,-133.59423591444872,446.7173644178403,281.6668103255598,226.10934221400777,545.6722377785882
630,-9.48179005117648,-221.761648996971,-45.856449895345534,-139.11523950447486,468.0688278611921,279.61772618150826,227.26763361288135,567.9222843590453
631,-9.591251837953742,-223.04678118632594,-45.92424616823344,-141.9670759372644,489.22380569179626,276.92990001223944,228.48825772465213,589.9173931422199
632,-9.844694493049344,-224.37431355321218,-45.90602102757437,-141.95899772417252,510.13790852205574,273.57739611542803,229.73997330179398,611.485007360049
633,-10.230927902651727,-225.71658749330786,-45.76940579829837,-138.94185038488584,530.7776819568682,269.5427437836714,230.99037048363334,632.4662745165328
634,-10.73585246884651,-227.0447990147403,-45.48269937132151,-132.8096593914017,551.1205145969262,264.8166979259718,232.20606341824998,652.716841659318
635,-11.343136445079935,-228.32909660108842,-45.01561588007423,-123.50100810014926,571.1540239262131,259.3978164934702,233.35297344284635,672.1072971843925
636,-12.034987089539067,-229.53877332350007,-44.340073554513374,-111.00025419155111,590.8749082494644,253.29192562824824,234.396717122084,690.5233235509995
637,-12.792990103279212,-230.64256786186272,-43.43100826431686,-95.33860939730042,610.2872734236969,246.51154366052995,235.3031082722835,707.8656320991514
638,-13.598988410396517,-231.60908398437374,-42.26719275986659,-76.5950822331579,629.4004631682824,239.07533062215586,236.03877738119948,724.0497537031521
639,-14.435968780246109,-232.4073325475384,-40.83204063417041,-54.89725763887484,648.2264401482048,231.00762163452782,236.57190586807715,739.0057571053379
640,-15.288923143320348,-233.00739430912478,-39.11437275180198,-30.421862317319842,666.7767810620489,222.3380912919065,236.8730665624006,752.6779605860652
641,-16.145650877776372,-233.3811958260224,-37.10912335580958,-3.3950414513498686,685.0593622776867,213.10158282184668,236.9161556749175,765.0246925458051
642,-16.99746905678219,-233.50338452122503,-34.817963196813075,25.90774754174831,703.0748232107142,203.3381210884691,236.67939549300806,776.0181433402358
643,-17.839799810569215,-233.35228280647192,-32.2498177831955,57.16233453920721,720.812903022995,193.0931131563821,236.1463812363273,785.6443353575495
644,-18.672607617259825,-232.91089516500818,-29.421260234418952,89.99705090662717,738.2487528485967,182.4177249610377,235.30714020911603,793.9032220358492
645,-19.500664331488217,-232.1679366286324,-26.356760220611537,123.99468500337758,755.339331093267,171.36940841052922,234.15916687017324,800.8089104028575
646,-20.333625688051498,-231.11884641533894,-23.08877302496204,158.6953043472739,772.0199936974976,160.0125405917705,232.708393942551,806.389986696109
647,-21.185909405785264,-229.76674680029203,-19.65765573123841,193.60006144257358,788.2013947298258,148.41912608540173,230.97005728993912,810.6899113960892
648,-22.076371538127056,-228.12330464254953,-16.11140071918305,228.17608475158355,803.7668153128398,136.66950501119715,228.96941098963487,813.767439160665
649,-23.027784224201906,-226.20945152343225,-12.505179950508177,261.86253364395253,818.5700406115105,124.85300366875825,226.7422489353354,815.6970111700814
650,-24.066124428190953,-224.05591848824213,-8.900697096508097,294.07786646541894,832.433905154111,113.06846186899683,224.33519072992823,816.569062525897
651,-25.219689570976378,-221.7035432647023,-5.365348631636325,324.2283342682507,845.1496254768527,101.4245714181631,221.8056929415422,816.4901854142685
652,-26.518062034783632,-219.20331172862896,-1.9711996261674913,351.7176696601046,856.4770349676588,90.03996348348596,219.22175214996034,815.583089090472
653,-27.99095009764222,-216.61610132164057,1.2062150971199916,375.95789155279795,866.1458276075389,79.04298826495415,216.6612735638853,813.9862994643244
654,-29.666937654962872,-214.0121020409344,4.089248753359916,396.38109375174133,873.8579039166167,68.5711380655656,214.21108821993346,811.8535433502313
655,-31.572178992903957,-211.46990029702354,6.599638622178599,412.4520301694253,879.2908929329316,58.770074131130684,211.9656126357705,809.3527647753509
656,-33.729077884975126,-209.07522199553935,8.660114601450156,423.6812541493549,882.1028980632982,49.792228263100576,210.02515690776016,806.6647230615372
657,-36.15499231534388,-206.91934337134393,10.196089712645232,429.6385165503439,881.9384823713884,41.794962146018044,208.49390033259266,803.9811253632429
658,-38.861006993265946,-205.09719129185893,11.137397500974883,429.9660799498146,878.435871246401,34.9382807509668,207.47756755741884,801.5022513866912
659,-41.85081531022863,-203.70516855190903,11.420037439883371,424.3915678248226,871.2353088912189,29.38211126268038,207.08085257944418,799.4340370112322
660,-45.119750495741904,-202.83875300772303,10.987886358281544,412.7399406742089,859.9884613293253,25.283175651332684,207.40465150675914,797.9845981790756
661,-48.65400270641249,-202.5899309756767,9.794331567801219,394.94417764167196,844.3687141437364,22.791502777885377,208.54317659893456,797.3601976125792
662,-52.43005492031997,-203.0445344560091,7.803779859687184,371.0542430580876,824.082169081239,22.046643933564834,210.58103303261913,797.7606844035058
663,-56.41436586581995,-204.27955812420768,4.992995907365448,341.2439322273963,798.8791008447951,23.173673036297828,213.59034573305536,799.3744689275469
664,-60.563322764033956,-206.3605352926338,1.3522237298977953,305.8152188819668,768.565594604141,26.279068654868613,217.62802604840465,802.3731307076021
665,-64.82348053482497,-209.33905202545455,-3.1139543049497194,265.19976693863526,733.0150468331221,31.4465892802422,222.7332668310906,806.9057922506087
666,-69.13209753461359,-213.25047567254302,-8.38606466077082,219.95732049714056,692.1791782764473,38.733265682716905,228.92535000450653,813.0934250873553
667,-73.4179710526551,-218.11196893524897,-14.429536420122394,170.770747721742,646.0981800678964,48.16564462223685,236.20184360218457,821.0232833344635
668,-77.6025688719135,-223.9208538526231,-21.1948767203529,118.43758592876864,594.909594902824,59.736426310193536,244.53725624954328,830.7436838271068
669,-81.60144637641858,-230.653382468088,-28.61825488594805,63.85801680197702,538.8555278094416,73.40164335233645,253.8822067930931,842.2593695666078
670,-85.32593199979337,-238.26396306721398,-36.622511259389974,8.019292582074113,478.28778856343735,89.07853069255285,264.1631558998391,855.5277045625928
671,-88.68505709857459,-246.6848833115149,-45.11859223390719,-48.02326273186817,413.6705928145629,106.64423338177836,275.28273540584604,870.4559528842304
672,-91.58769933615979,-255.82656457361898,-54.00739481216105,-103.16843746678215,345.5804935053372,125.93549082442232,287.12070009961957,886.8998923927066
673,-93.94490113525772,-265.5783750498215,-63.18198247708602,-156.2941330636035,274.7032791982425,146.74942159192076,299.53551506368945,904.6640029788862
674,-95.67231645545553,-275.8100219947695,-72.53011054575627,-206.28467184514247,201.82766116341594,168.8455110270651,312.3665786827102,923.5034473023343
675,-96.69272976966862,-286.3735345257411,-81.93697577988415,-252.059752712772,127.83567418857373,191.94887357894171,325.4370656682964,943.1280235044763
676,-96.93858048880381,-297.105836546879,-91.28808468138554,-292.60424616173157,53.68983239736943,215.75482173675618,338.5573548290178,963.2082059735441
677,-96.3544147661395,-307.8318931468244,-100.47212023741882,-326.9978813871877,-19.582795672637847,239.934722361186,351.5289824336173,983.3832932790557
678,-94.89917623608481,-318.36839242661193,-109.38367985728243,-354.4437632785841,-90.90930631609226,264.14305904771555,364.1490347070198,1003.2715472394084
679,-92.54824018546442,-328.5278981800328,-117.92575923369648,-374.29457862292196,-159.1920734332637,288.02554799603803,376.214864591037,1022.4820389975458
680,-89.29509419364511,-338.1233786431244,-126.01186893846439,-386.07532174456196,-223.33175267061088,311.22807945157984,387.5289920430996,1040.6277359863666
681,-85.15257380870337,-346.9729854594021,-133.5676933974331,-389.50140355037644,-282.25158916266184,333.40618389942443,397.90402793378945,1057.3391985640037
682,-80.1535743383921,-354.9049286503913,-140.53223486479285,-384.49111795062925,-334.92237192142017,354.23465927052956,407.16745210113396,1072.278140913019
683,-74.35117767942879,-361.7622714437071,-146.8584250145427,-371.1716360109355,-380.3873251146559,373.41694934225677,415.1660770880649,1085.1500738750085
684,-67.81815368881362,-367.40745665670346,-152.51322781988299,-349.87798176083885,-417.78619065733176,390.69383980175564,421.7700390570688,1095.715297907976
685,-60.645817102550076,-371.7263764358848,-157.47729212141496,-321.1447995217161,-446.37773952458383,405.8510406570834,426.8761741118794,1103.7976423465489
686,-52.942243696910886,-374.6318103927167,-161.74423470595974,-285.6911186865109,-465.5599541745319,418.7252531639033,430.41066028111453,1109.2905247378515
687,-44.82987485150724,-376.06608253543646,-165.31964265097835,-244.39871476373492,-474.8871560843154,429.2083759364072,432.3308322615055,1112.1600953036595
688,-36.442568627732484,-376.002822463549,-168.21987906521693,-198.28501273909205,-474.08341584839036,437.24958763261225,432.6261073717939,1112.4454065948732
689,-27.922186290454185,-374.44775813890755,-170.47076338469034,-148.47174871140118,-463.0516821326138,442.85515094757864,431.31799600161656,1110.255692758134
690,-19.414832201846917,-371.4385131254266,-172.10618043950487,-96.15078015085463,-441.87820014773956,446.08591013373496,428.45920610561257,1105.764957613386
691,-11.066888048533889,-367.0434271348637,-173.1666553111746,-42.548507326754546,-410.8319568896806,447.0525924351018,424.13188622803415,1099.204165697394
692,-3.0209965350310806,-361.3594613552711,-173.69791670394147,11.109658652239789,-370.35908319801223,445.9091587164709,418.44508241149225,1090.8514162928327
693,4.587845802537537,-354.50928612885735,-173.7494625521732,63.63346003270727,-321.0723527035948,442.84456554687716,411.5315093277883,1081.0205632279492
694,11.6359313691566,-346.6376761567247,-173.37313897700596,113.89944822042776,-263.7361317047889,438.0733892868321,403.54375461357563,1070.0488203368109
695,18.014076657570566,-337.90735707786536,-172.62174705607038,160.87920960907704,-199.2473344870359,431.82581710217073,394.6500482506782,1058.283951434263
696,23.630325455615132,-328.4944574911648,-171.54769938986308,203.66346753009137,-128.6131073385878,424.33752894803814,385.02973666355706,1046.071665543544
697,28.412020763633556,-318.583723171508,-170.20175732168767,241.48157797204388,-52.92608777427021,415.83997905610624,374.8686044020248,1033.7438066470997
698,32.307176137623166,-308.3636464988342,-168.63188666767175,273.7161196179246,26.66184314031341,406.5515378804392,364.35418484509523,1021.6078391597566
699,35.28511098673092,-298.02165537693185,-166.88227228552492,299.91243458097597,108.96637862614088,396.66988119447205,353.67119542877896,1009.937999713598
700,37.33635005321645,-287.7394938898078,-164.99252856470014,319.7831149945146,192.79726878972852,386.36592003536987,342.997223132149,998.968338828202
701,38.47182241394414,-277.6889133636688,-162.99713442938233,333.20756163606154,276.9836391739678,375.7794623271468,332.49877334706895,988.8877392219841
702,38.72142701907003,-268.0277786015845,-160.92510924924656,340.22686670992715,360.3974298165706,365.0166923516006,322.3277805560084,979.836887545398
703,38.13205761115275,-258.896680313599,-158.7999318499963,341.034390405203,441.974377753895,354.1494543918004,312.61866273818345,971.9070970577043
704,36.765198545400274,-250.41613099519694,-156.63969003427988,335.96250549889385,520.7321162428236,343.21623710839566,303.48598319443556,965.1408260682721
705,34.694214268663096,-242.68440698188562,-154.45743409203536,325.46607460045834,595.7851141567601,332.2246795334337,295.0227636486976,959.5337047578355
706,32.00145920902699,-235.77608304343534,-152.26169634468948,310.10330122616017,666.3563192935336,321.15536067435573,287.2994713261696,955.0378657480269
707,28.775332062327735,-229.7412867439479,-150.0571313032398,290.51465780285685,731.7854928151814,309.96659393728487,280.36368077265956,951.5663659822686
708,25.10738986979949,-224.6056776995447,-147.84522827416762,267.4006366730478,791.5343246910776,298.59992484866797,274.24038938064075,948.9984835431158
709,21.089624250303867,-220.37113267262393,-145.6250500600764,241.4990883280719,845.1885004015593,286.98602461015963,268.9329451027088,947.1856687652253
710,16.81198614366203,-217.01709284800341,-143.39395686199967,213.5628997990891,892.4569479660453,275.05068085500676,264.4245267753731,945.9579230905537
711,12.360227628866614,-214.50250656937737,-141.1482822934892,184.33872356591354,933.1685338741338,262.72060835349123,260.6801025780019,945.1303732886029
712,7.814110754647911,-212.76828083432287,-138.8839372933778,154.5473946233138,967.2665001140144,249.92883408722827,257.64878069620426,944.5098066109027
713,3.2460147402648567,-211.74013898882308,-136.5969266582637,124.86657420378265,994.8009461866582,236.61945068189766,255.26645825516582,943.9009381723273
714,-1.280044854940784,-211.33177104442046,-134.28377112139515,95.91603907864881,1015.9196637852696,222.7515769515881,253.45867001510004,943.1121982634357
715,-5.708987837621022,-211.44815739797366,-131.94183479424012,68.24590309982118,1030.8576313127378,208.30241133999183,252.14353725682986,941.960855443546
716,-9.994849769667063,-211.9889467085496,-129.56956300112043,42.32792150426099,1039.9254733972816,193.26931059977645,251.23471983066668,940.2773302476733
717,-14.100602323085417,-212.85177406085265,-127.1666389635397,18.549897286173618,1043.497188616287,177.67087002053253,250.64428042404015,937.908601652354
718,-17.997656764446944,-213.93541561998703,-124.73406955800547,-2.7869098608316714,1041.9974468317291,161.54702159136562,250.28537935759346,934.7206604608344
719,-21.66510373028346,-215.1426896853121,-122.2742107914256,-21.46757284419192,1035.8887546190617,144.95820199049678,250.07472998326594,930.6000163420441
720,-25.088750131588192,-216.38303011863852,-119.79074310079301,-37.360766950393646,1025.6587812370726,127.98367289283831,249.9347581602929,925.4543143542932
721,-28.26001887828329,-217.57467531218163,-117.28860548408372,-50.41386346199255,1011.8081264519581,110.71910159101046,249.79542341098363,919.2121589932908
722,-31.174778787660816,-218.64643310075482,-114.77389617688823,-60.64623195944057,994.8387938237817,93.27353020810284,249.59567340024284,911.8222765947281
723,-33.83217053007562,-219.5389984977153,-112.25374639666782,-68.14115909923152,975.2436079991886,75.76587668311598,249.2845167403278,903.2521686783646
724,-36.233490004571806,-220.2058163702262,-109.73617273928853,-73.03679742644631,953.4967820375622,58.321120021374526,248.82171145165827,893.4864188312612
725,-38.38118338787561,-220.61349499102525,-107.22991314018363,-75.51654797267885,930.0458014166421,41.06632588815651,248.17807757086265,882.5248141934627
726,-40.27799861822235,-220.74178877531548,-104.74425083588582,-75.79925684769353,905.3047463376391,24.126666587123925,247.3354523304868,870.3804306034599
727,-41.926326847089015,-220.58317943210076,-102.28883040004715,-74.12957072997084,879.6491250186059,7.621582156703247,246.28631500677753,857.0778097845462
728,-43.327755120998795,-220.14209427117794,-99.87346956979492,-70.76875110055238,853.4122399338419,-8.338782739595041,245.03311593440432,842.6513299151386
729,-44.48283888805922,-219.43380856454147,-97.50797009230811,-65.98619435753935,826.8830587411984,-23.65674756431614,243.5873503146123,827.1438400999394
730,-45.39109045928435,-218.48308560719414,-95.20193020435713,-60.05184710154231,800.3055142800604,-38.24977103307777,241.96842224610086,810.6055972153598
731,-46.05116793594811,-217.32261324742905,-92.96456080825178,-53.2296459546232,773.8791156588477,-52.05255490817078,240.2023477963465,793.0935126276613
732,-46.46123900570173,-215.9912989214584,-90.80450716573364,-45.772052623827626,747.760716843969,-65.01852165824756,238.3203478351808,774.6706882208994
733,-46.619485959963534,-214.53248646696005,-88.72967807967797,-37.915700677041144,722.0672616549772,-77.12063455388021,236.35738173341826,755.406197462867
734,-46.524712579274336,-212.99215711055857,-86.74708497324022,-29.878123154472693,696.8793055590622,-88.35155174423107,234.35067184379193,735.3750489708646
735,-46.17701018168703,-211.41717402415085,-84.86269381089109,-21.85549142027072,672.2451055160323,-98.72312771003962,232.33826591579034,714.6582579217198
736,-45.57843901111266,-209.8536248915314,-83.08129322720505,-14.021266561502337,648.1850691807977,-108.26529563750401,230.35768036987884,693.3429449611732
737,-44.733682117021154,-208.3453103613875,-81.40638239071906,-6.525645414536964,624.6963633491962,-117.02438225038772,228.4446619539203,671.5223828495916
738,-43.65063174446829,-206.93241850584272,-79.84008199435098,0.5043266046252739,601.7574975320781,-125.06092214730363,226.63209908723658,649.2959173661325
739,-42.34087274215797,-205.65041686900327,-78.38307138840258,6.964105520584753,579.3327206127144,-132.44705154308127,224.94910752156326,626.7687001376692
740,-40.82003334350421,-204.52918475662838,-77.03455434238138,12.770586784422914,557.3760953148936,-139.26357140905472,223.4203081326633,604.0511861224802
741,-39.10798063299407,-203.5923993874885,-75.79225531001397,17.86074729209635,535.8351453198901,-145.59677723938339,222.0653079303492,581.2583664363358
742,-37.22884574355693,-202.85718058723785,-74.65244745378241,22.190095697427058,514.6540018110128,-151.53515698325373,220.89838882796855,558.5087268338702
743,-35.21087189269025,-202.33399000522232,-73.6100131087803,25.731022116528923,493.77600834035707,-157.16606019421135,219.92840235112436,535.9229420735567
744,-33.086086292086634,-202.02677258464726,-72.65853675794635,28.471124701665982,473.14577361974375,-162.57244044117087,219.1588623071182,513.622335298766
745,-30.889804367219448,-201.93332048104867,-71.79042979455964,30.411576963513788,452.7106898038576,-167.82976981754746,218.58822155164816,491.7271483868438
746,-28.659981296180586,-202.04583304897187,-70.99708530309341,31.56558634095564,432.4219580237834,-173.00321920853833,218.2103135131779,470.35468311939263
747,-26.43643141877194,-202.35164108963025,-70.26905989238918,31.9569814259797,412.2351826297786,-178.14519091990647,218.01493425536657,449.617383411554
748,-24.259940517845774,-202.83405937946526,-69.59627837456432,31.618952481107733,392.1106104112708,-183.29328125132645,217.98853674335544,429.620935316695
749,-22.171299393513134,-203.47332860405365,-68.96825583872378,30.59295750228197,372.01310076498686,-188.46873940996977,218.11500573558587,410.462463803748
750,-20.210289621169203,-204.24760621623068,-68.3743304941082,28.927794255822416,351.9119172455082,-193.67547564319054,218.3764794621743,392.22890313791333
751,-18.41465397425161,-205.1339655180775,-67.80389972416326,26.67882779367807,331.7804301987113,-198.8996556785563,218.754183188198,374.99561102569356
752,-16.81908475517541,-206.10936357275716,-67.24665124387212,23.907353358877526,311.595814603552,-204.1099008417833,219.2292401334967,358.8252858265315
753,-15.454263181729088,-207.15154141112453,-66.69278108253154,20.680066721746158,291.3388174466688,-209.25809417062646,219.78342710558675,343.7672317333226
754,-14.345981848933523,-208.23982427669898,-66.13319028213675,17.068608174060707,270.99365565720433,-214.2807731759012,220.39984549700327,329.85699971643885
755,-13.514379944623013,-209.35579514394342,-65.559652797327,13.149143016303267,250.54808962761956,-219.10107035252318,221.06348286205963,317.11641316245255
756,-12.973317337568703,-210.48382119864155,-64.96494821019544,9.00194075046754,229.99369949332035,-223.6311438287804,221.76164594687688,305.55396758822025
757,-12.729909064064891,-211.6114200595014,-64.34295442320305,4.710917505871757,209.32637254574513,-227.77502339069912,222.48425249158947,295.1655747459564
758,-12.784236369763404,-212.72945988136982,-63.68869724700423,0.36311134595448297,188.54699134431507,-231.4317822537915,223.2239759632677,285.93560405716084
759,-13.129244593062554,-213.83219475968343,-62.99835568995244,-3.9519324088399164,167.66229414764535,-234.49893301632483,223.97624426083829,277.83815970658645
760,-13.750832100872012,-214.91714367197085,-62.269223816469115,-8.142879507678403,146.68586291567047,-236.8759377454441,224.7390999983425,270.838520741361
761,-14.628128508205894,-215.98482710418625,-61.49963219092716,-12.117432238424463,125.63917992267737,-238.46771755291874,225.5129357616761,264.8946647793308
762,-15.73395477205793,-217.0383801311677,-60.68883397966307,-15.783255147308457,104.55268258805644,-239.18804659664232,226.3001223096892,259.9587938808853
763,-17.035452567154323,-218.08306391630265,-59.83686259010285,-19.048984336882256,83.46673825285498,-238.96271921561012,227.10455086704007,255.97878399410675
764,-18.49486563810607,-219.12569953893035,-58.9443691277318,-21.825295369748737,62.43245714560099,-237.7323865480116,227.931112547828,252.89948700088382
765,-20.070451582339096,-220.1740490225341,-58.012448754651466,-24.025998795679953,41.51226333165888,-235.45496991846886,228.78513876018638,250.66382622991372
766,-21.717498850960762,-221.23616854171487,-57.0424651175694,-25.569129132691415,20.7801501879954,-232.10757193294253,229.67182625921316,249.21364155239365
767,-23.389420871124816,-222.31975803405774,-56.035881403847284,-26.377992853644724,0.3215584497758055,-227.68782228274108,230.59566936809915,248.4902579980909
768,-25.038897297462665,-223.43152995099763,-54.99410537185584,-26.382143228553545,-19.767169755419612,-222.21461373521547,231.5599199401105,248.43477148109798
769,-26.619031543291843,-224.57661792558955,-53.91835401149764,-25.518254287206236,-39.379789239788735,-215.72820458566278,232.56609320788777,248.98806585338173
