time,ax,ay,az,gx,gy,gz,accmagnitude,gccmagnitude
0,-1.3206939679315843,-237.12029953684296,-5.145393416941095,-300.037244471581,-122.35405862661324,11.126698114303194,237.09478053538254,316.61641015319054
1,-0.7215989243507057,-238.6588154811911,-4.548809531128017,-294.8813437972223,-120.83537194291614,12.218621342592755,238.65082353961674,307.8430092950656
2,-0.09092490372206298,-240.2061166929746,-3.921544885319911,-289.6025546982281,-119.16179919946102,13.343451804032997,240.21829137986418,298.76500733132866
3,0.5716875526637892,-241.75025411235944,-3.265858858344313,-284.15134726974156,-117.28130269109424,14.504812826735025,241.78523135064,289.40794631081434
4,1.2664349050132253,-243.27976701138076,-2.584253728034654,-278.47309108033016,-115.13849283183845,15.709366194912173,243.34012790039134,279.8068361404353
5,1.9932720519204943,-244.78390448165447,-1.8794827144852075,-272.5092602567885,-112.67556217670806,16.966956414954698,244.87211933481345,270.00720331197635
6,2.751827256058517,-246.25280824518364,-1.1545630276520895,-266.1987002005502,-109.8333186809758,18.290644018690053,246.37117667142624,260.0658431958621
7,3.5413125481064016,-247.67764981049393,-0.4127941251706781,-259.47891618291624,-106.5522998802199,19.696618138888322,247.8282379029331,250.05121113313237
8,4.360431341667601,-249.0507173760565,0.3422183998225136,-252.2873531835128,-102.77394825503991,21.203981757382827,249.2352933052574,240.04340394183845
9,5.207284900149759,-250.36545067253374,1.1065333270805289,-244.56264882902755,-98.44182696865472,22.834406941736955,250.58542020692724,230.13370443917466
10,6.079279515391744,-251.61642495046672,1.875839922406392,-236.2458547686287,-93.50285443982587,24.611662046740243,251.87276863820514,220.4236848322845
11,6.973036746334774,-252.799288251522,2.6454224586563435,-227.28163291760907,-87.9085358834407,26.56101816531084,253.09250219212254,211.02388706669734
12,7.884309672002992,-253.9106586254619,3.4101274608223617,-217.61943853756506,-81.61617003839193,28.70854791418558,254.2407009288757,202.0521163012921
13,8.807908682050709,-254.94798983851817,4.164339054848699,-207.2147002921504,-74.59000977457836,31.080335676942504,255.31423500335856,193.63139566237584
14,9.737640739107404,-255.9094152500493,4.901968286671547,-196.02999847184617,-66.8023560972884,33.70162427657657,256.310618778546,185.8876361790975
15,10.666266218638935,-256.79357991499546,5.616462228022107,-184.03622879407595,-58.23456629985332,36.59592812438089,257.2278555060835,178.9470769252667
16,11.585477357797656,-257.5994706984662,6.300838162630505,-171.21372410088975,-48.877958768971475,39.78414651166215,258.06428231057174,172.93354953956356
17,12.485902089664874,-258.3262534435802,6.947747172403117,-157.55329352244306,-38.73459924328828,43.28371220290707,258.8184243869198,167.96562109018612
18,13.357136630914365,-258.97312521650787,7.54957003611362,-143.05713089786005,-27.817955956597597,47.10780934940119,259.4888662140724,164.15367137138927
19,14.187809550579525,-259.5391884602435,8.098546572067727,-127.7395426537843,-16.153413684391715,51.26469085289795,260.0741462977165,161.5969655758399
20,14.965679108583357,-260.0233524488155,8.58693751264307,-111.62744984003366,-3.778638919661895,55.75711903718481,260.57268040645124,160.38079019799105
21,15.677764526956548,-260.4242656702447,9.007215858387816,-94.76062857597984,9.256209918553223,60.5819455618966,260.98271639163454,160.5737275394847
22,16.310510788140487,-260.7402808142348,9.352282607316111,-77.19166613511315,22.888432199828554,65.72983781812208,261.3023216283554,162.22515036748987
23,16.849985659144544,-260.9694522094947,9.615699924400737,-58.98562439453612,37.04289907955385,71.18515046413222,261.5294022010964,165.36302105195026
24,17.282106764087864,-261.10956411073846,9.791933262160546,-40.21941664950293,51.632336122631145,76.92593312736868,261.6617514430607,169.99207721334957
25,17.59289541909102,-261.15818726712706,9.876592698532706,-20.98091660267351,66.55777940494252,82.92405936997045,261.6971244054133,176.09247782894866
26,17.76875249868383,-261.1127606648355,9.866662918703796,-1.3678291132454845,81.70921071958851,89.14545836935967,261.63333423656076,183.61897032412247
27,17.796749957148165,-260.9706951386655,9.76071104177261,18.513639043848148,96.96637816515323,95.55042967490769,261.4683662236024,192.50062179512625
28,17.664930120719664,-260.72949559970556,9.559062148953728,38.550263607439085,112.1998085171291,102.09402278770153,261.2005053314604,202.6411379676843
29,17.362603888795938,-260.386898800581,9.263934028335964,58.62339352586315,127.27201706879274,108.72646681325071,260.8284733742957,213.9197735811986
30,16.88063874820785,-259.9410237097688,8.879525065903863,78.61059795310842,142.03891886635603,115.39364048004357,260.35157232314117,226.1928191499423
31,16.211727967994094,-259.39053159567953,8.412051825969227,98.3873221616776,156.35144230392163,122.037578641198,259.7698305636076,239.29563263906977
32,15.350633321330942,-258.7347927948773,7.869735162683289,117.82851107198223,170.0573417602298,128.59701714711667,259.0841490906658,253.0451710884854
33,14.294394957371004,-257.97405684051864,7.26273548836311,136.81016768595157,183.00320028654335,135.00798297042257,258.2964446181559,267.24296658512026
34,13.042503367814195,-257.10962214697946,6.603039115080994,155.21082332778826,195.0366063674887,141.20444021700405,257.40978635981287,281.6784827712373
35,11.597029546664237,-256.14400082386135,5.904298437434052,172.91290589951876,206.00848077910237,147.11900495942186,256.4285228305209,296.1327817792935
36,9.962710367379557,-255.08107356064662,5.1816292656695,189.80400044742433,215.77552114885705,152.6837425610002,255.35839455144398,310.38242676115146
37,8.146987014805992,-253.92622904354445,4.451369107110662,205.77800266300483,224.20272375718187,157.83106011977333,254.20662819374746,324.20354181213304
38,6.159995178309214,-252.68648206684944,3.730800850991054,220.73617025234577,231.16593514153757,162.49470355855172,252.98200750554878,337.3759489021622
39,4.014506690217018,-251.37056426401725,3.03784719421023,234.58807945291665,236.5543806409103,166.6108634915327,251.69491622011697,349.6873002797252
40,1.725823270610954,-249.98898115790445,2.3907421793106374,247.2524946204037,240.2731132379455,170.11938638484824,250.35734798006433,360.93712458443014
41,-0.68837613187657,-248.5540291699436,1.8076872049434842,258.65815797669666,242.24532367679245,172.96507826858178,248.98287827336463,370.9407054237578
42,-3.208232271311872,-247.07976653946216,1.3064995591338202,268.74450437268234,242.4144515676521,175.09907837285724,247.58659365837505,379.5327123159796
43,-5.811944096303646,-245.5819328546815,0.9042617870277085,277.4623024068416,240.74603703563037,176.48027076963183,246.18497422532934,386.57050586197636
44,-8.476045366655887,-244.0778130881495,0.6169800526265059,284.77421896861796,237.2292538260037,177.0766945577099,244.79572631166627,391.93704246331157
45,-11.175714991890853,-242.58604375892722,0.4592591216986739,290.6553000500021,231.87806825999223,176.86690815704807,243.43756406432806,395.54330975607775
46,-13.885115622154258,-241.12636123929008,0.4440007780898732,295.09335697672674,224.7319746200581,175.8412610477493,242.1299406571572,397.3302326053611
47,-16.57775414596825,-239.7192951858769,0.5821316572976849,298.0892438595322,215.85626665149778,174.00302617278138,240.89273273345916,397.2700004622465
48,-19.226857325578223,-238.385813146764,0.882365924877103,299.6570088644272,205.3418165898691,171.36934723114393,239.74588450983757,395.3667791351981
49,-21.805756006097393,-237.14692494036126,1.3510079698817425,299.82389975693735,193.30434690391695,167.97195670830197,238.70902033576945,391.65678339633166
50,-24.28827220413586,-236.02325697125934,1.9918000617034208,298.6302049672504,179.8831953748037,163.85762322153388,237.80103592783578,386.20770238329214
51,-26.64910464187084,-235.03460726784976,2.8058194016098597,296.1289163841338,165.23959072489063,159.08829175850875,237.03967900623744,379.11748840869
52,-28.86420937412751,-234.1994921546705,3.791428027729484,292.38520854173044,149.5544725652427,153.74088849971736,236.44113006955612,370.51254074503316
53,-30.91117255538565,-233.53469562987718,4.944277691827767,287.47573874434505,133.02590412956744,147.9067729387008,236.01959402664178,360.5453367277143
54,-32.76957197742702,-233.05483293273053,6.2573703381649635,281.48778196227374,115.86613758396797,141.69083279540115,235.78691357238918,349.39158047086016
55,-34.42132295002418,-232.77194030703825,7.721173348792672,274.5182218088313,98.29839912114151,135.21023023971165,235.75221540863026,337.246952936096
56,-35.85100272176726,-232.69510318806138,9.32378731522657,266.6724238848782,80.55346484013837,128.59281978748282,235.9216002998616,324.3235551797725
57,-37.04614637788182,-232.8301345679542,11.051162710633248,258.0630197294288,62.86609906617223,121.97526779471005,236.29788717356047,310.84613884896424
58,-37.9975064124705,-233.17931402430656,12.88736043949584,248.80862836765814,45.47142473228382,115.50091014602273,236.8804199748338,297.0482144117314
59,-38.699268107419044,-233.74119600049497,14.814849890607997,239.03253854265293,28.60129133308805,109.31738857427014,237.66494396203765,283.1681191418232
60,-39.1492133210277,-234.51049360855774,16.814836940786268,228.86136939164155,12.480700721728766,103.57410777692772,238.64355577519723,269.44511543794135
61,-39.348826025762556,-235.47804164660226,18.867613429693503,218.42372201472907,-2.675654188323722,98.41955618280431,239.80472904782906,256.11557788187616
62,-39.30333369135031,-236.6308399145915,20.952918944074867,207.84883004980136,-16.666686956209432,93.99853387626129,241.1334147556971,243.40931622834466
63,-39.02167930136944,-237.9521755537039,23.05030535955104,197.2652140947085,-29.308003236294894,90.44933245659051,242.61121317057888,231.5460718861636
64,-38.51641958708457,-239.42182121649287,25.139494664563717,186.79934201190932,-40.43472765480219,87.90091373952427,244.2166124466046,220.73221711413672
65,-37.803546309091146,-241.01630447465212,27.20072129548458,176.57429428902245,-49.90402546356546,86.47013717139023,245.9252876654099,211.15767874020986
66,-36.90222944332246,-242.70924297289721,29.215051530623334,166.7084309353751,-57.597272514616215,86.25908947240185,247.71045365682807,202.99310196612083
67,-35.83448406491398,-244.47173933200892,31.164674173484777,157.31405482456424,-63.42182757733149,87.35257403635336,249.5432649955935,196.38726565245273
68,-34.62476636727413,-246.27282958379206,33.033158417922614,148.49606684074968,-67.3123632404984,89.81582138298721,251.3932570651888,191.46475934510423
69,-33.29950804713775,-248.07997895141125,34.80567622367954,140.35061065270125,-69.23171733452446,93.69248459257359,253.22882280648216,188.32393447731405
70,-31.886601588402517,-249.85961894579683,36.469187848697224,132.96370883959847,-69.17123710023444,99.00298409172741,255.01772049595496,187.035147140789
71,-30.414851477582623,-251.57771966418923,38.01259050406628,126.40989756340404,-67.15060247169765,105.74326339109341,256.7276082253143,187.63931681932348
72,-28.91340818897637,-253.2003904463992,39.42683125277839,120.75087521753697,-63.21713044238228,113.88401081319907,258.3266002959623,190.14683394123924
73,-27.41120295467415,-254.69450062930974,40.70498592323067,116.03419206404644,-57.44457734524758,123.3703921119243,259.7838394551811,194.53685814821176
74,-25.936401495058032,-256.02831044553494,41.842305800247985,112.2920210731729,-49.93146929700778,134.12232604820133,261.07007713965083,200.75705682703156
75,-24.5158935510651,-257.17210058207115,42.83623342165128,109.54006173693215,-40.79900330080694,146.0353202613228,262.1582520781397,208.72383690652174
76,-23.174832338616387,-258.0987876452444,43.68638828935668,107.7766362144582,-30.18857274797685,158.98186845739343,263.0240558982173,218.32312003151566
77,-21.93623457320412,-258.784511637624,44.39452278201237,106.98204031276931,-18.25898131356821,172.81339223785434,263.64647274157574,229.41170154582653
78,-20.820648017538755,-259.20918054013094,44.964447986370054,107.11821048547833,-5.183418525225076,187.36269259941324,264.0082783818178,241.8192179858341
79,-19.845889775107477,-259.3569563849045,45.40192876059363,108.12876153567355,8.853721853485952,202.44685837312443,264.0964831962646,255.35072679905255
80,-19.02685496882673,-259.2166669410781,45.714547545010404,109.93943747478647,23.66009436783946,217.87056207451522,263.9027027949848,269.789876298961
81,-18.37539250770376,-258.78212735579035,45.91153751646146,112.45900087431843,39.038638264580484,233.42965738342346,263.4234402734269,284.90261447856665
82,-17.900243029975165,-258.0523569109603,46.00358744694947,115.58056625578182,54.79071490233407,248.91497710783463,262.6602650586861,300.44135499591556
83,-17.60703400209205,-257.0316778563007,46.00262241254794,119.18336300072576,70.71907244885661,264.1162188780416,261.61987544576357,316.14949244727154
84,-17.498327542446088,-255.729686591314,45.92156558557624,123.13489452347648,86.63057730120315,278.8258022348237,260.31403550875694,331.7661424213615
85,-17.573716675706084,-254.16109239224076,45.77408659825842,127.29344368405135,102.33866790468926,292.84258715154317,258.75938209719305,347.0309771384229
86,-17.829965139672012,-252.34542468439372,45.57434189072046,131.51086012863763,117.66550470514093,305.9753580206419,256.97710340869696,361.6890325699915
87,-18.26118519486107,-250.30661547763037,45.33671243669348,135.63555445857543,132.4438081284344,318.04599440241043,254.99249620176897,375.49537359524095
88,-18.859047572897502,-248.07246841489368,45.07554409904393,139.51561774976923,146.51839263055138,328.892267199179,252.83441348591037,388.2195165828925
89,-19.613017604226993,-245.67402994407152,44.8048953170502,143.0019825646193,159.7474171955953,338.3702149326852,250.53461846549422,399.6495216999969
90,-20.510611480263453,-243.14488162256936,44.53829597758374,145.95154158824084,172.00338054394027,346.35606898057114,248.12706383790243,409.5956790423789
91,-21.53766650747176,-240.5203755669303,44.288520531738094,148.23014094456903,183.17389331658936,352.7477092698413,245.64711837972064,417.8937232994168
92,-22.678619089175847,-237.83683738727277,44.067377896134325,149.71536702335953,193.1622605430012,357.46564385757694,243.13076495472788,424.4075220527572
93,-23.916784036146705,-235.1307622927054,43.88552042494175,150.29904943191912,201.88790632537254,360.4535174631534,240.61379534824493,429.0311938423192
94,-25.234628907518875,-232.43803022201163,43.752274268063424,149.88940995362913,209.28666912439968,361.67816478421065,238.13102751160156,431.6906238861358
95,-26.61403780525892,-229.79316483223067,43.675493806147365,148.41279918632105,215.3109907085763,361.1292334127621,235.7155699285025,432.3443575233865
96,-28.036560473825492,-227.22865902233409,43.66144345187772,145.81497904233802,219.93001546193324,358.81840817762867,233.39815593399535,430.9838641965307
97,-29.483644296369214,-224.77438645642712,43.714710525019164,142.0619295599429,223.12961011250502,354.778274524033,231.2065678873892,427.6331785398712
98,-30.93684827455809,-222.45711444995058,43.83815270279323,137.1401803193558,224.91230751590274,349.06086393316093,229.16516714831488,422.3479397435847
99,-32.37803902520995,-220.30012885559503,44.032882546542716,131.05668727831025,225.29717209591692,341.7359295007014,227.2945410225754,415.2138646703215
100,-33.78956928517298,-218.32297651874185,44.298290013950314,123.83829239354314,224.31957921834825,332.88900415210475,225.6112725589212,406.3447028101566
101,-35.154439656682285,-216.54132578102852,44.63210213696294,115.53081447699564,222.0308968060089,322.6192970756854,224.1278337194909,395.8797313574659
102,-36.45644460242253,-214.96694076867482,45.03047761688759,106.19782532367788,218.4980555227585,311.03748552141417,222.85259749758444,383.9808565650953
103,-37.680304108346775,-213.60776113171494,45.4881331205788,95.91916631271268,213.80299393565596,298.26345897182904,221.78996037534404,370.8293933809451
104,-38.81178289997658,-212.4680755997943,45.9984974261913,84.7892588895879,208.04196668681618,284.42407080534315,220.940563163308,356.622599388706
105,-39.8377995048373,-211.54877506450967,46.55388909124619,72.91525887884599,201.32470620604713,269.65094914344115,220.3015955745911,341.5700414204758
106,-40.74652774519678,-210.84766876215693,47.145712942115146,60.41510025065094,193.77343143124037,254.0784138572556,219.86716772031457,325.88987399992214
107,-41.52749337094627,-210.35984560521513,47.76467042298944,47.415468965264715,185.52170019162935,237.84154072261322,219.6287301512973,309.8051078969311
108,-42.171668368870876,-210.07806208100246,48.40097876431023,34.04974158101286,176.7131052956202,221.0744063196883,219.5755233799267,293.5399442678891
109,-42.67156490672413,-209.99313867010977,49.044594161641335,20.455916119921646,167.4998179199327,203.90853857447172,219.69503826153598,277.3162450586085
110,-43.021329968930225,-210.0943485220517,49.685434695849096,6.774554402862156,158.04098558143826,186.4715883943239,219.97347029023018,261.3502039164543
111,-43.216840699869515,-210.36978504037413,50.313599371356496,-6.853253356198932,148.5009957546147,168.88622854986903,220.39615363749692,245.84927447004682
112,-43.25579939009251,-210.80669875297923,50.91958024900525,-20.287897952537133,139.04762000143901,151.26927768261686,220.9479643056409,231.00940512137828
113,-43.13782595065322,-211.391797872296,51.4944652539394,-33.393235077479176,129.85005707105847,133.73104061663767,221.61368561356988,217.01262165026023
114,-42.864544701994014,-212.1115107493343,52.0301298685012,-46.03854476904787,121.07689643210654,116.37485112293426,222.37833288401464,204.02499063863746
115,-42.43966146540359,-212.95221164179722,52.51941637249936,-58.100464352570405,112.89402588103057,99.29679970676482,223.22743729204635,192.19498748176414
116,-41.86902637765542,-213.9004137018132,52.95629930715255,-69.46488640805343,105.46250832457847,82.58562649271235,224.14729118072265,181.65228222176648
117,-41.16067767174219,-214.9429347553804,53.33603536118563,-80.02880462643003,98.93645385607554,66.32275751447956,225.12515867634932,172.50694451917155
118,-40.3248619731869,-216.06704221168454,53.65529509753375,-89.70208058695131,93.46091400264757,50.582461526426926,226.14945612374098,164.84905589652993
119,-39.37402737166775,-217.2605833119305,53.91227313299146,-98.40909454656986,89.16982547307545,35.43210394577609,227.20990676044877,158.74870332965742
120,-38.322786402834744,-218.5121060269881,54.10677278361899,-106.09023417658749,86.18403082968048,20.93247484643887,228.29767328048777,154.25631402660193
121,-37.18784689840087,-219.81097443194685,54.24026095220257,-112.703167727106,84.60940334337826,7.138169031193814,229.40547067907463,151.4032778932003
122,-35.98790935742683,-221.14748055170105,54.315889238707975,-118.2238434414537,84.53510303352274,-5.9020020211341935,230.52766024220352,150.20279317352174
123,-34.743530106600886,-222.5129527293464,54.33847790125547,-122.64715642050875,86.03199055534027,-18.144584226879317,231.66032399208416,150.65086369470671
124,-33.47695011137124,-223.89985873916262,54.314460324172195,-125.9872286946896,89.15122495635312,-29.55105618066992,232.8013175311246,152.7273744953498
125,-32.21188982432772,-225.30190035382768,54.25178696134045,-128.27725867464923,93.92307004657323,-40.08741796196755,233.95029821052927,156.39717725538554
126,-30.973310791804973,-226.7140951286774,54.15978919134611,-129.56891220079953,100.35593197635198,-49.72380293986616,235.10872507323643,161.61112778532492
127,-29.787144860665258,-228.13284100108848,54.04900500626086,-129.93124773085847,108.43564761679849,-58.43411949375343,236.27982725647013,168.30703362198497
128,-28.679991877841662,-229.55595989128003,53.93096980305082,-129.44919047760516,118.12503985860795,-66.19572751162883,237.46853844629024,176.4104883477647
129,-27.6787869502064,-230.9827174990414,53.817976593015494,-128.22159187644274,129.3637526078479,-72.98915309963473,238.68139623039838,185.83558815078058
130,-26.81043874938834,-232.4138175114667,53.72281060525428,-126.35892927681023,142.06837566010137,-78.79784410834634,239.92640640497956,196.48554327402127
131,-26.10144103976191,-233.85136926211123,53.65846361228874,-123.98071457162959,156.13286803239367,-83.60796872874742,241.21287328109702,208.25321092853758
132,-25.577460545127995,-235.29882856435844,53.63783349044573,-121.2126887741445,171.42928749861562,-87.40825939825993,242.5511978857337,221.02158620227897
133,-25.262905309138407,-236.76091210586642,53.673414565897424,-118.18388224061424,187.80883341441836,-90.18990447003965,243.95264677066942,234.66429325223632
134,-25.18047867862771,-238.24348642428905,53.77698412957697,-115.02361786244327,205.10320874956815,-91.94649049783398,245.42909488228574,249.04612083710145
135,-25.35072497776483,-239.75343294721532,53.95929016459674,-111.85852813747083,223.1263050873943,-92.67399869908827,246.99274648032122,264.0236446606381
136,-25.79157403119142,-241.2984907627343,54.22974492707929,-108.80964794462987,241.67621102257843,-92.37086037333131,248.65583836134783,279.445974942874
137,-26.51789293728741,-242.88707869410476,54.59612861845601,-105.98963464138149,260.53753986168033,-91.03807773312593,250.4303296557325,295.1556619188988
138,-27.5410546427805,-244.5280979496513,55.06430705032134,-103.5001573355106,279.48406673972846,-88.67941833713873,252.32758226939,310.989785047753
139,-28.868533740143093,-246.23071617754377,55.637967067534554,-101.42948921007657,298.28165814242516,-85.30169247774923,254.35803570318618,326.7812438201443
140,-30.503540485626893,-248.00413327586656,56.31837366424952,-99.850331530388,316.69146848559785,-80.91512289384336,256.53087961722497,342.36025941634114
141,-32.444704313678756,-249.8573289778892,57.104153197879114,-98.81789571330397,334.4733691988644,-75.53381467603052,258.8537272897533,357.55608738354914
142,-34.68581803663035,-251.79879225310557,57.99110782393537,-98.36827013830185,351.38956608675994,-69.17633007966381,261.33229322351684,372.19893218407356
143,-37.21565343926088,-253.8362329956265,58.97206713074272,-98.517100179716,367.2083509250104,-61.866368256400364,263.9700786016082,386.1220449604415
144,-40.01785820241565,-255.97627718915055,60.0367837033745,-99.2586119371681,381.70792366253255,-53.63354387583316,266.768068922842,399.16397624691353
145,-43.07094314616453,-258.22414759732123,61.171879640128466,-100.56501117796988,394.6802127947215,-44.514251494748436,269.7244487460975,411.1709459607751
146,-46.34836764228749,-260.58333303805205,62.36085059078959,-102.38628831874568,405.9346141013047,-34.55259474107058,272.8343389805674,421.9992844034275
147,-49.81872955862187,-263.0552505924116,63.58413260687512,-104.65045753141064,415.3015625005843,-23.801351618039995,276.0895626666653,431.5178907539368
148,-53.44606421039056,-265.63890678490105,64.81923513036692,-107.26425333287995,422.6358484691069,-12.322940322219925,279.47844583478974,439.6106499987807
149,-57.190254535574674,-268.3305658860519,66.04094104458704,-110.1143017515667,427.81958934337507,-0.19034430978071662,282.98566089649523,446.1787455798048
150,-61.00755202500523,-271.12343596550755,67.22157214849898,-113.06877601150117,430.7647669382487,12.512049232420514,286.592121103847,451.1428034106943
151,-64.85120478156844,-274.0073859503477,68.33131599107968,-115.97953925941422,431.41524656628366,25.687747153381853,290.2749357624994,454.4448035970947
152,-68.672185662616,-276.96870941335646,69.33860798289707,-118.68476958112892,429.74819921415775,39.22763708328312,294.00743690567583,456.04969963845446
153,-72.42001010652577,-279.9899528674235,70.21056130114604,-121.01205537459012,425.774858809236,53.0097182317221,297.7592888922455,455.94669144087766
154,-76.04363006146593,-283.0498277205775,70.9134365474239,-122.78194132511429,419.5405603030375,66.89913272592987,301.49669272823013,454.15010796792126
155,-79.49238720368399,-286.1232253635764,71.41314365996959,-123.8118953077525,411.12402131440047,80.74855401126558,305.1826965054969,450.6998669849829
156,-82.71700505258323,-289.1813536550907,71.67577034105612,-123.92065285332929,400.6358496476633,94.39898650034324,308.7776217616065,445.6614919633749
157,-85.67059558961986,-292.19201000071007,71.66813397940177,-122.93287720850006,388.2162804439356,107.68102441227643,312.23961241676403,439.1256786894305
158,-88.30965192045063,-295.1200011854181,71.35835701942345,-120.68404940251472,374.032169292235,120.416605874519,315.52530805717714,431.20741544612645
159,-90.5949951080832,-297.92771323472414,70.7164679220506,-117.02547533193525,358.2732903468871,132.4212796687871,318.59063675521384,422.0446697370817
160,-92.49264135086577,-300.5758262017025,69.71503017836797,-111.8292682640762,341.1480102345242,143.5069763800002,321.39171464930433,411.79666040668076
161,-93.97455572689185,-303.02415956944066,68.32979947369171,-104.99313896262399,322.87842847973945,153.48524426357778,323.8858307894918,400.6417362711056
162,-95.019260919181,-305.2326249022457,66.5404039201834,-96.4448059756914,303.6950934299923,162.1708751742021,326.0324872843369,388.7748819155091
163,-95.61227356377827,-307.16225458599314,64.33103498487289,-86.1458295342452,283.8314202869263,169.38581084839157,327.7944577644156,376.40487060500277
164,-95.74634703258292,-308.7762699309321,61.691128716480144,-74.0946772904853,263.51795609855225,174.96318892869562,329.13882276047326,363.75108663440074
165,-95.42150758717193,-310.04114914917415,58.61600978083401,-60.328850569975465,242.9766555051252,178.7513654886035,330.0379396115996,351.04004759509166
166,-94.64488080601866,-310.92765581273744,55.10746612477724,-44.92593553946296,222.4153485182439,180.61773971731998,330.4703072018564,338.5016716683598
167,-93.43031640921639,-311.4117908942508,51.17422067088919,-28.00349191487404,202.02259342327173,180.45220881829766,330.4212916671213,326.3653545292334
168,-91.79783095559183,-311.4756356744023,46.83226839540596,-9.717747581368616,181.96310916405753,178.17009726844813,329.8836871521363,314.85594141087563
169,-89.77289802999735,-311.10805793094505,42.105051905605414,9.738875609846643,162.37396880320583,173.71443236597526,328.85809446893825,304.189698354763
170,-87.38562335048967,-310.30525923905094,37.02345528070767,30.141328026612953,143.36170818551705,167.05747367703182,327.3531089365166,294.57039932578203
171,-84.66984701064246,-309.07114638283053,31.625603498925024,51.23647237222458,125.00046404498752,158.20144333987733,325.38531587932664,286.1856510550496
172,-81.66221652171822,-307.4175145819447,25.956462498995258,72.74845147997193,107.33120766806648,147.1784435847055,322.97909783724515,279.20357532364073
173,-78.4012723655587,-305.3640346337737,20.06724233860606,94.38472229189125,90.36208867269696,134.04958448863133,320.16626162002365,273.76995997295637
174,-74.92658258671175,-302.93804042030905,14.014612699415549,115.84258973925662,74.0698531108973,118.90337676385448,316.98549625785324,270.0059760907949
175,-71.27795512491585,-300.17411754071213,7.859746035897279,136.81607558374603,58.4022549730461,101.8534697175393,313.4816748624592,268.0065396349416
176,-67.4947471722828,-297.1134978969196,1.6672092185992928,157.00295986806026,43.28134340436537,83.03583261256657,309.7050145307205,267.83937068311536
177,-63.61528120894448,-293.8032687842434,-4.496269892991955,176.11183273883677,28.607481535271596,62.605488656724454,305.710108971813,269.5447724376233
178,-59.67636896407182,-290.2954086593551,-10.563128583889522,193.86899106343472,14.263937213040883,40.732915949373776,301.55484908581684,273.13611664159424
179,-55.712938481180956,-286.6456657760213,-16.466349871217275,210.02500988834996,0.1218793813996519,17.600230860081457,297.2992479728537,278.6009860218767
180,-51.7577560520654,-282.9123007411416,-22.140854473926456,224.36081835063163,-13.95438755075191,-6.602731499941666,293.00418930874747,285.9028932979909
181,-47.84123334255129,-279.1547197451194,-27.5248585603771,236.6931183614596,-28.102119887398768,-31.682326602522362,288.73012164184934,294.98347569169175
182,-43.991309293405116,-275.43203116620595,-32.56115241511839,246.8790047188199,-42.45493259749129,-57.44488876832055,284.5357253195532,305.7650566765754
183,-40.23339531054929,-271.80156354283184,-37.198259540417865,254.81967491924462,-57.1378727217555,-83.70029132507486,280.4765825929394,318.1534711499348
184,-36.59037078885094,-268.3173868109,-41.39144308792133,260.46314892798887,-72.26293858219738,-110.26517798772653,276.60388434621854,332.04105996944025
185,-33.0826149846632,-265.02888092207166,-45.103535454719356,263.80594510427943,-87.9252006606646,-136.96577451774445,272.9632086498633,347.3097471275723
186,-29.728061536243278,-261.9793966568982,-48.3055757239532,264.89367251307067,-104.1996528937837,-163.64020337848405,269.5934070563574,363.8341126924941
187,-26.542263631311943,-259.20505294444524,-50.97724711191806,263.82050160276196,-121.13888661879275,-190.1402421966578,266.52563436374965,381.484367065771
188,-23.53846039603511,-256.7337133886863,-53.107112112256296,260.72747013666475,-138.77163914744276,-216.332489558857,263.7825563331672,400.1291218235835
189,-20.72763799235683,-254.58418173037265,-54.69264671967061,255.7995786627374,-157.10222975562252,-242.09892842376746,261.3777672238125,419.6378465494147
190,-18.11858189064153,-252.76565122571543,-55.74007755258059,249.26163975151277,-176.11086012430124,-267.33690654211705,259.31544464706286,439.882906403692
191,-15.717919630919267,-251.27743601243606,-56.26402759239549,241.3728753142421,-195.75472446475905,-291.9585821156162,257.5902628661509,460.7410958124457
192,-13.530155838129234,-250.10900325897524,-56.28697828399278,232.42030913869152,-215.9698467603251,-315.88990845069424,256.18757718916726,482.094619542971
193,-11.557703070528017,-249.2403134291207,-55.838558487985736,222.71107374802386,-236.67353910452323,-339.0692509440938,255.08388180336908,503.8315189380814
194,-9.800913114423938,-248.64246298489306,-54.95467471235545,212.56383250895053,-257.76735654187,-361.4457418630597,254.24753200929925,525.845589880912
195,-8.258113585544667,-248.27861029451708,-53.676502357131206,202.2995967949481,-279.1404105048865,-382.9774828546523,253.639710335692,548.0358804192379
196,-6.92565420773565,-248.10515257181964,-52.04936404756377,192.23228081705835,-300.67289504445847,-403.62970278822417,253.2156054514133,570.3058819192325
197,-5.797965922752627,-248.07311053404246,-50.12152766831387,182.65937316370176,-322.2396776307471,-423.3729709033007,252.92576400273762,592.5625348636261
198,-4.867634185349985,-248.1296691978941,-47.9429623663644,173.85310881463084,-343.71380947659617,-442.18155407008214,252.71756920241404,614.7151614448338
199,-4.125485968698883,-248.21981855520968,-45.5640945346408,166.05249861833815,-364.9698194474446,-460.0319937852565,252.5367966361232,636.674418561358
200,-3.560688934798403,-248.2880368749544,-43.03460689544232,159.45651986262465,-385.8866712842585,-476.9019638351442,252.32919733399913,658.3513439786379
201,-3.160861367854419,-248.27996149165483,-40.40232210133603,154.2186996637836,-406.3502863478633,-492.7694524866721,252.04206018113186,679.6565498151605
202,-2.912192551714904,-248.1439962091757,-37.71220806150582,150.44324185795782,-426.255562136376,-507.6122922390841,251.62570943852865,700.4996017932859
203,-2.799574446456825,-247.83280993333562,-35.00553584055299,148.18276731383585,-445.50784732615807,-521.4080355988241,251.0348977452822,720.7886081927311
204,-2.8067459995958597,-247.3046870807931,-32.31921276471145,147.4376654755968,-464.02386344810174,-534.1341494816111,250.2300598215902,740.4300280342025
205,-2.916451071558395,-246.52469611182812,-29.685303828463184,148.15699730545927,-481.7320891326958,-545.7684775301511,249.17839670260426,759.3286944385577
206,-3.110610214345283,-245.4656478885555,-27.130744437649945,150.24084823905991,-498.5726443109765,-556.2899019340589,247.8547644875679,777.3880379940211
207,-3.3705059472907224,-244.10882052430674,-24.677237828171236,153.5440017086513,-514.4967289005374,-565.6791254868524,246.242345418841,794.5104873624986
208,-3.676980934349114,-242.44443235713902,-22.341321918802016,157.88078449970885,-529.4656836372852,-573.9194906467698,244.3330830489657,810.5980204012725
209,-4.010648446485175,-240.47185023871046,-20.134583434028603,163.03092014302592,-543.44975024797,-580.9977551603131,242.12786792263222,825.5528386272765
210,-4.352114441075465,-238.1995270270796,-18.063992106547513,168.7462126189962,-556.4266146937539,-586.9047532604084,239.63646615389916,839.2781408598203
211,-4.6822103521495375,-235.64467018933843,-16.132324720798966,174.75786858758275,-568.3798213900767,-591.635886971967,236.87719071424195,851.6789780992921
212,-4.982235191823928,-232.83265231495054,-14.338647877240051,180.78425243047636,-579.2971484116962,-595.1914123059072,233.87632375381747,862.6631802988326
213,-5.234204773257673,-229.79618314562103,-12.678829783456173,186.5388559815818,-589.1690334093961,-597.5765083254346,230.6673069140868,872.1423553154495
214,-5.421104811184427,-226.57427054980096,-11.146054874533043,191.7382566167107,-597.9871365345352,-598.8011411600688,227.28972445247584,880.0329694880502
215,-5.527143519758449,-223.21100452445296,-9.731320234520204,196.10983744059934,-605.7431192282655,-598.8797571162848,223.78811088851458,886.2575262652975
216,-5.53799850283951,-219.75420415993977,-8.423899364681278,199.39905489826063,-612.427705610473,-597.8308548772396,220.21062116243777,890.7458615416665
217,-5.441052664994874,-216.25397267191892,-7.211766194671592,201.37606121614786,-618.0300763187789,-595.6764915236088,216.60760703573686,893.4365683018578
218,-5.225614473138617,-212.7612095808858,-6.081978946861965,201.8415161365276,-622.537624080261,-592.4417672722902,213.0301480007083,894.2785459072971
219,-4.883118277377401,-209.32613116549504,-5.021028018672914,200.63144894445657,-625.9360783280288,-588.1543106329889,209.5285874073869,893.2326419283768
220,-4.407299820718159,-205.99684995218385,-4.015153756899368,197.62105691746888,-628.2099851029028,-582.8437572474016,206.15112435140495,890.2733237618529
221,-3.7943411020631177,-202.81806121607707,-3.0506391439641036,192.7273540838251,-629.3435089731876,-576.5411940760613,202.94250916475892,885.3902932401265
222,-3.0429788033541483,-199.82987968094537,-2.1140798850116655,185.9106200181146,-629.3215048792696,-569.2785341837508,199.94288563788055,878.5899468275147
223,-2.1545722165071104,-197.06686349731183,-1.1926313401849677,177.17464476029767,-628.1307899518326,-561.0877959190763,197.18681709962206,869.8965876697971
224,-1.1331293782070846,-194.55725579053416,-0.2742292699883666,166.56581905863874,-625.7615322690821,-552.0002778637709,194.70252682174777,859.3533110259813
225,0.014707218452470697,-192.32246692073997,0.6522198970740974,154.17116964306896,-622.208670725749,-542.0456418166004,192.51137617652788,847.0225082951587
226,1.2797122402396122,-190.37681285219853,1.596683533231877,140.11547722059262,-617.4732900638031,-531.2509369176495,190.6275963050892,832.9859634486705
227,2.6501627824489034,-188.7275159462267,2.5678853879277987,124.55763611751647,-611.5638941650407,-519.6396161144731,189.05828000235215,817.3445441869366
228,4.11195397060157,-187.37496340207028,3.57322851043842,107.68642293998847,-604.4975416630609,-507.2306079218792,187.80362943345855,800.2175126011533
229,5.6487426083158745,-186.31320587389894,4.618759646550142,89.71584594451699,-596.3008244563728,-494.0375083739872,186.85744258194197,781.7414921854826
230,7.242118185343389,-185.5306662962406,5.70917489562964,70.88025295838094,-587.0106797773043,-480.0679499104034,186.20780881676288,762.0691296867057
231,8.871802616560407,-185.01101884334295,6.847864390604204,51.42938157008704,-576.6750324309099,-465.32319045144965,185.837973851395,741.3674863426075
232,10.515882192409816,-184.73419148800843,8.036990740259432,31.62353222461162,-565.3532693361773,-449.7979546946644,185.72732790145656,719.8161904546652
233,12.151076705850873,-184.67744298605962,9.277591964194656,11.729023733275064,-553.1165546702778,-433.48055572865366,185.8524681773008,697.6053861065313
234,13.753051003297879,-184.81646594892644,10.56969540617655,-7.985952541488003,-540.0479976990791,-416.3533274428761,186.1882876193038,674.9335196659399
235,15.296773099089434,-185.1264712748333,11.912426324095435,-27.25502571001739,-526.2426822854586,-398.3934016851109,186.70904533333845,652.0050111975651
236,16.7569206649667,-185.58321449880066,13.304095288124527,-45.81690204258742,-511.8075558330261,-379.5738636357074,187.38937951386217,629.0278577266284
237,18.108334579605454,-186.1639305143645,14.742252585257145,-63.418266087516606,-496.86116003134026,-359.8653123337149,188.20522974249917,606.2112092177089
238,19.326514849924916,-186.84814902976538,16.223704212358623,-79.81645187630346,-481.53317295917935,-339.23784116329665,189.1346417943682,583.7629495448208
239,20.388151043113087,-187.61836898227557,17.744490741299206,-94.78202868104523,-465.9637269979317,-317.6634365009647,190.15843426535704,561.8873076009146
240,21.271676562900304,-188.4605760141244,19.29983598487935,-108.10143926268995,-450.30247056777966,-295.1187721527266,191.26071239233974,540.7825197959402
241,21.95783359590656,-189.36459281004318,20.884076751937158,-119.5798019100474,-434.70735127134424,-271.58835263205486,192.4292201559856,520.6385633659809
242,22.430233256750157,-190.3242571855222,22.490588523939596,-129.04394664998182,-419.3431098507555,-247.0679298060786,193.65552677907232,501.6349776328876
243,22.675893548641447,-191.33742723037938,24.111724891898287,-136.3457051224294,-404.3794861200373,-221.56808603741675,194.9350480650474,483.93878618790643
244,22.685736750451046,-192.40581722183254,25.738790567624232,-141.3654161872773,-389.98914991129715,-195.11784578911565,196.26690734099623,467.70252814483
245,22.45502825364875,-193.5346733142102,27.36206763331063,-144.0155501101276,-376.34538362975286,-167.76815204262027,197.65364592219325,453.0624042993085
246,21.9837406631015,-194.7323044179589,28.970911543258303,-144.24430057032848,-363.6195585812126,-139.59502930497115,199.10079916184657,440.13654673672517
247,21.276829485167774,-196.0094905191861,30.553927378884485,-142.03895450842086,-351.978462145849,-110.70225407293196,200.61636055275784,429.0234277100579
248,20.344409264908613,-197.37879685719523,32.099229142439164,-137.4288315797437,-341.58154267166867,-81.22336493860475,202.21016189926874,419.80043267258725
249,19.20182141371671,-198.85382693630265,33.59477693121443,-130.48758910095717,-332.578140809808,-51.32286450851711,203.8932014088016,412.522630767825
250,17.86958737223252,-200.44844983275678,35.028779794170966,-121.33471084977784,-325.10477081716834,-21.196491083864096,205.67695329310905,407.22178330496473
251,16.37324331796895,-202.17603764010354,36.390146506044026,-110.13603184086423,-319.2825066810028,8.929531698351003,207.57269217001405,403.9056370329243
252,14.743055326703416,-204.04874737432397,37.66896248356659,-97.10318912767968,-315.2145193295935,38.800325007449494,209.59086345419132,402.5575537180267
253,13.013616668845152,-206.07687845556129,38.85696844617781,-82.49192569642487,-312.98380461499954,68.1352855602073,211.74052726330376,403.13652897251995
254,11.223331756751906,-208.2683322163187,39.94801503723972,-66.59920836504827,-312.6511376947155,96.63209911200177,214.0288983902355,405.5776500471501
255,9.413794173739676,-210.62819408378667,40.93846738201079,-49.75915147529996,-314.2532878031064,123.9717793757952,216.46099895065836,409.7930341232326
256,7.629069172279294,-213.1584525884834,41.82753429278722,-32.33776779438269,-317.80152780511906,149.82463549192502,219.03943382976433,415.6732762041405
257,5.914893938471045,-215.85786258481838,42.617498353840276,-14.726598607241026,-323.28047448282416,173.8570324589741,221.76429241441613,423.089419808668
258,4.31781172311832,-218.7219533963932,43.31382552646727,2.6646919976685908,-330.64729671734733,195.7387724545328,224.63317371090685,431.89544458301475
259,2.884258547245725,-221.74317638142838,43.925136574183405,19.416638237137754,-339.8313277830816,215.1508925140873,227.6413262760775,441.93124247664764
260,1.6596233268172507,-224.91118091834375,44.46302774085807,35.10905277466769,-350.73411339377714,231.79364756974746,230.78188975444868,453.0260283248183
261,0.6873035357986171,-228.21320304633053,44.94173455937136,49.330675922695896,-363.2299183861833,245.39442924458567,234.0462211899525,465.00210272518046
262,0.007778710512748003,-231.6345467408696,45.37764006920172,61.68917553157108,-377.16670250238053,255.7153614537469,237.42428637975615,477.67885752931903
263,-0.3422767549575981,-235.15913385714748,45.78863671913862,71.82125820032515,-392.36756080085524,262.56031450777607,240.90509409433224,490.8768903596827
264,-0.33082177873834817,-238.7700952412373,46.193359349354736,79.40263999920785,-408.63260813982646,265.7810902013998,244.47714900036635,504.4220773344621
265,0.068799650966262,-242.45037296256075,46.610314148860745,84.1576202259048,-425.741271325086,265.2825510946281,248.12889796426919,518.1494447186147
266,0.8771977361769087,-246.183302910526,47.05693468780909,85.86800118570848,-443.45493841385934,261.02649737124835,251.84914472927989,531.9066813640397
267,2.1083789211858357,-249.9531486425763,47.548601047161256,84.38109510938479,-461.519903932419,253.03413344429998,255.62741024256667,545.5571442813874
268,3.7692999325015135,-253.74556097710624,48.09766244483555,79.61655333040956,-479.67054283910954,241.38701236515357,259.4542199487438,558.9822285939729
269,5.859540833839205,-257.5479421610702,48.71250795579481,71.57174764426027,-497.6326458006782,226.2263966827713,263.32130407418,572.0829995868846
270,8.37110232890334,-261.34969719319037,49.39673294263473,60.32544131051273,-515.126853677649,207.75102675009373,267.2217008595292,584.7810182067307
271,11.28833096677245,-265.14235744187863,50.14844870320074,46.03951901751277,-531.8721388977751,186.21333911870403,271.1497549495425,597.0183319854455
272,14.587974338435947,-268.919563450578,50.95977809290224,28.958604648101918,-547.5892935751135,161.91422751983637,275.1010039322646,608.7566495604559
273,18.23936663951353,-272.6768959466936,51.81657039952616,9.407475901412178,-562.0043963620277,135.19648727302928,279.0719465862275,619.9757648645768
274,22.20474308116203,-276.41154802759564,52.69835594551917,-12.213727592934271,-574.8522401245332,106.43713132458375,283.0596884326734,630.6713406961912
275,26.439679570536747,-280.12183839637436,53.57854711048999,-35.43642465775599,-585.8797096603632,76.03881175415837,287.0614650392143,640.8521947708628
276,30.893651669921056,-283.8065755781791,54.424880051736714,-59.73249693269705,-594.8491025319739,44.420621598690914,291.07405158187373,650.5372504389268
277,35.510703718800876,-287.46429546391363,55.20008185418334,-84.52498236881567,-601.5413860144863,12.00858374427663,295.093077777839,659.7523174085519
278,40.23021521182958,-291.0924077306077,55.86274146958021,-109.20032402224246,-605.7593780722741,-20.773847919063122,299.11227898127584,668.5268557091218
279,44.98774810628164,-294.68629875189094,56.36835886170411,-133.12190633317405,-607.3308301541043,-53.514947550844965,303.1227251495207,676.8908520815523
280,49.715957312113474,-298.2384477708478,56.670543925957304,-155.64457919974458,-606.1113767817515,-85.82322342792273,307.11207783333344,684.8719080592709
281,54.34554810493387,-301.7376182177829,56.72233372540299,-176.1298424124917,-601.9873051119779,-117.33498785510048,311.0639301758852,692.4926103814425
282,58.8062680020133,-305.1681867345256,56.47759274001181,-193.9613432896809,-594.8780894834667,-147.72075154813157,314.95728564769325,699.7682325493045
283,63.02792523790076,-308.5096688966292,55.89245638644857,-208.56033044690545,-584.7386315738511,-176.69025800713422,318.7662279683894,706.7048033112331
284,66.94142999453437,-311.73649330799634,54.92677395529279,-219.4007052176026,-571.5611445251183,-203.9960358635386,322.4598278312237,713.2975723731962
285,70.47985717947103,-314.8180653335975,53.54550449377804,-226.02331642351112,-555.3766171923355,-229.4354132002064,326.00232234769135,719.5299025353156
286,73.57953043442009,-317.7191488749798,51.72001895978325,-228.04915109042102,-536.2557910694994,-252.8510035020592,329.35359127725866,725.3726171315781
287,76.18112605469418,-320.4005797748718,49.429264684697124,-225.19108098795803,-514.3095769502008,-274.12973499907224,332.46994065083305,730.7838289193268
288,78.23079255009793,-322.8203079345605,46.66075395332639,-217.26383114457016,-489.6888316386059,-293.2005517006973,335.30518962724653,735.7092694753551
289,79.68127653077744,-324.93474701192196,43.41134707735684,-204.19184166698474,-462.58340891857495,-310.0309645831168,337.8120402202442,740.0831264235919
290,80.49303824747089,-326.7003904597139,39.68781060962215,-186.0146993714197,-433.220396302548,-324.6226742992982,339.943691397508,743.8293800612414
291,80.63533072983594,-328.07563101910114,35.507141079289774,-162.88982370599015,-401.8614530363288,-337.0065192211205,341.6556387999025,746.8636116557716
292,80.08720648064052,-329.02269927791923,30.89665120887396,-135.09210924838368,-368.79917901627454,-347.23701860150373,342.90758021571384,749.0952345011833
293,78.83840749885103,-329.50961851614545,25.89381770982661,-103.01026748893928,-334.3524722916422,-355.3867747192436,343.66532805176973,750.4300811870868
294,76.89009022336846,-329.5120610935726,20.54588841398429,-67.13968806213482,-298.86087663922746,-361.54096954660923,343.9026172483253,750.7732747920595
295,74.25533774876942,-329.01498858302017,14.90924417586324,-28.071762077480628,-262.6779786278142,-365.7921464546461,343.6026934635476,750.0323234495294
296,70.95941696312146,-328.0139648795633,9.048510324280356,13.520225812354699,-226.16398010853726,-368.2354151998335,342.7595733033133,748.1204044112782
297,67.03974707202286,-326.51604837472826,3.0354154144725327,56.898338783853454,-189.67763959418704,-368.9641686671767,341.3788855928093,744.9598341745635
298,62.54555739732773,-324.54019434455273,-3.0525974830358784,101.2798673241365,-153.56783705442797,-368.06636015759926,339.4782284234369,740.4857395522506
299,57.5372257724951,-322.1171293009648,-9.13399016345872,145.85917048614758,-118.16506518974303,-365.6213647340844,337.0870081608662,734.649936132713
300,52.085303551690195,-319.2886921799142,-15.124948538811786,189.83065871116932,-83.77318175387653,-361.69743827816694,334.24576048629405,727.4249785021317
301,46.2692477402106,-316.10666990830674,-20.941356638148907,232.41200640723272,-50.66176841870071,-356.3497914605998,331.00498643126,718.8082764495019
302,40.17589297924719,-312.6311842177852,-26.500867426965396,272.8666512794231,-19.059429233873843,-349.61930814695353,327.42356487663517,708.8260908682319
303,33.897704480018355,-308.9287100703059,-31.725002296301334,310.52466825349586,10.851674834928234,-341.53195197549564,323.5668243912439,697.5371554725692
304,27.530857507271648,-305.06982224354175,-36.54120393127891,344.80119482845316,38.93981662807435,-332.09891313035797,319.50437030340584,685.0356350992743
305,21.17319132230113,-301.12677528648646,-40.88476363680178,375.21172277488404,65.12605279226914,-321.31754310557386,315.3077679142652,671.4531370341864
306,14.922087644481827,-297.1710239442604,-44.700544816434856,401.3837442348479,89.38484690214605,-309.17310515144885,311.0481812702826,656.9595356498861
307,8.872326586583677,-293.2707874289201,-47.944430021808934,423.0644307712758,111.74296017686879,-295.64133244371385,306.79406074018027,641.7624414009023
308,3.1139760656223507,-289.48875285267013,-50.584430153438525,440.12421317087353,132.27668194140242,-280.6917380796298,302.6089634854655,626.1052279991262
309,-2.269627394617655,-285.8800020685318,-52.60141036017677,452.5563020566362,151.10754448876833,-264.29156605623564,298.5495802124665,610.2636125267218
310,-7.203748721263564,-282.4902334207451,-53.98940641454318,460.47233493790253,168.39673154360216,-246.41021700992212,294.6640304910474,594.5408530139299
311,-11.623920020648246,-279.35433664426165,-54.75552585271842,464.0944518058639,184.3384417343132,-227.02393380367255,290.990478157708,579.2616832731926
312,-15.477351765962428,-276.4953660255683,-54.91944801136595,463.74419194971176,199.15250344617644,-206.12049665402867,287.55610806182113,564.765147283768
313,-18.724046632254737,-273.92394396787176,-54.51255471454137,459.82867467008276,213.07655160777787,-183.70366048794733,284.3764952869764,551.3965294575526
314,-21.337582725609924,-271.63811389446556,-53.57673777914475,452.8245805136522,226.3580694271012,-159.79707138535596,281.4553873403307,539.4986067744335
315,-23.305543970582537,-269.62364754363193,-52.162940169144555,443.2604899978662,239.24657097606263,-134.44742432778494,278.7849080692783,529.4024761712697
316,-24.62958704316355,-267.85479696719466,-50.329494212158615,431.69816427123527,251.9861589546465,-107.7266684116356,276.3461789280518,521.4182354300374
317,-25.325145845876435,-266.2954660864337,-48.14032275197135,418.7133667167857,264.80864311796546,-79.7331235282239,274.1103387716828,515.8258160272895
318,-25.42078578518284,-264.90076095154166,-45.663067865370095,404.87682605187365,277.92735599551014,-50.59143844420384,272.03992813863357,512.8662789376674
319,-24.957230802113862,-263.61886270138444,-42.96720771102645,390.73592988283286,291.53175910861717,-20.45138814476139,270.09058894319753,512.733885972251
320,-23.986095979640783,-262.3931537796466,-40.122216336861264,376.79771216504366,305.78289762158164,10.514427391036131,268.2130169092099,515.569246763369
321,-22.568367359781277,-261.1645174186932,-37.195814770510864,363.5136568131325,320.80973455212927,42.113864665660756,266.35509318765486,521.4538125076112
322,-20.77267811208676,-259.87372336244243,-34.25235480439708,351.26678117408,336.70637607027936,74.13933504587915,264.4641140206954,530.4059414292182
323,-18.673436087092764,-258.46380902331686,-31.351369613946794,340.36138801443093,353.5301850540164,106.3725238584896,262.4890327805714,542.3787001079805
324,-16.348861611022876,-256.88236420286603,-28.54631807327722,331.01578706759096,371.30076887995074,138.5895126440962,260.3826266863024,557.2594946078942
325,-13.878995621340302,-255.08362916973346,-25.883543102946565,323.3581918658547,389.99981781362357,170.56607576851093,258.1035010751085,574.8715518966189
326,-11.34373655086866,-253.03032116443848,-23.40145918730411,317.42589682185326,409.57176171300665,202.08292082465854,255.61784825801425,594.9772007716012
327,-8.820959804057356,-250.6951143614733,-21.12998026929662,313.16773221322495,429.925205606173,232.93065052514652,252.9008868738508,617.282836876952
328,-6.384766821618966,-248.06171330141086,-19.090195853319518,310.4496789452871,450.9351000660332,262.91424272167575,249.93792165226145,641.4454018338372
329,-4.103902520943493,-245.12547911212758,-17.294299317404146,309.06340155363733,472.445600145802,291.85687392425643,246.72498192079044,667.0801631015889
330,-2.0403712967864536,-241.8935900097346,-15.745767247873543,308.7373324119178,494.27356470595936,319.60294741681224,243.26901858607778,693.7695466045107
331,-0.24827358479644004,-238.38474071704445,-14.439781561137272,309.14982259468826,516.212642607352,346.0202262284899,239.58766179809732,721.0727443759107
332,1.2271223286669137,-234.62840759747814,-13.363877415630679,309.94377797778833,538.0378809808658,371.0010112881963,235.70856311251654,748.5357928750874
333,2.35006506015681,-230.66372580839385,-12.498790254180308,310.74213513923456,559.5107741810792,394.4623451202849,231.66836503288496,775.7017976431262
334,3.094759158154636,-226.53804039466243,-11.819465930472875,311.1635090708646,580.3846531460231,416.34526118231975,227.51135609193747,802.1209734763327
335,3.445561485504601,-222.30520417195413,-11.296190018110202,310.83736669484176,600.4102971092495,436.6131377479201,223.28788030469406,827.3601824684399
336,3.3969426816966197,-218.02370124959955,-10.895787323373195,309.4181436182911,619.3416350406591,455.2492516894991,219.05257566694485,851.0116869049621
337,2.953225168895948,-213.75467648486185,-10.582841311665744,306.59781771669606,636.9413935623534,472.2536597331362,214.8625178094041,872.7008864690789
338,2.128112063182052,-209.55994876312818,-10.320885885891677,302.11656945829975,652.9865418116995,487.6395608736814,210.77534276090174,892.0928721862396
339,0.9440238152805183,-205.50008047612783,-10.073528169211672,295.7712820752339,667.2733829396653,501.429312203284,206.84741781310342,908.8976951021085
340,-0.5687380991589688,-201.6325675406838,-9.805469593986038,287.4217535240308,679.622148511898,513.6502806267873,203.13212232466694,922.8743099867035
341,-2.372978355817256,-198.0102044240251,-9.483402411359288,276.9945984359606,689.8809675335117,524.330714763332,199.67829148286125,933.8332099749535
342,-4.425720685904539,-194.67966768119626,-9.076768366490542,264.48490635327624,697.9291059254663,533.4958152346276,196.52886609558266,941.6378148428556
343,-6.679418105357899,-191.68035019748118,-8.558374684891279,249.95578971572408,703.6794024061702,541.1641679631406,193.71978094330694,946.2047115759099
344,-9.08322887407597,-189.04346712756487,-7.904869301247619,233.5360019269611,707.0798583667931,547.3446842162441,191.27911345220375,947.50286912644
345,-11.584324044370593,-186.79144352727394,-7.097082457228087,215.41583546836839,708.1143679645406,552.0341635285182,189.226503569359,945.5519589991694
346,-14.129191228626667,-184.93758299668866,-6.120245325222762,195.84152584837472,706.8025980964578,555.2155635961548,187.5728449053701,940.4199112653482
347,-16.664899704577333,-183.48600703008367,-4.964098180196001,175.10839193171324,703.1990472453839,556.8570289767091,186.320237277396,932.219826527826
348,-19.140294113561737,-182.4318474738271,-3.622901406373081,153.5529392744851,697.391330637992,556.9117023274076,185.46218312294997,921.1063544837897
349,-21.507087429484695,-181.76167047856896,-2.0953631111913955,131.54414242286154,689.4977596964965,555.3183200279311,184.98400592524706,907.2716437210497
350,-23.720828253728158,-181.45410939718886,-0.3844974275828673,109.47410571777155,679.66430684777,552.002577132649,184.86346768335028,890.9409658532328
351,-25.741722564774644,-181.48068472416043,1.5025732354536214,87.74828124815654,668.0610694417627,546.8792315372574,185.07156313199417,872.3681166960437
352,-27.535295437688017,-181.80678935730907,3.5548616662742605,66.77540189082575,654.8783639687283,539.8549011773287,185.57346884134887,851.8306933585509
353,-29.07288351193558,-182.3928159216766,5.757799352121956,46.95727606809115,640.3225901866948,530.8314895754103,186.32962418367222,829.625336414723
354,-30.331954080705458,-183.19539975979407,8.093558745742007,28.678597703321497,624.6120036638495,519.7101538388563,187.29691851326632,806.0630114211373
355,-31.296252142561656,-184.1687473918862,10.54141541171893,12.296950527649997,607.9725269967461,506.395706096147,188.42995574038105,781.46438641936
356,-31.955783057277586,-185.26601666590906,13.078151150541387,-1.8667789316392345,590.6337178214792,490.8013172900066,189.6823647507308,756.1553445764999
357,-32.306645016763774,-186.44071203286413,15.67849782554545,-13.537333633751713,572.8249979394695,472.85337631080444,191.00812229303048,730.4626567188147
358,-32.35073100987743,-187.64805674221574,18.31561993492218,-22.49309829744153,554.7722329851845,452.49635201340635,192.36285404302197,704.7098294445739
359,-32.09532341087333,-188.84630342848962,20.961632144134693,-28.57292344959434,536.6947351380438,429.69751124804316,193.7050794804095,679.2131410714999
360,-31.55260575896745,-189.99794559620943,23.58814581991132,-31.681508748593764,518.8027409913548,404.45135970313765,194.99736703168762,654.2778786009837
361,-30.73911601464478,-191.07079477044982,26.166836410918215,-31.793129698709663,501.2953924976343,376.78369005017515,196.2073676406496,630.1947929109612
362,-29.675163924555456,-192.03889124191872,28.670022045349217,-28.953548384260657,484.3592228625097,346.7551393952674,197.3086973644946,607.2367956396175
363,-28.38423277879468,-192.88322018264495,31.07124326646303,-23.280018815773936,468.1671251127324,314.4641713595864,198.28164268357875,585.6559283821624
364,-26.89238348418137,-193.5922097200811,33.345833961945445,-14.959371717603293,452.8777622579373,280.0494053643179,199.11366630012412,565.6806413946488
365,-25.22767654362749,-194.1619939616378,35.471473687957484,-4.2442347897264145,438.63536560411296,243.69121895473995,199.79969687579427,547.5134242805093
366,-23.41962478076625,-194.59643218510058,37.428711696774556,8.552491001027787,425.56986042898575,205.6125526762943,200.3421936090733,531.3288349068317
367,-21.498686359171298,-194.90688483603225,39.20145335807218,23.064722410865798,413.7972535202287,166.0788541436554,200.75098520508408,517.2719740205051
368,-19.49580439361158,-195.11175661158342,40.77740026344575,38.881629721151654,403.4202135001973,125.3971085101442,201.042891707857,505.4574498179698
369,-17.44199706386312,-195.23582607033998,42.148435511422655,55.557161579185596,394.5287724313981,83.91391508590195,201.24114614243416,495.96886788829244
370,-15.368000935284746,-195.30938949215246,43.31094499038801,72.62038271358473,387.2010767500504,42.01258350451212,201.37464050592203,488.8588680354982
371,-13.303969652105636,-195.36725359037956,44.26606412036856,89.58633895164589,381.5041175324854,0.1092376550938812,201.4770268230626,484.1497119120365
372,-11.27922942038621,-195.44761641777455,45.01983813253873,105.96716286050314,377.49437390137444,-41.35206798278175,201.58570806023218,481.8344052717843
373,-9.322091212590292,-195.5908778827861,45.58328302614639,121.28313900720627,375.2183081865139,-81.90519606657854,201.74075520355726,481.8783169966392
374,-7.459717419824274,-195.8384207859668,45.972334052625044,135.07345993814263,374.7126573631347,-121.06869176603985,201.9837858983392,484.2212357600007
375,-5.718038009602149,-196.23140084876408,46.207669253661024,146.90642208961447,376.0044736215339,-158.35339121330045,202.35683749084347,488.7797869561967
376,-4.121708477383922,-196.80958068653874,46.314397687978534,156.38883386486953,379.1108791436885,-193.27076540947223,202.9012641020782,495.45011957190286
377,-2.694099531602652,-197.6102387316279,46.3216057199982,163.17443485743755,384.0385164633494,-225.34185662755698,203.65668421933725,504.11076573967847
378,-1.4573070382056155,-198.66718003554325,46.26175983919832,166.97115504392585,390.78269465177164,-254.10663036623342,204.660002447259,514.6255741969125
379,-0.43217047857768104,-200.0098716736194,46.16997037740195,167.54707555150824,399.32625070473046,-279.13353625746004,205.94452636823,526.8466217698455
380,0.361711086734879,-201.66272104524307,46.08312652544549,164.7349879300278,409.63816315356814,-300.02904754449435,207.5391966276774,540.617013641874
381,0.9059751481051659,-203.644510650686,46.038918485733184,158.43548550961148,421.6719704444704,-316.4469314540245,209.4679450930634,555.7734932651667
382,1.1835119573316353,-205.96799794549702,46.07476684797668,148.61855636618716,435.3640601145657,-328.09699255498055,211.74919205815425,572.1487960605864
383,1.1785073520264229,-208.6396837595148,46.22668225325258,135.32368036361393,450.6319063716598,-334.7530288134974,214.39548906765035,589.5736969975495
384,0.876517469153296,-211.65974780689118,46.5280805867057,118.65846102186512,467.37234311840905,-336.2597462728962,217.4133094327897,607.8787199978076
385,0.2645794237331676,-215.02214532740598,47.00858098908589,98.79584633615924,485.459966090022,-332.5383934450304,220.80298440266898,626.8954959742686
386,-0.6686391307855244,-218.71485507637183,47.69281632701297,75.97001266964773,504.7457607395206,-323.5909003392129,224.55877955387257,646.4577752488372
387,-1.932649750574018,-222.72026576688035,48.59928842459804,50.47100526331117,525.0560511863428,-309.5023389361057,228.6691033170831,666.4021182200673
388,-3.53491170377922,-227.0156856219316,49.73930320778854,22.638250617146895,546.1918599377592,-290.4415611722625,233.1168376089286,686.5683047603201
389,-5.480560441782259,-231.5739577294732,51.116023977609395,-7.146918232808199,567.928758765077,-266.6599166226238,237.87977912384628,706.7995171984037
390,-7.772099784625044,-236.36416206004554,52.72368424812109,-38.46955234306078,590.0172787339975,-238.48800460834042,242.93117863466614,726.9423628669637
391,-10.409064864172493,-241.35238290899764,54.547004182161544,-70.8899885394951,612.1839323675706,-206.33047384306295,248.24036411867223,746.8468086599715
392,-13.38766671226545,-246.50251782882972,56.56085505681305,-103.95312270879889,634.1328836953295,-170.65894602168134,253.77343102561517,766.366100419068
393,-16.70043322967144,-251.77710067445335,58.73021283918586,-137.1977846573752,655.5482834193118,-132.00320635656135,259.493979099617,785.3567333437361
394,-20.335864201029402,-257.1381074944036,61.01043416754028,-170.1659244174483,676.0972677755422,-90.94087147264604,265.36387006481607,803.678526002854
395,-24.278119002986113,-262.5477105472233,63.34787600179992,-202.41131654363346,695.4336016133159,-48.0858098024005,271.3439751571863,821.1948309724452
396,-28.506754074270926,-267.96894395973555,65.68086456364617,-233.50750634124395,713.2019289011516,-4.0756474116614525,277.39487734118336,837.7728919783648
397,-32.996523300515896,-273.36624576252035,67.94100094319654,-263.0547613581847,729.0425776050286,40.44126163840502,283.47749153078576,853.2843345557623
398,-37.71724935465104,-278.70584626180533,70.05477153008133,-290.6858513038201,742.5968517344421,84.81899136936407,289.5535684306032,867.6057595331365
399,-42.6337693471535,-283.95598230465197,71.9454133942924,-316.07055511193465,753.5127326023761,128.42690765688647,295.58605432253796,880.6194002311341
400,-47.70595518031569,-289.0869303294389,73.53497004224319,-338.9188772669411,761.4509041929578,170.66183371350286,301.5392899202859,892.213806431159
401,-52.8888082386188,-294.0708666202755,74.74646304545675,-358.9830370739072,766.0910123786297,210.95914638049402,307.37904509360385,902.284528790339
402,-58.13262931420149,-298.88157897435485,75.50610030603653,-376.05836520725364,767.1380620919655,248.80248699061931,313.07240120158843,910.7347925078985
403,-63.383267572455736,-303.4940682782346,75.74544183193086,-389.98329541008246,764.3288488669816,283.73184018861684,318.5875074071519,917.476165385345
404,-68.58245630653678,-307.88408994650314,75.40344813774375,-400.63867294486073,757.4383116026193,315.3498130864554,323.8932503831739,922.4292413877712
405,-73.66824721290541,-312.0276929023315,74.4283438817722,-407.94661484677357,746.2856830191048,343.3260296135902,328.9588871653167,925.5243754082978
406,-78.57555777208124,-315.90081714558994,72.77923906721209,-411.86915004770685,730.7403037454018,367.3996351747618,333.7536975425702,926.7025161624589
407,-83.23684720104107,-319.47900958306275,70.42746108496213,-412.40683975612563,710.7269554025308,387.37997963017085,338.24671451638847,925.9161890498094
408,-87.58293508252873,-322.7373116483668,67.35756242054008,-409.5975311565138,686.2305576502789,403.14560832315175,342.4065886898626,923.1306770738424
409,-91.54397328354911,-325.6503615712486,63.56798080184567,-403.5153343182886,657.300064730195,414.64173936559797,346.20163511155596,918.3254349737276
410,-95.05057625545514,-328.19273934870574,59.07134098445001,-394.26983924204376,624.0513898115925,421.8764402572764,349.6000994085855,911.4957506119677
411,-98.03510716031084,-330.3395639633673,53.89440019278125,-382.005513520205,586.6691817049103,424.91573836831986,352.57066427484494,902.6546395916308
412,-100.43310758513017,-332.0673307573511,48.077651780943576,-366.90114598412976,545.4072790170843,423.87790735714185,355.0831977852893,891.8349240644109
413,-102.18484776651242,-333.354952968421,41.67461234548405,-349.16913192408794,500.5876716102255,418.9271637804519,357.10972206651604,879.091403686493
414,-103.236963707153,-334.1849467706103,34.750824321901845,-329.05433711495914,452.59780846305006,410.266984299676,358.62555579560626,864.5029763985275
415,-103.54413825562195,-334.5446763077255,27.382607922681025,-306.83224178759133,401.8861072816922,398.1332167744286,359.6105593337031,848.174515958146
416,-103.07077477948927,-334.4275577870799,19.655593904986624,-282.8060659578866,348.95555138786506,382.7871156035725,360.0503907144678,830.2382765794106
417,-101.7926034749277,-333.8341134197258,11.66306459609281,-257.30262580309466,294.3553140432003,364.50839344394404,359.93766805291386,810.8545908694116
418,-99.6981516219341,-332.7727693088203,3.5041278340454936,-230.66677011645385,238.6704388795969,343.58835815524907,359.2729320386671,790.2116684557197
419,-96.79000221978296,-331.26030687042635,-4.718250991749909,-203.2543884975607,182.5097291053177,320.3232023572875,358.06531228990224,768.5243888055895
420,-93.08576359701276,-329.3219038880994,-12.899329354838397,-175.42415233795123,126.49214673047737,295.00753490219773,356.33282317913074,746.0320961071781
421,-88.6186781064448,-326.99073623988284,-20.93474370418707,-147.52832412714827,71.23217356359851,267.9282843643439,354.102246307009,722.9955173348143
422,-83.43781075950584,-324.3071506177352,-28.72269519662727,-119.90312549778143,17.324710306975682,239.35915416589668,351.4085940872474,699.6930029823818
423,-77.60777600918875,-321.31745696471904,-36.16610883372469,-92.85926368693129,-34.66983511988007,209.55585288584953,348.29418616767066,676.4163082563459
424,-71.20797947618708,-318.07242138265207,-43.17470054089668,-66.67325569148015,-84.23960580419347,178.7523459198222,344.80740149125245,653.4660894720171
425,-64.33136951522032,-314.6255612667214,-49.666880670687696,-41.58014427454739,-130.9338821437304,147.1583626790551,341.00118907300634,631.1472146778852
426,-57.08271206531318,-311.0313517392722,-55.57142170935231,-17.768071817719004,-174.37366848416417,114.958340480752,336.9314284225549,609.7639226417832
427,-49.57642299749328,-307.3434463125752,-60.82882374150356,4.625011505293381,-214.2598712268359,82.31189554338884,332.6552275039817,589.6148404412298
428,-41.93401501801325,-303.61299838724767,-65.39232341402001,25.512442632301767,-250.37879383234593,49.35579540315512,328.22923572293536,570.9878884137097
429,-34.281238412830646,-299.8871487824909,-69.22850990101611,44.85787791358354,-282.60481649479556,16.207282257873768,323.7080356351792,554.1551434458568
430,-26.745013198541933,-296.2077229300426,-72.31753331769802,62.67254372078358,-310.90027311669706,-17.031520926213084,319.14266318555633,539.3677769968584
431,-19.45026242314604,-292.6101632100568,-74.65291513769438,79.01106556571175,-335.31267774388,-50.268487221218294,314.5792946231177,526.8512205839799
432,-12.516761600557077,-289.122709150908,-76.24099382375852,93.96624934132633,-355.96957593436605,-83.41607771260885,310.0581300671834,516.80073366576
433,-6.056117461726997,-285.7658312184909,-77.10005915765528,107.66315133102212,-373.0713922005742,-116.38610776483493,305.612499031582,509.3775545414053
434,-0.16898085812043354,-282.55192142066954,-77.25924283863549,120.25270820578247,-386.8827041164176,-149.0851284897984,301.2682107411332,504.7058023692923
435,5.05741492331335,-279.48524357036166,-76.75723882953918,131.90512547390475,-397.7223936063074,-181.41080108091955,297.0431696954365,502.87026779838436
436,9.55131591762776,-276.5621452661269,-75.640924333013,142.80315888039712,-405.95310913852813,-213.2495399558495,292.9472726876488,503.9151837976796
437,13.258052624553416,-273.7715306260622,-73.96394274493832,153.13537803523707,-411.9704274997888,-244.47557305979058,288.98259625106476,507.8440117443914
438,16.141149621968903,-271.0955866535882,-71.78529627767675,163.0894793728399,-416.19204287350766,-274.9514307033317,285.1438731358806,514.6202161726944
439,18.182918451634237,-268.51074681837525,-69.16798121331317,172.84571561404505,-419.04724706880535,-304.5297452108098,281.41924357493116,524.1689409643866
440,19.384530601326006,-265.98886386933316,-66.17768543380748,182.5705257363239,-420.96690758441486,-333.05613745750304,277.7912531095918,536.3794469036005
441,19.765585582313655,-263.49855163386474,-62.88155747357209,192.4104740499134,-422.3741033051121,-360.3728936780165,274.23805530275774,551.1081314798386
442,19.36320645820997,-261.0066444649513,-59.34704912482826,202.48662954605632,-423.6755391701498,-386.32310183774365,270.7347663207276,568.1819307966009
443,18.230710255503084,-258.4797147910692,-55.640829037262904,212.88953038005124,-425.25382751497335,-410.7549207877297,267.2549102706394,587.401902631776
444,16.4359121799321,-255.88558513937127,-51.8277622671659,223.6748818400408,-427.46069309170707,-433.52569159951463,263.77189012123233,608.5468093934123
445,14.059129842830483,-253.19477159544783,-47.9699503359119,234.86013316361678,-430.6111315626208,-454.5056592118528,260.26041946491296,631.3765576013305
446,11.190956813919325,-250.3818007456092,-44.12582829654004,246.42207440787885,-434.9785290252539,-473.58114210316614,256.69785526494627,655.6354010338677
447,7.929874342042687,-247.42635087609915,-40.349319638295945,258.29559170404093,-440.7907339336549,-490.6570563429797,253.0653804219554,681.0548694874169
448,4.379767128929135,-244.31417933205378,-36.68905614526198,270.3737146865377,-448.2270626808523,-505.6587578987339,249.3489963153115,707.3564346318128
449,0.6474050624218409,-241.0378101069565,-33.187676877904984,282.5090763943886,-457.4162148462303,-518.5332067406124,245.54029793724294,734.253960133965
450,-3.160050962435793,-237.59696764109728,-29.881226420721386,294.51687580457127,-468.4350714168611,-529.2494767891225,241.6370162544601,761.4560004243335
451,-6.937464191719192,-233.99875341294413,-26.798675667483355,306.1793822562201,-481.3083472895618,-537.7986420126276,237.64332271647956,788.668012773019
452,-10.584006214683413,-230.257570703184,-23.96158784679274,317.25195039653323,-496.00906804768266,-544.1930700326931,233.56989884737104,815.5945377806339
453,-14.005261829532028,-226.39480997140365,-21.383948511752642,327.4704293582153,-512.4598418221154,-548.4651591430608,229.43377986030652,841.9413922981013
454,-17.115110590129433,-222.43831293412094,-19.072171888170907,336.5597591921106,-530.5349005311945,-550.6655674709338,225.25798579879068,867.4179111465279
455,-19.83734657030511,-218.42163788716695,-17.025288633112734,344.24346158828394,-550.0628890818516,-550.8610042032487,221.07095729225583,891.7392700519435
456,-22.10700486556295,-214.3831521235758,-15.235312865676379,350.25366107146857,-570.8303830871477,-549.1316788884834,216.9058158669181,914.6289193364389
457,-23.871372008777954,-210.36497948886102,-13.687779906147556,354.34122483038595,-592.5861130748384,-545.5685299889307,212.79947101646698,935.8211529607617
458,-25.09066740532224,-206.41183236921432,-12.362440509692805,356.28558742074335,-615.045865316709,-540.2703712480704,208.79159805348547,955.0638278163254
459,-25.738393149624116,-202.56975819162545,-11.234092331277681,355.9038302942418,-637.8980162927719,-533.3410981207545,204.92351242995252,972.121231936093
460,-25.80135914169395,-198.88483151501492,-10.273524868146012,353.0586128199001,-660.8096393905623,-524.8870836172678,201.23696820427918,986.7770771478963
461,-25.27939856048031,-195.4018244602794,-9.448550086644454,347.6645978661494,-683.433098924003,-515.0148650041533,197.77291090810618,998.8375633314287
462,-24.18479544333284,-192.1628903674656,-8.72508705759857,339.6930786667032,-705.4130189715282,-503.8291856810178,194.57021796226314,1008.1344321388373
463,-22.541452154719906,-189.2062976407516,-8.06826524239282,329.17459388181976,-726.3934846102009,-491.4314178081536,191.66446256852694,1014.5279035848491
464,-20.383830882058763,-186.5652524626098,-7.443508455557854,316.1994138364845,-746.0253029390157,-477.9183567752687,189.0867395616864,1017.9093738071384
465,-17.755710146597274,-184.26685029788183,-6.817561350481839,300.91588858386166,-763.9731245786309,-463.3813507164436,186.86259403552543,1018.2037479541347
466,-14.708803464102841,-182.33119642422113,-6.159423582610268,283.5267573527017,-779.9222104214841,-447.9057068670968,185.01109518523052,1015.3712879845249
467,-11.301290572635128,-180.77073442861888,-5.44116351950751,264.2836147770829,-793.584632261404,-431.57030169506925,183.54409784340154,1009.4088705804943
468,-7.59631050459832,-179.58981808640377,-4.638591954929672,243.4798004660603,-804.70472382644,-414.44731568056204,182.4657316929676,1000.3505751150342
469,-3.660460740729466,-178.78455581238651,-3.7317845010684807,221.4420225888624,-813.0636457284866,-396.60201992120415,181.77215238938277,988.2675542914576
470,0.43766016147990416,-178.34294769801002,-2.705447681682884,198.5210505503681,-818.4829824489689,-378.09256150720836,181.45157955056177,973.2671770403124
471,4.628836009873527,-178.2453232295237,-1.5491282457885172,175.08182719325126,-820.827340956978,-358.96972410116575,181.48463417460675,955.4914695395727
472,8.84451864061214,-178.46507375017268,-0.2572688994609577,151.49336386830072,-820.0059638481079,-339.2766729271471,181.84497340776196,935.114911933198
473,13.017998379547103,-178.96965841414314,1.1708824258893973,128.11879132226122,-815.9734048540735,-319.0487241296767,182.50020472257546,912.3416736311489
474,17.085448089468894,-179.72184679395582,2.7314980033653056,105.30593877540065,-808.729342003605,-298.3132040784064,183.41304555393327,887.4023877579855
475,20.986835358388625,-180.68114683367799,4.416513498505471,83.37879379923754,-798.3176227057727,-277.0894822447191,184.54267963130982,860.5505735162064
476,24.666702509595858,-181.80535522786252,6.214067074464966,62.63015005656521,-784.8246435302867,-255.38926932160985,185.84624930300424,832.0588125104284
477,28.07481833143603,-183.05216014054503,8.109009176160503,43.315677979155495,-768.3771647594729,-233.21726889674358,187.28041558905562,802.2147725591574
478,31.16670832318241,-184.3807242171247,10.083457010688305,25.64956145100354,-749.1396483488219,-210.57225688284208,188.80291524788421,771.3171544471318
479,33.904071593643806,-185.75317874512666,12.117370019616784,9.801743030780349,-727.3111929060045,-187.44864022893057,190.3740464937637,739.6716189792606
480,36.255092595280516,-187.13596652324583,14.189127296572444,-4.103276111865088,-703.1221260507558,-163.8385174585557,191.95802117860686,707.5867378053111
481,38.194655245471395,-188.50098030395318,16.27609376008119,-15.986216933788663,-676.8303062495484,-139.73423003523433,193.52413012609787,675.3700033711935
482,39.704466226289384,-189.82645459467844,18.35516780353812,-25.81157895563451,-648.7171832583396,-115.13135695590694,195.04767890567553,643.3239303841768
483,40.77309362243945,-191.09758048218103,20.40330813292349,-33.58520184090995,-619.0836670411579,-90.03206722035488,196.51066295817333,611.7422817790019
484,41.395926579204705,-192.30682574276872,22.39804073621871,-39.35107167954781,-588.2458573752133,-64.44870866557585,197.90216330463363,580.9064549020003
485,41.57506124795138,-193.4539558056773,24.317948037297047,-43.18760255915458,-556.5306888139474,-38.40748084619212,199.21845699425876,551.0820676348225
486,41.31911775531424,-194.54576482344348,26.143141670259343,-45.20360363750395,-524.2715476785023,-11.952018295951849,200.4628496312102,522.5157890663414
487,40.64299207932907,-195.5955391913256,27.855718862329784,-45.534116894395005,-491.8039191844058,14.85329860206046,201.64524982327802,495.4324646597341
488,39.567545545049676,-196.6222870289528,29.440200937290793,-44.33628392788404,-459.4611234270613,41.92048482724349,202.78151598291396,470.03259071785686
489,38.11923355940623,-197.6497753671636,30.883951261656893,-41.78537065823351,-427.57019841120564,69.1357109128391,203.89261366904813,446.4901962026668
490,36.329674868443725,-198.70542176752537,32.17756870020243,-38.07104455403271,-396.44798688481274,96.35782928730251,205.00362637736202,424.95119116713863
491,34.23516357545458,-199.81908927008226,33.31525042264243,-33.39396000738982,-366.3974822245854,123.41778852554812,206.1426647975563,405.53224034069325
492,31.87612829667541,-201.02183364164745,34.295113946883,-27.962667490968453,-337.70448696467713,150.11902604109804,207.33971964995257,388.3202169269596
493,29.296545375201287,-202.34465036062596,35.11946287712827,-21.99082731184204,-310.6346337592388,176.2388930298606,208.62550158602582,373.37228257245613
494,26.54331520546172,-203.81726575764915,35.794975291888754,-15.694684191569948,-285.43080973456335,201.53112553751322,210.0303083670743,360.71662144225286
495,23.665612073522343,-205.46701232524194,36.33278992666843,-9.290745607454928,-262.31101011548014,225.7293359249412,211.582954872391,350.3538286769533
496,20.714218418756005,-207.317822673687,36.74846453491502,-2.993602072354393,-241.4666274880459,248.55146260448174,213.3097959654154,342.2589192769597
497,17.740854038736586,-209.38937032479555,37.06178364432999,2.986172918002387,-223.06116264440791,269.7050838012292,215.23386646126107,336.38388776315185
498,14.797509584090264,-211.69637887025297,37.29639899614293,8.444105009978925,-207.2293249159506,288.8934730654684,217.37415681660278,332.66071639910564
499,11.93579200381776,-214.24811426729497,37.47929427943873,13.183944370317041,-194.076476213132,305.8222498004203,219.7450378859917,331.0047033344843
500,9.20628767455098,-217.04806843660162,37.64007529898599,17.019893221812502,-183.6783644754844,320.2064569382049,222.35584320683023,331.3179634483127
501,6.657946847850591,-220.09383607556853,37.8100967120639,19.778987390632718,-176.08108903436022,331.77788036439756,225.21061283344181,333.49294495304804
502,4.337490756514694,-223.3771808813029,38.021446496416495,21.30366972653801,-171.30124233287484,340.29241141196815,228.30799879935404,337.41580457559496
503,2.2888404037535457,-226.8842823490074,38.30581892991683,21.454572581836064,-169.32617925356143,345.5372454208744,231.6413288920445,342.9694934657029
504,0.5525641397886365,-230.59615010524965,38.693315391652284,20.113501507151987,-170.11437659970994,347.3377063597486,235.19882255549766,350.0364242600884
505,-0.8346599315353617,-234.48918932186558,39.211218817635384,17.186585692557607,-173.5958603834491,345.56348962478523,238.96395018689998,358.5006154305679
506,-1.8405705685306166,-238.53589782521686,39.88279133872508,12.60753434754949,-179.67269625333986,340.1341216462772,242.91592444278547,368.2492398576445
507,-2.437841434701692,-242.7056726374663,40.72614519734476,6.340913141665205,-188.2195568234467,331.0234450597678,247.03030901706398,379.17353784870835
508,-2.604590041011816,-246.96570058583654,41.7532348295692,-1.6146683218441578,-199.0843967645992,318.2629517399543,251.2797265797606,391.169088282428
509,-2.3248725987698258,-251.281904197701,42.96901361158932,-11.223587428309758,-212.08928046269938,301.94380367171505,255.6346432546825,404.1354638161034
510,-1.5891541276369807,-255.6199103203201,44.37079253852214,-22.410603941181417,-227.03141667802376,282.2174047876538,260.06420222118317,417.975326593464
511,-0.39473708372450633,-259.94600482892923,45.94782998718786,-35.058777891254515,-243.68445950679953,259.294417001035,264.5370738173706,432.59304954617613
512,1.2538737057336222,-264.22803279429775,47.68117166975584,-49.00807465416369,-261.8001349741892,233.44215201574627,269.0222842484644,447.89297516762616
513,3.3446959770837372,-268.4362003695939,49.54374830009847,-64.05482275070042,-281.11024765474946,204.9803179395618,273.4899804707665,463.7774481197239
514,5.858112669221786,-272.54373361607315,51.5007264119992,-79.95218409786423,-301.3291115237373,174.27515606072993,277.91208630638414,480.1447788048475
515,8.766858651171571,-276.527351909646,53.51009688248846,-96.41178261763486,-322.1564333658047,141.73206674872554,282.26280592655235,496.8873094443325
516,12.036172698215196,-280.3675205827933,55.52347786443859,-113.10661374447774,-343.2806551307738,107.78689147692717,286.51893688801084,513.8897587562319
517,15.62412700887481,-284.0484593517039,57.487104986989245,-129.6753234341815,-364.38273410128807,72.89608688381588,290.65996635067177,531.0280127809921
518,19.4821355613108,-287.5578991473037,59.342981349744505,-145.72790114663042,-385.14030920448124,37.526092426674026,294.6679401502571,548.1685061065801
519,23.555632045565105,-290.88659887424546,61.03016154245169,-160.8527793377294,-405.23217288858683,2.142250315184233,298.52711344213964,565.1683002425581
520,27.78490021261153,-294.0276537828112,62.48614602096922,-174.62527560746372,-424.3429451022445,-32.80232140691844,302.2234118104065,581.8759167483915
521,32.10603496199623,-296.9756467062006,63.648363277432026,-186.61725485862587,-442.16783099540424,-66.87748093628778,305.7437510307995,598.1329264555262
522,36.452010614527,-299.7257101984148,64.45571643965597,-196.40782774995543,-458.4173366380271,-99.68602276916687,309.07527985416857,613.7762392616627
523,40.75383247835042,-302.2725793858445,64.85016796820042,-203.59483890338026,-472.8218163105233,-130.8724585337096,312.2046210846265,628.6409888754747
524,44.94174842883258,-304.6097204152638,64.778331433929,-207.80683709624827,-485.13572991091155,-160.13028349142508,315.1171903320254,642.5638694161825
525,48.94649873970467,-306.728616966957,64.19303385343537,-208.71516577606445,-495.14149865338067,-187.20746308196678,317.7966685846392,655.3867587284874
526,52.70058470593201,-308.6182876820042,63.05480674118998,-206.04577114787543,-502.652859735369,-211.90995602384905,320.2246946558788,666.9604565226784
527,56.139539039339724,-310.26509167734145,61.333259882331944,-199.59029977280105,-507.51763390034785,-234.1031809458483,322.380827862145,677.1483718459382
528,59.20318259240364,-311.6528592163149,59.00828985543425,-189.21604829766198,-509.6198320609363,-253.71142780582002,324.2428116625388,685.8300105698404
529,61.83685180602712,-312.7633617373476,56.071076512465545,-174.8743333794491,-508.88103753270417,-270.71530829295176,325.7871471620102,692.9041355492446
530,63.99257896761197,-313.5771112310576,52.524825486736546,-156.60686893114718,-505.2610092661002,-285.1474252449671,326.9899627759242,698.2914959560694
531,65.6302029954601,-314.0744544811724,48.38522304081199,-134.54977042654264,-498.75746021297607,-297.08651411270785,327.8281439187582,701.9370451636842
532,66.71838262719736,-314.23690393276286,43.68057996884454,-108.93485369906769,-489.40497606065213,-306.6503648379296,328.28066494883865,703.8115876612464
533,67.23547776889734,-314.0486252595338,38.45165211633535,-80.08796173098497,-477.27305587260383,-313.9878669019258,328.33004568859377,703.9128164529934
534,67.17026009672936,-313.4979841131254,32.75113496598493,-48.424141596385745,-462.463280073571,-319.2705323790104,327.96383845984644,702.2657265065285
535,66.52241257581385,-312.5790435916006,26.64283821758416,-14.43960822377148,-445.10564374120065,-322.683842374892,327.1760413764679,698.9224200330661
536,65.30278048456171,-311.2929018635297,20.2005537800819,21.299428274649145,-425.3541335589088,-324.41873444124417,325.9683321323308,693.9613561681648
537,63.5333440022062,-309.6487670964127,13.506637801836973,58.170834752927654,-403.38167234223585,-324.6635080262464,324.351024943848,687.4861372537794
538,61.246893904543505,-307.6646836207782,6.650335008766094,95.51312063899942,-379.3746009698221,-323.5963792273155,322.34367102681006,679.6239580926183
539,58.486406232219956,-305.36784674665233,-0.274117741249868,132.64393007907697,-353.52690730564944,-321.37887315955174,319.9752475634682,670.5238620576527
540,55.304127066988784,-302.7944706284376,-7.169562321877015,168.87976194559263,-326.03443873123524,-318.15020831803037,317.283908000924,660.3549394568919
541,51.76039263410727,-299.9892011412387,-13.9381092527879,203.55613583097693,-297.0893449026359,-314.02280356703415,314.31629430206175,649.304567873386
542,47.92222117548169,-297.00409187826676,-20.48338447491997,236.04739788687044,-266.8749893019808,-309.0790203542649,311.1264370621902,637.5767408813759
543,43.861720455993854,-293.89718475218916,-26.71276716719359,265.78539260767377,-235.56154370016745,-303.3692334567199,307.77429079648465,625.3904761022327
544,39.65435808606548,-290.7307562067523,-32.53955213762259,292.27630280562374,-203.3024420243885,-296.9112973837889,304.32396831238583,612.9782487962929
545,35.37714182030351,-287.56930497318183,-37.88497173717519,315.11506391673055,-170.2318236484512,-289.6914394051557,300.8417495290278,600.5843682040004
546,31.106755594526753,-284.47736744232424,-42.680015102486415,333.9968764872069,-136.46304538505015,-281.66656314144115,297.39394671567004,588.4631996557715
547,26.917696406792086,-281.51725231716074,-46.86698703135829,348.72546278816566,-102.0882898448911,-272.76789018235496,294.04471069835336,576.8771329460059
548,22.88045801997869,-278.7467876287032,-50.40075560710983,359.2178342134685,-67.1792467389561,-262.90580510803386,290.85386190015134,566.0942035777169
549,19.059809139834726,-276.21717082218686,-53.24964727606916,365.5054518647019,-31.78879356109985,-251.97570683950394,287.8748266857717,556.3852857641767
550,15.513215037125587,-273.97100699122296,-55.39596033942947,367.7317718544174,4.046445817873185,-239.86461186732254,285.1527539185873,548.0207931522577
551,12.289451760254222,-272.04061218579767,-56.836082152391555,366.1462699359354,40.30282877754263,-226.45820770782802,282.72287955053,541.2668455477155
552,9.427460565526038,-270.44664874208985,-57.580210850995215,361.09513958340676,76.96590529576125,-211.6480226423229,280.6091989792769,536.3808896258464
553,6.955486180410041,-269.1971482497936,-57.65169814763873,353.008956577207,114.02633091481299,-195.33836435280952,278.8234980467787,533.6068012025285
554,4.890535223311189,-268.28696535832864,-57.0860446539633,342.3877028480909,151.47570464953074,-177.4526878242816,277.3647839104455,533.1695467944929
555,3.2381804356169086,-267.69769222724926,-55.929592362953024,329.7836407152041,189.30254595130802,-157.9390821487971,276.21914641135953,535.2695399971738
556,1.9927230418119015,-267.3980489041742,-54.237969501259265,315.78261987443466,227.48860342444667,-136.77461533086455,275.3600685864634,540.076887122193
557,1.1377105009367967,-267.3447489744403,-52.074350271004086,300.9844752597692,266.00565768665797,-113.96834340645387,274.74919112616743,547.7257679703421
558,0.6467910214471803,-267.483822385773,-49.50759550976952,285.9832254134728,304.8129445192898,-89.56287119904432,274.33751961795474,558.309232661874
559,0.48487044455552664,-267.75235880464686,-46.610339637053784,271.347800825212,343.85528457886534,-63.63444079972961,274.0670455820372,571.87470645296
560,0.6095227117988848,-268.080616029823,-43.45708454304516,257.6040153450703,383.0619647043344,-36.29161267592957,273.8727333259819,588.4204770121934
561,0.9725934890606762,-268.39441995261336,-40.122353265470444,245.21844060857913,422.3463757421346,-7.672685249576013,273.684805674244,607.8933933877876
562,1.521928684293892,-268.6177666551004,-36.67894701635004,234.58475663373696,461.60637507766717,22.05793508899773,273.43124425768747,630.1879389564318
563,2.203156096141867,-268.67552500550426,-33.196340095326946,226.01303768253595,500.72531026248583,52.71415548525063,273.04040614659687,655.1467617892131
564,2.9614493834174667,-268.49613080822684,-29.739239797066578,219.72229954586933,539.5736143019022,84.0931284120863,272.4436497727575,682.5626657281631
565,3.7432087816914366,-268.01416180440845,-26.366333237453205,215.8364919744956,578.0108644659106,115.98041199094507,271.5778601544056,712.1819929892014
566,4.497601905000099,-267.17268671917816,-23.129240008421455,214.383976991401,615.8881865409903,148.15509600510435,270.38776660960303,743.7092703104626
567,5.1779194192037785,-265.9252911089928,-20.071688085810536,215.30039715629943,653.0508869431947,180.39466424779073,268.8279553336891,776.8129485876856
568,5.742712976668757,-264.23769777513445,-17.22892934438744,218.4347108538912,689.3412065085353,212.4794068144026,266.8644940511479,811.1320407915364
569,6.156695367926493,-262.08891918763175,-14.627408808999343,223.55805447852362,724.6011097841465,244.19624365863362,264.4761054682329,846.2834517323406
570,6.391394534296471,-259.47190224804007,-12.284696808747952,230.374983858815,758.6750468698169,275.34186851611383,261.6548488998123,881.8697895746587
571,6.425563247983834,-256.39365012561285,-10.209684694335282,238.53655260865702,791.4126444242253,305.7251659198667,258.4062935499363,917.4874451952145
572,6.245354362729033,-252.87483038451913,-8.403033111829679,247.65461097860188,822.6712931246083,335.16889106817104,254.74919109924423,952.7347166876954
573,5.844277343328559,-248.9489019943871,-6.85784839363655,257.31666531797,852.3185995401005,363.51063299539936,250.7146783302714,987.2197441147644
574,5.22295552450741,-244.66081494233472,-5.560549386950264,267.10063457614393,880.2346637916448,390.60310763603576,246.34506133612453,1020.5680113773736
575,4.388705712163232,-240.06535389758128,-4.491876099963576,276.5888815359239,906.3141347364235,416.3138502443617,241.69225022958742,1052.4291766706988
576,3.3549628395742133,-235.22521067549582,-3.627984824799327,285.38098182937244,930.4679855532261,440.5243960750275,236.81592617799055,1082.4830163046938
577,2.1405729719788313,-230.2088782282693,-2.9415731030446173,293.10481545728635,952.6249479013892,463.12905326600526,231.78153025934378,1110.4443096601135
578,0.7689785105550105,-225.0884609011144,-2.402981950993495,299.4257097224738,972.7325455364714,484.0333816136826,226.65816554197545,1136.0665521155272
579,-0.732679849549349,-219.93749160010853,-1.9812309497700231,304.053512453869,990.7576805793532,503.15249504301005,221.51649989179884,1159.1444511102789
580,-2.3345191887587124,-214.82883720681846,-1.644952706308874,306.7476141204941,1006.686747147913,520.4093045243714,216.4267482370187,1179.5152298726443
581,-4.004902737095513,-209.83276097999476,-1.3632055053001855,307.3200536866326,1020.525274385633,535.7328132776626,211.45680123576335,1197.0588256343322
582,-5.711434275913734,-205.01519686399442,-1.1061551873080768,305.63692633241095,1032.2971288029428,549.0565685838027,206.67055432439093,1211.6971174410457
583,-7.421931542783859,-200.43627672079774,-0.8456278738836591,301.6183571607646,1042.0433289038547,560.3173643003839,202.12647784234625,1223.39234818393
584,-9.10535114086298,-196.14913767475008,-0.5555431731696099,295.23731577503736,1049.8205395002178,569.4542737576963,197.87645537795785,1232.1449146594603
585,-10.732638217212747,-192.19902292591408,-0.21224267395526558,286.5175291907355,1055.6993178921134,576.4080730411515,193.96490366876324,1237.990690536629
586,-12.277476744066275,-188.62267597860102,0.20526896531568237,275.53071399187155,1059.7621810711455,581.1210912328887,190.42817390886825,1240.9980256418476
587,-13.716920081202693,-185.44801640267318,0.7151527598856873,262.3933016269113,1062.1015559171183,583.5375006974833,187.2942224052213,1241.264538135387
588,-15.031885532223091,-182.69407639088388,1.3326177320345485,247.26278038677134,1062.8176667928074,583.6040398394304,184.58252957566884,1238.9137900252972
589,-16.207500431811805,-180.37117219774552,2.069842892078528,230.33372894920404,1062.0164097397574,581.2711426779816,182.3042410159925,1234.091914197055
590,-17.2332914393808,-178.481282431221,2.9359279244791,211.83357266745776,1059.807260941893,576.4944318718051,180.4625022754873,1226.9642433794756
591,-18.103213814470212,-177.01860453774069,3.9368654541019064,192.01805822482277,1056.3012690342584,569.2365130779862,179.05295863255745,1217.7119778751442
592,-18.8155238447429,-175.97026029671582,5.075532362128584,171.16641954933544,1051.6091843590311,559.4689894265,178.0643912847198,1206.528918909188
593,-19.372505302440384,-175.3171205149819,6.351702467195058,149.57620312734028,1045.839780394981,547.1745983127751,177.47946176576488,1193.6182876900127
594,-19.780069065033832,-175.03471918240768,7.76208727233199,127.55773679670078,1039.0984204793378,532.3493635157481,177.27553768623935,1179.1896471003936
595,-20.047252097221882,-175.0942288611847,9.300414635767591,105.4282610383429,1031.485915364807,515.0046585790974,177.42557542286093,1163.455944234784
596,-20.185646169577524,-175.4634718336634,10.95755622270268,83.50578930491729,1023.0977046231113,495.16909334346025,177.89903862964138,1146.630697269258
597,-20.208787705614444,-176.10794440130962,12.721712803725875,62.10281391560415,1014.0233788147333,472.89016027852597,178.66283424853404,1128.9253563385296
598,-20.13153904070858,-176.99183347875402,14.578662240388052,41.520015328812256,1004.346541441037,448.23560462456715,179.68224902607764,1110.5468714777974
599,-19.969489262225967,-178.07900487979006,16.5120695258963,22.04015651805817,994.1449921556139,421.2945077748329,180.92186920450223,1091.6954998415981
600,-19.738400013715722,-179.3339422329768,18.50385277304435,3.922346654458742,983.4911977915199,392.1780944330122,182.3464649132454,1072.5628806215157
601,-19.45371787827178,-180.72261565011638,20.53459448114521,-12.60316044599764,972.4530068806351,361.0202890390656,183.92182021480914,1053.33040125442
602,-19.130169959150813,-182.21326110336005,22.583984461806615,-27.33950402718894,961.0945566385989,327.9780539392147,185.61549080660293,1034.1678735235678
603,-18.78145333891502,-183.77705517979268,24.63127996749829,-40.12700849508518,949.477318074237,293.2315398746645,187.39747438190992,1015.2325328292897
604,-18.420022876362598,-185.38867509731242,26.655770016849612,-50.84619739234938,937.6612237196307,256.98406912785885,189.2407833443558,996.6683674303065
605,-18.05697585689176,-187.02673977173617,28.63723432304583,-59.42003828772871,925.7058220593578,219.46195458092393,191.121915200886,978.6057756717365
606,-17.702026684078238,-188.674133186254,30.55639171951033,-65.81545362955706,913.6714019296586,180.91413615221987,193.0212213403017,961.1615373524749
607,-17.363560368895325,-190.3182152287593,32.39533722224035,-70.04413842502548,901.6200288626518,141.61159282524474,194.92317877859062,944.4390712068127
608,-17.04875034961099,-191.95092696758414,34.13796949554421,-72.16271096955323,889.6164349508435,101.84646803853565,196.81657107767907,928.528936640251
609,-16.76372441424144,-193.56879725129772,35.77041042564772,-72.27219257817386,877.7287064203142,61.93083257882654,198.69458412747673,913.5095275947892
610,-16.513762215099696,-195.17285646116625,37.28141525955372,-70.51677596631156,866.0287199352206,22.195004639554984,200.5548207083578,899.4479014564571
611,-16.30350866564124,-196.76846247508965,38.66276573952715,-67.08181206228913,854.5922890870766,-17.01464840514515,202.3992360069983,886.4006858062752
612,-16.137188729964965,-198.36504432121808,39.90963127860691,-62.19093319929728,843.4989949187318,-55.33848913323612,204.2339955362574,874.4150092859519
613,-16.018810340774564,-199.97577043528463,41.02087651307537,-56.102242983349136,832.8316876697123,-92.40701414064509,206.06925724558505,863.5294094433401
614,-15.952343508289937,-201.6171497169998,41.99928942568044,-49.10353754784809,822.675661308149,-127.84490437578847,207.91888014554723,853.7746803265078
615,-15.94186536507204,-203.30857361715846,42.8517036835194,-41.50657034193493,813.1175179594031,-161.27571671390146,209.80006169002672,845.174634988821
616,-15.99166294148439,-205.07180627958897,43.58899173333509,-33.6404223022065,804.2437549831578,-192.3271815293613,211.73290552755543,837.7467703384824
617,-16.106287706551555,-206.93042827706117,44.22591059035658,-25.844084171169865,796.1391211643884,-220.637037592357,213.73992086154283,831.5028308208775
618,-16.29055823579723,-208.9092387501752,44.780789045217126,-18.458396308255438,788.8847985792536,-245.85930100362174,215.84545533890417,826.4492715976538
619,-16.549509816014385,-211.03362127554254,45.275052378879685,-11.817525456405237,782.5564726770351,-267.6708319395641,218.0750654082609,822.5876215546951
620,-16.88829239113353,-213.32888050590665,45.732588129956845,-6.24018959188057,777.2223555479304,-285.7780344293258,220.45483127951857,819.9147433103939
621,-17.31202088941032,-215.81955914910915,46.17896364583093,-2.0208713334402413,772.9412272232062,-299.92350233523734,223.01062749462596,818.422983402817
622,-17.825584479489095,-218.52874759783398,46.64051270975212,0.5787147551263262,769.7605580248986,-309.89241067422574,225.76736401117557,818.1002026936385
623,-18.433423535587078,-221.47740088402486,47.14331429973434,1.3376192637120017,767.7147717925717,-315.5184463060369,228.74821597120302,818.9296758351118
624,-19.139284902273154,-224.68367917722765,47.71209169290318,0.0828345894598441,766.8237050804737,-316.689075889522,231.97386260348247,820.8898499013021
625,-19.945967256506666,-228.16232856488725,48.36906498369971,-3.304619868312633,767.0913107516553,-313.349961061686,235.46175685900667,823.9539560909703
626,-20.85506878936143,-231.92411833394567,49.132794729015956,-8.884943408326935,768.5046457073289,-305.508349765542,239.22544741645814,828.0894747117047
627,-21.8667489692209,-235.97534958386623,50.01705876311945,-16.656323622895332,771.0331722365102,-293.23529731611177,243.27397375767399,833.257462209466
628,-22.979514931937207,-240.31744797535592,51.02980795126179,-26.55336659370794,774.6283914364702,-276.6666000949697,247.61135328774188,839.411759163589
629,-24.190041519681202,-244.94665087621559,52.17224906570689,-38.447263067596495,779.2238161080454,-256.0023578265519,252.2361769787297,846.498108882752
630,-25.493032693482665,-249.85379607154783,53.43810297925585,-52.14770343349733,784.7352801133998,-231.50511673923737,257.14132656404837,854.4532264262322
631,-26.881131182539143,-255.02421552341087,54.81308314554555,-67.40649366094388,791.061571912674,-203.49658562898955,262.3138217650761,863.2038666713688
632,-28.344882498028134,-260.4377335080423,56.27463286041403,-83.92276795643147,798.0853722064171,-172.35296015767247,267.7348005370999,872.6659467609264
633,-29.872758214367337,-266.0687641005789,57.79195062890679,-101.34964270567899,805.6744694932972,-138.49893730469623,273.3796292622434,882.7437822572297
634,-31.451241163289225,-271.886498762545,59.32632159028877,-119.30211022090688,813.6832231587748,-102.40055041327774,279.2181336325778,893.3294970719251
635,-33.06497166132149,-277.8551710695343,60.83175972484489,-137.36593054510095,821.9542419089843,-64.55700332342312,285.2149350751169,904.3026644807945
636,-34.696949257019,-283.93438281074225,62.255951130279165,-155.1072480526661,830.3202464616787,-25.491726266053465,291.3298724746418,915.5302304867988
637,-36.328779386860425,-290.0794744248255,63.54147415687174,-172.08264188462167,838.6060894111226,14.257087633346789,297.5184854251576,926.8667622217273
638,-37.94094993311535,-296.24192388884546,64.62725885157404,-187.8493202750763,846.6309111094748,54.14618244873495,303.7325343684033,938.1550541824017
639,-39.51312038354299,-302.36976251790793,65.4502368032259,-201.9751907270393,854.2104164406736,93.6368848658267,309.9205357556922,949.227115355581
640,-41.0244071681505,-308.40800366959706,65.94712361934808,-214.04857905020495,861.1592618315966,132.20441185588405,316.0282970497919,959.9055523293827
641,-42.45365302692073,-314.29909006399834,66.0562705124119,-223.68742524854108,867.2935440780993,169.3465815176199,321.9994461930348,970.0053587014207
642,-43.77967518381438,-319.9833756541199,65.7195195125278,-230.54784492191715,872.4333826247494,204.59170510921552,327.77596158535385,979.3361194616914
643,-44.981495111239006,-325.3996668371428,64.88399893132133,-234.33200034622325,876.4055846033151,237.50548511912115,333.29871971884705,987.7046380843719
644,-46.0385599252018,-330.4858534849033,63.503801478115435,-234.79526387166837,879.0463763027196,267.6967968583217,338.50808635527534,994.9179895672146
645,-46.93097036637761,-335.17966140613066,61.541496021268834,-231.75266855281268,880.2041749533643,294.8222853638459,343.3445817845254,1000.7869910099171
646,-47.63973181062954,-339.41955376546565,58.969434483254574,-225.08462400191416,879.7423608569317,318.58976138610564,347.7496502786142,1005.130061521476
647,-48.14704240299966,-343.1457996984841,55.77082689957052,-214.7418333487257,877.5419931690144,338.7604263290484,351.6665581084441,1007.7774167052303
648,-48.43662681778815,-346.3017143849419,51.94056915830989,-200.74928880271807,873.5043947222383,355.14999317504925,355.04143365193625,1008.5755118664457
649,-48.49411694184148,-348.83505711368275,47.48581773912898,-183.20915944826996,867.553513542334,367.628796072611,357.82444780494643,1007.391613934695
650,-48.30747390249466,-350.69955380763827,42.4263120495523,-162.3023265078263,859.6379518713889,376.12099323662875,359.97111422019003,1004.1183455638858
651,-47.86744057889499,-351.85648991110264,36.794446562670146,-138.28827939033854,849.7325382173207,380.6029649188169,361.4436685657248,998.6780072451903
652,-47.16801008577746,-352.2763006712879,30.635092198856427,-111.50307156037692,837.8393064168806,381.10099186005624,362.21246634429167,991.0264490661086
653,-46.20689269807091,-351.94007117550666,24.005161181074424,-82.35505852761295,823.9877431527598,377.6882754366006,362.2573226073042,981.1562423493875
654,-44.98596008131389,-350.8408504190561,16.972904960137814,-51.31820686456253,808.2341793357336,370.4813377961407,361.56870678680696,969.0989049261199
655,-43.511641150605676,-348.98468369716767,9.616933848845125,-18.922872329604143,790.6602378140878,359.63582814263185,360.14870366242417,954.9259715070465
656,-41.795239348276866,-346.3912760095152,2.0249516488730506,14.25591072033709,771.3703115075182,345.3417663481275,358.01165773730924,938.7487734393319
657,-39.853138329635804,-343.09421520256484,-5.7077911989032994,47.61242011106562,750.4881264269632,327.8182787662536,355.18443245637775,920.7168906287005
658,-37.70686350978262,-339.1407059538731,-13.480308321223706,80.52613553441066,728.1525309578219,307.30792038289934,351.70623643401416,901.0153449208862
659,-35.382971274643445,-334.59079282677965,-21.187918921664117,112.37898419150228,704.5127315656858,284.07072589153313,347.6279943822701,879.8606979884927
660,-32.9127454349024,-329.5160805159204,-28.72447231709374,142.57326718676367,679.7232530072706,258.37818174611,343.0112685521195,857.496280041656
661,-30.331690583000608,-323.99798940347114,-35.98469496199198,170.54950559420203,653.938930531744,230.5073525816003,337.92676443917316,834.186799584538
662,-27.678823330769717,-318.1256114410895,-42.866589481325356,195.8034182556278,627.3102407191369,200.7354190955772,332.45247908298194,810.2125723407445
663,-24.995774361398354,-311.9932523161939,-49.273808986895034,217.90127988330505,599.9792495970511,169.3348821924633,326.67156885669164,785.8635734730918
664,-22.32572652167513,-305.6977594270553,-55.11792808124611,236.49300133304175,572.0764071788316,136.56965544088567,320.67002508300567,761.4334788219729
665,-19.712226178095626,-299.33574169942426,-60.320534597068736,251.32240714782378,543.7183530001613,102.69220662045896,314.53425071455956,737.2138297870113
666,-17.19791536772257,-293.00078824614405,-64.81507279929576,262.23433650241066,515.0068239525654,67.9418276500969,308.34863128968544,713.4884342453909
667,-14.823239186237094,-286.7807900694907,-68.54837860795568,269.17834220681783,486.0286798411933,32.544022142686174,302.1931901299232,690.5280971482986
668,-12.625185405251308,-280.7554637303004,-71.48185940878973,272.20889584439334,456.8569894000039,-3.289087601608017,296.1414125536961,668.5857537273179
669,-10.636111669049377,-274.9941687791234,-73.59228432582901,271.4821225663469,427.5530550790594,-39.357508464292785,290.2583174374152,647.8920549280278
670,-8.882710519257724,-269.5541017339994,-74.87216465231927,267.2491914896448,398.1692027872223,-75.47151211141275,284.5988468170659,628.6514332072741
671,-7.385154707444722,-264.47893779582455,-75.32971779825253,259.84658548782556,368.7521257061293,-111.44942795589583,279.20663471895773,611.0386638856954
672,-6.156455642776239,-259.79797622469226,-74.98842115782834,249.68357469730364,339.3465509268149,-147.1153755508537,274.1132039475239,595.1959382295569
673,-5.202057355951358,-255.52582570033402,-73.88617457345175,237.22732382681457,309.9989942947703,-182.29720608769583,269.3376234642832,581.230480366179
674,-4.519677810501357,-251.66264252666002,-72.07410162241939,222.98617024680354,280.76138097661715,-216.82488711012726,264.88663963966656,569.2127658184559
675,-4.099399147194449,-248.1949087337005,-69.61503073798795,207.49170715998713,251.6943337085819,-250.5295097987754,260.7552732944512,559.1754239497036
676,-3.9239986923331385,-245.0967110285289,-66.58170681809163,191.28037904657626,222.86996362020616,-283.2430302010855,256.9278526229333,551.1129170131552
677,-3.9695035062467916,-242.33145732397116,-63.05479179617084,174.87533028893608,194.37403651938712,-314.7987819665877,253.37943137492692,544.9820759488979
678,-4.205943243539571,-239.8539471902595,-59.12071792043537,158.76923255067948,166.30742781664281,-345.032726563262,250.07752353391282,540.7035378720171
679,-4.598269629951648,-237.6126974387146,-54.86945967481363,143.40875081994164,138.78681913659975,-373.785345336282,246.9840713579478,538.1640818712768
680,-5.10740639128683,-235.55241497213527,-50.39228934003169,129.18120042417655,111.94462568427522,-400.90403236859004,244.05755398199113,537.219811332442
681,-5.691391239093627,-233.61650640350027,-45.7795778592542,116.40381335859307,85.92817189233827,-426.2458215485954,241.25513959284464,537.7000921464842
682,-6.306571507125631,-231.74951763205482,-41.11869819108713,105.31588937828717,60.898151898180004,-449.6802755234462,238.53478586298516,539.4121300792091
683,-6.9088169198781975,-229.89940581214415,-36.492083751266584,96.07396966103082,37.02642300907095,-471.09237406956305,235.85720049294576,542.1460553348549
684,-7.454716070610911,-228.0195597292101,-31.975490085374723,88.75004678975327,14.493189755094392,-490.3852575034045,233.18758529673292,545.6803735529825
685,-7.902726655586999,-226.07050111808366,-27.63650291969197,83.33271683529162,-6.516351636462163,-507.4826997940429,230.49710186798498,549.7876358550134
686,-8.21425282558855,-224.02121752060145,-23.53332915426804,79.73108592994737,-25.815822007710096,-522.331201926389,227.764013045043,554.2401738742295
687,-8.354626137025141,-221.850095639375,-19.71389844657186,77.78116240236503,-43.221816229476936,-534.9016085924159,224.97447093979886,558.8157391828673
688,-8.293969719137571,-219.54544191885864,-16.21529176343704,77.25439578509018,-58.55828554153703,-545.1901624670253,222.1229384278348,563.3028817780674
689,-8.00792859505301,-217.1055937579271,-13.063500302413276,77.86796851028137,-71.66100801881586,-553.2189225754267,219.2122463038986,567.5059013724995
690,-7.478252695421447,-214.5386399683349,-10.27350459648707,79.29640946384261,-82.38200063307617,-559.0354888151966,216.25330246690444,571.2492107522071
691,-6.693222980525663,-211.86178238689024,-7.849650731524609,81.18408464553227,-90.5937243290833,-562.7119953597598,213.26448202440892,574.3809654621431
692,-5.647915017947558,-209.10038133814422,-5.786289689060647,83.15813032391826,-96.19294035695698,-564.343361961376,210.2707374318634,576.7758407618265
693,-4.344297915581256,-206.2867354816388,-4.068637961523265,84.84142647130872,-99.10409174933672,-564.0448226866843,207.30247518691021,578.3368748450914
694,-2.7911693936258635,-203.45865148128004,-2.673813627923853,85.8652574426409,-99.28210633745043,-561.9487836307173,204.3942501806322,578.9963433698011
695,-1.003930212959145,-200.65786142978277,-1.5720023416224582,85.88136346234928,-96.71454426936741,-558.2010917356345,201.58333113435808,578.715678723546
696,0.9957963151955475,-197.9283468371232,-0.7277115248404041,84.57313881919457,-91.42304114617544,-552.9568232394035,198.90819145443373,577.4844915026188
697,3.1806912946774024,-195.31462793735386,-0.10107691304293248,81.66577031312359,-83.46402566170718,-546.3757202213197,196.40697995506568,575.3187856777224
698,5.518402751111479,-192.86007645492407,0.350808523044279,76.9351274588062,-72.9287158630267,-538.6174168522987,194.11602545549601,572.2584806506434
699,7.9723306695875005,-190.6053089123175,0.6725690859741505,70.21521749657116,-59.942417651446455,-529.8366060588262,192.06842824365233,568.3643654674357
700,10.50251910542041,-188.5867158870066,0.9092487119394719,61.40401441516108,-44.66315931198793,-520.1783061750282,190.29278964219574,563.7146179187253
701,13.066636027333743,-186.83517962156742,1.105066895720962,50.46747639495932,-27.279695854016083,-509.7733961235221,188.8121277611382,558.4010272594146
702,15.621016318183234,-185.37502692139853,1.3022565150925283,37.441592436973984,-8.008911812691002,-498.7345914699818,187.64302187122732,552.5250630044809
703,18.1217384404655,-184.2232557215309,1.54001386435103,22.43235244106312,12.907349746095997,-487.1530249059904,186.79501909211413,546.1939312872823
704,20.52570272572865,-183.38906277831853,1.8535907531239635,5.6136144799773255,35.20599333086791,-475.09557043195963,186.27032609035714,539.5167542550972
705,22.791679690712932,-182.87368812301935,2.273554561416812,-12.777059912784397,58.60684970861306,-462.6030161954616,186.06379687241173,532.6009990337119
706,24.881298821133104,-182.6705799755291,2.8252346008369424,-32.44443162329026,82.81723335474764,-449.6891568209066,186.16321633235796,525.5492720245054
707,26.759949997047702,-182.76587132216721,3.5283629977142392,-53.04321398173775,107.53675466836067,-436.3408490090945,186.54986739166688,518.4565792511914
708,28.39757077801966,-183.13914577376576,4.396907085942583,-74.18699035670036,132.46224163379955,-422.5190532203945,187.19935671748974,511.408130397809
709,29.76929434430533,-183.7644562109822,5.439079521396296,-95.45807587531043,157.29261763226395,-408.1608636431433,188.08266075126883,504.47773282388874
710,30.855936203459564,-184.6115467175616,6.657503667038956,-116.41798542425609,181.73358786907977,-393.18250387009283,189.1673417918407,497.7267872542563
711,31.644303047944067,-185.64721810698643,8.049506847815927,-136.61820229775665,205.502003447873,-377.4832362551792,190.41887484290586,491.20386586537734
712,32.127314093299496,-186.83677099422854,9.607513473124666,-155.61098925555825,228.3297948875436,-360.9501010351745,191.80202090126207,484.94482954781
713,32.303933485866565,-188.14545818711701,11.319512878611008,-172.96003208820065,249.96739166255364,-343.4633695481498,193.28218169479953,478.97342277613575
714,32.17892144563443,-189.5398801873009,13.169581276430659,-188.25074370457287,270.1865689362209,-324.90256602941065,194.8266744980653,473.3022687866063
715,31.762420986471252,-190.98926360625822,15.138441942951737,-201.1000801019408,288.7826866064811,-305.15288600023905,196.4058731533457,467.93417394827077
716,31.069405415240848,-192.46657161611435,17.20405208170701,-211.16573070357217,305.57630892631954,-284.11181823739815,197.9941718912649,462.86364032573204
717,30.119018316878016,-193.94940688052884,19.34220855591496,-218.15454891549527,320.41421450827363,-261.69576368583324,199.5707405195355,458.0784816113036
718,28.933841704157548,-195.42067945292087,21.527167604282077,-221.83008759541366,333.1698255219569,-237.84643867336072,201.1200516383048,453.56143997001385
719,27.53912953165436,-196.8690241665929,23.732275143341603,-222.0191012585389,343.743100934964,-212.5368498283005,202.63217204131854,449.2917088493267
720,25.962043281473726,-198.28896377757115,25.930604011333912,-218.61687698171505,352.05995186440254,-185.77663278887422,204.10282118758533,445.24627962236406
721,24.230924016563627,-199.68082524012254,28.095592924152623,-211.59126480820123,358.0712477148767,-157.6165563454303,205.53320939065298,441.40104971813827
722,22.374631222357703,-201.05042656496212,30.201679764804144,-200.9852988697398,361.75148975004805,-128.15200931537922,206.92967686084233,437.73165745934386
723,20.421973178408695,-202.40856026805596,32.224919758711344,-186.91833028278646,363.09723383764316,-97.52531001467958,208.30316161386557,434.2140420828324
724,18.401246917997312,-203.77030603063605,34.14357744781596,-169.58562642362617,362.1253460765821,-65.92670724067683,209.6685292088929,430.82476159463613
725,16.33989847418619,-205.15420963603069,35.938680142190464,-149.25642236290733,358.8711737187569,-33.593975844411,211.04380013463827,427.54113069437665
726,14.26430662157129,-206.5813676695977,37.59451934648912,-126.27043537622802,353.3867092164604,-0.8105477228549796,212.4493115622568,424.34126182503024
727,12.199686314584183,-208.0744582248188,39.09908526606235,-101.03287253604866,345.7388175765745,32.0978405635498,213.90684948454552,421.2041028494205
728,10.170101926337415,-209.6567572328956,40.444418101569255,-74.00797741229833,336.00758712402245,64.76795966642545,215.43878529758942,418.1095656677995
729,8.198575344539986,-211.3511781437279,41.626858978393216,-45.71117882719933,324.2848523117675,96.80529016133339,217.0672478731956,415.0388330725059
730,6.30726991219284,-213.17936965147732,42.647183498675105,-16.699925442165483,310.6729254536596,127.79150123258438,218.8133583332662,411.97491774893706
731,4.517727967062649,-215.1609022061106,43.510602319710365,12.436684108958136,295.28356287887664,157.2930441546852,220.6965503740644,408.9035280365589
732,2.851137243024806,-217.3125693971773,44.226616028956194,41.08933538817318,278.2371800689592,184.87065483532376,222.73399438413713,405.81426951283333
733,1.3285996693877713,-219.6478249797085,44.8087159832956,68.64082344073174,259.6623194462128,210.08951907610876,224.94013884945974,402.7021793264796
734,-0.028624743020403524,-222.17637025840415,45.27392852508034,94.47906288132987,239.69536320456493,232.5298198888438,227.32637754351572,399.5695522849661
735,-1.1989260326947844,-224.9038997558521,45.64220659569983,118.01054552544507,218.48047186340582,251.79736044286383,229.9008456385766,396.4279767834448
736,-2.160230082905614,-227.83200577282452,45.93567967045158,138.67398137013728,196.16971759826544,267.5339409327375,232.66834219530776,393.3004594731973
737,-2.889984901178966,-230.95823502901743,46.17777970858041,155.95383716813419,172.92337071053242,279.4271641598295,235.63037077785356,390.2234856326231
738,-3.3652660523510165,-234.27628363017385,46.39226725991001,169.39347184023885,148.9102885238161,287.2193534983566,238.78528469453548,387.24884228709516
739,-3.5630146683948296,-237.77631075185033,46.602188006684635,178.60756042053768,124.30834870983968,290.7152880696148,242.12851915844053,384.44502618368307
740,-3.4604153473902968,-241.44534705367147,46.82879574719866,183.29349849090303,99.30486332442442,289.78849270182513,245.65288985295004,381.89806968818635
741,-3.0354143778424616,-245.26777089992723,47.090482575535304,183.24148682264715,74.09690543913463,284.38586328874607,249.34893581278706,379.7116435590311
742,-2.267371161305587,-249.22582364456977,47.40175990534047,178.3430102485458,48.891477295389535,274.53045937599745,253.20528370296563,378.00633367653955
743,-1.137827689929011,-253.3001343353011,47.772334407755196,168.59744437153688,23.905447984864427,260.3223525555587,257.20901019226136,376.9180353110333
744,0.3686272149641898,-257.4702242296076,48.20632079825093,154.1165475286449,-0.6348092744282743,241.93747904366612,261.3459792275394,376.59545932669926
745,2.2634302387246312,-261.71496264583357,48.701629018841146,135.12662304054106,-24.494144270301796,219.62450586921565,265.6011318727141,377.1967962906863
746,4.553091467300853,-266.0129481179696,49.24955712504483,111.96816853786459,-47.429775257284724,193.6997812789426,269.95870830537115,378.88563389622954
747,7.238263461341948,-270.34279274055626,49.83461339283041,85.09286625621192,-69.19289291307803,164.5405003022102,274.402384772224,381.82626797095196
748,10.312881784740664,-274.68329285287973,50.434582075005224,55.05781258744382,-89.53074656878597,132.57627459312468,278.9153126812607,386.17858542667267
749,13.76342885157034,-279.01347550296055,51.0208373668946,22.51693916376379,-108.18921847018773,98.27934983727472,283.4800522880082,392.09272677503714
750,17.56837051322215,-283.3125172785848,51.55890029904308,-11.790356646301678,-124.9158724786989,62.153762059846436,288.0783995658161,399.7037545016703
751,21.697807744012017,-287.559540153387,52.0092242713591,-47.0532756189533,-139.46344246178512,24.723764193270696,292.6911120375027,409.12656024528894
752,26.113374628761253,-291.7332980756072,52.328187152178145,-82.40618869364769,-151.59370254771076,-13.478115202342414,297.2975477417646,420.4512368124139
753,30.76840077911342,-295.81177813828447,52.46926121058134,-116.94743431188903,-161.0816383162504,-51.922999736974106,301.87524103317617,433.7391181203452
754,35.60834402430628,-299.77175110478146,52.38432666131864,-149.75996433713834,-167.71981853209098,-90.09719287627915,306.39944923747913,449.01964932807556
755,40.57148890996724,-303.5883170505314,52.02509064753718,-179.9333792437096,-171.32285393513664,-127.51293206137814,310.8427144964539,466.28819342244026
756,45.58989739579233,-307.2345012986873,51.34457116487758,-206.58682497931773,-171.73182231575205,-163.71803004075844,315.1744938414643,485.5048180549719
757,50.590589268450714,-310.6809615525089,50.298604139281444,-228.8921678630606,-168.8185347278411,-198.30411695113747,319.36091552393833,506.59404757880674
758,55.49692168675448,-313.89586746046945,48.84733089014885,-246.09681907977708,-162.48951415305322,-230.91326109356876,323.3647192586874,529.4455166371603
759,60.23013120172035,-316.8450081777732,46.956622523932054,-257.5455504600275,-152.68955552153463,-261.24281543599494,327.1454318643837,553.9154265636081
760,64.71099804966656,-319.4921721902907,44.599398193200955,-262.7006339439059,-139.40473612538068,-289.0484066183769,330.65981844403336,579.8286863485878
761,68.8615908770562,-321.79982766339725,41.756796668376964,-261.15965076839313,-122.6647488672041,-314.1450522456983,333.86263385287134,606.9816164640488
762,72.60704924942715,-323.7301119872657,38.41916592822865,-252.67034979803356,-102.54443726294687,-336.4064599051379,336.70768089452247,635.145103427532
763,75.87736038500869,-325.2461170296547,34.58684316690808,-237.14198135348374,-79.16442037535774,-355.7626266545237,339.1491612454249,664.0681097083982
764,78.60908492901932,-326.31343254481345,30.270706428837673,-214.65258929719008,-52.690708309027144,-372.1959190264635,341.1432827392793,693.4814616717514
765,80.74698428656436,-326.9018847717637,25.49248708543108,-185.45181185745486,-23.33322598762005,-385.7358681027053,342.65006246050945,723.1018549525947
766,82.24549999732643,-326.987381723804,20.28483755061148,-149.9588287137878,8.656813142411572,-396.45295771430125,343.6352401616037,752.6360329127104
767,83.07003529154112,-326.5537536338306,14.69114973833768,-108.75520928188031,42.99070910901666,-404.4517112553861,344.07219355864714,781.7851132103273
768,83.19799141620928,-325.5944602446832,8.765117310171567,-62.57257416561084,79.34723662874367,-409.8633897673597,343.9437300939476,810.2490636335675
769,82.61951689364322,-324.1140299780363,2.570031275252583,-12.275180765045446,117.37869878477795,-412.8385994537016,343.2436228549828,837.7313611920447
770,81.33793634298486,-322.12910223289487,-3.822202616643528,41.162222752051335,156.71795068123683,-413.54007316397866,341.97776435158255,863.9439009024818
771,79.3698366289156,-319.66896395099747,-10.332332465208784,96.68068121950093,196.9862132446968,-412.13584401952187,340.1648316246231,888.6122381280742
772,76.74480193438558,-316.7755035278654,-16.87531315173855,153.16661785455995,237.80144343059732,-408.792979223187,337.83638816690797,911.4812332577607
773,73.50480557453066,-313.502545283175,-23.362127776092276,209.4836755289381,278.786982638904,-403.6719976166099,335.03638850851075,932.3211084063915
774,69.70328320580477,-309.9145708882921,-29.70184448267484,264.5056137402227,319.5801762572549,-396.92206266279743,331.82009451057377,950.9338260408942
775,65.40392617220512,-306.0848753770362,-35.80385717271386,317.14897870813843,359.840648518588,-388.67702507408825,328.252452612893,967.1595800765864
776,60.67924179442083,-302.09324095529075,-41.5802409205585,366.40426254320164,399.25792970815644,-379.05238243958445,324.40601406743,980.8830823735921
777,55.60892851980007,-298.0232398043207,-46.948137318480754,411.3643459406157,437.5581645042942,-368.14321953592133,320.3585034921568,992.0392591707914
