time,ax,ay,az,gx,gy,gz,accmagnitude,gccmagnitude
0,16.522470287120463,-246.95350464620424,16.009677425217713,8.629643859533962,0.42156813173526736,-5.764163158074224,247.99991034005853,8.654346699652287
1,16.693655000947352,-246.90845883758126,16.194672090288215,9.556072413264088,1.1867811717501071,-6.9912469618880895,247.97401889929867,8.512260719744422
2,16.867524283222366,-246.87208141493636,16.373022890448212,10.386722380426287,2.0114781661277084,-8.315449033144306,247.95637828372114,8.245152203040258
3,17.039032591169974,-246.84238740860079,16.542001862135226,11.095808574726707,2.8801211249852146,-9.719141830117486,247.9446493014036,7.857989273505925
4,17.20261716329907,-246.81746010593724,16.699191447161873,11.658503668655614,3.7741735538330317,-11.180184883233371,247.9365739954063,7.36129783154964
5,17.352263163971248,-246.79552667264093,16.84256716607818,12.051586762246952,4.672087753062416,-12.671837225940395,247.9300597909464,6.771599716946106
6,17.481583930142104,-246.77502469947865,16.970567419833376,12.254096157792944,5.549328713652128,-14.162768648605947,247.92325391794546,6.111732688172958
7,17.58391645850568,-246.75465799282867,17.08214810795625,12.24797057792717,6.378438285944098,-15.617180535309846,247.9146062527705,5.4110318277892295
8,17.652431824899693,-246.73344081190095,17.17682052788999,12.01866191440028,7.129144194875241,-16.995045361745454,247.90291964757122,4.705353986735019
9,17.680259516983856,-246.71073031476587,17.25467160031822,11.555702284750662,7.7685191175555,-18.252472037568438,247.8873873875563,4.036930018587788
10,17.6606238040366,-246.68624722484574,17.316365844601094,10.853208812906935,8.261195301022656,-19.34220203203586,247.86761765915665,3.4540337946926307
11,17.5869894775772,-246.66008480457936,17.36312887616341,9.91031106618647,8.569639976405352,-20.214238469308583,247.84364498593257,3.010462143033822
12,17.453213795173816,-246.63270629006675,17.3967128055421,8.73148825747735,8.654496064281231,-20.816607070146322,247.81592869558924,2.7648256326536744
13,17.253701319941097,-246.60493110604742,17.41934492245776,7.326805868603713,8.474991395812943,-21.09624405541422,247.78533874101794,2.779656232941081
14,16.98355839631197,-246.57791042300605,17.433662197495014,5.712043979083016,7.989417994048382,-21.000002097266496,247.7531295583507,3.120344030146848
15,16.638743930655256,-246.55309280409196,17.442634960243552,3.908712033435561,7.1556809661734455,-20.475761258009815,247.72090291574958,3.853921086090469
16,16.21621279020234,-246.53218072206263,17.4494833515001,1.9439468761856855,5.9319143176152025,-19.473627668516,247.6905607596712,5.047715889981721
17,15.714047624551442,-246.51707865127312,17.457589915669587,-0.14970736981422234,4.277158587643113,-17.947198508319566,247.6642489619022,6.767906508943709
18,15.131574496341065,-246.50983336535356,17.47041124370125,-2.3346374423005205,2.152092727194504,-15.854867750861056,247.64429275178537,9.078004466702296
19,14.469457500544861,-246.51256707767635,17.491391012006854,-4.5686154046910605,-0.48018982589238646,-13.161143310750706,247.63312457922382,12.037304621616947
20,13.729767541414384,-246.52740420192885,17.523876180830406,-6.805366155389242,-3.6533733703203866,-9.837942907167163,247.6332052533681,15.699338891381913
21,12.916020625431337,-246.55639280832364,17.57103773380756,-8.99524305781679,-7.397095433452131,-5.865833341677871,247.64693947775825,20.110373540742906
22,12.033181496058456,-246.60142229685337,17.63579731910394,-11.086004917776508,-11.736122979871547,-1.2351760715816942,247.6765873591295,25.307990816013383
23,11.087629225801189,-246.66413935166767,17.720761395787367,-13.023685128286711,-16.689549193610237,4.052859076236396,247.72417404801098,31.319795863402796
24,10.087082409937823,-246.74586475636443,17.82816478369283,-14.753540477154251,-22.27003296553432,9.985450475790191,247.79140022997888,38.162289039780745
25,9.04048277944162,-246.84751398775387,17.959825740736484,-16.221062711263937,-28.48310525077766,16.53748941955633,247.87955656097336,45.839941863867224
26,7.95783741274613,-246.9695246242005,18.117114772734343,-17.37303062370763,-35.32656800788399,23.671189309258104,247.98944528432236,54.34451180086329
27,6.850021390010586,-247.1117935827929,18.300939121406714,-18.15857466615509,-42.790012118147324,31.335972865089254,248.12131225463762,63.65462654214345
28,5.728544710861897,-247.27362708920688,18.51174401346498,-18.530220765255926,-50.854480135612356,39.4686664039962,248.2747924629298,73.73566225499545
29,4.6052894260822175,-247.4537060808241,18.749530278509585,-18.444876395090738,-59.4922976910183,47.99402347098084,248.44887189701677,84.53993265101334
30,3.4922249077661247,-247.65006947677497,19.013886302715512,-17.86472142042811,-68.6670938691546,56.825590724754925,248.64186822249204,96.00719735879218
31,2.40111068946776,-247.8601174150931,19.30403110644354,-16.757969741789154,-78.33402621282917,65.86691712506281,248.85143235192064,108.06548987479505
32,1.3431972276962805,-248.0806360322098,19.618864967601635,-15.099475278081696,-88.4402206950774,75.01309381517214,249.07457238051805,120.63225778718015
33,0.32893536216506547,-248.30784455599135,19.95702439579115,-12.871166058342522,-98.92543149539043,84.15259763192331,249.30770052996002,133.61580073477657
34,-0.6322946809471401,-248.53746450786628,20.316939025993577,-10.062301165253393,-109.72291987705364,93.16939695404143,249.54670275657293,146.9169838913961
35,-1.5324241871118767,-248.76480984283268,20.696888608254245,-6.669555048649388,-120.76054572785146,101.94526556862739,249.78702969518778,160.4311960271436
36,-2.364897003822324,-248.9848959666657,21.095058297224476,-2.6969411421502736,-131.96205903983005,110.36223922869073,250.0238066667012,174.0505114063572
37,-3.1248224831416884,-249.19256471979884,21.50958988529398,1.8444083724370615,-143.24857143229812,118.30514130195213,250.25195954443538,187.6660045989817
38,-3.809074167956871,-249.38262159459984,21.938625889670686,6.936586794142837,-154.5401796619068,125.66409891010741,250.4663523769912,201.17015769062837
39,-4.416330521001305,-249.54998074638246,22.380343062194836,12.555359381945307,-165.757704180242,132.33696952504573,250.66193193802542,214.45929134018715
40,-4.947056474346713,-249.68981291111203,22.832972309390232,18.67068917264427,-176.82449685038796,138.23160015530542,250.8338739848025,227.43594544600865
41,-5.403426916246704,-249.79769122531172,23.294803140409524,25.24731886177244,-187.66826381941647,143.2678468192287,250.9777260197373,240.01113243336147
42,-5.789195399440635,-249.86973006118293,23.76417227135977,32.24538624894719,-198.22284316084412,147.37929059217575,251.08954163823162,252.10638674427125
43,-6.109513352147127,-249.90271215217328,24.239437615657565,39.62105287330105,-208.42987298765397,150.51459765998555,251.16600189681324,263.65553816584514
44,-6.370706822217688,-249.89419943956446,24.718940424352393,47.327128800876146,-218.24028484957515,152.63848394175054,251.20451947721028,274.60614414972684
45,-6.580019165051301,-249.8426234134557,25.200959665932558,55.313680654764,-227.61555973376883,153.73225928964354,251.20332192596186,284.92052701939434
46,-6.745329071456899,-249.74735145344653,25.683663650439318,63.52861438976573,-236.52869000959456,153.79394129153692,251.16151109251015,294.5763754891913
47,-6.874853994016692,-249.608726721487,26.165064175933264,71.91822857546305,-244.96480004797456,152.83794356905216,251.07909697716528,303.56688562584367
48,-6.9768493930572415,-249.42808025741604,26.64297798274382,80.42773777209902,-252.92139059023543,150.89435753143255,250.957005260203,311.90043355229176
49,-7.059314225906968,-249.2077149188482,27.114999172578557,89.00176874878494,-260.4081865800142,148.00785923942794,250.7970586676782,319.59978998677826
50,-7.129712719476891,-248.95086172652645,27.578484804672254,97.58483458830447,-267.4465842633068,144.23628385286304,250.60193310100632,326.700904192971
51,-7.194721742196005,-248.66161009740915,28.030554422015474,106.12179296254884,-274.0687099948973,139.64891874594923,250.37509021748392,333.25130119154744
52,-7.26001207864395,-248.34481432719463,28.46810300949718,114.55829504364766,-280.3161194894431,134.3245727096349,250.12068887754566,339.30815045489805
53,-7.330070659093251,-248.00597935823382,28.887826042065434,122.84123090679716,-286.23818145749397,128.34948286468037,249.84347843151767,344.9360763385272
54,-7.408069370315286,-247.65112921879364,29.28625496728103,130.91917627256203,-291.89020301581365,121.8151231382255,249.54867710085045,350.2047898922109
55,-7.495784518506843,-247.28666163682274,29.659801600454347,138.74284424334652,-297.3313653131416,114.81597845074778,249.24183880036276,355.1866280530486
56,-7.593569337750753,-246.91919245842254,30.0048102251626,146.26554423043007,-302.6225457824742,107.44734709707643,248.92871186217147,359.95408902717696
57,-7.700380101401038,-246.55539379786086,30.317616423294027,153.44364838824603,-307.82410774177566,99.8032302246517,248.61509338882843,364.57745150259467
58,-7.813854318697085,-246.20183025331207,30.594611711893005,160.23706366260438,-312.9937384417197,91.97436197257063,248.30668331435243,369.1225601936548
59,-7.930437127170531,-245.86479785129305,30.832312989599053,166.60970543207807,-318.1844131568878,84.04642698308307,248.00894250653528,373.6488515340771
60,-8.04554940069096,-245.5501704721918,31.02743560560971,172.52996713493354,-323.44255583536466,76.09850393468999,247.72695924645794,378.20768178769504
61,-8.153788589486856,-245.26325826675696,31.17696846204643,177.97117934746706,-328.80645664161864,68.20176481924918,247.4653280734821,382.8410061168312
62,-8.249151400852485,-245.00868195837282,31.278248936258716,182.9120511564135,-334.3049940794314,60.418450269203646,247.2280442525715,387.5804418022
63,-8.325266552396718,-244.79026601327678,31.329034814669317,187.33708574412137,-339.95669501944354,52.8011317164751,247.01841611762555,392.44673234679533
64,-8.375626030096026,-244.61095264546194,31.327570229019152,191.2369604175996,-345.76915071825954,45.39226190720637,246.83899651101055,397.44961220274814
65,-8.393804291597368,-244.47273766246434,31.272642943550583,194.60885878224173,-351.738791652734,38.224006655459405,246.69153365344724,402.58805506829685
66,-8.373656389150987,-244.3766283216225,31.163631097697692,197.45673967298995,-357.85100948140735,31.318342989160325,246.57694108766876,407.8508729288587
67,-8.309487813627118,-244.32262278613953,31.000538350903504,199.79152430369933,-364.0806013526624,24.68740225568923,246.495285928456,413.21761906289925
68,-8.19619075398779,-244.3097106086212,30.78401710443024,201.63118046351636,-370.3925006825195,18.334031489525852,246.44579464478974,418.6597368487957
69,-8.02934335935974,-244.33589383357804,30.51538005346289,203.00068108572563,-376.7427499120927,12.252542520958842,246.42687589800988,424.14188806326916
70,-7.805270637592005,-244.39822848391637,30.196600700922648,203.9318146834216,-383.07966495262315,6.429615972026071,246.43616025358617,429.62338994195153
71,-7.5210678942411615,-244.4928862700134,29.830303535758848,204.46282735043565,-389.3451381369137,0.8453263950461772,246.47055675428118,435.05968977136627
72,-7.174589828774733,-244.61523650833047,29.419744395341674,204.63788036966145,-395.47602642893196,-4.525744804357159,246.52632655273106,440.4038090907037
73,-6.764410103430731,-244.7599484909206,28.96878137678989,204.50631382272854,-401.40557416598807,-9.713340624273021,246.59917409553302,445.6076963524135
74,-6.289757148316273,-244.9211146205677,28.481836782430225,204.1217147055219,-407.0648243611572,-14.750333787659848,246.68435646581304,450.6234366103634
75,-5.750432323231058,-245.09239423153477,27.9638509344745,203.54079763180306,-412.3839791161857,-19.67153352068307,246.77681114537623,455.4042788604329
76,-5.146716666430399,-245.2671771325176,27.420229007268592,202.8221168338768,-417.2936774311769,-24.51251845399299,246.8713016129958,459.90545530549394
77,-4.479272488157,-245.43876473130962,26.856782097815532,202.02463919344623,-421.72616696705427,-29.308517471604507,246.9625790289203,464.0847810994745
78,-3.7490458832742863,-245.60056535640055,26.279663598595988,201.2062186450188,-425.61635438187466,-34.09335753323038,247.0455569928378,467.9030369726392
79,-2.957175674098731,-245.74629919034936,25.6953016773312,200.42202168157624,-428.90272612782604,-38.89849490784185,247.11549512635017,471.32414962631736
80,-2.1049134227731527,-245.8702070690608,25.11032839671796,199.7229611146591,-431.52813776989143,-43.75214393719823,247.16818602956272,474.31519529855206
81,-1.1935582228228405,-245.96725631359644,24.53150575861916,199.15419997210577,-433.44047497191355,-48.67851528162619,247.20013903643638,476.8462601198671
82,-0.22440916119005322,-246.03333590056837,23.96564874118118,198.7537887249746,-434.59319345882597,-53.69717338104506,247.20875330200786,478.8901966495596
83,0.8012623623733053,-246.06543280243065,23.41954520327719,198.55149629411653,-434.94574867067706,-58.82252044438372,247.19247225372118,480.4223192274589
84,1.8822189454004579,-246.06178129368018,22.899872379330947,198.56788825751357,-434.463928502621,-64.06341164627437,247.15091138347086,481.42008146263163
85,3.0172413903442914,-246.02197741080178,22.41310968995719,198.81369480555142,-433.12010429738194,-69.42290346803816,247.08495174578752,481.8627773499233
86,4.20509112722116,-245.9470515840021,21.965447899634917,199.289497410612,-430.893415754751,-74.89813445401798,246.9967923889623,481.7313032618558
87,5.444452538647777,-245.83949378975825,21.56269533977734,199.98574838756005,-427.7699042464306,-80.48033528960184,246.88995635072246,481.00801159192685
88,6.733858433839909,-245.70322741791992,21.21018292709198,200.88312294396493,-423.74260601345014,-86.15496325855199,246.76924680348873,479.6766784954532
89,8.071603446059006,-245.54353020963268,20.91267083056975,201.95318999215115,-418.81161212904794,-91.90195490480825,246.64065221589541,477.7225985956938
90,9.455651429614795,-245.3669027474116,20.674260535926877,203.15937646795692,-412.9840965317753,-97.6960900045443,246.51120161613238,475.13280943643633
91,10.883543851622044,-245.1808868499141,20.49831638623626,204.45819029414486,-406.2743076219933,-103.50745946544514,246.38877294777657,471.8964385673916
92,12.352316594357928,-244.99383793996415,20.387400312716977,205.80065929818534,-398.70351359784325,-109.30202917449958,246.2818591830082,468.0051570096474
93,13.858432491126363,-244.81465723843422,20.343222614923782,207.13393712655719,-390.2998875002189,-115.04229085075245,246.19929853892992,463.45371489788477
94,15.397736406581522,-244.65249152854952,20.366610714159805,208.40302234345745,-381.09831532552823,-120.68798949020284,246.14997690266532,458.2405286895771
95,16.965438806115625,-244.51641005722973,20.457497085458403,209.55253346039927,-371.140109910833,-126.19691496579001,246.14251225398482,452.36828478412855
96,18.556132431728212,-244.41506969518719,20.614927072782557,210.52848076003545,-360.4726148450536,-131.5257427649707,246.1849322764678,445.84452199462316
97,20.163844711522437,-244.35638060658022,20.83708683569423,211.27997567772528,-349.14868653817285,-136.63090583528492,246.28435728825355,438.6821553163927
98,21.78212581871911,-244.3471851784666,21.121351179652436,211.7608203741015,-337.22604871658206,-141.4694764158747,246.44670088895313,430.8999059785728
99,23.40416912272305,-244.3929626747223,21.464350592202553,211.93092399954287,-324.7665216303256,-146.00003409783398,246.67640017393327,422.522607725877
100,25.022957663685233,-244.4975710604379,21.862056532203187,211.75749784134592,-311.83513744489306,-150.18349474397888,246.97618609231213,413.58136620548197
101,26.631427750930985,-244.66303588441517,22.30988371879343,211.21598870514407,-298.49916266288494,-153.98387476114092,247.34690272532407,404.1135564864788
102,28.222639097128706,-244.88939422808954,22.802807499982958,210.2907180511908,-284.82705684191205,-157.36896680395392,247.78738215060343,394.16265219112415
103,29.789940088139325,-245.17459977383126,23.335493219688935,208.97520312679848,-270.8874032488605,-160.31090631048548,248.29437938948416,383.7778875586706
104,31.327116835222736,-245.5144931854611,23.90243312366153,207.27214534335332,-256.74785061679415,-162.78661315337783,248.8625699241814,373.0137603992053
105,32.82851558171682,-245.90284018615694,24.49808524988675,205.19308052527157,-242.47410548317484,-164.77809883972893,249.4846104437657,361.9293892388662
106,34.28912988952851,-246.33143782233626,25.11700827410648,202.75769579158882,-228.129011698562,-166.2726366851733,250.15126174643615,350.5877423182974
107,35.70464679708255,-246.79028736427875,25.753986365505092,199.99282907711333,-213.77174791366804,-167.26279965765943,250.85157104861145,339.0547598920917
108,37.07144958657486,-247.26783010861558,26.404138466188126,196.93117964594794,-199.45716579729188,-167.7463775043936,251.57310927540465,327.39839477923476
109,38.38657844463542,-247.7512399732821,27.063006885721343,193.6097709279331,-185.23528231501868,-167.72619076527351,252.30225711107516,315.68759945581024
110,39.647653640887086,-248.22676425207138,27.726620807607098,190.06821985194568,-171.15092968635736,-167.20982385932237,253.02453164438475,303.9912911310707
111,40.852768627828524,-248.68010148059776,28.391531452005893,186.34687864771678,-157.24355771097186,-166.20930222121615,253.72494358571734,292.37732901702805
112,42.00036269814277,-249.09680345353718,29.054817317344042,182.48492484769446,-143.54717586991634,-164.74073922071295,254.38837365951213,280.9115400203371
113,43.08908454119222,-249.46268732284798,29.71406002766061,178.51848195019707,-130.09041741214827,-162.82397728000387,254.99995616913972,269.6568298234745
114,44.11765903176427,-249.7642434574011,30.367293643424404,174.478856067436,-116.89670453471118,-160.4822443597344,255.5454578932553,258.6724151999862
115,45.084769602377996,-249.98902524525303,31.012932579586018,170.39097234605788,-103.98449245228078,-157.74184211527913,256.01164121642086,248.01320997440084
116,45.988967549539204,-250.12600814455305,31.649685073209852,166.27208881903695,-91.36757016660225,-154.63187600747818,256.3866015338863,237.72939109929553
117,46.82861778682617,-250.16590696690358,32.2764599653758,162.13085463628508,-79.05539657647257,-151.18403114420136,256.66007039857504,227.86616294467134
118,47.601888040218874,-250.1014425242798,32.89227424100652,157.96676441311536,-67.05345179474558,-147.4323913947026,256.82367752071383,218.4637273645301
119,48.30678527594456,-249.92755117732045,33.496167605935725,153.77004103431895,-55.363585045737565,-143.41329409273283,256.8711664181376,209.55745502065363
120,48.94123925410706,-249.6415331901825,34.08712892222764,149.52195658453107,-43.98434261276768,-139.16520898455065,256.7985600188225,201.17824084386353
121,49.50322877532969,-249.2431379284887,34.66403806728548,145.19557697382925,-32.911262552170584,-134.7286282446569,256.60427373748234,193.35301479077137
122,49.990942021370046,-248.7345858176937,35.22562595749421,140.75689278181883,-22.137127688076895,-130.14595429607954,256.28917458368835,186.1053695813261
123,50.40295906787678,-248.1205286821892,35.77045495506859,136.16627923474485,-11.652174608732928,-125.46137347704116,255.85658587419175,179.45626077689897
124,50.738442615631946,-247.407951672599,36.296921267869145,131.38021353797714,-1.444263210098141,-120.7207057812613,255.31223821194283,173.42473155213676
125,50.99732232596879,-246.6060214219232,36.80327986561717,126.35316837826238,8.50098240993219,-115.97122340826354,254.66416850431372,168.02861440482638
126,51.1804587225045,-245.7258861702926,37.28769077793112,121.03959594665217,18.200046353604453,-111.26143317763733,253.9225697336156,163.28516423709647
127,51.28977425859391,-244.7804342135733,37.74828372391854,115.39591677364001,27.67138916479558,-106.6408196187898,253.09959484242123,159.2115813231111
128,51.328341613076674,-243.78401723896297,38.1832363806492,109.38243151459635,36.93529497815038,-102.15954660105898,252.20911855826915,155.82538853133033
129,51.30042225152814,-242.7521451161848,38.59086064402806,102.9650811281802,46.01368345184072,-97.86811578282385,251.2664614499459,153.14463479337843
130,51.21145152482038,-241.70115866395216,38.96969107138926,96.1169911876984,54.92987675630176,-93.81698014820812,250.28808109002094,151.18790612226462
131,51.06796995744377,-240.6478869086449,39.318570144042255,88.81974884835739,63.70831707390513,-90.0561107840589,249.2912359491895,149.9741362199679
132,50.87750375726647,-239.6092954938656,39.63672575494953,81.06437570600049,72.37423526163381,-86.63451518023469,248.2936285881735,149.5222204178257
133,50.648400652606384,-238.60213319288528,39.92383714667406,72.85197569162219,80.95327587534007,-83.59970601815144,247.31303573967514,149.85044863758654
134,50.38962963338303,-237.6425837807792,40.180086245059044,64.19405317789337,89.47108725009718,-80.99712083972891,246.36693375963344,150.97578424464322
135,50.1105548974999,-236.7459306752514,40.40619192325014,55.11251133915648,97.95288779278735,-78.8694952010102,245.47212848233676,152.9130250392518
136,49.82069519437823,-235.9262417036718,40.60342526334126,45.63935339319219,106.42302141880114,-77.25619481543545,244.64439868947483,155.6738894767225
137,49.52947972454353,-235.19608109296115,40.77360450309866,35.81611899382398,114.90451652288496,-76.19251561694827,243.89816220537915,159.2660752892075
138,49.246010871681285,-234.5662552012644,40.9190691670525,25.69309451353433,123.41866410423168,-75.70896441238962,243.24617299217365,163.69233906610086
139,48.97884260918026,-234.04559747338607,41.04263386056812,15.32833944883724,131.98463140063487,-75.8305365652648,242.69925645968115,168.9496441744916
140,48.73578172357003,-233.64079664499013,41.14752323199917,4.786572266088677,140.61912718040963,-76.57601062686419,242.2660886019797,175.02842083400026
141,48.52371715817447,-233.35627059164446,41.2372905415501,-5.8620416980315095,149.33613336490964,-77.95728267547338,241.9530227663317,181.91197646607222
142,48.348480922668855,-233.19408667374847,41.31572301036515,-16.54315993410728,158.14671488702197,-79.97876505432545,241.7639661019829,189.5760870265957
143,48.21474237209593,-233.15392809321602,41.38673761914317,-27.17955372700987,167.05891587686085,-82.63687502515086,241.70030618444363,197.9887914631266
144,48.12593643400444,-233.23310470535912,41.454271303885626,-37.69238990034228,176.07774572756554,-85.91963851343036,241.76088705863162,207.11040232832207
145,48.084225565512895,-233.42660600039778,41.52216962023341,-48.00247998532366,185.20525360484174,-89.80643259041527,241.94203308334178,216.8937364202434
146,48.09049469411251,-233.72719367214702,41.59407796561706,-58.03148095530463,194.44068478244182,-94.26788750987927,242.2376185544203,227.28456039532105
147,48.14437792302639,-234.12553130074426,41.6733393261239,-67.70303861836453,203.78070714590973,-99.26596487100252,242.6391810630417,238.2222378089703
148,48.24431521353929,-234.61034900638126,41.76290218621481,-76.94387057080364,213.2196917317215,-104.75422289119462,243.13607668841053,249.64055625346975
149,48.38763657563498,-235.16864124683454,41.86524171002631,-85.68478995365028,222.75002772632635,-110.67827319374375,243.7156752005605,261.46870657278697
150,48.57067060025055,-235.78589605228194,41.982296609842315,-93.86167400400451,232.36245041646634,-116.97642641606663,244.3635933087167,273.6323809977521
151,48.78887359000205,-236.44635379055717,42.11542324159819,-101.41638260424553,242.0463605600654,-123.58051678537065,245.06396353688856,286.0549538785912
152,49.0369751970545,-237.13329298355683,42.26536742000198,-108.29763178317806,251.79011565541018,-130.41688903648753,245.79973551458272,298.65870766092644
153,49.30913636300641,-237.82933984749442,42.43225339609143,-114.46182536946385,261.5812773000631,-137.40752511526043,246.5530054584376,311.36606760492134
154,49.59911537622758,-238.51679730512015,42.61558863709772,-119.8738446624438,271.40680358367604,-144.47128342474463,247.30536860313168,324.10081092708714
155,49.90043790101911,-239.17798833197753,42.81428263077544,-124.5077912490468,281.25318052198537,-151.52522016180703,248.0382884286764,336.78921897540994
156,50.20656683504474,-239.7956076032388,43.02667786539548,-128.34767250167903,291.1064913429844,-158.48596052557318,248.7334756640811,349.36114432480537
157,50.5110677901379,-240.3530744566571,43.25059127670499,-131.38801352727683,300.95242668330155,-165.27108700090665,249.3732691533252,361.7509680993289
158,50.80776585430438,-240.83487932227797,43.483364702689485,-133.63437399114164,310.7762424303999,-171.80051221728925,249.9410098657398,373.89842638588607
159,51.09088917829802,-241.22691524485518,43.72192323887935,-135.10374377683516,320.5626751482194,-177.9978048921666,250.42139888160148,385.7492884208893
160,51.355195039818504,-241.51678606695538,43.962840828901186,-135.82478826358857,330.2958276301007,-183.7914392111038,250.800830242584,397.2558733618112
161,51.59607450220825,-241.69408317904512,44.20241284684614,-135.83791243340616,339.9590386916963,-189.11594100372787,251.06769006304694,408.3773967663292
162,51.80963263473909,-241.7506233700057,44.436735698575745,-135.19511335326584,349.53475143567056,-193.91290839533096,251.21261413362896,419.08014218994293
163,51.992742535477625,-241.68064123273362,44.66179350972524,-133.959593172586,359.0043929433774,-198.1318898249417,251.22869741603375,429.3374575064035
164,52.143073041810254,-241.48093086783612,44.87355173395256,-132.2051100101024,368.3482761824764,-201.73110749848144,251.1116503809855,439.12957971337886
165,52.2590917215721,-241.15093322836483,45.068057052128395,-130.0150520544368,377.5455324496025,-204.67801859584094,250.85989896955664,448.4432961342928
166,52.34004608074771,-240.69276709848745,45.241542442391484,-127.48123035388895,386.5740803024252,-206.94970943329199,250.474626751542,457.2714539520925
167,52.385926665795296,-240.11120312777518,45.39053596978699,-124.70239712402427,395.4106348912576,-208.53311936641117,249.95975933240223,465.61233371437197
168,52.39741595219039,-239.4135814628547,45.5119716157247,-121.78250789732155,404.03075996289397,-209.42509195891125,249.321892142315,473.4689057044587
169,52.37582680860389,-238.60967439235094,45.603300089117184,-118.82875668910972,412.40896359306464,-209.6322514981762,248.57016348842097,480.847990910285
170,52.32303406981685,-237.7114961878934,45.66259684924967,-115.94942308174313,420.5188378889063,-209.1707039172842,247.7160753010387,487.7593508589685
171,52.24140241139093,-236.73306317324904,45.68866360639167,-113.25157846127678,428.33324243535367,-208.0655629460192,246.77326456991352,494.2147328871651
172,52.133713309452475,-235.69010811798893,45.6811186824166,-110.83870542222658,435.82453102259774,-206.35030494153858,245.75722923774578,500.22689942447806
173,52.00309339607587,-234.59975428680798,45.64047117461201,-108.80828954424608,442.9648209916789,-204.0659592103638,244.68501331822932,505.8086713931906
174,51.85294601684668,-233.48015569762984,45.56817402748174,-107.24944644608807,449.7263041582833,-201.260144451809,243.57485709321304,510.9720166425035
175,51.68688727884487,-232.3501111715352,45.46665178148634,-106.24064942318199,456.0815975792433,-197.98596591185895,242.44581923250055,515.7272142691224
176,51.50868731151563,-231.22866053671922,45.33929969056472,-105.84762412349683,462.00413133670713,-194.30079171253166,241.3173784631119,520.0821246205712
177,51.32221682437301,-230.13467197701397,45.1904518909289,-106.12147636513146,467.46856892374814,-190.26493055163883,240.20902304923578,524.0415925981214
178,51.13139834884589,-229.08643015391192,45.02531743246407,-107.09711689491428,472.4512535675785,-185.94023656204203,239.13983700418282,527.6070083876804
179,50.9401608248412,-228.10123541867313,44.849884448678,-108.79204220399207,476.9306708618347,-181.3886705056077,238.12809272463562,530.7760448277742
180,50.752395513897156,-227.1950250220425,44.67079444640609,-111.20552324357419,480.88791458375806,-176.67084943646915,237.19086046927777,533.5425843634845
181,50.57191075954792,-226.38202751009635,44.49519024687065,-114.31824408995796,484.3071389780067,-171.84461921151302,236.34364554632756,535.8968412739335
182,50.40238302643207,-225.67446129583308,44.33054226231354,-118.09242056316722,487.17597761260885,-166.96368551612386,235.6000640485789,537.8256770750197
183,50.24730192998015,-225.08228759840256,44.184458623031574,-122.47241483399074,489.4859065695218,-162.07633927829363,234.97156738470994,539.3130991274475
184,50.10990749182283,-224.61302650296048,44.06448530307306,-127.38584650545214,491.232528475412,-157.22431138661142,234.4672246633999,540.3409248405709
185,49.99311853283894,-224.2716429047763,43.977902833555504,-132.7451840517632,492.41575385310864,-152.44178945117594,234.09357026341067,540.8895867095154
186,49.89945194636925,-224.0605067491996,43.93152642605597,-138.4497837122419,493.03985756743026,-147.7546259884679,233.854521847022,540.9390470422312
187,49.83093356290584,-223.9794294470291,43.93151638904954,-144.3883271192782,493.1133907934838,-143.1797630266828,233.7513718259926,540.469785968495
188,49.789002334089695,-224.025775752219,43.983205549615086,-150.4415952057687,492.6489329939345,-138.72489287131208,233.7828529553575,539.4638225490858
189,49.77441055573537,-224.19464780181912,44.09094974562741,-156.48550501587417,491.6626739352911,-134.38836871593824,233.9452763164957,537.9057268767921
190,49.787123818628714,-224.47913551356106,44.25800617861964,-162.39432809878983,490.17382287266474,-130.159371977151,234.23273750425992,535.7835812399127
191,49.82622530834084,-224.87062526518392,44.4864427886997,-168.04400393368024,488.20385064644347,-126.01833576144371,234.6373845409113,533.0898507863019
192,49.88982989233218,-225.35915694743386,44.77708031313614,-173.315458899739,485.7755803418086,-121.93761589877037,235.14973916427064,529.822128566004
193,49.975014046167495,-225.9338182400126,45.12946752397714,-178.0978402693219,482.91215292855554,-117.88239280538433,235.7590618398754,525.9837260329887
194,50.07776797951352,-226.58316425924866,45.54188918828298,-182.2915752686549,479.6359051649141,-113.81177965887585,236.45375004332845,521.5840875065529
195,50.192976194997506,-227.29565031173487,46.01140539915998,-185.81116744633346,475.96720678867507,-109.68010601796321,237.22175875340776,516.6390149437133
196,50.31443210774174,-228.0600651158751,46.533920013776566,-188.58764692211918,471.923311197194,-105.43834228545825,238.05103143738222,511.1706968698744
197,50.434891399615154,-228.86595149978496,47.104274972820505,-190.57059823791766,467.5172775407691,-101.03562970412277,238.92992909849806,505.20754206614805
198,50.5461676606794,-229.70400137721268,47.716366242257536,-191.72969984094237,462.7570224688284,-96.42088197803689,239.8476443496288,498.7838247001699
199,50.639272690000034,-230.56641186194489,48.36327603143405,-192.05572259494775,457.6445572247245,-91.5444265877359,240.79458711732934,491.9391532614909
200,50.70460257814513,-231.44718979608126,49.03741489823731,-191.56095078069964,452.17546086271136,-86.35965535693025,241.76272857038308,484.7177810739752
201,50.73216921311884,-232.342392824107,49.73066650525088,-190.27900724788273,446.33863329537354,-80.8246546293625,242.74589028610606,477.1677812658973
202,50.71187497172344,-233.25029651849997,50.434527347454875,-188.26408394551214,440.11636268931665,-74.90378584113844,243.73996659717287,469.3401136005726
203,50.633826143885365,-234.1714790262476,51.1402340473824,-185.58959905023414,433.48473040951365,-68.56918762433331,244.74306964975545,461.2876140616252
204,50.48867833883962,-235.10881727793435,51.8388721170932,-182.34632125088973,426.4143635288267,-61.80217086319871,245.75558908428087,453.0639401431964
205,50.26800490805709,-236.06739186239315,52.521462424056075,-178.64001930783482,418.87153038522956,-54.594478253712055,246.78016134584226,444.722505151204
206,49.964677271574224,-237.05430098210132,53.179024577568754,-174.58870978407322,410.8195593418398,-46.9493799417423,247.8215471283446,436.3154333227013
207,49.573243870466456,-238.07838720557405,53.8026195299274,-170.31958700837086,402.2205453568429,-38.88257685482978,248.88641896939265,427.8925641911475
208,49.09029237976435,-239.14988383943717,54.383376452751364,-165.96572620819364,393.03729397359876,-30.422883393142154,249.98306429021937,419.50052961684736
209,48.514778209389036,-240.2799906135157,54.912511158031585,-161.66265295754522,383.23543897997575,-21.612661078344676,251.1210121967364,411.1819209566404
210,47.84830171191616,-241.48039099288636,55.38134474479826,-157.54486970252253,372.7856595049203,-12.507974552559244,252.31059515446628,402.97455805635695
211,47.095317176046166,-242.76272565736534,55.78133151510456,-153.74242382575264,361.66591572010367,-3.178441361306074,253.56245908357928,394.91086726276126
212,46.263258591229956,-244.13803838094944,56.10410442890211,-150.37759280137644,349.8636199158029,6.29325189000502,254.8870373387678,387.0173732233274
213,45.362570154216534,-245.6162117791258,56.34154457436769,-147.56175233132612,337.3776609622934,15.812191170603493,256.294005513067,379.31430892885214
214,44.406633238199454,-247.20541135620027,56.48587856766753,-145.3924849602758,324.2202037851484,25.27245268975085,257.791735196476,371.8153496146382
215,43.4115855849009,-248.91155698990147,56.52980486374557,-143.95098108519556,310.4181900282507,34.55870619944801,259.38676571187796,364.52747774031445
216,42.39603233169479,-250.73784116198212,56.46664713688753,-143.29978194708974,296.0144705597085,43.5482025472441,261.0833131634417,357.4509873169642
217,41.38065184627087,-252.68431247822357,56.29053048527757,-143.48091418843202,281.06850477348064,52.113131221787135,262.8828354720055,350.57963567158754
218,40.38770212861499,-254.74754115009893,55.99657427714795,-144.51446590717572,265.6565665631352,60.12331941758438,264.7836702693975,343.9009491460194
219,39.44043585783439,-256.9203804200228,55.581093907269,-146.39765262835,249.87140388475868,67.44922924030415,266.7807598621984,337.3966866084576
220,38.56243428443147,-259.19183491488826,55.041802431912785,-149.10441665000064,233.82130966130532,73.96519492063939,268.8654744735391,331.0434618814347
221,37.77687252028139,-261.547043916251,54.378001804734346,-152.58559428863416,217.62857765372328,79.5528281794285,271.0255419654398,324.81352422978057
222,37.10573175474903,-263.9673844709694,53.5907520698913,-156.7696732090814,201.42733817373974,84.10450787797718,273.2450892054968,318.6756954958376
223,36.568977636816705,-266.43069587710613,52.68300536413952,-161.5641474823415,185.36079443511514,87.5268602710144,275.50479693970027,312.59646321328756
224,36.1837282674785,-268.9116232438915,51.6596902549553,-166.8574624544501,169.5779093143836,89.74412897710069,277.7821663676015,306.541230186092
225,35.96343951367879,-271.382073665919,50.527731492300326,-172.52152550144237,154.2296220983113,90.70132963989171,280.05189177053495,300.475721059729
226,35.91713923908037,-273.8117742474506,49.29599144302567,-178.41474211250303,139.46470307101637,90.3670835201705,282.28632977621277,294.3675435706707
227,36.048745121574285,-276.1689168051469,47.97512271585672,-184.3855188400823,125.42537843865634,88.73602700603148,284.4560522278935,288.1878948676302
228,36.35650252631882,-278.4208695816915,46.57732667880307,-190.2761547468751,112.24287740659317,85.83070005422401,286.5304661133914,281.9133904465397
229,36.83257889177199,-280.53493195008053,45.116019268307866,-195.92702059926083,100.03306582841984,81.70282558738377,288.47848067874395,275.5279743574246
230,37.462848746198084,-282.47910439221386,43.60541302239369,-201.18090052427132,88.89233556116994,76.4339037019043,290.269199021274,269.0248449644629
231,38.22689843682815,-284.22284363432925,42.06003180160742,-205.8873459561552,78.89391456364473,70.13505922617414,291.8726095691313,262.40830286388393
232,39.09827177670043,-285.73777226911636,40.49418122967833,-209.906870214202,70.08474940667884,62.94609885573456,293.26025230156284,255.69540096530136
233,40.044967182777334,-286.99831383462754,38.92140254415108,-213.11479951108257,62.483089509306424,55.03375487394503,294.40583559640123,248.91725761199294
234,41.030183921715306,-287.98222828749385,37.353939644596636,-215.40459868548805,56.07687235989027,46.589116266852294,295.2857823423486,242.11988906218377
235,42.013300756725144,-288.67102907119886,35.80224855924888,-216.6905120491616,50.82297375537011,37.82427450500249,295.8796884928661,235.36443316813464
236,42.95105604852006,-289.05027131828285,34.27457573577233,-216.9094022417973,46.64735054358272,28.96823960259184,296.17068351303016,228.72667306723514
237,43.798885690424456,-289.1097106118246,32.77662719174486,-216.02172877673482,43.44606999965951,20.26221088914595,296.14568984072804,222.2958242203559
238,44.51236520190395,-288.84334218885056,31.311345377299084,-214.01167488874157,41.08719312519586,11.954314080067842,295.79558675651674,216.17261199157005
239,45.04869549486307,-288.249340045955,29.87880515451293,-210.88649680887178,39.41345886918337,4.293938765696969,295.1152916827788,210.46673038466398
240,45.36816880312775,-287.3299225307305,28.47623477469752,-206.67522496245596,38.245699601392914,-2.4741743553542306,294.10377757108085,205.29382650950149
241,45.43555231015882,-286.09117453648145,27.09816218587136,-201.42688428348944,37.3869024662186,-8.11593980628969,292.76404774472576,200.77219214999838
242,45.22133148293147,-284.5428558430568,25.73668174688869,-195.20841482069216,36.62681633978794,-12.413868831295764,291.1030888413,197.01935751202885
243,44.70276174283152,-282.698220427938,24.38183201435656,-188.1024617413422,35.74699062087939,-15.172788917069624,289.13181821043827,194.148770753935
244,43.86468538926129,-280.5738633482104,23.02207198624195,-180.20516888017193,34.5261193474415,-16.22518710191937,286.86503492776615,192.2667136793567
245,42.700081252322875,-278.18960154470375,21.64484074542179,-171.6240590925707,32.74555151715804,-15.436027193248192,284.32137511537803,191.4695563807601
246,41.210327583774074,-275.5683844082282,20.23718322957072,-162.47602562609296,30.194817480025154,-12.706896730128118,281.5232642131719,191.841399823665
247,39.40517301261735,-272.73622054773637,18.78642227151755,-152.88539973600578,26.677014753149624,-7.979346892276129,278.49685216132497,193.45210312288077
248,37.30242426775394,-269.7220999148999,17.280853721651763,-142.98201070633212,22.013896688654846,-1.2372988235513587,275.2719125893186,196.35564966091616
249,34.92737168275547,-266.55788617823845,15.71043742023284,-132.89912583571964,16.050514562745843,7.491594880544802,271.8816846388657,200.58878147182958
250,32.31198387624102,-263.2781536647402,14.067452762182967,-122.77115744984329,8.659277390937456,18.135722310101304,268.3626365896223,206.1698306388874
251,29.493911367153952,-259.9199463453301,12.347084898316577,-112.73105315133088,-0.2566864410064996,30.580475957294013,264.7541341682391,213.0977010031511
252,26.515345105367324,-256.5224425700011,10.547907569095866,-102.90733898353456,-10.760956454467271,44.67042720364075,261.0980028004543,221.35099782430672
253,23.421779721373532,-253.12651739722585,8.672231917636847,-93.42085217502088,-22.88209759179712,60.21268613166308,257.4379810999373,230.887355866573
254,20.26073245215892,-249.77420307534132,6.726297261316416,-84.38126715754211,-36.61281761773943,76.98137388061312,253.81907134513315,241.64306317560153
255,17.080467078833127,-246.50805633394432,4.720288819505208,-75.88357298517785,-51.91000247304489,94.72308843371368,250.28680043019483,253.53310467300295
256,13.928768079003103,-243.37044782088893,2.6681774993448,-68.00469369917253,-68.6955984319941,113.16320297106664,246.88641096875742,266.45174768787643
257,10.85180423756309,-240.40279391359928,0.5873867833476445,-60.80045294932185,-86.85828480898004,132.01280162930613,243.66200649360852,280.2737603254454
258,7.8931139728638895,-237.64475423432174,-1.5016993515191215,-54.30307267617155,-106.25586091586032,150.97603256757978,240.65567701893698,294.85630205057606
259,5.092737073045307,-235.133419666589,-3.5763661822991226,-48.5193680081004,-126.71825622674498,169.75764354484747,237.90663180712858,310.04146803455814
260,2.4865094616153707,-232.90251570671043,-5.6123086147424335,-43.42976237077986,-148.05106303271026,188.0704607670099,235.4503652741457,325.6594169085069
261,0.10552914802429882,-230.98164484702767,-7.5844509590407485,-38.98820291430344,-170.0394858480633,205.64257682503242,233.3178798978777,341.5319718393847
262,-2.024206817415928,-229.39558973906358,-9.467812117815628,-35.12301021715226,-192.45260096466285,222.22402689941467,231.53498716424332,357.47655828229415
263,-3.8820020906384225,-228.16369655389104,-11.2383807292776,-31.73865031501964,-215.0478221873156,237.59275271332967,230.12170444191048,373.31032695849063
264,-5.4525114650264115,-227.29935559474717,-12.873964529658947,-28.718373544395003,-237.5754739740613,251.55967983161483,229.0917625841838,388.8543056762504
265,-6.725660849297426,-226.80959395391028,-14.354979063041494,-25.92762566051969,-259.7833796980591,263.9727649528204,228.45223617815083,403.9374267341921
266,-7.696459005989597,-226.69479277246984,-15.665142980237963,-23.218104308555827,-281.421379239077,274.7199050459479,228.20330567297455,418.4002861530619
267,-8.364724839753062,-226.94853935166105,-16.792050741059573,-20.43230976349808,-302.2456957415033,283.73063863141135,228.33815806495548,432.09850549346413
268,-8.734753690229807,-227.5576219404049,-17.72759867782576,-17.408423553620604,-322.02307615697754,290.9766100512531,228.8430304048227,444.9055855998744
269,-8.81494407985408,-228.50217245438088,-18.468246988923347,-13.985341953791588,-340.5346349597296,296.47080883121873,229.6973981204846,456.7151636741517
270,-8.617403259357287,-229.75595953156457,-19.015107979546773,-10.007692696631524,-357.5793362726036,300.26563666874114,230.8743078680339,467.4426100532766
271,-8.157546284094797,-231.28683093182747,-19.373859229676253,-5.330671724903936,-372.97705732753633,302.4498926522835,232.340852002942,477.0259281589761
272,-7.453699649209055,-233.05730005208457,-19.55448876377054,0.17544849017536132,-386.57118588755355,303.144801633961,234.05877841283137,485.4259492601711
273,-6.526716911647728,-235.0252661913766,-19.570887190803703,6.621267559639449,-398.23071557266474,302.4992400929851,235.98522520953856,492.62584166816265
274,-5.399610354704399,-237.14485257334226,-19.44030865678669,14.094767273255272,-407.8518150500587,300.6843375221425,238.07356494928138,498.62998028380827
275,-4.097199775907464,-239.367340804841,-19.18272781180287,22.658461654198288,-415.3588586962223,297.88764871191324,240.2743383308919,503.4622454758627
276,-2.645777116370042,-241.64217616797671,-18.820123527242735,32.34723910304343,-420.704916944157,294.30710254519227,242.53625341888494,507.16383877275473
277,-1.0727840103577135,-243.91801533881855,-18.375721656497277,43.16692375682949,-423.87171416833934,290.1449352087326,244.807223796034,509.7907161131099
278,0.5935017002607857,-246.14378699534248,-17.87322858129919,55.0935609610084,-424.869071165797,285.60180974886197,247.03541790370176,511.4107475260441
279,2.3242750408452517,-248.26973641832188,-17.33608465415746,68.07341364232704,-423.7338582887039,280.8713102679391,249.1702923200451,512.1007155836728
280,4.090513109424527,-250.24842750169276,-16.78676239497625,82.02364298603844,-420.52849372624087,276.1349787024982,251.16358381108213,511.9432640955077
281,5.863287916101212,-252.035679100362,-16.24612923919169,96.8336373400536,-415.33902938844443,271.5580351931275,252.97023824942846,511.0239036949563
282,7.614084438344297,-253.59141661975087,-15.732889626555327,112.36694564901525,-408.2728756068995,267.28588929268494,254.54925822606344,509.4281733679416
283,9.315123592876331,-254.880423596417,-15.26311694274458,128.46376388562825,-399.4562264924019,263.44151003523655,255.86445478885287,507.2390479341285
284,10.939688703457145,-255.87298150159953,-14.849882588678346,144.94391409073273,-389.031258819399,260.1236821398128,256.88509199258976,504.53467098786183
285,12.462453417659551,-256.545389062033,-14.502987155144442,161.6102465250872,-377.15318531235437,257.4061379491416,257.5864157799062,501.38647946967984
286,13.859808171201893,-256.8803549495577,-14.228796978170875,178.25238745197294,-363.9872457948971,255.33752284845963,257.9500610408875,497.8577690237009
287,15.110180886531571,-256.86725973686396,-14.030187735153131,194.65074909207218,-349.7057170186487,253.94212631282704,257.96433250316085,494.00272939829296
288,16.19434579567921,-256.5022847444941,-13.906594604245113,210.58071453724213,-334.485015716975,253.22129071679979,257.6243565631688,489.86595806522877
289,17.095712473642493,-255.78840708971978,-13.854165462659566,225.8169089009087,-318.50296089463944,253.15539486406797,256.93210256193134,485.4824394593041
290,17.800585783946183,-254.73526208641312,-13.866009783532357,240.13746881924183,-301.9362511633884,253.70629837257042,255.89627355758708,480.8779577507044
291,18.298386815551485,-253.35887621952193,-13.932531864495841,253.32822569131648,-284.95820110195456,254.8201263448922,254.53206847129104,476.0698934954383
292,18.581825137220463,-251.6812762258123,-14.041833391420399,265.18672365964454,-267.73676702884455,256.4302710991498,252.86081960703842,471.06833936890195
293,18.64701374857568,-249.72998227707615,-14.180167525275042,275.52600079570163,-250.4328774338923,258.46048913212775,250.90951191339664,465.8774579529562
294,18.493519923024177,-247.5373957729572,-14.332424955176657,284.17807033584774,-233.19906753469976,260.82797686954706,248.71019288333497,460.4969957029379
295,18.124347675482394,-245.14009474643905,-14.482631930167702,290.997047077002,-216.1784025193258,263.4463179074452,246.2992846474978,454.9238622508606
296,17.545850617847805,-242.57805231539973,-14.614441392045403,295.861871574974,-199.5036615804776,266.2282070199141,243.71681256693196,449.1536835755972
297,16.767577047312482,-239.89379576184425,-14.71160091677426,298.6785915739581,-183.29674600066355,269.0878718503246,241.00556722067452,443.18224169825305
298,15.802051840825195,-237.13152536370677,-14.758384663996999,299.38216644291225,-167.66826995174802,271.9431315368017,238.2102187099691,437.0067226207686
299,14.664501943380241,-234.33621298292553,-14.739980111051231,297.93776661387125,-152.71729249839314,274.7170519299788,235.37640352190732,430.6267079315731
300,13.372533951259733,-231.55270087293346,-14.642823433735922,294.34154631676864,-138.53115321947254,277.33917853483933,232.54980500675902,424.0448629797813
301,11.945773479427386,-228.8248212954166,-14.454879856529015,288.62087446015425,-125.18538103264237,279.7463495626417,229.77524890002329,417.26729444044133
302,10.405476568189055,-226.1945570516479,-14.165867264958905,280.83401556793626,-112.74365498386618,281.88311125185174,227.09583499351763,410.30357102839093
303,8.774123321275763,-223.7012616781087,-13.767423041328943,271.06926061397303,-101.25780561604265,283.7017749493082,224.55212479028756,403.1664218888941
304,7.075003446431792,-221.38095595049666,-13.253215569404418,259.4435167374174,-90.76785493772788,285.162169679581,222.1814029100036,395.8711469049541
305,5.33180261426435,-219.26571484700904,-12.619003181664581,246.10037521045174,-81.30210117930852,286.23115446389176,220.0170275238452,388.43479089074856
306,3.5681976818625216,-217.38315647158828,-11.862644547856055,231.2076882488805,-72.87726086787367,286.88196078571207,218.08788243314862,380.8751481927561
307,1.8074678579204888,-215.75604163324536,-10.984065722266447,214.95469656471028,-65.49868471312945,287.0934367797088,216.4179405768418,373.2096742967985
308,0.07212782205312288,-214.4019897946664,-9.985190222119146,197.5487602218618,-59.16066482899881,286.849260852708,215.02594573203908,365.4543856787437
309,-1.6164122806742571,-213.33331398567543,-8.869839361131561,179.21175490269948,-53.846848662593054,286.1371840252086,213.92521598796552,357.62282804872694
310,-3.2381560397363103,-212.55697405518976,-7.643610421801238,160.1762039331595,-49.53076998700383,284.94834831442387,213.12356924683908,349.7251867395911
311,-4.774795991265102,-212.07464436192174,-6.313740056716231,140.68122326051687,-46.176500299333824,283.27671434877806,212.62336759364987,341.7676022086601
312,-6.209952091619762,-211.8828888800762,-4.8889595267902575,120.96836192643482,-43.73941602110672,281.11861664675337,212.4216740886016,333.7517396261986
313,-7.529370855010711,-211.97343401796672,-3.3793470251111146,101.27742431797625,-42.16706897901572,278.47245096690983,212.51051267573308,325.674645472781
314,-8.721082543995475,-212.33352741427066,-1.7961805535600017,81.8423625123274,-41.400140446070075,275.33848581122186,212.8772196800492,317.52890698778066
315,-9.775513765496889,-212.9463696077413,-0.15179287036627154,62.88732726140819,-41.37345302051733,271.71878017788083,213.50487381638322,309.30311313614254
316,-10.685552929001425,-213.79160468600207,1.5405718542625984,44.62296449791251,-42.01701017777001,267.61718242452423,214.37279068288296,300.9825993965497
317,-11.446566400316081,-214.84585572052694,3.266901680482811,27.243040551974346,-43.25703078657127,263.03938078398755,215.45706728171697,292.55044394019734
318,-12.056363892695774,-216.0832909410007,5.012564109871032,10.921473272323498,-45.01694555759244,257.9929745461625,216.7311621559486,283.98867030068044
319,-12.515112689837482,-217.47620714173743,6.762460893444538,-4.190162466799902,-47.21832455364033,252.48753586917238,218.16649720418675,275.2796019397139
320,-12.825201686777808,-218.99561762984172,8.501194632655357,-17.964598153514345,-49.7817096584034,246.53463529570607,219.73306801642514,266.40730771186367
321,-12.991057920278903,-220.61183298997824,10.21325093187918,-30.300261961562587,-52.62733315158324,240.14780903810922,221.4000505306729,257.35907459578857
322,-13.018920138449458,-222.29502401067091,11.883198858167427,-41.12207123428237,-55.675712756287645,233.34245255610102,223.13639288691243,248.12684530853144
323,-12.916575861009774,-224.01575730453183,13.495910993147081,-50.381620993312836,-58.84812373864355,226.13563229207838,224.91138254963857,238.7085631220515
324,-12.693070083840277,-225.74549541674534,15.036802599395838,-58.05678133197243,-62.06695864044777,218.54581498862063,226.69518002214377,229.10937352529467
325,-12.358395128913513,-227.45705443659938,16.49208760902133,-64.15073486365392,-65.25599390599375,210.59252121347131,228.45931166034205,219.34264136797287
326,-11.923172156851656,-229.12501319658654,17.849047469380082,-68.69050201928275,-68.34058915544988,202.29591611698223,230.17711510840834,209.43075183960912
327,-11.398335633978657,-230.72606903487076,19.0963073653566,-71.72501592880282,-71.24784854403148,193.67635572844964,231.82413170256078,199.4056731857566
328,-10.794832522586299,-232.23933591033315,20.224112851597262,-73.32281906462052,-73.90677426047796,184.75391103544354,233.37844091744702,189.30926770144973
329,-10.123347926278733,-233.64658159546002,21.22459843570437,-73.5694604457394,-76.248439867801,175.54789452352392,234.8209327541977,179.1933448030629
330,-9.394068138640538,-234.93240186881945,22.09203836192412,-72.56467524620031,-78.20620621139888,166.0764147544552,236.1355150392665,169.11945574393647
331,-8.616490343727365,-236.08433106299518,22.823069061444613,-70.4194286508009,-79.71599545292395,156.35598410101318,237.3092539242921,159.15843397939307
332,-7.799285565978134,-237.09288994085946,23.41687264124318,-67.25290323100786,-80.71663001714072,146.4012031502256,238.3324474228321,149.38968853917075
333,-6.950218085178943,-237.95157365592698,23.875311412411282,-63.18950434287701,-81.15023372539609,136.2245425474915,239.1986335952785,139.90026014907056
334,-6.07612086794699,-238.65678437074126,24.203004799940192,-58.35595155133443,-80.96268326749778,125.8362390480767,239.9045368866526,130.7836514108428
335,-5.182923082386678,-239.20771468338117,24.407341973542877,-52.87851663387049,-80.1040905861485,115.24431731297922,240.44995786310213,122.13844358642845
336,-4.275722785876131,-239.60618914009308,24.498426029027875,-46.880461265485984,-78.52929158816636,104.45474292686563,240.8376129629893,114.06671428717554
337,-3.3588956449182192,-239.8564717970967,24.48894829057254,-40.47972075534788,-76.1983143905884,93.47170582923405,241.07293185690017,106.67227354522569
338,-2.4362292543865878,-239.96504814654924,24.393994070426523,-33.786874326905796,-73.07680134873681,82.29802740538436,241.16382068217382,100.05874095320786
339,-1.5110723347510382,-239.94038978585615,24.230783840269655,-26.903436991500975,-69.13636337914406,70.93567929277366,241.12039980592047,94.32749389489676
340,-0.5864886539185908,-239.7927099291829,24.01835610862116,-19.920502428763204,-64.35485205304009,59.38639778295939,240.95472479926127,89.57552586531683
341,0.3345932879494158,-239.53371722391586,23.777200274710175,-12.917759865024257,-58.71654353784257,47.6523746880482,240.6804989463028,85.89326351099366
342,1.2492421017111959,-239.17637456191932,23.52884928711335,-5.962900242066966,-52.212237369549094,35.737003719887724,240.312785071065,83.3624000295691
343,2.154402130128081,-238.73466901407372,23.295443039936963,0.8885823171669219,-44.83928093085724,23.64566070647924,239.86772408356074,82.05380960598134
344,3.046791908714031,-238.22339877878585,23.09927403772326,7.593198547958068,-36.601536282375285,11.386496210388472,239.36226752478177,82.02561144887939
345,3.9228235109599745,-237.6579828547788,22.96232682908716,14.118898249345811,-27.509308872748115,-1.0287797877097393,238.81393125089087,83.32145190645812
346,4.778542221882075,-237.05429864120913,22.905821913940457,20.44415957446032,-17.57925729205347,-13.58413966075276,238.24057684678945,85.96906875280037
347,5.609584892841353,-236.42855163294493,22.949773308504568,26.55677433489594,-6.834299795847295,-26.258522596354773,237.66022620658836,89.97919324100354
348,6.411154714222178,-235.79717987255222,23.112566992498557,32.45238130211902,4.696472502677902,-39.02517551057844,237.09091305049466,95.34483355541305
349,7.178009958566278,-235.17679404886366,23.410565484923772,38.13280873230361,16.977873036404766,-51.8510616994995,236.550573211509,102.04096874035714
350,7.904464529436412,-234.58415227996906,23.857742213400165,43.604293980625656,29.968692329652406,-64.69634607258507,236.05697354877344,110.02466601093296
351,8.584398918920526,-234.03616673256457,24.465348439198,48.875651732247974,43.621776405511014,-77.51396350369895,235.627677403849,119.23561763285366
352,9.211281283062904,-233.5499372368072,25.241615289333854,53.956463238064394,57.88412565406155,-90.24927501930645,235.2800425373459,129.59707745636047
353,9.778199511437293,-233.14280490631862,26.191493661945334,58.855357461442715,72.6970294486795,-102.83981577491528,235.0312453817417,141.01716277505608
354,10.277906117038379,-232.83241656369515,27.3164350694172,63.57845148386779,87.99624912620682,-115.21513947220492,234.89832327424213,153.39047516286595
355,10.70287826723757,-232.63678874054838,28.61421669422261,68.12801171037054,103.71225662945402,-127.29676610397708,234.89822430124448,166.59998458912685
356,11.045395157760332,-232.5743584505103,30.07881407968622,72.50138898020026,119.77052945206732,-138.99824342304416,235.04785277091702,180.51911444242253
357,11.297634225158152,-232.66400703378747,31.700324983135125,76.69026956429491,136.0918960047227,-150.22533686568005,235.36409734394272,195.01396115585
358,11.45178657904297,-232.92504320623544,33.46494792053706,80.68027082214574,152.59292052418687,-160.876367293558,235.86382855865733,209.94558115130042
359,11.500190715339704,-233.37713199470394,35.35501886906291,84.4508961383092,169.18631427188353,-170.84272031327615,236.56385288259293,225.17228013922883
360,11.435482272858904,-234.040157519459,37.349109652925925,87.97584993114651,185.78136058079167,-180.00955451455158,237.480811558345,240.55184554829023
361,11.250756601825636,-234.93400959376163,39.422191748991175,91.22370103860237,202.28434516119995,-188.2567380412336,238.63101440139118,255.94367162263023
362,10.939740399880936,-236.07828671629892,41.54586932403761,94.15887218027466,218.59898916339534,-195.46004268338544,240.03020118555915,271.21073753770975
363,10.496968544289729,-237.49191111053878,43.68868491053754,96.74292452998016,234.62688961952279,-201.4926214779922,241.69322614687277,286.2214104379722
364,9.917962269960729,-239.19265509718335,45.816500114763286,98.93609949973828,250.26797878966724,-206.2267893418935,243.63366450386417,300.85105636508774
365,9.199404875352215,-241.19658236002383,47.89295221918234,100.69907443435767,265.4210196137117,-209.53611675475912,245.86334382800695,314.98345183074525
366,8.339311220853217,-243.51741237716834,49.8799856653559,101.99488493486585,279.98415835220953,-211.29783453323168,248.39180742704139,328.5119969951109
367,7.337187508751472,-246.1658210272131,51.73845528367547,102.79096377929704,293.85555740802846,-211.3955339107247,251.22572123908049,341.34073799377654
368,6.194178201280117,-249.14869479011693,53.42879570072744,103.06124440797785,306.934131226904,-209.72213099514235,254.3682397179261,353.3852108013536
369,4.913197326290532,-252.46835984218774,54.91174847960396,102.78827489631095,319.12040600435535,-206.18304875149818,257.8183495972289,364.57312185639233
370,3.4990417002554737,-256.1218105975174,56.149135281893,101.96528537017718,330.3175196094805,-200.69955357439068,261.5702131623481,374.84488123861644
371,1.9584837021878747,-260.099964809816,57.10466196058838,100.59814725372507,340.43237180673424,-193.21216798684475,265.6125347159095,384.1540024837036
372,0.30034119736939685,-264.3869741431541,57.74473537897304,98.70715640340565,349.37692693223096,-183.68406679869423,269.92797529168155,392.4673795271746
373,-1.4644778283022242,-268.9596201125148,58.03927224579168,96.3285647046463,357.069662238011,-172.1043520678129,274.49264138863737,399.7654465380191
374,-3.3229582250518437,-273.7868255663848,57.96247751979245,93.51577762015954,363.4371457260457,-158.49109344352513,279.2756736782604,406.0422215259949
375,-5.259990102602777,-278.82931165112484,57.49356884550187,90.34013037091032,368.41571801394946,-142.8940157373982,284.23896146833476,411.3052305303868
376,-7.258411880082201,-284.03942971638804,56.61742296604666,86.8911540430064,371.9532442553968,-125.39671492828681,289.33700841452804,415.5753064075099
377,-9.29908423085403,-289.36119688337016,55.32512052619937,83.2762448335948,374.01089495617725,-106.11828673584213,294.5169746283688,418.8862545645561
378,-11.36099440235153,-294.73056247319244,53.614367681240225,79.61965460190301,374.5649087387091,-85.21425833308751,299.71891952992394,421.2843770156343
379,-13.421390081763029,-300.0759293643459,51.48977643958957,76.06073013821775,373.60828516997066,-62.87672473447186,304.8762677234745,422.8278458776619
380,-15.455942348175494,-305.31894904212743,48.96299011643415,72.75134506890006,371.15235107893784,-39.33360805741399,309.9165161372674,423.58591853052945
381,-17.438938179308284,-310.3756015037686,46.05264516109087,69.85249495001223,367.228139128951,-14.846980210858815,314.76219442249993,423.6379897809975
382,-19.343504223421064,-315.15756148878955,42.78416579597953,67.53006365600818,361.88751284222604,10.289583696377555,319.3320822917581,423.0724813248403
383,-21.141864984821424,-319.5738410871623,39.18939337887612,65.94981583849525,355.2039680335464,35.75462455602817,323.5426774405188,421.98557453653586
384,-22.80564015748105,-323.5326861247808,35.30605805953201,65.27172247470297,347.273037315925,61.20336375480282,327.3098963705281,420.4797978317868
385,-24.30618737025487,-326.94369039109387,31.177105797153224,65.64378016102465,338.2122232093384,86.27315459885314,330.5509782632464,418.66248369152686
386,-25.614997646801392,-329.72007839191184,26.84989868485147,67.19553548814294,328.16038810584536,110.58973152723905,333.186549532323,416.6441126890204
387,-26.70415091739236,-331.78109465672287,22.37531047754814,70.03156903996928,317.2765376002146,133.77413824970748,335.14279450051475,414.53656272306375
388,-27.546837485492464,-333.05442664450015,17.806742104856614,74.22522476456095,305.73794857049046,155.45018815061215,336.35366672048445,412.45128154928665
389,-28.11794812068179,-333.47857998953134,13.199083694764745,79.8128858530984,293.7376150729488,175.25228531608985,336.763066833283,410.4974003262373
390,-28.39473040341648,-333.0051200584072,8.607650257890631,86.78909555055819,281.4810129494817,192.8334132355073,336.3269074405117,408.7798063294896
391,-28.357502551304506,-331.6006930042791,4.087117881580651,95.10280018680793,269.1822167334933,207.87308150015713,335.0149837974587,407.3971954069263
392,-27.990408939086887,-329.2487428047592,-0.3095137391917418,104.65495379301962,257.05943810720663,220.08500963101775,332.81257140661023,406.4401298297121
393,-27.282194359180618,-325.95084810839495,-4.531908319053095,115.29767219183172,245.33009134651095,229.22432242710534,329.7216778162824,405.98913459070775
394,-26.226966897107555,-321.7276138750662,-8.533307826598886,126.83506349634072,234.2055250579055,235.09403351175658,325.76188591826286,406.1128735314716
395,-24.824912408434443,-316.6190672025242,-12.271356340072787,139.0257956730964,223.88558844691326,237.55060318516493,320.97073923807795,406.8664542100803
396,-23.082917692297162,-310.68452349995664,-15.708817248393604,151.5873943262769,214.55322244684197,236.50837325494874,315.4036352721365,408.2899159374042
397,-21.01505555463831,-304.0019073319279,-18.81417129314978,164.2021992873911,206.36928006789748,231.94270524692823,309.1332099394809,410.40695840484864
398,-18.642884215465436,-296.6665308731951,-21.562085998985154,176.52485028900648,199.46778553862,223.8916789901273,302.2482138475245,413.2239686063366
399,-15.995517019226023,-288.789351184194,-23.93375008503144,188.19112115747163,193.95183771033848,212.45624525802364,294.851898656142,416.7294012408534
400,-13.109426510816313,-280.49474492290045,-25.917069755847848,198.82787742579634,189.89034934483828,197.7987683791237,287.0599489443308,420.8935627017799
401,-10.027958958146371,-271.91785533793217,-27.506727405073217,208.06389191886677,187.31578985356927,180.139942558635,278.99801129472496,425.6688416103968
402,-6.800550006454123,-263.20158106211574,-28.704106851655528,215.54121537507646,186.2230646997575,159.75411902387106,270.798887260879,430.9904198451167
403,-3.481647989382769,-254.49328882176167,-29.517092163057047,220.92676507587666,186.5696207780446,136.96313881923803,262.59946970384226,436.7774866129351
404,-0.12936751013732398,-245.94134217519814,-29.959749004382502,223.92376618190673,188.27681542908624,112.12882544170654,254.5375119553483,442.93496311813465
405,3.1960883481649045,-237.69154546545923,-30.051898281163663,224.28266149220545,191.23252994862415,85.64434863990063,246.74832594077168,449.355725541332
406,6.434183872254409,-229.88360625393287,-29.81859182669812,221.81109901459413,195.29494980320854,57.92472112493916,239.36150865081038,455.9232888216742
407,9.52591781770952,-222.64772064386523,-29.28949928707545,216.38261559561298,200.2973768971587,29.396729528237938,232.4977961903921,462.5148843127666
408,12.41572392194671,-216.1013840071995,-28.498214667495958,207.94366037995516,206.0538874962402,0.4886268353919374,226.2661409813697,469.0048340561824
409,15.053319648339151,-210.34652442035102,-27.48149105145417,196.51864410492604,212.36560561256115,-28.380075648869536,220.76110046055842,475.2680976345333
410,17.39541527620789,-205.46704737236954,-26.27841354068987,182.21275733031788,219.02732858005223,-56.808383315339164,216.06061493755033,481.1838482132689
411,19.407197888210813,-201.52686808664063,-24.92952359848856,165.2123690690446,225.83422243906386,-84.42284618917266,212.22423868091627,486.63892486053834
412,21.06351247291569,-198.56849245017776,-23.475912108937163,145.78289279902802,232.58830267131322,-110.88555854194044,209.2918726150928,491.53100976783344
413,22.34967505708254,-196.61218961128796,-21.958302601181007,124.2640863964698,239.10443217575136,-135.9008929364073,207.283030137362,495.77139221627226
414,23.26186999498446,-195.65577945808752,-20.416149246390795,101.06283479678834,245.21560181884823,-159.22078456173574,206.19665033001596,499.2872061145024
415,23.80710441598144,-195.67503725855929,-18.886775765737887,76.64354905734994,250.77730578953438,-180.64844177045393,206.0114559804144,502.0230635360024
416,24.0027162337073,-196.6246966714887,-17.404581014806112,51.516402784718586,255.67087967269322,-200.0404226263219,206.68683792758327,503.942049773715
417,23.87545660674632,-198.44001210866867,-16.00033463743059,26.223715070542983,259.80572852906766,-217.30708080532338,208.16423266760526,505.02609056963985
418,23.460191411373657,-201.03882299837827,-14.70058195540377,1.3248745706335945,263.120429630196,-232.41144353213485,210.36894688263902,505.2757422660688
419,22.798286980113982,-204.32404666543394,-13.527171809009593,-22.619723337290957,265.58274418830354,-245.36663719569682,213.21237043406333,504.7094836801392
420,21.93576132418611,-208.18651390425381,-12.496915344899858,-45.06519174786342,267.18861074111004,-256.23202194045786,216.5945084391798,503.3626000144895
421,20.921292427303896,-212.50805240501683,-11.621378597139175,-65.49854341264356,267.9602194394629,-265.10823412785044,220.40675394695714,501.2857437974697
422,19.80417985370144,-217.16471839539153,-10.906807600381244,-83.45436524333913,267.94328381961486,-272.13136411919675,224.53481633393497,498.5432398177317
423,18.632355166627747,-222.03007616577437,-10.354181836111206,-98.52919483535301,267.20363827213555,-277.46651536398764,228.86171742981105,495.2111773221243
424,17.450531127051562,-226.97842805777867,-9.959389843053685,-110.3940563677243,265.8232982655173,-281.300998648278,233.27076755756312,491.3753109110988
425,16.29857020100646,-231.88790331022,-9.713519349820393,-118.80467689843775,263.8961278039573,-283.8374124066724,237.64843677851474,487.1287774036219
426,15.21014045988795,-236.6433222571126,-9.603252796686414,-123.60898965979169,261.52326438474864,-285.28684651504796,241.887042248248,482.5696325578328
427,14.21171218493052,-241.13876233343785,-9.61135736829548,-124.7516351975294,258.80845488048004,-285.8624237685014,245.88718039361177,477.79821966267167
428,13.321931724715437,-245.27976389848513,-9.717256792296295,-122.27529052680259,255.85345558067775,-285.7733618602689,249.55984240738678,472.9144007883573
429,12.551390751591374,-248.98512681006864,-9.897670427976495,-116.31878630542943,252.75364608975858,-285.2197013558454,252.82816310822906,468.01470844900257
430,11.902789801697693,-252.18826268313205,-10.127303715600442,-107.11210595611783,249.59400021764418,-284.38780437454517,255.62876615642878,463.18950593502103
431,11.371475997104111,-254.83808246881253,-10.379572910142244,-94.968490577492,246.44554741026292,-283.44668675273704,257.9126824419256,458.52027179840354
432,10.946317223979548,-256.8994140187075,-10.627346184867202,-80.27399067615433,243.36244512115957,-282.5452054876224,259.645832673,454.0771404099147
433,10.610859609967077,-258.3529593415767,-10.84368261871182,-63.47490256434167,240.37976510527992,-281.81008535302107,260.80907940453795,449.9168302855529
434,10.34470245260034,-259.19481602112717,-11.002550214425144,-45.06359829814697,237.51207439451048,-281.3447360332494,261.3978676370834,446.08107294567077
435,10.125015235219257,-259.4356012590511,-11.079504069356737,-25.563300682515305,234.75286450684507,-281.2287863812004,261.42148625785313,442.5956202075924
436,9.928115751839705,-259.09922940496784,-11.05230656313625,-5.512369208638846,232.07485084335087,-281.5182472258341,260.9019942755322,439.46986376475263
437,9.731027556003914,-258.2214036830612,-10.901473274552776,14.551349104617186,229.4311303596021,-282.2462083636493,259.87286522609503,436.6970558790575
438,9.512939228787952,-256.8478895115696,-10.610731148451102,34.1055848624581,226.75715260470218,-283.42397691648097,258.37740980544595,434.25508104386904
439,9.25649659976399,-255.03264023063036,-10.167378765873245,52.6576623075677,223.97342919217883,-285.0425707522825,256.46704067011456,432.1076999250743
440,8.948870900788618,-252.83584637668622,-9.562542129617778,69.75706977324297,220.98887977968732,-287.0744904067072,254.19944461933633,430.20617012025554
441,8.582559834368492,-250.3219770370619,-8.791322983058048,85.00626675206698,217.70468837900762,-289.4757041807762,251.63672614030392,428.4911421203763
442,8.155893659117893,-247.55787643480278,-7.8528400379478835,98.06949327129784,214.01852332239613,-292.1877916556628,248.8435825452333,426.89473076833013
443,7.67323360368845,-244.6109710279869,-6.750166326368641,108.67943128926724,209.8289594262186,-295.1401989387155,245.8855647323086,425.34266993626704
444,7.1448645047859864,-241.54763255488925,-5.490168228142471,116.64164883354191,205.03993325944288,-298.2525639103338,242.82746930416056,423.7564691935076
445,6.586597142627092,-238.43173119437557,-4.083253742785967,121.83683260207677,199.56506226327843,-301.43707212252184,239.7318978827529,422.0555044320054
446,6.0191078870730585,-235.3234010004583,-2.5430393698083797,124.22088102495002,193.33166528986052,-304.60080497189614,236.65800855704185,420.15898841371603
447,5.467053358652805,-232.27802791486525,-0.8859465565230821,123.82298539892545,186.28433512213377,-307.64804253217335,233.66047330150528,417.9877809801839
448,4.95800537873402,-229.34546006776952,0.8692598985248848,120.7418711637007,178.38793187239992,-310.48248477406077,230.78864497263675,415.46601176247674
449,4.5212564916430065,-226.56943164145548,2.701977884781074,115.14040551049631,169.62988906961326,-313.0093570798866,228.08592906792947,412.52250061250794
450,4.186549107023699,-223.98718559234896,4.590303974219336,107.23880270194468,160.02175090796436,-315.1373689144844,225.58934921088988,409.09197263113265
451,3.982782186880249,-221.6292767610737,6.511584352306514,97.30667617144866,149.59988841595936,-316.7804981853582,223.32929116162055,405.116075364961
452,3.93674851596743,-219.51953492214392,8.442965505704278,85.65419805508033,138.4253727701827,-317.8595782862707,221.32940770085096,400.5442150808062
453,4.07195287344171,-217.6751667541918,10.36192986401159,72.62263357557559,126.58301416772277,-318.3036700468321,219.60666568297324,395.33423648415794
454,4.4075568268836145,-216.10697622162496,12.246802679785636,58.57452038681108,114.1796034809696,-318.05120632185265,218.1715166293446,389.452975062469
455,4.957489563287408,-214.819684134745,14.077218171457915,43.88376138709819,101.34142065206738,-317.05090176551437,217.02817315647988,382.87671237495715
456,5.7297565299077045,-213.81232939611792,15.834535115515276,28.925892677930165,88.21109792314257,-315.2624234169666,216.1749750083465,375.5915611575084
457,6.725969158873447,-213.07873637509934,17.502194454274335,14.06877533594883,74.94394696910261,-312.65681852847194,215.60483019683488,367.59379880194274
458,7.94111001568494,-212.60803473973522,19.066013993069628,-0.3360598699953438,61.7038760983116,-309.21669481508724,215.3057184823801,358.8901553665446
459,9.363538520648634,-212.38521970462938,20.514417869950886,-13.96121141352687,48.659035904803275,-304.9361462643234,215.2612459250941,349.4980478390531
460,10.97523292586814,-212.39174185502858,21.838601109891282,-26.51017744541636,35.97733747861547,-299.82041737619426,215.4512403363621,339.4457394052081
461,12.752254783481453,-212.60611641379305,23.0326319758137,-37.72296171280938,23.82198480955719,-293.88530313354033,215.85237805820114,328.7723949689517
462,14.665413648982483,-213.0045421979931,24.093496657382403,-47.380419154444276,12.347152364541467,-287.15629196510963,216.43883266515363,317.5280041227285
463,16.6811031915776,-213.56152098133967,25.021091868581983,-55.30728791092918,1.693922764456716,-279.6674718357047,217.18293624566348,305.77314844309916
464,18.762275403879286,-214.2504688819877,25.81817116407705,-61.37389664174468,-8.013417975985318,-271.4602313518794,218.05584421973538,293.5785975282232
465,20.869516727170513,-215.0443126859168,26.490250450903183,-65.49657529412305,-16.670646411540247,-262.58179620375796,219.02819522498382,281.02472497957416
466,22.962188168317983,-215.91606537221676,27.045477572848142,-67.6368327754289,-24.19636209789746,-253.0836467062798,220.07075823141025,268.20074147666156
467,24.99959069710253,-216.8393762274625,27.49447016008601,-67.79939645712018,-30.53418928866351,-243.01986602636578,221.15505949080674,255.20374837735423
468,26.94211740010707,-217.7890515678296,27.850125105448797,-66.02923624901804,-35.65438033250874,-232.4454721025678,222.25398197532644,242.13762291228295
469,28.752355221640105,-218.7415420076061,28.127401913288207,-62.40771990842659,-39.554795706978865,-221.4147899456147,223.3423294423714,229.11175533072168
470,30.396101910985298,-219.67539153447902,28.343080813241915,-57.048065925377,-42.26125089814718,-209.97992466780678,224.39734637185907,216.23966852679754
471,31.8432681523108,-220.57164298699718,28.515495233183508,-50.090275246700294,-43.82723530922002,-198.18939790256402,225.39918444987146,203.63755977901388
472,33.068640656289524,-221.41419449882366,28.664237372323594,-41.69573235302494,-44.333021581151954,-186.08700956742547,226.33130669281383,191.4228098121884
473,34.052488818523315,-222.190102145124,28.809835518293653,-32.04166856814165,-43.88419404091334,-173.71098201746233,227.18082177383727,179.71250455830724
474,34.781004683280166,-222.88982503534191,28.973402558822013,-21.315675020622766,-42.609632275219525,-161.09343425375224,227.93874316187342,168.62200932103534
475,35.246572628071355,-223.50741014621977,29.176256776822765,-9.710439242496934,-40.65899093822765,-148.26022063682336,228.60016985524845,158.2636248784555
476,35.447870939204066,-224.04061525412465,29.43951814856951,2.5811412764369224,-38.19972140552022,-135.23115279899872,229.16438761259954,148.74534302023608
477,35.38981217368335,-224.49096951280495,29.783685460679173,15.370341703547457,-35.413686234113676,-122.02060660006552,229.63489165415498,140.16970791635373
478,35.083332998492985,-224.86377254868714,30.228201145039552,28.47639209434692,-32.49342425796123,-108.63849922783015,230.01933378850427,132.63278149507582
479,34.545047231738224,-225.16803424305664,30.791011569012962,41.72959473473833,-29.63813233080558,-95.09160572096391,230.32939864550292,126.22320626384307
480,33.79677817127556,-225.416358379371,31.48813060048687,54.973743594068345,-27.049438448410474,-81.38516975635811,230.58061492712102,121.0213571194668
481,32.86498793209955,-225.62477384294385,32.33321371072162,68.06784173451824,-24.927049295132726,-67.52475074362889,230.79210812580956,117.09857338875149
482,31.780122365257036,-225.8125169499604,33.33714893812254,80.8871372059689,-23.46436220976094,-53.51823825218216,230.98630090966967,114.51646236959468
483,30.575890308832545,-226.00176773797577,34.50767008279014,93.32351792611685,-22.8441361513069,-39.37795574028273,231.18856638432229,113.32626532186087
484,29.288495684023225,-226.21734180383638,35.84899684439638,105.28532167345841,-23.23431749590965,-25.122768813747175,231.42683792594752,113.56827631742814
485,27.955840465716893,-226.4863377899353,37.36150637062129,116.69662951000011,-24.784113830153633,-10.780109426226984,231.73117754708665,115.27130441761193
486,26.616715729210753,-226.83773917484956,39.04144081052668,127.49612059189751,-27.620402590063957,3.6121725994071947,232.13330307811157,118.45217129649026
487,25.309996671648946,-227.30196786396098,40.880655853875524,137.63557382276906,-31.844552556431054,18.00421475703195,232.66607304068697,123.11524014370637
488,24.07385596664731,-227.91038649795433,42.86641577498192,147.0781069493807,-37.529726077744144,32.332878442934685,233.36292726353503,129.25197693909362
489,22.945008538797417,-228.69474679488397,44.98124122533518,155.79624602502324,-44.718718929969,46.52087875329966,234.25728150090453,136.84055065254913
490,21.95800009981008,-229.68658290261644,47.20281718799789,163.76991743566919,-53.422382842227336,60.476354874734625,235.3818759302832,145.84548322143903
491,21.14455137992319,-230.91655158029005,49.50397039592592,170.98445108053627,-63.61866311470183,74.09291397529269,236.76808039956265,156.21736265214338
492,20.53296948898491,-232.41372459810452,51.85272803566238,177.42867736808577,-75.25227123889069,87.25016748844882,238.44516318395918,167.89263354690485
493,20.1476368098881,-234.2048424658443,54.21247200992423,183.093193360309,-88.23500101058768,99.81476514789313,240.43953406875124,180.7934797811916
494,20.0085859572215,-236.31354199679842,56.54220440464017,187.96886593998164,-102.44668702331305,111.64191923017427,242.77397610770547,194.82781540415994
495,20.131166569354637,-238.7595730267767,58.79693944279775,192.0456334375592,-117.73679680088188,122.57739969604401,245.46688303582005,209.88940343121547
496,20.525806208006273,-241.55802174676776,60.92823510017447,195.31166213649334,-133.92664181824853,132.45997100199395,248.53152096806397,225.85812859185782
497,21.19786367351272,-244.71855948933825,62.88487397498029,197.75290987966144,-150.8121878307131,141.1242337263337,251.97533368721528,242.6004588038211
498,22.14756893495053,-248.244736367931,64.61369808988903,199.35314423755165,-168.16744106974602,148.40382849124325,255.79931049611557,259.9701397755579
499,23.37004013753972,-252.1333390841002,66.06059608747947,200.09445551469116,-185.74838367481087,154.13495489204269,259.997434487181,277.8091755849462
500,24.855365463370124,-256.3738319778605,67.17163384307786,199.95829318341055,-203.29742821538582,158.16015308197296,264.5562276935455,295.9491527287182
501,26.588736480429308,-260.9479004965531,67.8943111070102,198.92703606165279,-220.54835548115116,160.33228959577184,269.4544084906762,314.2129632531973
502,28.550620003305525,-265.8291168158684,68.17891784959845,196.98608006137613,-237.23168993419708,160.51868173808776,274.6626760058322,332.4169719789433
503,30.716957042435546,-270.9827479921258,67.97995514995004,194.12639233177717,-253.08045228250157,158.60528651598636,280.1436358856402,350.3736527312765
504,33.05937991210701,-276.36572714807573,67.25757745108652,190.34743907549898,-267.8362088569519,154.5008709912038,285.85188108922057,367.8946900049294
505,35.545442072299274,-281.9268072988546,65.97900645525347,185.66035053192505,-281.2553142061895,148.14107162770338,291.7342400762425,384.794508344628
506,38.1388598527549,-287.6069152725419,64.11986238432445,180.09114617128867,-293.11521843625087,139.49224133695688,297.7302027412368,400.8941553914778
507,40.79977063858641,-293.3397197627733,61.66535615248565,173.6838112694935,-303.2206864266884,128.5549749625066,303.772531763216,416.02542952199616
508,43.485017937735066,-299.0524230388465,58.61128642176235,166.50299636787878,-311.4097543770968,115.36719729129278,309.7880638500747,430.0351123437773
509,46.14847934850252,-304.66678045455086,54.964788696225796,158.63610524648635,-317.5592323043102,100.00669297744584,315.6987018044155,442.78914233935865
510,48.74145793975425,-310.1003457323487,50.744789731860344,150.19454498792672,-321.5895509331314,82.59295616467544,321.42259439744737,454.17655025654057
511,51.21316006641328,-315.26793295465797,45.98212980173685,141.31393303031672,-323.46874936633844,63.288240528678294,326.875496508581,464.11297055392924
512,53.51128255699076,-320.0832780650094,40.71932788781489,132.15309087301486,-323.21540711142757,42.29769910273999,331.97229659653624,472.5435473267942
513,55.58272934742997,-324.4608733086755,35.009980522244746,122.89170339071283,-320.9003410959431,19.868518116934673,336.628692062787,479.44506864371783
514,57.37447222250995,-328.3179375162033,28.917803173109796,113.72658838594752,-316.6469150266449,-3.7120299779168433,340.7629853493311,484.82719084897593
515,58.83456277962558,-331.5764739756884,22.515342537485356,104.86660465188189,-310.6298437551963,-28.119662747218992,344.29796483752585,488.73265405766733
516,59.91329336289279,-334.16535673957304,15.882406861188333,96.52632780738202,-303.07241757763165,-52.99731079892664,347.1628251349282,491.2364400111997
517,60.564493666574855,-336.0223765441499,9.104276874971701,88.91873606709784,-294.2421191616199,-77.96047060923765,349.29507160568335,492.4438790993962
518,60.7469372191082,-337.09616999299726,2.2697697128409193,82.2472605468857,-284.44465845103724,-102.60363267340004,350.6423447434276,492.4877671454984
519,60.425818721833615,-337.34795130321504,-4.530769199596477,76.69764776509136,-274.0165087068383,-126.50769026560582,351.16409255888857,491.52459629624366
520,59.57425035989158,-336.75296612967895,-11.207475851465524,72.43013448403468,-263.31609008217407,-149.2481911759613,350.8330155911267,489.7300339044288
521,58.17471391615897,-335.3015932462373,-17.67291854237103,69.57243084095184,-252.71381470925581,-170.40424981816258,349.6362115132042,487.29380172239047
522,56.220396712737,-333.00003288963387,-23.843941878575848,68.21394317844955,-242.58127569230376,-189.5678919385252,347.57595558307423,484.4141225006462
523,53.716333733171005,-329.87053958461996,-29.643366910405934,68.40155478244839,-233.27992578657526,-206.35356229306967,344.67006864481664,481.29191637015185
524,50.68027642878978,-325.95118008873374,-35.00151820491069,70.13714398360173,-225.14964302234372,-220.40749181023932,340.9518438864238,478.1249412680511
525,47.143211659503116,-321.2951209469491,-39.857552752200995,73.37688092095419,-218.4976141269327,-231.41659976398296,336.4695246033628,475.10207151765246
526,43.14946315386866,-315.9694724813803,-44.16056726470518,78.0322281287581,-213.5879784104663,-239.11660213743167,331.2853457601453,472.397891247297
527,38.756323632018244,-310.0537350136554,-47.87046158462902,83.97248858902678,-210.63266289800637,-243.299011877406,325.47417091441054,470.1677481483055
528,34.03318799112862,-303.63790780219483,-50.958538520436896,91.02870068601949,-209.78380334626908,-243.81675090163608,319.12177248270416,468.5433790185274
529,29.060184832661207,-296.8203314896435,-53.407825776115466,98.99866611082564,-211.12808623006887,-240.5881469161063,312.3228171281473,467.62919327360834
530,23.926332179585767,-289.70534110954685,-55.21311388783075,107.65290133509885,-214.68326700447577,-233.5991578079868,305.17862884625345,467.49928985570006
531,18.727270480528258,-282.40080919247936,-56.38071424480065,116.74131172974593,-220.39702578060843,-222.90374756035905,297.7948094116396,468.195284205942
532,13.56264961211518,-275.01565754034544,-56.92795160385027,126.00039015435244,-228.14822014097467,-208.6224229798731,290.27879854724875,469.72502694068146
533,8.533265279487736,-267.6574123220629,-56.88241428301022,135.16073695520828,-237.75049259640963,-190.93902189061177,282.73745434183957,472.06229505598753
534,3.7380536064006975,-260.42987100292765,-56.28099136703862,143.95469038222245,-248.95809204749366,-170.09591382859696,275.27472859611356,475.1475227315594
535,-0.7289391705142186,-253.43094195169155,-55.16872961565383,152.1238522358783,-261.4736786621677,-146.3878292367459,267.98950286070084,478.88960921412
536,-4.7814921693196455,-246.7507089301082,-53.59754402711731,159.42629762809443,-274.9578041040786,-120.15457101689887,260.97364002419306,483.1687974136504
537,-8.34393328686673,-240.46976349075288,-51.6248163433752,165.6432706577524,-289.03969841321,-91.77288338833709,254.31029451971654,487.8405638682537
538,-11.353541044401965,-234.65783886410892,-49.311916211555285,170.58518727756373,-303.3289543016188,-61.64775886260709,248.0725124810383,492.74040562166545
539,-13.762527690086339,-229.37276926183316,-46.72268071126434,174.09678976835872,-317.4276801081463,-30.203456886060074,242.32214207115885,497.68935922677423
540,-15.539523002801461,-224.65978856676463,-43.92188943113526,176.06132214402226,-330.94269270697305,2.1255102087661846,237.10906396954294,502.50004685391474
541,-16.670498665539707,-220.55117204881455,-40.97377371005982,176.40362185299713,-343.4973386084218,34.90319396169693,232.47074269761873,506.98301752336636
542,-17.159096667548596,-217.06621416733915,-37.94059923375468,175.0920502700648,-354.7425626724217,67.70062940029653,228.43209106677128,510.95313905788674
543,-17.02635078150219,-214.21152512374144,-34.88136008547131,172.13921263261201,-364.36688699058533,100.1036891510083,225.00563251579445,514.2357981989467
544,-16.309816134191415,-211.9816192749652,-31.85061912608705,167.60144732401227,-372.1050151875666,131.72023432272928,222.1919394830862,516.6726810080219
545,-15.062146611174825,-210.35976053866875,-28.897524207621743,161.577095124702,-377.744836681727,162.18645311517113,219.98032035507705,518.1269308641121
546,-13.349182028523085,-209.3190241052479,-26.065022593396073,154.20359154837732,-381.1326679537124,191.17230451067184,218.3497231324086,518.4875141765972
547,-11.247625832028639,-208.82353033941928,-23.389287826768957,145.65345921209382,-382.17663049406536,218.38600867225423,217.26982083393838,517.672661344211
548,-8.842408902281738,-208.82980549564618,-20.89936500362641,136.1293109199819,-380.84812569208685,243.57754814472372,216.70224166494904,515.6322899496473
549,-6.223845135489342,-209.2882243632864,-18.61703242767486,125.85800571702296,-377.1814245036919,266.54116502057116,216.60190584189823,512.3493569327983
550,-3.4846892157084723,-210.14449180378128,-16.55687005608392,115.08412773066418,-371.27144402054466,287.1168591655176,216.91843052630725,507.84012551298616
551,-0.7172063507020772,-211.3411230820167,-14.726518162573853,104.06298035531798,-363.2698337310363,305.19091157791036,217.59756464245433,502.1533702973843
552,1.9896416276783624,-212.8188867462996,-13.127103738830177,93.05330659861362,-353.37954044643857,320.695474979558,218.582616636045,495.3685795995444
553,4.552798562191723,-214.51817832517622,-11.753807846673288,82.3099606354623,-341.84806114424435,333.6072904125273,219.81584055376345,487.5932462361926
554,6.897421631317884,-216.38029792538546,-10.596544674237823,72.07676495279065,-328.9596256933924,343.94560315290613,221.2397490515003,478.9593650696298
555,8.958825980703441,-218.3486095955328,-9.640722336230805,62.57978947884516,-315.0265750721164,351.769362778335,222.79832583550618,469.6192753416575
556,10.684014340905117,-220.36956486166608,-8.868056147295695,54.02128076927775,-300.38021432683763,357.17380031061714,224.438114375833,459.7409973985897
557,12.032756998623709,-222.3935771041938,-8.257406766848993,46.5744484108102,-285.36142307892817,360.2864803952555,226.10916433361353,449.50321751599046
558,12.978205046194157,-224.37573750969605,-7.785617858480034,40.379281705859206,-270.311300767903,361.2629295768632,227.7658219227764,439.0900736110999
559,13.507037105748608,-226.2763672903978,-7.42833035086144,35.539523977610884,-255.56211062106155,360.28194402007415,229.36735532823025,428.68589150838005
560,13.619156365553875,-228.06140476480343,-7.1607527384435326,32.12087824103583,-241.42876714327528,357.54068201780206,230.87841124749457,418.47001780087464
561,13.326970404140063,-229.7026297411666,-6.958369080793865,30.15046180647914,-228.2010875158252,353.24964807600435,232.26930350040178,408.6118910371532
562,12.654300428474023,-231.1777314107624,-6.7975687065249115,29.617474071678366,-216.13699748892424,347.6276756511735,233.51613932343238,399.2664864195131
563,11.634978580189552,-232.4702295747615,-6.656184399832765,30.474995416956645,-205.45684670037696,340.89701418783255,234.60079326462238,390.5702588358083
564,10.31120113063558,-233.56926242639284,-6.513929171287244,32.64279767501095,-196.33894722905785,333.2786225465455,235.5107423705445,382.6376941468562
565,8.731711068063548,-234.4692572291438,-6.3527256133474745,36.011018242251,-188.91640430421964,324.9877647920978,236.2387795357061,375.5585593396947
566,6.94988548701348,-235.16950296166144,-6.156926266547253,40.44453001960254,-183.27526211835226,316.2299950964248,236.7826244332,369.3959189276689
567,5.021801393906837,-235.67364611017223,-5.913428117643621,45.78782768806551,-179.45394356342854,307.1976056983676,237.1444532582038,364.18495844536915
568,3.00434843299321,-235.98913199140884,-5.611688871252421,51.87024723226713,-177.44392304860196,298.06659530770236,237.3303694220886,359.932627007894
569,0.9534492994340666,-236.1266140885132,-5.2436565433365745,58.51133982808707,-177.19153834720555,288.9941959604984,237.34983721845708,356.6180815823208
570,-1.0775608738075866,-236.0993528335894,-4.8036268904523025,65.52623234779729,-178.60082188983904,280.1169765801674,237.2150993305579,354.19388893907086
571,-3.0393552565806097,-235.92262312536215,-4.288044995886492,72.73082321688972,-181.5372145689165,271.5495243635685,236.94059691477855,352.5879203272642
572,-4.887806003783731,-235.61314678989422,-3.695267903663946,79.94668203233934,-185.83201569624154,263.38369208378873,236.5424080285045,351.70585994851433
573,-6.584925349476628,-235.18856252374735,-3.0253046568883835,87.00554213258354,-191.2874201518169,255.688389765713,236.03771670286451,351.43424003063404
574,-8.099547832374443,-234.66694205222748,-2.2795488007848124,93.75329582339872,-197.68199620765483,248.50989141443657,235.44432141189384,351.64391052091287
575,-9.407753864931367,-234.06635764793765,-1.4605167061705273,100.05342161798882,-204.77646313958155,241.87262064806828,234.78018838124495,352.1938485325873
576,-10.493043319795571,-233.4045030498675,-0.5716031197764984,105.78979134011398,-212.31963506875707,235.78037289644737,234.06305234386107,352.9352108170502
577,-11.346275064221574,-232.69836746760063,0.38313679843364135,110.8688219298333,-220.05440547240704,230.2179259023233,233.3100652297286,353.71553098567193
578,-11.965394330692035,-231.96396092383333,1.399171936731719,115.22095208547775,-227.72365475934674,225.15298406917069,232.53749203080557,354.38296133729926
579,-12.354974413074821,-231.21608859782657,2.4716414135527827,118.80143764859976,-235.07597076821475,220.5383955394028,231.76045262051588,354.7904568096363
580,-12.525602373849793,-230.4681717659982,3.595459911623966,121.5904723245048,-241.87107890108103,216.3145742385881,230.99270831297954,354.7997963368188
581,-12.493140260787952,-229.7321130412024,4.765381811598759,123.59265232577896,-247.88488513039488,212.412053503501,230.2464920731825,354.28533587226474
582,-12.277893917342196,-229.0182036796664,5.976025989725985,124.83581507843562,-252.91404183464124,208.75409450845947,229.5323813384337,353.13738878483474
583,-11.903721051041638,-228.335070683101,7.221865350627012,125.36929347721198,-256.7799538711733,205.25927250287316,228.85921232920538,351.26513435303355
584,-11.397108967210096,-227.68966123255038,8.497187351667025,125.26163869704835,-259.332151000927,201.84396732436514,228.23403448496526,348.59896443870775
585,-10.786250387122507,-227.08726165947184,9.796033834057596,124.59787667480524,-260.45096330099665,198.4246915142751,227.66210326895052,345.0921924963572
586,-10.100143156078929,-226.53154781455936,11.11213016281964,123.47637611128799,-260.0494490978431,194.92019891251826,227.1469091643531,340.7220677973457
587,-9.367736547661583,-226.02466344567063,12.438814728187083,122.00541851510954,-258.07454055542115,191.253328042743,226.6902403344919,335.49006054664886
588,-8.617143440878747,-225.5673229910216,13.768980118210958,120.2995720302426,-254.50739020198128,187.35254726538508,226.29227608587266,329.42140935129896
589,-7.874934030464599,-225.158934963987,15.095036686273392,118.4759789347712,-249.36292168442344,183.15318204047998,225.9517078878934,322.5639497782148
590,-7.165523067522194,-224.79774194329235,16.408907858989057,116.650670501559,-242.68860888367334,178.59831814435674,225.66588436054505,314.9862699144395
591,-6.510659071130257,-224.48097322083888,17.702064579459265,114.93502187754888,-234.56252815490444,173.63938766689475,225.43097647962222,306.7752644823339
592,-5.929020631070587,-224.20500642337888,18.965604076315543,113.43245408139988,-225.090747943844,168.23645637849594,225.24215929761348,298.03318202248516
593,-5.4359218763231665,-223.96553490604649,20.190375859965744,112.23548096401524,-214.40413757054185,162.35824100879083,225.09380673172743,288.8742790430443
594,-5.043126349063679,-223.75773842738582,21.367155408042073,111.42318694551257,-202.65469180368675,155.98189275718318,224.9796964368185,279.4212100745276
595,-4.758765816880403,-223.57645548318004,22.486863311267058,111.05920718727715,-190.01147921608077,149.09258879858749,224.89322238338306,269.80129249927705
596,-4.587357988733877,-223.41635652599282,23.540824774506454,111.1902658014711,-176.65632954580747,141.68297666417956,224.82761332958145,260.1427891217303
597,-4.529914780603729,-223.27211796813842,24.52106150281015,111.84530975034028,-162.7793779443653,133.7525173632073,224.77615576118282,250.57134922777558
598,-4.584130822910098,-223.1385972267733,25.42060533015567,113.03525644760701,-148.5745819250146,125.30677228505812,224.73241995740423,241.20674024053545
599,-4.74464044047563,-223.0110089800231,26.23382067768053,114.75335231157959,-134.2353202048227,116.35667652285233,224.69048751070997,232.1599872350053
600,-5.003330508270301,-222.88510224423553,26.956721428819943,116.97611839790497,-119.95017206605819,106.91783736215228,224.64517791393334,223.5310170663441
601,-5.349696416988332,-222.75733709434556,27.587267414504723,119.66483855751441,-105.89896247648882,97.00989132919132,224.59227100617085,215.40687870606317
602,-5.77122872326853,-222.6250591236251,28.1256263319331,122.76752617232206,-92.24914346544642,86.65594663892465,224.528721423266,207.8605830917555
603,-6.2538187327070816,-222.48666912337708,28.57438813484551,126.22128832287748,-79.15256748326799,75.88213060683618,224.45286073405177,200.9505761681157
604,-6.782172162976923,-222.3417848402385,28.938720369069266,129.9549920857483,-66.74269452423397,64.71725411832082,224.3645825102329,194.72082952808935
605,-7.340221099110918,-222.19139101844476,29.22645452854922,133.8921272446441,-55.1322620754698,53.19259794944152,224.26550515547814,189.20150562303235
606,-7.911525651189982,-222.03797335365064,29.44809536390522,137.9537535813031,-44.41143571549115,41.34181879632657,224.15910701863126,184.41013023580467
607,-8.479658032270542,-221.8856315447275,29.616747183758267,142.0614194700134,-34.64644866906895,29.20096649728892,224.05082820630454,180.35318504283185
608,-9.028563170021803,-221.7401663367148,29.747953416086872,146.13994182414754,-25.87873097331991,16.808598439061313,223.94813357786902,177.0280185756747
609,-9.542891494106994,-221.60913530919103,29.859447954300702,150.11994523626893,-18.124523052853164,4.205972862649524,223.86053164978,174.42496511573506
610,-10.008301278791658,-221.50187224504887,29.9708192039688,153.94006980146992,-11.374964186759641,-8.56270007628164,223.79954464369501,172.52955783624998
611,-10.411729769038695,-221.42946535232267,30.10309044040605,157.54877190482338,-5.59664321308783,-21.4499720598841,223.77862583957256,171.32472434778862
612,-10.741633939545185,-221.4046905649864,30.278223016947265,160.9056595258332,-0.732596392242026,-34.404857838678666,223.81302186105114,170.79285912158517
613,-10.988202767113014,-221.44189768205882,30.518551774852405,163.98232268584883,3.296264889051848,-47.372545615604245,223.9195795055953,170.91767738837484
614,-11.143543186112536,-221.55684910086973,30.846164371147367,166.76263965022798,6.589316428171499,-60.2941365279429,224.11649905807164,171.68576814856272
615,-11.201841551279264,-221.7665130783035,31.282238103521745,169.24255925240038,9.263996573996469,-73.10643108122727,224.42303841410833,173.08777876056146
616,-11.159501693627996,-222.0888154532374,31.84634928933558,171.4293781522051,11.45322177158091,-85.7417782674748,224.85917446543704,175.11917916873992
617,-11.015259678196687,-222.54235525125506,32.55577145389091,173.34054846908415,13.302474508590503,-98.12800120260223,225.44522975895023,177.78056974514132
618,-10.77027410486945,-223.14609037297217,33.424779588080874,175.0020662712737,14.966601969749766,-110.18841165056446,226.2014732532864,181.07751320910089
619,-10.42818917867909,-223.91899963924857,34.4639786792861,176.44650539675004,16.606370412167383,-121.84192489432426,227.14770407896995,185.0198886485537
620,-9.995166043616523,-224.879726984713,35.67967568409329,177.71077431072234,18.384826965752477,-133.00328607862969,228.30282673250932,189.62078443788278
621,-9.479876467805115,-226.04621277369887,37.073314984561165,178.8336859904193,20.463526555548423,-143.58341929538003,229.68442531377138,194.8949664642978
622,-8.893452188427435,-227.43531625202743,38.6409979395236,179.85344171636254,22.99868655090527,-153.48991114943533,231.30834341725404,200.85697789419456
623,-8.249383126799053,-229.0624321600328,40.37310733450557,180.80513864640355,26.137335634256797,-162.62764109589142,233.18827521895713,207.51894604278715
624,-7.563358334647977,-230.94110359642866,42.25405737039109,181.7184176668084,30.013526595586313,-170.89957111401156,235.33537225175314,214.888190011537
625,-6.853045128380292,-233.08263245918155,44.26218910714464,182.6153715446623,34.74468564409177,-178.2077067580653,237.7578694375543,222.96473861329017
626,-6.137804459837808,-235.4956883683101,46.369829464618284,183.5088326190879,40.42817361790592,-184.45423970829646,240.46073324136188,231.73888026186685
627,-5.4383438082963185,-238.18591706654288,48.54352846765263,184.40115248992365,47.13813732026722,-189.54287812284733,243.4453344082742,241.18887327491538
628,-4.776312113410684,-241.15555002387808,50.74448431226944,185.283571882517,54.92273218901966,-193.38036507650057,246.70914771797865,251.27894509073255
629,-4.1738438427730555,-244.40301839926354,52.929159379900206,186.13625643631843,63.80180050864696,-195.87817724060844,250.24548161744724,261.9577018091151
630,-3.6530607266525346,-247.92257657983848,55.05008305832525,186.92904399296506,73.76509200591653,-196.9543862601103,254.04324147080533,273.1570558322112
631,-3.2355398354871667,-251.70394301043194,57.05682953201005,187.62291228006657,84.77111515422064,-196.53565502136814,258.0867313398114,284.7917604650532
632,-2.9417557557983693,-255.73196863485853,58.89715077689805,188.17213456379434,96.74670660277667,-194.55933140043885,262.35550041843044,296.75961755376136
633,-2.7905032625881687,-259.98634572507297,60.518237003480834,188.52704730845647,109.58740117654389,-190.97559419842582,266.8242412689847,308.9423987729261
634,-2.798306009755007,-264.44137198237075,61.86806908604326,188.63731088331113,123.15867405410107,-185.7496003955836,271.4627477327165,321.20749376660757
635,-2.9788172916883013,-269.06578642587476,62.896820693965466,188.45550451290805,137.298108549115,-178.86357955792582,276.2359408129916,333.4102692892021
636,-3.342221323426115,-273.8226947024525,63.558262623693956,187.94086223952283,151.818516739545,-170.31881962848928,281.10397107947034,345.3970928355265
637,-3.894647428739807,-278.6696021096433,63.81111883701162,187.0629298108994,166.51200647858005,-160.13748764513608,286.0224064106205,357.00894236805306
638,-4.637614185126822,-283.5585727779923,63.62032338834405,185.8049056020039,181.15494869129472,-148.36422862098064,290.94251426217636,368.0854920191832
639,-5.56752512868472,-288.4365328215355,62.9581301350054,184.1664248049255,195.51375578066268,-135.0674858022747,295.8116479631172,378.46953465813425
640,-6.675241483240699,-293.245733433964,61.805033013420584,182.16555794592975,209.3513383247263,-120.34048591038496,300.57374647622225,388.01157923113686
641,-7.945760099153504,-297.9243866673615,60.15046329876119,179.83982410508423,222.43406591008997,-104.30183390481304,305.1699562935559,396.5744467717084
642,-9.35802598744166,-302.4074820429445,57.99324068207582,177.2460660735968,234.53902145657668,-87.09566333407581,309.5393824385231,404.0376856648706
643,-10.88490823547692,-306.627786360556,55.34176621111483,174.45909714234645,245.46130878475532,-68.89129057181579,313.61997275056257,410.30163416295807
644,-12.493365502969622,-310.51702209667167,52.21395641771931,171.56910364664714,255.0211518994385,-49.88232453131438,317.34953550224134,415.2909747697071
645,-14.144822598985508,-314.00721147282604,48.63692863645762,168.67786898597723,263.0705124670854,-30.285188606418316,320.6668846106943,418.9576484142577
646,-15.795772859133399,-317.0321636694739,44.646456873521295,165.8939678751605,269.4989502140479,-10.337019718640068,323.51309908311345,421.2830234344779
647,-17.398612440539267,-319.5290722128899,40.28622501432374,163.32715760909036,274.2384608351789,9.707078467584962,325.8328741748353,422.2792426073475
648,-18.902702643655566,-321.44017913828367,35.60690937371296,161.08225931805225,277.2670489691009,29.57743423066864,327.57593185133186,421.9896988411179
649,-20.25564534620777,-322.71445322254635,30.665125415826918,159.25286999580698,278.61083062566564,48.993842847764135,328.6984486599985,420.4886157045704
650,-21.40474496827045,-323.3092224921327,25.522273712739473,157.9152699227484,278.3445095514319,67.67019662169956,329.1644512076559,417.8797328292405
651,-22.298618590915268,-323.1916972490959,20.243318044202926,157.12288618669658,276.59013350889006,85.31963928870522,328.94712411468606,414.2941195043162
652,-22.888904588951274,-322.3403196059273,14.89552484248895,156.9016402666033,273.5141065690512,101.66014325408334,328.02997332478503,409.88716408988563
653,-23.13201002881461,-320.74587927331055,9.547189234118044,157.2464487346172,269.3225089352559,116.42037748794877,326.40778946358955,404.83481320374506
654,-22.99082866854793,-318.41234309894463,4.266369736164053,158.1190676758053,264.25485265498287,129.34570602813136,324.0873616947945,399.3291622613603
655,-22.436355454546412,-315.3573571149189,-0.8803483601458293,159.44738300925079,258.576475427395,140.204134289724,321.087901833821,393.57352505714005
656,-21.449121099918276,-311.61239350554786,-5.829041805879086,161.12616112357037,252.5698408207156,148.7920050878261,317.44115036485965,387.77713071523385
657,-20.020372785597424,-307.2225294570693,-10.519571438395877,163.0191968100581,246.52506698618353,154.93924030558588,313.1911491346302,382.14960829026484
658,-18.15293474277889,-302.24585883763154,-14.896618360096257,164.96273560049866,240.73004373631366,158.51392832996692,308.39367857747646,376.8954217906723
659,-15.861695098196858,-296.7525500092873,-18.910615472572772,166.77000860842227,235.46051758096075,159.4260714397238,303.11536940365215,372.20841349099186
660,-13.173681913536585,-290.8235732960509,-22.51855700629973,168.23669835897007,230.97052568956912,157.63033036120862,297.43250926746043,368.26660464812187
661,-10.127710477295661,-284.54912983208385,-25.684671467394008,169.14714818933479,227.48354387492344,153.1276342498113,291.4295739894019,365.22739305401865
662,-6.773604020957433,-278.02682020567534,-28.380947193620194,169.2811279814529,225.18468248193275,145.96556249540572,285.1975206465823,363.22327727173143
663,-3.1710094820565633,-271.3595970255836,-30.58750374497839,168.42096856640973,224.2142197458024,136.23744895628911,278.8318864190537,362.3582274073245
664,0.6121527405122019,-264.65355051111754,-32.292806008330594,166.35887244947665,224.66270708466132,124.08020809137011,272.4307424107493,362.7048108065521
665,4.501551923405909,-258.0155804336508,-33.49372078663006,162.90419949509533,226.56781738202156,109.67093383312105,266.0925555612048,364.3021669531935
666,8.418559223333277,-251.551011147513,-34.19541763778833,157.89051578369398,229.91303834702288,93.22237284666481,259.91401415695196,367.15490779434737
667,12.282537457714962,-245.36120904137454,-34.41111696329505,151.1821864755633,234.6282414891873,74.97742051324084,253.98787348694358,371.23299667513544
668,16.01323165879075,-239.54126357434464,-34.16168921860508,142.68029354397254,240.59208597823485,55.202827481010075,248.4008781419979,376.4726308548476
669,19.533180209783207,-234.17779410015186,-33.47511017800041,132.32766930839315,247.6361481346695,34.18233500495882,243.23181652214112,382.77811997327507
670,22.77006487244877,-229.34694457120915,-32.38577903186932,120.11285680954171,255.5506035855713,12.20947776811825,238.54976115669697,390.0247169080777
671,25.658918654915635,-225.11262627686327,-30.933709250277875,106.07283590643894,264.0912322877123,-10.419696675167891,234.41254504557324,398.062319152927
672,28.144113642192956,-221.52506438330107,-29.16360681832271,90.29438638840027,272.9874690986785,-33.41374223383791,230.86551903985006,406.7199195691135
673,30.181057004253077,-218.6196969647464,-27.123856178703925,72.91399411689277,281.9511871037344,-56.49252229071036,227.94062822745764,415.8106480314288
674,31.737532593010958,-216.41646557295329,-24.8654398979132,54.116242834998076,290.6858799601874,-79.3932904808336,225.6558365239992,425.1372146029178
675,32.79463770846223,-214.91952452864112,-22.440822494018693,34.13067403724921,298.89590465097723,-101.87595145565182,224.01491846457284,434.49754524325994
676,33.34727937527873,-214.11738250716965,-19.90283120858736,13.227141920302019,306.2954575062637,-123.72734458061379,223.00762596087625,443.69039602464693
677,33.404211339492925,-213.98347516465225,-17.303566374477377,-8.290259090457425,312.61698305769653,-144.7644351509496,222.61022601666383,452.5207421543539
678,32.98761130617194,-214.47715207543303,-14.69337138031316,-30.090560916999657,317.61875473179083,-164.83634359743974,222.78639350005244,460.8047618799594
679,32.13221663541536,-215.54504578850901,-12.119887468327263,-51.82439012194123,321.0914147113147,-183.8251918902276,223.48843134050844,468.37426857705776
680,30.884054482161872,-217.12277618913168,-9.62721257890976,-73.13328701084058,322.86331285434613,-201.64579645484218,224.65877925561685,475.08048174677543
681,29.298818096105688,-219.1369305255185,-7.255177228174592,-93.65957197726364,322.8045370977728,-218.24428626570983,226.23176182321393,480.79706406146846
682,27.439953998316884,-221.50724932066106,-5.038744887407468,-113.05641477486326,320.8295775193683,-233.59577046825737,228.13551806747125,485.42238330527584
683,25.376534578593795,-224.1489415844292,-3.007540032461836,-130.9977388074085,316.8986121273635,-247.70121865720952,230.2940483542903,488.88098383476137
684,23.18099697670955,-226.97504963623297,-1.1855040035288458,-147.18758919563484,311.0174443485854,-260.58374594620744,232.62931077064042,491.12427298630206
685,20.926831791033155,-229.8987845729686,0.40932318112139715,-161.3686108941648,303.23615993592966,-272.28451232505967,235.06329862750087,492.13044570602517
686,18.68630441973219,-232.83575786924447,1.7648982338046075,-173.3293199837075,293.6466041318335,-282.8584508176258,237.52003343491845,491.90368754976294
687,16.528288157596055,-235.7060423723186,2.875151387959932,-182.90990433140342,282.3788079048682,-292.37003187184985,239.9274135076811,490.47271323331967
688,14.516281946616461,-238.43600631206365,3.7398496662633964,-190.00635469403161,269.59651469642233,-300.8892530616864,242.21886674665853,487.8887149748761
689,12.706677042281845,-240.95987592754432,4.364352836073762,-194.5727990019741,255.49197638082302,-308.48801484355425,244.33476630102058,484.22281066708877
690,11.147325866545556,-243.22099495308356,4.7592695814069375,-196.6219863409502,240.28019907608282,-315.2370066891912,246.22357888718804,479.5630946660137
691,9.876453280574507,-245.17276171096483,4.940022685406283,-196.2239393980338,224.1928259452494,-321.2031860904767,247.84272677083698,474.0114021461079
692,8.921936043001441,-246.77923636281832,4.926332932177778,-193.50286220193877,207.47184504179796,-326.447889025667,249.15915524344186,467.6799006107324
693,8.300961079535984,-248.01542162616065,4.741632033028892,-188.63245187479708,190.36330556295934,-331.0255680052495,250.14960745277943,460.68761904059124
694,8.020058135993365,-248.8672297629748,4.412415479795296,-181.82981717945106,173.1112158858404,-334.98311594004167,250.80061740705818,453.1570167417943
695,8.07548812081367,-249.3311568075139,3.9675470945492233,-173.3482513512424,155.95178212544906,-338.35970327550433,251.1082396995575,445.2106811759911
696,8.453955579794647,-249.41369182602637,3.4375282362430917,-163.46914063510462,139.10812762233905,-341.1870338416259,251.07754092643503,436.9682283549833
697,9.133602794771258,-249.13049451689378,2.853746043606607,-152.49331204066814,122.78561288817464,-343.4899126539662,250.7218828653344,428.54346266943503
698,10.085234332525898,-248.50537870359614,2.2477165255684817,-140.73213336836807,107.16785324887522,-345.2870166638334,250.06203125563084,420.0418373745043
699,11.27371470125199,-247.56914236532177,1.650339510090023,-128.49867504874624,92.41350858020151,-346.59176652970916,249.125126595618,411.55824407297166
700,12.65947817812573,-246.35828692089152,1.0911832832310342,-116.09922661897512,78.65389649859719,-347.41321230384386,247.94355491644123,403.17515033545703
701,14.200088854084338,-244.91366948763448,0.5978170611227478,-103.82543135631875,65.99145703464882,-347.7568661848271,246.5537570308008,394.9610991623962
702,15.85179044171531,-243.27913158622485,0.19520902318252206,-91.94726246342496,54.499072812484016,-347.62543848214295,244.99501417307195,386.9695817292732
703,17.57098928779356,-241.500146130443,-0.09479360159506937,-80.70701620993891,44.22022392077317,-347.01945599071917,243.30824620089138,379.23829464778424
704,19.315620133929453,-239.6225215526584,-0.2538878506439013,-70.31444540165757,35.16993149114341,-345.9377626796385,241.53485571537868,371.7887932969979
705,21.046352158647448,-237.69119766586377,-0.26762985085720653,-60.94310453953968,27.336419813046515,-344.37791898428685,239.7156477212278,364.6265518876386
706,22.727602202039353,-235.74916249437868,-0.1256328189521695,-52.727929625516175,20.683405423681652,-342.33652670142214,237.88984992822594,357.7414372639686
707,24.328332208132306,-233.83651309442973,0.1783555381714569,-45.76403325461414,15.152904762453295,-339.80951106998305,236.09425370732043,351.10859621369684
708,25.822618287174887,-231.98967676906526,0.6464948108140228,-40.10666050165048,10.668440868711587,-336.7923906452316,234.36249039801973,344.6897455164143
709,27.189988994846903,-230.2408024938178,1.277006272781191,-35.77222303074808,7.138524657094591,-333.2805603347982,232.72445244516427,338.43484122536927
710,28.41554008957392,-228.61732599192106,2.064428788673258,-32.7403069442048,4.460287191535832,-329.26960493932484,231.20586379120076,332.2840900836394
711,29.489841781938345,-227.14170564888113,2.999961784328208,-30.956532979213367,2.523145171609387,-324.75565099560225,229.82799888134446,326.1702526100825
712,30.408661904595156,-225.83132034349336,4.07187859751675,-30.33613458552639,1.2123913511966316,-319.7357546285373,228.60754447596975,320.02117497688647
713,31.172534070098152,-224.69851470092019,5.26599225168544,-30.768109227485287,0.41261369692722133,-314.2083132859623,227.55659354259157,313.7624758688074
714,31.78620339425471,-223.75077288958707,6.56615510218393,-32.119790580708745,0.010860710005398677,-308.1734806575525,226.68275642357472,307.3203058137231
715,32.257983597460594,-222.99099933403653,7.95477371805872,-34.24168476448129,-0.10051575745478697,-301.63355836518787,225.9893716996079,300.624091440669
716,32.599058481994646,-222.41788361518672,9.413320872510083,-36.972414019674154,-0.021395958545867916,-294.59333694705725,225.47579777949892,293.60917756348215
717,32.82275854296149,-222.02632710651096,10.922827895582035,-40.143618072350804,0.15814960991263874,-287.0603627457485,225.13776609250766,286.21928664860775
718,32.94384050145983,-221.80791024449758,12.464342970451902,-43.58467722696815,0.35944546534612565,-279.0451149108614,224.9677776432967,278.4087267530983
719,32.977794272453,-221.75138148935707,14.019343915700638,-47.12714049994125,0.5163166852808801,-270.5610851600133,224.95552639497512,270.144292800388
720,32.94019844231224,-221.8431517120376,15.570097147456837,-50.60876431140252,0.575703607245928,-261.6247601484001,225.08833519058882,261.4068198215816
721,32.84614172720557,-222.0677806538288,17.099957608500745,-53.877090159821755,0.497788044212288,-252.25551129959698,225.35159240820303,252.19235923395686
722,32.70972399136476,-222.40844504559053,18.593607446108702,-56.79251190275735,0.2556482859135369,-242.4753995778459,225.72918006019617,242.5129598891568
723,32.543646106434345,-222.8473808377208,20.037234124489945,-59.23080399420204,-0.1655242982965424,-232.30890344580175,226.2038864781407,232.39704469503505
724,32.358893352396926,-223.3662946358834,21.41865143993414,-61.08510074917943,-0.7695993652262475,-221.7825781496053,226.75779893826106,221.88938170123419
725,32.16451261307655,-223.94674165569086,22.727369465710833,-62.26733284152731,-1.551011807482271,-210.9246544680597,227.3726734050618,211.05065618364978
726,31.96747977917819,-224.57046918797593,23.954621555150005,-62.709140239889294,-2.4965253719152827,-199.76458563379674,228.03027991116684,199.95665763582645
727,31.7726508262779,-225.21972577854157,25.09335785195249,-62.36229043604178,-3.587178141252624,-188.33255226896,228.7127230196628,188.69710258104735
728,31.582788038989804,-225.877537239522,26.138215085408223,-61.19863743929692,-4.800328854232837,-176.6589366636982,229.40273748492098,177.37412070662822
729,31.398651680572655,-226.5279513211532,27.08547175920643,-59.20966130006313,-6.1117229401739515,-164.77377936774698,230.08395972499667,166.10043809975275
730,31.219146843450382,-227.15625331483065,27.932996317821008,-56.40563059480847,-7.4975003836490774,-152.7062326872021,230.74117596653704,154.9972974607216
731,31.041515098549056,-227.74915487667585,28.68019379023304,-52.81443180522223,-8.936074017818967,-140.48402706619507,231.3605477758319,144.19216108315618
732,30.86156082263777,-228.29495791945425,29.32795416973732,-48.480110022799174,-10.409816322320648,-128.13296726569763,231.9298151356344,133.81624797838518
733,30.673902640584814,-228.78369465584973,29.878603680112438,-43.461164943916444,-11.906504728485437,-115.67647558688707,232.43847641301332,124.00196156989222
734,30.472241150313383,-229.2072439619282,30.33585821310823,-37.82864481215513,-13.42048890937485,-103.13519910093225,232.87794365509095,114.88026865737886
735,30.249634953523113,-229.55942333193454,30.704776715273812,-31.664079163565017,-14.953557392617945,-90.52669699087124,233.2416708199904,106.57809357418488
736,29.99877806690482,-229.8360550316328,30.991711330369228,-25.057289479256,-16.515493890496998,-77.86522272652711,233.52525204601037,99.21579329035637
737,29.71227311492965,-230.03500481141418,31.204250747198756,-18.104115672212373,-18.124325063152877,-65.1616138723405,233.72648708505574,92.90477923352675
738,29.382896241208257,-230.15619167290222,31.351153360946384,-10.904095995627214,-19.806270531000585,-52.423299849220484,233.84541151661625,87.74534938010908
739,29.00385116545312,-230.20156747264605,31.442267313034755,-3.5581383878247457,-21.595412785973835,-39.6544349851425,233.88429003568763,83.82478934333217
740,28.5690108984764,-230.17506547863618,31.48843500007212,3.833777810273312,-23.533109504377652,-26.856160848953248,233.84757177901358,81.21579353188399
741,28.073146036239056,-230.08251745571224,31.501380112586386,11.174829709951435,-25.667174135776907,-14.02699832023298,233.7418073493244,79.97524692479439
742,27.512138297314298,-229.93153953628357,31.49357573273317,18.373467129429777,-28.050853104010095,-1.1633661267683062,233.57552801417472,80.14339475360573
743,26.883177347305512,-229.73138805361995,31.478092623933254,25.34537504117195,-30.741629994869204,11.739781358683606,233.3590885695825,81.7434119092388
744,26.18493831473958,-229.49278770854895,31.468427629016322,32.015239134644574,-33.79988900185325,24.688208311079563,233.10447664851887,84.78136724805206
745,25.417736894900873,-229.22773590149956,31.478312945523093,38.31827105091843,-37.28747167339919,37.68755869900787,232.8250928176376,89.24656164709609
746,24.58365850260926,-228.94928866025924,31.52150782628243,44.20145067207348,-41.26616243137739,50.742442889648466,232.53550748721105,95.11220417319352
747,23.686657473487706,-228.67133513264127,31.611574971800973,49.62444564774549,-45.79613911357547,63.85547039434664,232.25120225310255,102.33637926070367
748,22.732621863076194,-228.40836889308804,31.761644668570874,54.56017362062377,-50.93442475363549,77.02625122444785,231.98830461787495,110.86325002328613
749,21.729399157648885,-228.17526511301082,31.984170600291947,58.99498051494208,-56.73337592559739,90.25038931314462,231.76332590555927,120.62443897239332
750,20.686778373244195,-227.98707272826587,32.290682050195144,62.92841870674405,-63.23924125226359,103.5184918658241,231.59291235275933,131.54052731982074
751,19.616424528142954,-227.85882994126843,32.69153774421154,66.37262171421312,-70.49082104768165,116.81521841691725,231.49361863874975,143.52261724305018
752,18.531762140579467,-227.8054097670428,33.1956867842579,69.35128682784288,-78.5182554406228,130.11839282679995,231.48171152470945,156.4739072591592
753,17.447805258899734,-227.841400115314,33.81044197322757,71.898293085508,-87.34196369391664,143.39820049000235,231.573009043201,170.29123824476642
754,16.38093288126874,-227.9810203146161,34.541270330727826,74.05599808438696,-96.97175194979731,156.61649175367705,231.7827580558055,184.8665756423821
755,15.348610674873273,-228.23807309657636,35.391604778295736,75.87327204483277,-107.40610059767053,169.7262111048708,232.12555007078518,200.08840108929934
756,14.369062570967861,-228.625927948387,36.36267996276794,77.40334011818096,-118.6316362324343,182.67097024780804,232.61527207157118,215.84299346017252
757,13.460898894064114,-229.15752869042979,37.45339417383503,78.70151327116336,-130.6227870884669,195.3847820099754,233.26508603532284,232.01558493532778
758,12.642710984355263,-229.8454155379044,38.660198461139146,79.82289369100015,-143.34161521533548,207.79197135325126,234.08742821247313,248.49138239437855
759,11.932645456457665,-230.70175001483872,39.977013474973354,80.82014242851845,-156.73781382564678,219.80727969749694,235.09401733309517,265.1564485384176
760,11.347973781328912,-231.73832990694166,41.39517430848446,81.741395124601,-170.74885452084476,231.33617908972613,236.2958596797893,281.8984409682227
761,10.904674283898006,-232.96658082554,42.90340370384755,82.62840654444621,-185.3002667802872,242.27541317867917,237.7032382573918,298.60721125949
762,10.617043722346484,-234.3975108510555,44.48781428672571,83.51499680126453,-200.3060313796402,252.5137823085624,239.32567302971208,315.175270187376
763,10.497354527649062,-236.04161530181585,46.13194091015113,84.42586221598349,-215.6690703626253,261.9331902321876,241.17183956836612,331.4981299384634
764,10.555571778585236,-237.90872020910956,47.81680483663361,85.37580241532848,-231.2818188263932,270.40996965768653,243.2494348054144,347.474539455323
765,10.799140963811656,-240.00775563711483,49.52101261693276,86.36940294525483,-247.02686827133147,277.81650218795204,245.5649810493554,363.00663470082515
766,11.232853158494448,-242.3464532961987,51.22089410631173,87.40119896742773,-262.7776783196694,284.02314349848217,248.1235627769289,378.00003109516877
767,11.858788569442982,-244.93096666072373,52.89068560313283,88.45632930674242,-278.399363995403,288.9004550641389,250.92849458224464,392.3638900787652
768,12.676333667609047,-247.7654160446271,54.50276499863242,89.5116706265797,-293.7495786441918,292.32172931090406,253.98092293878744,406.0109950290316
769,13.682262696451854,-250.8513660097384,56.02794574418195,90.53742023617873,-308.6795247538379,294.1657781657954,257.2793691901696,418.85787293183455
770,14.870871556096253,-254.18724800515358,57.43583523735765,91.49907560934848,-323.03513281448096,294.3199388243639,260.81922630605055,430.824996866741
771,16.23415034750845,-257.7677468320736,58.695260843556525,92.35974076291049,-336.65845042545595,292.68323680441966,264.5922270075553,441.8371005406814
772,17.761979746506395,-261.5831749008439,59.7747633207637,93.08267410170643,-349.3892807503818,289.1696348174064,268.5859054480852,451.8236300572905
773,19.442335910534407,-265.61886288252003,60.64315324515351,93.63397845575751,-361.06710232380624,283.7112859771682,272.7830784137249,460.71935006326515
774,21.261489056137417,-269.85459891903776,61.27012153928113,93.98532162435545,-371.53329185315766,276.2617011672088,277.16137474422777,468.4651115558242
