time,ax,ay,az,gx,gy,gz,accmagnitude,gccmagnitude
0,20.096054111714608,-247.170266084601,19.12364950364873,-49.283203223916345,-0.3964720817872843,4.708595228060464,248.72245443988234,49.19168586677155
1,20.337800387419957,-247.19868652731031,19.387007741008524,-47.668852502130555,0.440826133692118,4.252454957676374,248.7949962296931,47.74185679448269
2,20.577852673611265,-247.22360553821707,19.63716978124092,-46.10606543188201,1.2931546017934892,3.7680417568039224,248.86276880693586,46.35865449715275
3,20.813465462018954,-247.24423268069964,19.872844599187644,-44.618481955411156,2.1568650222900465,3.25588985975233,248.9246302912003,45.0650360655529
4,21.0420023703734,-247.25981135950138,20.093005614838074,-43.229734102833234,3.028009437648836,2.716923078334519,248.9795055965937,43.88351204244723
5,21.261005499633022,-247.26963898800562,20.29692374802674,-41.96304783691368,3.902345803457859,2.152486456556085,249.0264155959504,42.83571989754518
6,21.46825844460292,-247.27308966650438,20.484189321277444,-40.84084815114374,4.775353928297499,1.5643697107913135,249.0645071737031,41.942011779384785
7,21.661841041559125,-247.26963945942958,20.654720739637575,-39.88437682651362,5.642263187854733,0.9548197090546702,249.0930838929402,41.22106792082767
8,21.84017461453835,-247.25889393554354,20.808759010164348,-39.11333197569151,6.49809283968606,0.3265390383042206,249.1116367524099,40.68954659820596
9,22.002057229908587,-247.24061700599583,20.94684857263924,-38.545537875682975,7.337705375520943,-0.3173323266383773,249.11987408808974,40.361780668970745
10,22.146689164437074,-247.21475956651673,21.069806132248484,-38.19665266049883,8.155873177392637,-0.9732550682800865,249.1177493265126,40.24952950284194
11,22.273689337311048,-247.1814862525275,21.17867996151039,-38.07992028302747,8.947358716553108,-1.6373507256892863,249.10548521881145,40.36179364854966
12,22.383103784926657,-247.1411987243271,21.274702466981566,-38.205971886783786,9.707008511532749,-2.305485949931568,249.08359334721536,40.704697956549666
13,22.4754073365214,-247.09455415462486,21.359238712445233,-38.58268048672124,10.429860926348384,-2.9733820860063314,249.0528879444347,41.281447225616375
14,22.551499508779383,-247.04247788344188,21.433733124753974,-39.21507167707255,11.111267599782645,-3.63675068007744,249.0144933027127,42.092356787437396
15,22.61269534963329,-246.98616950171055,21.499656004343166,-40.10529188850253,11.74702787070595,-4.291454817265985,248.9698442639259,43.13495872298988
16,22.660711602737706,-246.9271018875655,21.5584509511126,-41.25263443245569,12.33353504542015,-4.9336954591218625,248.92067946422318,44.404182558729886
17,22.69764822762492,-246.8670128947072,21.61148399639104,-42.6536222100532,12.867932803287847,-5.560221122631343,248.86902712064133,45.89260735147008
18,22.725965098001414,-246.80788947344087,21.659995117128837,-44.3021446017118,13.348279545514172,-6.168558281739168,248.81718319715665,47.590780139972146
19,22.748453654260068,-246.75194404800652,21.705052864277825,-46.18964474439869,13.773718147965212,-6.757258772168562,248.7676818294917,49.48759390003441
20,22.768203363792242,-246.70158304578797,21.74751294700783,-48.30535213709372,14.144648430051477,-7.326159258545178,248.723257973392,51.57071639981535
21,22.78856299808066,-246.6593676076017,21.787981635948796,-50.636554292687656,14.462899692243644,-7.8766465042316485,248.686802385805,53.82705971994007
22,22.813096973434547,-246.62796669276474,21.826784742592007,-53.168900089909776,14.731900845196783,-8.41192082536755,248.6613092394364,56.2432787792723
23,22.84553731584579,-246.61010299584433,21.863942808633222,-55.88672677121994,14.956845834125739,-8.937248811028052,248.64981688608484,58.80628616084601
24,22.88973213302728,-246.60849228230688,21.89915313635189,-58.77340231155332,15.144852114035185,-9.46019524340945,248.65534249741705,61.50376996229774
25,22.949591724034573,-246.6257768966297,21.931779390814558,-61.81167510310981,15.305109778238451,-9.990823192686943,248.68081148307837,64.32470125109322
26,23.029033565514585,-246.6644542814784,21.96084954412994,-64.98402337145777,15.449018571283327,-10.541850508873123,248.72898267815089,67.25981782027401
27,23.13192734669477,-246.72680139462508,21.985062813292128,-68.27299720897645,15.590309380526742,-11.128750462643186,248.8023703177509,70.30207109981662
28,23.262041001820297,-246.8147959726931,22.00280602900489,-71.66154636515913,15.745145777361495,-11.769784232588464,248.90316383459162,73.4470230914864
29,23.42298838832981,-246.93003570613143,22.012179677717477,-75.1333268506977,15.932199674618792,-12.485953408633456,249.03314658096392,76.6931799697512
30,23.61817893756202,-247.07365657950032,22.011033753562074,-78.67297898865614,16.1726932554135,-13.300861711428796,249.19361472163516,80.0422485644436
31,23.85076923721659,-247.24625189963646,21.997013572349022,-82.26636887567697,16.49039733013664,-14.240476703801248,249.38529777303762,83.49930147561582
32,24.12361607801111,-247.44779384112616,21.967615828489258,-85.90078451737844,16.911574705962238,-15.332784403765766,249.60828253510218,87.07283638262447
33,24.43923012307796,-247.67755960006485,21.92025532524867,-89.56507754792999,17.464856535681594,-16.607332428781472,249.86194239523135,90.77471566725008
34,24.799729208808042,-247.93406438512335,21.852342777071982,-93.24974189098828,18.18104027471092,-18.094660590388944,250.14487410103968,94.6199742769491
35,25.20679040644081,-248.2150034596565,21.761373646607723,-96.94692234289498,19.092799813209602,-19.825621609018572,250.45484405624777,98.62648714388096
36,25.661600234876037,-248.5172053193779,21.6450270795825,-100.65034900514924,20.234301284608822,-21.830598670941423,250.78874601498455,102.81449248544897
37,26.164802684697598,-248.83659794555163,21.501272843283566,-104.35519761733578,21.640721613975995,-24.138630781030407,251.1425718370887,107.20597368683651
38,26.71644503338183,-249.16819000551595,21.328483139211446,-108.05788074263363,23.347670761952767,-26.776461215065694,251.51139684947387,111.82390973395428
39,27.315921931941315,-249.5060688835427,21.125545591665777,-111.7557798740756,25.390522616657368,-29.767528760974074,251.88938138119914,116.69141171212824
40,27.96191890457071,-249.84341741662143,20.891973682898108,-115.44693324421168,27.80366333220637,-33.13092568036658,252.26979010585933,121.8307700106816
41,28.652357037938156,-250.17255106668358,20.628011142523775,-119.12969786608139,30.61966928321637,-36.880350162469504,252.64503077513152,127.26244287951685
42,29.384341108375455,-250.48497695966466,20.334726957209657,-122.80240668597553,33.86842939678059,-41.02308420593558,253.00671369480207,133.00402130482655
43,30.154113725346008,-250.77147585039606,20.01409764992346,-126.46304243676299,37.57622831520736,-45.55903008908769,253.34573296265359,139.06920744582885
44,30.957018335171043,-251.02220774742173,19.669073434397205,-130.10894876604013,41.76480777507943,-50.479839658138815,253.65237019445703,145.46684397786606
45,31.787474157789052,-251.22684169217425,19.303624908815774,-133.73659664993633,46.45042409588351,-55.768170472544135,253.91642126269392,152.20002981300826
46,32.638966289789494,-251.37470995518458,18.922767089945967,-137.34142046010953,51.642920147767036,-61.39710146486463,254.1273463803426,159.26535435932215
47,33.50405422926603,-251.45498657450594,18.532557748677448,-140.91773390416293,57.344830968583615,-67.32973836485097,254.2744435536623,166.6522784111518
48,34.37440189999506,-251.45688966278047,18.14006723880588,-144.45873178813628,63.55054359217554,-73.51903581393391,254.34704494508904,174.3426854123646
49,35.24083188758002,-251.36990623595642,17.75331743054754,-147.95657922883677,70.24553375703464,-79.90785887657948,254.3347350283562,182.31062234846894
50,36.09340613513085,-251.18403744732822,17.38118803008273,-151.4025855060504,77.40570490186575,-86.42930158368956,254.2275885773586,190.5222448602478
51,36.921534830441196,-250.8900610369243,17.033289448316243,-154.7874552071518,84.99685788607209,-93.00727436144703,254.01642550218867,198.93597628972742
52,37.71411459288462,-250.47980657244855,16.719802385265556,-158.1016048799232,92.97432263108198,-99.5573658595789,253.69307835820936,207.50288527473512
53,38.45969625865065,-249.94643775469427,16.45128532877526,-161.3355293932783,101.28278464178764,-105.98797784951418,253.25066707858844,216.16728118656889
54,39.14668157883371,-249.28473478196227,16.238452190919887,-164.48019890064495,109.8563394024128,-112.20172448498587,252.68387420880202,224.86752106856295
55,39.76354707220932,-248.4913685931321,16.091923391166276,-167.5274648846771,118.61880539934037,-118.09707931355837,251.9892127470872,233.53701569082787
56,40.29909219304015,-247.56515783984878,16.021954945294937,-170.4704523452504,127.48432179846851,-123.57024514741603,251.1652777362525,242.10541594373188
57,40.74270788551833,-246.5072988088863,16.03815151769995,-173.30391488782485,136.35824972303092,-128.51721353113578,250.21297213880703,250.49995430115698
58,41.084660418015766,-245.32155831941262,16.149170800360803,-176.0245303978425,145.13838695264536,-132.83597242096593,249.13569732585006,258.64690984953916
59,41.31638407929771,-244.01441986419783,16.362427865159443,-178.63111725133328,153.71649507110135,-136.42881313826553,247.93949871009073,266.4731597567136
60,41.43077498662731,-242.5951738963871,16.683809208353278,-181.12475464365346,161.9801260409491,-139.20468095905707,246.63315761149545,273.9077753396739
61,41.422477082275385,-241.0759441181366,17.11740692735163,-183.50879551653466,169.81472233028552,-141.08150808494278,245.22822131014524,280.88361727046964
62,41.2881504800351,-239.47164289395124,17.665283681579208,-185.78876648161366,177.10595154332955,-141.98846345331629,243.73896440655722,287.33888203716816
63,41.02671171527008,-237.79985058323626,18.3272787634977,-187.9721556857438,183.74222354392342,-141.86805122265383,242.18227617085495,293.2185506331837
64,40.63953525322753,-236.0806158002329,19.10086487788056,-190.06809618526006,189.61732594146062,-140.67798922507285,240.5774706772533,298.4756906594898
65,40.13060593989234,-234.33617643122895,19.981064244072797,-192.08695844758003,194.63310324101835,-138.392800600837,238.94601928064162,303.0725646623612
66,39.50661297535645,-232.5906046026311,20.960431394727696,-194.03987053469282,198.70209665662316,-135.0050564637151,237.31120833604092,306.98150071092226
67,38.77697739547404,-230.8693824837515,22.02910838405741,-195.93818801498014,201.75005625847686,-130.52621483789835,235.69772875613893,310.1854861503126
68,37.95380681263922,-229.19891944906956,23.174955852113502,-197.7929375547637,203.71823549843265,-124.98701113520714,234.13120763749575,312.67845243178357
69,37.051773061954464,-227.60602425703522,24.38376046064011,-199.61425849952516,204.56538087957716,-118.43736784618676,232.63769526341096,314.46522820664245
70,36.08791028320789,-226.1173482037437,25.639515776965016,-201.41086584777145,204.26933697343983,-110.94580545068291,231.24312297349138,315.5611496263
71,35.081332927849786,-224.75881664255178,26.924770061548397,-203.18955630586734,202.82819906181683,-102.59835218033136,229.97274866979225,315.9913308661071
72,34.052875370009616,-223.55506692781336,28.22103091064693,-204.9547769907341,200.26096178890828,-93.49696652266489,228.85060725025212,315.7896137144585
73,33.02465723711401,-222.52891075296273,29.509213445147672,-206.70827399268302,196.60763130123362,-83.75750264217622,227.89898304361643,314.99723164314406
74,32.0195812269183,-221.70083792407036,30.770115816162832,-208.44883546080712,191.928789162556,-73.50726459345246,227.13792029297983,313.6612398741832
75,31.06077312396989,-221.08857680295708,31.984903505515753,-210.1721412212851,186.30461764133923,-62.88220963110159,226.5847859204747,311.8327774138854
76,30.170977048100625,-220.70672406735338,33.13558267537068,-211.8707282981892,179.83341663241512,-52.023873436655435,226.25389638439734,309.56523878955977
77,29.37192252029116,-220.5664532933485,34.20544301788797,-213.53407896616926,172.62966125297172,-41.07610024894436,226.1562176791974,306.91244119807413
78,28.68368330801428,-220.67530841769002,35.179452241938975,-215.14883469653472,164.82166471298495,-30.1816684948983,226.29914464466597,303.92687577725104
79,28.124050664308776,-221.03708457210388,36.044587249941245,-216.69913507735967,156.5489222263756,-19.478907412702,226.68636282651835,300.658128792465
80,27.707945018986344,-221.65179528399594,36.79009074320487,-218.16707536049938,147.95921775190587,-9.098402040131395,227.31779322471164,297.151549418859
81,27.446890126852665,-222.51572185210733,37.40764599145013,-219.5332701226231,139.20557608939413,0.8401175923783855,228.18961752748825,293.4472261870107
82,27.348572013607935,-223.62153803236887,37.89146645963118,-220.777504409624,130.44313885158988,10.230612456682449,229.29437901050233,289.5793156692176
83,27.416501827579737,-224.95850108959274,38.238300661931575,-221.87944851630627,121.82603517990535,18.983214031171023,230.6211522513702,285.57574678132863
84,27.649797171217994,-226.51269883656525,38.44735587632953,-222.81940890350162,113.50430810638326,27.02627792143808,232.15577324167447,281.4583042949175
85,28.043091133536368,-228.26734155702368,38.520147180082695,-223.57908596895376,105.62094652483702,34.30795719073885,233.8811204784168,277.2430773932837
86,28.586572572969615,-230.20308765014855,38.46028072690815,-224.14230933727066,98.3090620787592,40.79725778413612,235.77743719725433,272.9412442201843
87,29.26615553406024,-232.29839224380817,38.27318234006558,-224.4957226150705,91.68924095597957,46.48455604285251,237.82268491108425,268.56015158837414
88,30.063770213515557,-234.52986870480393,37.96578426646251,-224.6293916772235,85.86709327306909,51.381575837226535,239.99291864491752,264.1046401241412
89,30.957762866064165,-236.8726538669281,37.54618418892659,-224.53731301369587,80.9310176794232,55.520839562796866,242.2626746455331,259.5785586439649
90,31.923387812375474,-239.30076892560652,37.02329127026006,-224.21780109798212,76.95019597632702,58.95462256512202,244.6053619390861,254.98640697910918
91,32.93337159090082,-241.7874693180662,36.40647406855889,-223.67373606070717,73.9728318000579,61.75345401530123,246.99364995443275,250.335043505663
92,33.95852739426034,-244.30557845633646,35.7052245368532,-222.91265542805965,72.02464854853204,64.00421847451653,249.3998454814491,245.63539232383624
93,34.968397234182355,-246.82780174181127,34.9288509786155,-221.94667674510904,71.10766430403555,65.8079210737367,251.79625335472375,240.90408550241168
94,35.93189982719018,-249.32701867962476,34.08621087906954,-220.79224194185096,71.19926479868121,67.27718514521499,254.1555163178511,236.1649781191705
95,36.81796402763094,-251.77655207591093,33.185492130965194,-219.46967957894242,72.25159862753264,68.53355403329303,256.45093053802765,231.4504779265276
96,37.5961305630846,-254.15041430587584,32.234048478079885,-218.00258772973805,74.19132120762293,69.70466853715725,258.6567342791655,226.80263724512469
97,38.237108415582284,-256.4235315133332,31.238292178464164,-216.4170480687637,76.91971499618987,70.92138812488936,260.7483682957287,222.2739619797832
98,38.71327602661182,-258.5719473014062,30.20364414715075,-214.74069027944734,80.31321312596327,72.31491819116513,262.7027075005921,217.92790117456315
99,38.99912135008226,-260.573007997333,29.134539376453443,-213.00163441101458,84.22435193569903,74.01399795645035,264.49826437016435,213.83898978252319
100,39.07161848119379,-262.4055320058369,28.034483369171156,-211.2273463939349,88.48317483250942,76.14219494041602,266.11536544424763,210.09262663561248
101,38.91054195283837,-264.0499661885045,26.906153687763904,-209.44344774083396,92.89910533552484,78.81534303165832,267.53630320170174,206.78447828351437
102,38.49872259786936,-265.4885325924864,25.751539556507552,-207.67252406515863,97.26330079991473,82.13915268106504,268.74546647811894,204.0195070759752
103,37.822250960609345,-266.705369059814,24.572111805358578,-205.9329784434285,101.35149004909591,86.20701428711338,269.72945327262846,201.9106286864047
104,36.870635507031984,-267.6866671384751,23.36901529188473,-204.23797505160596,104.92728785277926,91.09800995982782,270.4771701078873,200.57701053897105
105,35.636923299271146,-268.4208102096611,22.143276174300546,-202.59451612101103,107.74596685493292,96.87514492297058,270.97992196392636,200.14202860781847
106,34.117790408222874,-268.89851378519825,20.896016886992633,-201.00269122669533,109.55865331734792,103.58380801726497,271.231496135251,200.73090605137577
107,32.313608252641174,-269.11296850809083,19.628672171257406,-199.4551323918297,110.11689727471784,111.25047107922897,271.22824214735545,202.4680633688783
108,30.228490469362455,-269.0599846408922,18.343199777910986,-197.9367016643971,109.17755101898943,119.881639168814,270.9691482434248,205.47421645895233
109,27.87032309071591,-268.7381349980739,17.042279374240092,-196.4244300131105,106.50787310650398,129.46306728006343,270.45591317462396,209.86326636829457
110,25.250778926258832,-268.14889161698795,15.729492906208597,-194.88771810530835,101.89075934056099,139.95926366002746,269.6930103737082,215.73903289615288
111,22.3853151358754,-267.29675012301203,14.409479473475534,-193.2888014353688,95.12998846328797,151.31330435770548,268.6877402371829,223.19189373526882
112,19.29315097810956,-266.18933475270796,13.088057923454194,-191.58347503398923,86.05535948562492,163.44698721333685,267.45026521613653,232.2954014342872
113,15.9972207110537,-264.8374763382427,11.772311022852714,-189.72206706771345,74.52759034775714,176.26135535488604,265.99362171333314,243.10296180531248
114,12.524094879515664,-263.2552553074045,10.470626223489509,-187.6506461212987,60.44284431009326,189.6376197885233,264.33370249718104,255.6446687474946
115,8.903861960839698,-261.46000204361866,9.192689496948804,-185.312443497809,43.7367512301204,203.43850747325598,262.48920359415035,269.9244006947741
116,5.169961602531925,-259.47224777432075,7.94943020348207,-182.64946875827926,24.387795610271336,217.5100551530336,260.481530383023,285.9172915945937
117,1.3589604327612164,-257.3156203486661,6.752916372927715,-179.60429305807662,2.419951895885293,231.6838601499304,258.3346587051983,303.56769296997714
118,-2.4897383085320737,-255.01668064600764,5.616201132970636,-176.12196986483784,-22.095540124134676,245.77978745813584,256.0749480412655,322.7877419221629
119,-6.334259182036826,-252.60469682290162,4.553122333991651,-172.15205605044574,-49.03935090222427,259.6091181494562,253.73090508432,343.4566420698369
120,-10.130699270697928,-250.11135510779903,3.5780586898226763,-167.65068832235988,-78.24425919329242,272.97810775484356,251.33289731377897,365.4207500705343
121,-13.833657147000917,-247.5704073485679,2.705647041429991,-162.58266101907248,-109.49642115069406,285.691905493886,248.91281739868262,388.4945396531569
122,-17.39684702984656,-245.01725697138173,1.9504667213864106,-156.92344217609954,-142.53773303761335,297.55876674043765,246.5037003984619,412.4624885884466
123,-20.773795598184993,-242.48848639724272,1.3266984082998312,-150.66105644585568,-177.06928158659184,308.3944728847927,244.13929675594196,437.081902823341
124,-23.91861519964667,-240.02133031142213,0.8477661876270652,-143.79775712340722,-212.75584568766007,318.0268558365068,241.85360501650678,462.0866576563925
125,-26.786843327804227,-237.65310058378526,0.5259727163136011,-136.35140640526467,-249.23138198287504,326.30030986529795,239.6803691526514,487.1918001813175
126,-29.336334180815754,-235.42057017060995,0.3721384500919065,-128.35648407497212,-286.1053963450794,333.08016225107895,237.65254640635297,512.0989221935359
127,-31.52818384749988,-233.3593249551834,0.3952567686221554,-119.86465071902482,-322.97007446329815,338.2567670409201,235.80175266026518,536.5021801535287
128,-33.32766652563191,-231.50309411422987,0.6021772897756613,-110.94480260170494,-359.40801914181026,341.74918358196635,234.15769345394696,560.0948102184515
129,-34.705155756379064,-229.88307121361504,0.9973295061756724,-101.68257125736696,-395.0004204825617,343.50830377352025,232.74758990871294,582.5759630478047
130,-35.637002368622205,-228.5272398730116,1.582498074401057,-92.17924096212532,-429.3354684196071,343.51929951925314,231.5956100940498,603.657665907696
131,-36.10633960634137,-227.459719465306,2.3566596271395714,-82.5500803990581,-462.0168051402954,341.8032750211609,230.72231774294386,623.0717089492351
132,-36.10378548035496,-226.7001478635437,3.3158888574593055,-72.92210974013558,-492.6718074865673,338.4180274921459,230.14415162380308,640.5762484171624
133,-35.62801270497631,-226.26311969753021,4.453339038722178,-63.431349795812324,-520.9594862759204,333.45784425166875,229.87295029193567,655.961921660481
134,-34.68615795432078,-226.15769989460776,5.759299424765787,-54.219624696525095,-546.5777907786181,327.0522931556874,229.91553837818975,669.0572768087793
135,-33.29404495457582,-226.38703320929685,7.221329292616491,-45.4310125346797,-569.2701129497992,319.3639957291323,230.27339183698385,679.7333336618187
136,-31.47620028791793,-226.94807049171035,8.82446569465786,-37.20805802070863,-588.8307983720865,310.5854069433956,230.9424002083463,687.9071117912848
137,-29.26564674299418,-227.83143103799267,10.55149921572284,-29.68787601234485,-605.1094901759573,300.93466094719304,231.91274340183543,693.5439872869435
138,-26.703466535498002,-229.02141718165296,12.383309244166469,-22.99828376888403,-618.0141591380369,290.6505767545929,233.168898446372,696.6587711476556
139,-23.838135463733284,-230.4961924106834,14.299247621637324,-17.25410266470295,-627.5127078442548,279.9869505322405,234.68978807240694,697.3154399549527
140,-20.72463847212326,-232.22812812725556,16.277557198035677,-12.553767118267187,-633.6330787283288,269.2062905660991,236.44907812219847,695.6254927465956
141,-17.42338637481791,-234.18431715362726,18.295809922566672,-8.976370125966369,-636.4618437602774,258.57317623292676,238.4156248585874,691.7449559507522
142,-13.9989618384494,-236.3272446301036,20.331347838100395,-6.5792614136160825,-636.141305684327,248.3474422409854,240.55406649889412,685.870109123711
143,-10.51872953267653,-238.61559949381683,22.3617100141263,-5.396296010648034,-632.8651944454277,238.77740271339817,242.82554612128027,678.2320555432298
144,-7.051350403007949,-241.00520280281094,24.365029314261385,-5.436808159582918,-626.8730947649783,230.09333510243943,245.18854606011686,669.0903104096747
145,-3.66524338494074,-243.4500233064814,26.320384966431146,-6.685358304102311,-618.4437885684615,222.50144068207385,247.59980768076073,658.7256224058077
146,-0.4270396056007661,-245.90324630116055,28.20809999544891,-9.102270340145322,-607.8877361163331,216.1784863877619,250.01530558011362,647.4322787810929
147,2.5999259457826733,-248.318359278975,30.00997645647645,-12.624943764804875,-595.5389494201467,211.26731238473192,252.3912422348128,635.5101672070413
148,5.357042264819187,-250.65021739622,31.70946583926485,-17.169892535157704,-581.7465283500769,207.87336126398935,254.68502820808428,623.256876817251
149,7.791730392964095,-252.85605340894182,33.291776661510774,-22.635431115187995,-566.8661321899865,206.06234836129204,256.8562143291766,610.9601142903534
150,9.85859748040231,-254.89640025946312,34.7439256463707,-28.904900146270105,-551.2516473741829,205.85914874900092,258.8673455860558,598.89068839094
151,11.520408677644445,-256.73589957938776,36.054742481593124,-35.85030153183422,-535.2472877420357,207.24792625944565,260.6847114126433,587.2962799335195
152,12.74885517286638,-258.34397564850883,37.21484071321389,-43.33619764190651,-519.180330165082,210.1734762381451,262.2789732047025,576.3961671882417
153,13.525103101630103,-259.6953615050777,38.216568818443804,-51.22372291639787,-503.35464947453073,214.54370070996242,263.62565691702343,566.3770235957707
154,13.840114005032532,-260.7704714926276,39.05395589767423,-59.374557603207705,-488.045175576576,220.23308685994593,264.7055059959808,557.3898496796529
155,13.694732941825826,-261.55562185756054,39.72266549589012,-67.65472072704354,-473.49335532209466,227.08702120796744,265.5046969562101,549.5480483628164
156,13.099545426448673,-262.0431072585406,40.21996860629826,-75.93805085680961,-459.90366442310483,234.9267452769339,266.01492577857175,542.92660616779
157,12.074509199608707,-262.23114551612247,40.54474308130691,-84.10925783594335,-447.44118219043077,243.5547449260258,266.2333773059941,537.5623048273475
158,10.648371478696086,-262.12370524545634,40.69750193537364,-92.06644581733491,-436.23021498162535,252.76036436280373,266.1625916047261,533.4548602093273
159,8.857886825142838,-261.73023120242374,40.68044783397209,-99.72302731671621,-426.3539329208561,262.32544574225204,265.8102408985178,530.5688683596553
160,6.746855229646573,-261.06528069589507,40.497545930028636,-107.00896966346974,-417.8549677745508,272.02981427345554,265.1888286746487,528.836431013831
161,4.365004567005564,-260.1480820990306,40.15460285302419,-113.87133995007905,-410.7369063894547,281.6564544563811,264.3153197921796,528.1603334648674
162,1.7667460183045616,-259.0020242068126,39.6593367751027,-120.27414305849828,-404.9666021808329,290.99625252290826,263.2107078242332,528.417653880598
163,-0.9901652269628592,-257.6540835769188,39.021422401235974,-126.19747907574316,-400.47721534306595,299.8522103441733,261.89952408141835,529.4636922759471
164,-3.8460293334735174,-256.134196444193,38.25249543319407,-131.6360792848038,-397.1718799499621,308.04306459802325,260.4092921580071,531.1361167761813
165,-6.740625716754364,-254.47458249271847,37.36610335796102,-136.59731079862712,-394.92788318096217,315.406270492552,258.76993258965643,533.2592328439569
166,-9.614626090341227,-252.70902960917775,36.37759300784006,-141.09876576761292,-393.6012298009794,321.80033137330184,257.01312421701573,535.6482872884243
167,-12.410961955736484,-250.87215133368804,35.30392977850337,-145.1655699198794,-393.0314554046192,327.1064742174274,255.17163169007645,538.1137236205544
168,-15.076112867247248,-248.99863148594676,34.16344817671579,-148.82755618615244,-393.0465463222538,331.22968663161737,253.27861159149901,540.4653096396656
169,-17.561283346990983,-247.12247280475492,32.975538140224586,-152.11645229193084,-393.46782361472316,334.0991438435473,251.36691230682797,542.5160631018563
170,-19.823438579100802,-245.27626803265377,31.76027613073537,-155.0632266802147,-394.1146539932382,335.66806467756214,249.46838466626883,544.085907880674
171,-21.826172130972985,-243.49051256798094,30.538014163671722,-157.69572519415158,-394.808861978606,335.91304401168225,247.61322140736075,545.0050017589392
172,-23.540383100166974,-241.79297754047673,29.328943390324895,-160.0367119759819,-395.3787346131,334.8329160276394,245.82934362009385,545.1166878726522
173,-24.94474542816402,-240.20816086274814,28.15265116803798,-162.1024027562308,-395.6625313971827,332.4472079223003,244.1418514607554,544.2800343477633
174,-26.025958618953972,-238.75683144172734,27.027691399189955,-163.90154836974847,-395.51143642098833,328.79424781531924,242.57255452726727,542.3719400821934
175,-26.778776413643936,-237.45567850223748,25.9711871881444,-165.43509283535826,-394.7919153975411,323.92899339695845,241.13959455822808,539.2887980506047
176,-27.20581757193129,-236.31707426489643,24.998482703864813,-166.69639613488786,-393.3874658581121,317.92064936310595,239.85716989946263,534.9477199488118
177,-27.317170276734362,-235.34895431410646,24.12285785200564,-167.6719795530352,-391.19977247665173,310.8501419499551,238.73536771563346,529.2873365228303
178,-27.129808448451914,-234.5548159562962,23.355315363473117,-168.342723333797,-388.14929995818454,302.8075181311148,237.78010625368074,522.2681959567044
179,-26.666844186006163,-233.93383079317104,22.7044456587737,-168.68542399382738,-384.17537232263993,293.8893354586519,236.9931856659602,513.8727880716345
180,-25.956645367042068,-233.48106390136968,22.176370755270987,-168.67460272116105,-379.23579951082746,284.19610614269226,236.37244222848412,504.10522505064006
181,-25.03185087015538,-233.18778874608728,21.774764797567038,-168.2844472185844,-373.30612021087154,273.82985573283617,235.9119975372424,492.99061046702093
182,-23.928317815811404,-233.04188440844396,21.50094560078103,-167.49076721149382,-366.3785339841793,262.89185269641206,235.6025915725965,480.5741282222542
183,-22.684035665904798,-233.0282998344927,21.354028934539897,-166.27284847513556,-358.46059648919555,251.48056029251515,235.43198637081707,466.9198821885774
184,-21.338041020628484,-233.12956858082848,21.331135243853186,-164.61510113284692,-349.5737491468464,239.689856274086,235.38542543404535,452.1095162465235
185,-19.929364685206913,-233.32635700405888,21.427637268366457,-162.5084142738308,-339.7517493099046,227.60755874864327,235.44613306310973,436.2406431013627
186,-18.496039384005712,-233.5980290807782,21.637436643893302,-159.95114959021842,-329.0390594555453,215.31428753844204,235.5958376271997,419.4251088219351
187,-17.074192716680475,-233.9232119860006,21.953257943669417,-156.94973061760805,-317.4892449094152,202.88267933829636,235.8153033618073,401.78711867608615
188,-15.697245852720842,-234.28034802915988,22.36694962325282,-153.51880999591665,-305.16341999886714,190.3769620678567,236.08485646170473,383.4612488323689
189,-14.395234277028262,-234.64822039157167,22.869782882347753,-149.6810233042302,-292.1287731993538,177.85287979579442,236.38489286481894,364.5903681203971
190,-13.194262787216005,-235.0064422835548,23.45274133018117,-145.4663623865688,-278.45719368459623,165.3579456080256,236.6963571495279,345.32349444001125
191,-12.116102935140745,-235.33590163196186,24.106796182337277,-140.9112214255193,-264.2240154765985,152.93198703944412,237.00118434610016,325.8136115424223
192,-11.177937155667287,-235.61915604707582,24.823163223086564,-136.0571835343966,-249.50689136476055,140.6079382470732,237.28269898734644,306.2154735161518
193,-10.39224993602265,-235.84077526763897,25.593538769340547,-130.9496235580994,-234.38480645359584,128.41282564736397,237.52596804222262,286.6834259775388
194,-9.766862623244307,-235.9876302721096,26.410312288721233,-125.63620441585857,-218.9372395949494,116.36888957106494,237.7181062090771,267.36927422833094
195,-9.305104884499793,-236.0491296714462,27.266753173605636,-120.16534063919546,-203.243478941796,104.49478368821718,237.8485332909214,248.42022911615933
196,-9.006112400944946,-236.0174048539629,28.15716859363999,-114.58469496632615,-187.38209456935473,92.80679641802163,237.90918403314006,229.9769607802831
197,-8.865237105230031,-235.8874456923028,29.077028563368692,-108.9397633972902,-171.43056612079488,81.3200438326278,237.89467094828507,212.17178882848154
198,-8.87455324097124,-235.65718862074505,30.023053682652517,-103.2725926665275,-155.46505679243393,70.04959091493919,237.8024004859968,195.1270349232653
199,-9.023439776835904,-235.3275587998275,30.993260799871855,-97.62066320797193,-139.5603171792441,59.011466518588385,237.63264271639525,178.95356060420005
200,-9.299217272322167,-234.902468087342,31.986962329374936,-92.01596135614759,-123.78969443466131,48.223546137336136,237.38855468833592,163.74950987318505
201,-9.687815276288132,-234.38877066016892,33.004716084240094,-86.48425703714956,-108.22521492094812,37.70628485077403,237.07615783001134,149.5992729952138
202,-10.17444496981855,-233.79617835796105,34.04822411153375,-81.04459739363332,-92.93770304731162,27.483289893928536,236.70427015033712,136.5726853563078
203,-10.744251309688394,-233.1371382028177,35.12018101104638,-75.7090222524966,-77.99689609682908,17.581727727797045,236.2843946300701,124.7244731693619
204,-11.38291961102927,-232.42667513104186,36.22407438226097,-70.48250338290732,-63.47151500835078,8.03256417665488,235.8305660915533,114.09395624114134
205,-12.077213431305484,-231.68220360364,37.36394205505516,-65.36310507393955,-49.42925444507787,-1.1293615640010726,235.35915982197724,104.70501656294616
206,-12.815423723376423,-230.92331215366136,38.54409236884194,-60.3423577141904,-35.93666179484554,-9.865427013586629,234.88866598439853,96.56633958850387
207,-13.587713337480718,-230.17152485609662,39.76879499388446,-55.405828561265395,-23.05888330988716,-18.133477919191613,234.4394341698157,89.6719321120061
208,-14.386345830661915,-229.45004310445267,41.04195083562074,-50.533865620983505,-10.85926532259574,-25.888238132802392,234.0333922833555,84.00191625775369
209,-15.20579289070167,-228.78347008733974,42.3667505762584,-45.7024830397784,0.601191821293922,-33.08187427012694,233.69374345913087,79.52359314789672
210,-16.042720158984217,-228.1975193246332,43.74533238867791,-40.884350831356045,11.264520618780379,-39.664710547500746,233.4446441695033,76.1927624487412
211,-16.895856474545308,-227.71870785326985,45.17845017436055,-36.04984818492752,21.076599695063518,-45.58608731004154,233.3108663742477,73.95527534749141
212,-17.765756247383077,-227.37403409139844,46.66516410263852,-31.168137241821533,29.98807195500545,-50.79535378282403,233.31744631305733,72.7487887281798
213,-18.654468698601807,-227.19063972476124,48.20256503792084,-26.20821250958191,37.9553394089857,-55.24298155492247,233.4893220052373,72.50467794000213
214,-19.565131137007857,-227.19545400829014,49.78554353103562,-21.139880443732004,44.941600921874404,-58.88178056989299,233.85096053452455,73.15005585974134
215,-20.501506256350975,-227.41481792750545,51.40661248295696,-15.934625288086359,50.91789536198889,-61.6681943170247,234.42597503905944,74.60983864440009
216,-21.467485483390053,-227.87408514764465,53.05579060796084,-10.566321962597184,55.864111066876404,-63.5636457972196,235.23673044621125,76.80879500893514
217,-22.466581541456236,-228.59719687284414,54.72055180339369,-5.011764798137985,59.76992311653293,-64.53590097059133,236.30393672016507,79.67351646050389
218,-23.501433517429657,-229.60622868725736,56.38584372633643,0.7490085333658785,62.635622089903414,-64.56041204787037,237.64622881477797,83.13424995318415
219,-24.57334676048435,-230.92090900949412,58.03417718618663,6.732606972814611,64.4728010623093,-63.62159932038922,239.27973348748512,87.12654038386164
220,-25.681887918484698,-232.55811070354886,59.645786086958125,12.952387873463202,65.30487106201323,-61.71402744937578,241.21762433299375,91.59263684765553
221,-26.824552476401614,-234.53131941638537,61.19885541677168,19.41875839956105,65.16737894725576,-58.84343085411613,243.46966759054064,96.48262318787873
222,-27.99651852455209,-236.8500843375007,62.66981225446764,26.139654056099726,64.10810590625621,-55.02754398834441,246.04176248439526,101.75524059511348
223,-29.190496402999877,-239.51945955150777,64.03367219019674,33.12116005254301,62.18692981225381,-50.29669665806061,248.93548139170738,107.37837841589568
224,-30.39667958516133,-242.53944720228512,65.26443124868702,40.36822683238722,59.475440688594794,-44.69414227842819,252.14761729687987,113.32921882263021
225,-31.602797921177512,-245.90445721674752,66.3354916659569,47.88541481374592,56.05630560092024,-38.276097525028696,255.66974879119874,119.59403055058469
226,-32.79427039120436,-249.60280211035325,67.22010899012096,55.67758725673346,52.0223872267383,-31.111484042460994,259.48783617274506,126.16761496574897
227,-33.95445093965914,-253.61624926574768,67.89184813959344,63.75045716939361,47.47562867823225,-23.281375228202005,263.5818659127224,133.05241301371558
228,-35.06495776701525,-257.9196568250635,68.32503717975415,72.11088770022901,42.525725064744485,-14.878162138242537,267.925564661377,140.25728407747556
229,-36.10607371896275,-262.48072245053663,68.49520938045245,80.76684870332353,37.28860891383023,-6.004461266136205,272.4862075169065,147.79596922033036
230,-37.057203365132125,-267.2598759753545,68.37952633349164,89.72694706423536,31.884781392861484,3.2282069493788916,277.22454775268415,155.68525490827145
231,-37.89737111510829,-272.21034674836613,67.95717739177299,98.99947523694563,26.43752423583822,12.70093629782249,282.09489595024996,163.94286230858467
232,-38.605744057436155,-277.2784338670812,67.20975331315296,108.59095983813009,21.071028842473105,22.289115306949288,287.04537506341126,172.5851031755914
233,-39.162162774464605,-282.40400238417374,66.12159469328272,118.50423676936394,15.908480216978594,31.864235451757622,292.0183741690306,181.6243649388675
234,-39.54766309407252,-287.52122114893666,64.68011860083068,128.73612645150618,11.070135487172276,41.2957927616006,296.9512177078987,191.0665113772948
235,-39.74497188937586,-292.55954859669976,62.87612967793316,139.27482797004322,6.671440096604856,50.45324852208273,301.7770592522814,200.90830736622144
236,-39.738960990876144,-297.4449620243752,60.70412421957478,150.09719185280562,2.8212282579699273,59.20801388753308,306.42599960681645,211.1349943792485
237,-39.51704508457174,-302.1014142567737,58.16259629607836,161.16606680363574,-0.3799442795788314,67.43542170014297,310.8264186354461,221.71815680563256
238,-39.06951194197853,-306.45248972449076,55.25435277555772,172.42794392583005,-2.8412896088933843,75.01664745516302,314.9064989502626,232.6140262065153
239,-38.389776332257235,-310.4232204362093,51.98683876987791,183.8111383017295,-4.4830609441696545,81.84054105818083,318.59590803268577,243.76236830693367
240,-37.474552491543434,-313.9420116582007,48.372467110303624,195.22474662700031,-5.237583281934465,87.80533244998206,321.8275941559718,255.08608272760236
241,-36.323943948756586,-316.9426177586274,44.4289360843145,206.5585967248122,-5.050030111451978,92.82017756456759,324.53964129616753,266.49161766293366
242,-34.941453419919014,-319.36610113998637,40.1795101587384,217.68435886625082,-3.8789523331238436,96.80651619438775,326.6771196974609,277.8702636618783
243,-33.333918820036324,-321.1627021504289,35.653230222822664,228.45792123944247,-1.696583924685923,99.69921948889207,328.1938626539936,289.1003465457769
244,-31.511383807565387,-322.29354604515015,30.88501454543241,238.7230459631115,1.5110338514841921,101.44751098681249,329.05409719999307,300.05029214734765
245,-29.486912583694405,-322.73211494503715,25.91561048211756,248.31622305877679,5.744054514468373,102.0156500546868,329.233857401261,310.58248504077295
246,-27.276359035588563,-322.46541849735735,20.791360668630702,257.07253567791616,10.98889298874853,101.38336924634729,328.7221141289933,320.5577881321864
247,-24.898099992278294,-321.49480650108563,15.563755796523438,264.8322510532395,17.218297831942877,99.54605683835628,327.5215645153224,329.8405300413508
248,-22.37274171646747,-319.8363796969966,10.288758202720986,271.44776958139425,24.39138331506899,96.5146730558345,325.6490372379751,338.30370806184703
249,-19.722808113423692,-317.520970474203,5.025895298505216,276.7905093191553,32.453598850699876,92.31538482607453,323.1354854575652,345.83410691421255
250,-16.972418628798582,-314.5936824771049,-0.1628618084135282,280.7572821233925,41.33664454351258,86.98890164072189,320.0255565456307,352.3370094903982
251,-14.146963339991451,-311.1129960080559,-5.214402528276325,283.27573432541084,50.95837720113282,80.58949684035565,316.3767455228127,357.7401836951401
252,-11.272782073484798,-307.14946356244144,-10.065916496215761,284.30847931461733,61.22278568754369,73.18370640807132,312.25815606300563,361.9968718367956
253,-8.376853162679199,-302.7840355908303,-14.656408984137666,283.85563791951455,72.02014207421428,64.84871194138596,307.74890771159835,365.0875826132809
254,-5.486495393034263,-298.1060697260901,-18.928224214648274,281.9556170462202,83.22745031495181,55.67043487552003,302.9362397608598,367.02058261675444
255,-2.629083774044412,-293.21108677615956,-22.82850623976258,278.6840861485294,94.70931340428106,45.741392638204594,297.9133708298775,367.83109294906546
256,0.16822342862051645,-288.1983436168573,-26.310530439270746,274.15124115128253,106.3193216068194,35.15839063513089,292.7771788569906,367.57930351576044
257,2.8787515725742225,-283.1682967821917,-29.334847672244795,268.49756256781177,117.90202933061227,24.020143070166487,287.6257693593194,366.3474091339132
258,5.476576796641309,-278.2200313827906,-31.870196491492926,261.88836664967636,129.2955401273568,12.424927554904995,282.5560009792737,364.23593573850513
259,7.936799224161546,-273.4487286009612,-33.89415477167338,254.50750715986692,140.33466382198253,0.4683815654831297,277.66103705724964,361.3596534717456
260,10.23582570169184,-268.9432420888886,-35.39351853814004,246.55060763295845,150.85455363623487,-11.758457024594897,273.0279906020263,357.8433637863663
261,12.3516621274479,-264.7838495920053,-36.36441089483902,238.21819203763312,160.69468080870718,-24.1707766333748,268.73572763494025,353.8178043871797
262,14.264211516121799,-261.0402411372057,-36.81213654486591,229.7090420897469,169.70296471877745,-36.6912164779583,264.85289025944314,349.4158499668819
263,15.955570198256078,-257.76979903035783,-36.75080696821289,221.2140508523761,177.73985132744298,-49.250642569382265,261.43619567923304,344.7691130348321
264,17.410311475153357,-255.01621752157334,-36.20276776759552,212.9107738039804,184.68212380995487,-61.788453998472235,258.5290605641811,340.0049815832663
265,18.6157440747477,-252.80850118610817,-35.19786305473371,204.95880830158103,190.42623720172503,-74.25242416668337,256.1605915580414,335.2440782442563
266,19.562132205954615,-251.16037078306744,-33.77257221255008,197.49606670535178,194.89099296215517,-86.59810705634008,254.3449723751188,330.5980929302115
267,20.242865019737938,-250.0700937085797,-31.969052409191892,190.63595217983305,198.01940736937942,-98.78786255803719,253.08126608990844,326.1679276033505
268,20.654565733609324,-249.52074347183938,-29.834116635750835,184.46540277376073,199.7796759587027,-110.78957610828648,252.35363833901803,322.0420952134138
269,20.797134222609543,-249.4808793302064,-27.418172715784376,179.04374067237427,200.16519009591562,-122.57516532348939,252.13199376762967,318.29533101589817
270,20.673721065549724,-249.90562382922562,-24.774144528987264,174.40224947469318,199.19361619159218,-134.11897905586648,252.3730047070867,314.98739880566194
271,20.290635382327707,-250.73810315120244,-21.956393172708857,170.54440105050202,196.9050985243178,-145.39620164617403,253.02149838846037,312.16210237102007
272,19.6571928635011,-251.91120366370626,-19.019653237422226,167.44666170488915,193.35968972578036,-156.38137642999328,254.01215769893523,309.84653927750696
273,18.7855137958834,-253.34958855410426,-16.017997869752033,165.0598211546223,188.63414639089527,-167.04715712102538,255.2714811807336,308.05065599720314
274,17.690283345555244,-254.97191128693976,-13.003845733313513,163.3108033946299,182.81824983519607,-177.36338324394427,256.7199409460825,306.76717726801235
275,16.388487724736464,-256.69315788243694,-10.027023094905184,162.10493260479427,176.0108237974671,-187.29655670421056,258.2742724510893,305.9719864659711
276,14.899140091956788,-258.42704758786147,-7.1338947415846485,161.32863727365392,168.31562316228428,-196.80977198031292,259.84982752049564,305.6250271855853
277,13.243009070757502,-260.0884212246344,-4.366577962326379,160.85257998181717,159.83726259157427,-205.86312393373996,261.3629214739939,305.6717798273762
278,11.442360549574575,-261.5955481587789,-1.762254111724907,160.53519779922644,150.67734329917525,-214.4145866879974,262.733106509844,306.04534212918804
279,9.520719961218255,-262.8722863074,0.6474079401241335,160.22662848398755,140.93092128251533,-222.42132616977403,263.88530653467706,306.66911068671527
280,7.5026578443989935,-263.850034702671,2.8367030520529504,159.7729803687558,130.68344127932366,-229.84137918748897,264.75175327768216,307.4600229086305
281,5.4135968307474185,-264.4694247764076,4.786204038495543,159.02087914442393,120.0082370858595,-236.63560464492656,265.273669730857,308.33227719547153
282,3.2796340539363684,-264.681704827959,6.482929903160646,157.82219397101557,108.96467067725632,-242.76978919692752,265.402654886241,309.2014062876243
283,1.127369848728278,-264.44978241241046,7.92036304332938,156.0388117397663,97.59695121521838,-248.216772328659,265.10173374896084,309.988539179282
284,-1.016268390411935,-263.7489016499905,9.098315424560315,153.54729740527657,85.9336431736254,-252.95844645430032,264.3460487208876,310.62465607646055
285,-3.124219228817149,-262.5669460208776,10.022649334670852,150.2432566537849,73.98784322133422,-256.9874873536474,263.1231819655354,311.0546232059486
286,-5.169508832433923,-260.9043709511309,10.70486374554735,146.0452099095691,61.75797983406722,-260.3086790301926,261.43311211806713,311.2407923863136
287,-7.125511244911969,-258.7737834843934,11.16156192161967,140.89779560333812,49.229168153594294,-262.93971392145795,259.2878217249623,311.1659642179562
288,-8.966254101277741,-256.19919801963977,11.413819440788252,134.77414439989928,36.3750350318132,-264.9113731587307,256.71058351271597,310.83554187095564
289,-10.66677214549663,-253.21500700945924,11.486474209975668,127.67730201854677,23.159915425078122,-266.2670212276408,253.7349635132234,310.27874241923365
290,-12.203505699048605,-249.86471310857553,11.407361414342931,119.64062362647559,9.54131182164644,-267.06138384134505,250.40358665648336,309.54878194276716
291,-13.554735637840986,-246.19947415864507,11.206516715448517,110.72711460201685,-4.527496079837979,-267.3586156861317,246.76671529043222,308.7220061351018
292,-14.701040933474593,-242.27651465617527,10.915370533431206,101.02774698017508,-19.094803001159907,-267.22970411672827,242.88069326732776,307.89599599184146
293,-15.625760075502669,-238.15745742392264,10.565955069472835,90.65883350889786,-34.2078952288671,-266.7492937222277,238.80630821171349,307.1867336965528
294,-16.315434521137984,-233.9066276248552,10.190143986127865,79.75858736565807,-49.91062404272328,-265.9920525487715,234.60712292537772,306.7249623431331
295,-16.76021124465956,-229.58937837653573,9.818942432012964,68.48303166657203,-66.24120763614114,-265.0287312227146,230.34782399243502,306.65191064460487
296,-16.95418244486236,-225.2704831704458,9.481842378188583,57.00144700560807,-83.23031201637727,-263.9220893798122,226.09263169233267,307.1145778458034
297,-16.89564305444926,-221.0126351437695,9.206255045400347,45.49155687114608,-100.89943916357412,-262.7228786888029,221.90381039407683,308.26078416008596
298,-16.587250274243157,-216.8750871987178,9.017028650117776,34.13465022579108,-119.25963072612815,-261.4660779081118,217.84031287658894,310.23418914958495
299,-16.036073391279853,-212.9124603715244,8.936055999672195,23.110828620861867,-138.31047970645295,-260.16757237566736,213.9565858058947,313.1694663902027
300,-15.253526374382355,-209.17374105087347,8.981972930075957,12.59454341917505,-158.03943172717084,-258.82145778866476,210.30155719959376,317.1878000007845
301,-14.255180240739968,-205.70148082394877,9.169945530912523,2.7505593476168677,-178.42135129310978,-257.39812643677675,206.91782031791885,322.39284025050137
302,-13.06045702568494,-202.5312060117004,9.511541791182747,-6.2695534542564735,-199.41832624030252,-255.84326440041178,203.84102216718546,328.8672247183177
303,-11.692212045953832,-199.6910375429715,10.014681818127196,-14.330332782091673,-220.97968454364496,-254.07785242288094,201.09945883412777,336.669741158057
304,-10.176215381288884,-197.2015159869688,10.683660020953596,-21.314712855786492,-243.04220114318773,-251.99922338892722,198.71387436900756,345.83318032559106
305,-8.540546670580339,-195.0756215515357,11.519232421071369,-27.1256914896049,-265.53047761814213,-249.48318789253722,196.69745507238682,356.3629026163562
306,-6.814919531970904,-193.31897478526827,12.518762450665932,-31.68740946230452,-288.3574832406817,-246.3871982720958,195.05600695372075,368.2361214560234
307,-5.029953594874957,-191.93020057323204,13.67641921540547,-34.94569990711773,-311.42525074741894,-242.55448209350587,193.78830085597303,381.40188805276614
308,-3.2164135763250195,-190.9014355889447,14.983423142992667,-36.868182282332114,-334.62572286045,-237.8190391705108,192.88656712102073,395.7817452066359
309,-1.4044360433023666,-190.2189574220832,16.428335057035223,-37.44398329384768,-357.8417458379154,-232.0113625437944,192.3371194786885,411.2710020474191
310,0.37723470459773134,-189.86391214242715,17.99738582992242,-36.68316577167083,-380.94820471762836,-224.9647142664137,192.1210860734716,427.740567562811
311,2.101979981880161,-189.81311635296734,19.674844666035064,-34.61593692448106,-403.8132922135216,-216.5217620882286,192.21522445630973,445.03926950072656
312,3.745988066372112,-190.03991005015737,21.443424524610673,-31.291691503737205,-426.2998998034159,-206.54136353615064,192.59279718409476,462.99657695834
313,5.288863438430901,-190.51503771546314,23.284723082304787,-26.777925811530004,-448.26711548598445,-194.90526982372555,193.2244852709386,481.4256395310981
314,6.71414568123135,-191.20753655379974,25.17969690406032,-21.15903830792223,-469.571808211087,-181.52451452422628,194.07931769080494,500.1265533792284
315,8.009722452658707,-192.08561224576417,27.10916506172699,-14.53501484377817,-490.0702747089589,-166.3452525063744,195.125596031874,518.8897655590996
316,9.168124169440011,-193.11748390287238,29.05433624371851,-7.019983380894052,-509.6199213401332,-149.3538242674381,196.33179416663438,537.4995331563068
317,10.186691630741288,-194.27218127883157,30.99735047934352,1.259384709905503,-528.0809527847347,-130.58083944651108,197.66741360284416,555.7373635093296
318,11.067611527816698,-195.52027882853028,32.921823210418786,10.165652154441238,-545.3180416210174,-110.10410020870523,199.10377616470555,573.3853758528483
319,11.817818472137699,-196.83455290297084,34.813376052945394,19.552594946594766,-561.2019578380583,-88.05021950543265,200.61473683747823,590.2295418636425
320,12.448765733876485,-198.19055020282622,36.66013574868804,29.267398687252342,-575.6111436957032,-64.59483004301946,202.17730102627786,606.0627807268503
321,12.976070262047482,-199.5670576918984,38.453180930189944,39.153075620197725,-588.4332252280082,-39.9613258350399,203.77213229281287,620.6879008085384
322,13.419040734996551,-200.94646664246156,40.186915625379356,49.05109005127847,-599.5664556859047,-14.4181275401058,205.38393903474022,633.9203924357249
323,13.800100374568867,-202.31502635370845,41.85934896215897,58.8041615019277,-608.9210877867116,11.725487000804307,207.00173160236918,645.5910830435616
324,14.144119035164458,-203.6629861484256,43.472262267892795,68.25919585625638,-616.4206707930026,38.12489694555799,208.61894482744304,655.548666251874
325,14.477671597896983,-204.98462721404127,45.031247588877804,77.27027661339967,-622.0032653542805,64.40686221454968,210.23342457494923,663.662110171256
326,14.828241898094245,-206.27818850666964,46.54560539712394,85.70163262034842,-625.6225639964044,90.17728179907607,211.84728049218634,669.8229380356862
327,15.223393194612182,-207.5456932347397,48.028093730528816,93.43048660981556,-627.2488986331372,115.02977790808521,213.46661053951115,673.947357501933
328,15.689927428315057,-208.79268442088423,49.49452614138662,100.3496816529979,-626.8701092480597,138.55487061190786,215.1011061592319,675.9781956889738
329,16.253056138727242,-210.02787975368705,50.96322150830714,106.36998116517361,-624.4922409760326,160.34948865719028,216.76355008757432,675.8865777956873
330,16.935605885239607,-211.26275740558245,52.454314728029196,111.42194280139778,-620.1400314633023,180.02655118217498,218.46922178060558,673.6732707237733
331,17.757280372639777,-212.51108566077224,53.98894314357276,115.45727729097067,-613.8571478328876,197.22435222011822,220.23522804499086,669.36960209905
332,18.73400036339772,-213.78840995037706,55.5883289429177,118.44961934218406,-605.7061336390187,211.61548485127457,222.07977853230713,663.0378612079023
333,19.877341047520687,-215.1115111742359,57.27278257778918,120.3946582818482,-595.7680310951981,222.91505410434564,224.02142719115685,654.7710924488333
334,21.194084724827608,-216.4978491433157,59.06065671420659,121.30960007422743,-584.1416524011868,230.88794659933345,226.07830175665435,644.6922039680392
335,22.685904103514076,-217.9650048863515,60.96728464113063,121.2319589327282,-570.9424857443274,235.35494990454387,228.26734422028412,632.9523337779702
336,24.34918814075965,-219.53013560611225,63.00394138322323,120.2177053465959,-556.3012359206379,236.19754513252428,230.60358610174882,619.7284421303489
337,26.175018410159865,-221.20945614759881,65.17686938306659,118.3388275754847,-540.3620157103314,233.3612318663389,233.09948297497684,605.2201311445721
338,28.14929975204588,-223.0177606210237,67.48641265595019,115.6803946539022,-523.2802211072149,226.85728443739308,235.76433252723862,589.6457290596735
339,30.253044517699376,-224.96799687742651,69.92630301502057,112.33723885304026,-505.2201399962371,216.7628820979145,238.60379884579788,573.2377147477647
340,32.46280501799869,-227.0709044994405,72.48313883782298,108.41040153559719,-486.3523585526758,203.21960184675652,241.61956217833244,556.2375955812707
341,34.75124381451073,-229.334723730902,75.13609072720662,104.00350513645253,-466.85104123925754,186.43031055068093,244.80910798589906,538.8903855610483
342,37.08782633513006,-231.7649785510615,77.85685952761315,99.21922267808817,-446.8911678696303,166.65454137602055,248.1656620077792,521.4388583151953
343,39.4396152102052,-234.36433236903792,80.60990117551763,94.15601291179028,-426.6458143447681,144.20248700317484,251.67826993097287,504.1177693266595
344,41.77214109261451,-237.13251015110626,83.3529208469641,88.9052736177469,-406.2835623970364,119.4277869289734,255.33201193740703,487.1482523158831
345,44.050320922771895,-240.06627679426884,86.03762696127268,83.54903948170502,-385.96611842747797,92.7193263304089,259.10833476452166,470.7325953143444
346,46.2393918850521,-243.1594587028699,88.61072471104528,78.15831762027948,-365.84621302671985,64.49229719012682,262.9854776801563,455.0495921903033
347,48.30582781912795,-246.40299405577062,91.01511936707946,72.79211722121902,-346.0658419445779,35.17879643519581,266.9389643493044,440.25064527008817
348,50.21820467928815,-249.78499719415302,93.1912917175935,67.49719323178175,-326.7548969814373,5.218248964004981,270.942130075366,426.45676496991
349,51.947982838527665,-253.29082383099146,95.07880163718785,62.30848946328902,-308.0302219909345,-24.95205528482012,274.96665333493934,413.7565745192713
350,53.47017670848062,-256.9031263486612,96.61787110784887,57.25023441401715,-289.9951147746246,-54.90603166013719,278.98306199245064,402.205384048303
351,54.763886433671914,-260.60189241883666,97.75099527018294,52.33761336597628,-272.7392794824752,-84.23722175683224,282.9611883293969,391.8253511062143
352,55.812672376076414,-264.36446566836696,98.42452935134203,47.57891262434257,-256.33921549745554,-112.56634010432906,286.8705532386706,382.6066970036942
353,56.60476050964541,-268.1655539466312,98.5902005360121,42.97800613914048,-240.85900744023593,-139.5477621047267,290.6806684110919,374.50990333920987
354,57.133075164573086,-271.9772382195596,98.2064969913334,38.53703166422663,-226.35145761688915,-164.8748157122715,294.36125532166164,367.4687735912401
355,57.39510417850824,-275.76900208757246,97.23989135505607,34.25908429544673,-212.8594788734909,-188.28379031214845,297.88239014321425,361.3942130003464
356,57.39260994907552,-279.5078071867995,95.66586295777965,30.150741693769845,-200.41764516475527,-209.5566284602956,301.2145931242011,356.1785575569829
357,57.131207783536404,-283.15824231632314,93.46969154257151,26.224230023385815,-189.05378180541234,-228.5223172485175,304.32888837109834,351.7002704545304
358,56.619839813189905,-286.6827734868083,90.64700477054727,22.49904517411804,-178.79046893891075,-245.05704419078987,307.1968645509962,347.82882183373795
359,55.87017784048542,-290.04211816760943,87.20407180413316,19.00286249468008,-169.64633081570884,-259.0832254198177,309.79076831184443,344.42957409018544
360,54.89599120164024,-293.1957602385299,83.15784510635866,15.771601728287825,-161.63699047314518,-270.56754832579065,312.08366013681047,341.36850878895683
361,53.71251600594713,-296.1026132193846,78.53576152168655,12.848562694347054,-154.77558509749645,-279.51819306269437,314.04965717565176,338.51665074735683
362,52.335860346878576,-298.7218290938708,73.37532091924565,10.282610435855856,-149.07276204912117,-285.9814056406372,315.66427987333964,335.75406899266096
363,50.78247668088673,-301.01373934061706,67.72346556921653,8.125462840664238,-144.53610812978383,-290.0375901540423,316.9049096587611,332.9733617321669
364,49.06872777605138,-302.94090434574576,61.63578570166647,6.428213333914427,-141.16900249026136,-291.79707180905643,317.7513542715858,330.08256060998934
365,47.21056653474109,-304.4692376660575,55.17557644655712,5.237297690181631,-138.96892321878084,-291.39565989350456,318.1865061147578,327.0074146502032
366,45.22334267370378,-305.5691630526357,48.41276902938719,4.590177253374267,-137.92527605997938,-288.9901150448718,318.1970680043137,323.6930331210733
367,43.12174100654702,-306.21675530856186,41.422755555032396,4.511051244740557,-138.0168487786309,-284.75360173926043,317.7743107674685,320.1048783939074
368,40.91984750784494,-306.3948116855827,34.28512317684008,5.0069216379681425,-139.20902524125682,-278.87118716148393,316.9148194334952,316.2291075893821
369,38.63133108555227,-306.0937993308857,27.082311209294296,6.064313263978987,-141.45091879489328,-271.535432588824,315.6211803053987,312.07227059855757
370,36.26972149970276,-305.3126266876069,19.8982046308433,7.646902514887917,-144.67260464263188,-262.9421133637704,313.9025605973573,307.66038652352927
371,33.848757409025986,-304.0591926475529,12.816679519872315,9.694237445590753,-148.78264518323516,-253.2860982980882,311.7751355315257,303.0374421895825
372,31.38277335890426,-302.3506760487701,5.920119809237438,12.121649577800394,-153.66610982785977,-242.75741868043986,309.2623241670044,298.26338298967715
373,28.88709098578928,-300.21353890398325,-0.712070319793084,14.821373077183551,-159.1832901575186,-231.53756051422297,306.3948038446922,293.41169330506744
374,26.37837815313288,-297.68322867697776,-7.004928780235738,17.664809240773387,-165.1693002540922,-219.79602026862491,303.2102830978719,288.5666857025033
375,23.87494037143083,-294.80357732234626,-12.88933820719638,20.505810798360326,-171.43472791650166,-207.68717274199827,299.75302353758775,283.82063059234696
376,21.396911753829066,-291.62590707819305,-18.303331051295736,23.18481610297401,-177.76746279853336,-195.3475077749792,296.0731120345051,279.2708590543495
377,18.966317885434133,-288.2078645647735,-23.193258426296453,25.53363878256232,-183.93577134128364,-182.89329886717925,292.2254950127471,275.0169619599993
378,16.60699019317926,-284.6120151906618,-27.51478623326661,27.380710697161273,-189.6926175701673,-170.41877000261115,288.268796578044,271.15819060749243
379,14.344320309947248,-280.90423911289713,-31.23368724103318,28.55657917625609,-194.78114856517396,-157.9948262826605,284.26395149813567,267.7911393290251
380,12.204852864916315,-277.15197807942303,-34.326404883342974,28.89946735106761,-198.94118163830308,-145.66840870118233,280.272692716646,265.0077590713859
381,10.215725311976309,-273.4223893160687,-36.78037238721726,28.260714882833202,-201.91645603787293,-133.46252321344164,276.355940879465,262.89371346980005
382,8.403973097110306,-269.7804679159045,-38.59407874579594,26.50992436962854,-203.4623534509745,-121.37697895206719,272.5721498472614,261.527049113873
383,6.7957270264884,-266.2872024842479,-39.776880757846854,23.539647165097474,-203.3537541679381,-109.38985004678457,268.97566680090483,260.9771164625782
384,5.415336603215129,-262.99782959403,-40.34856786699087,19.269452891868188,-201.39268170771706,-97.45965046391764,265.61516777051554,261.3036546983667
385,4.284458005653935,-259.9602506086064,-40.33869378726707,13.64924086637322,-197.41539719208623,-85.52818266951482,262.5322288874926,262.55594745344933
386,3.4211481218644733,-257.21366960528655,-39.78569570828021,6.661669811977407,-191.29863276882466,-73.52399040512888,259.76009030149663,264.771967296637
387,2.8390066143297843,-254.7875036438866,-38.73582797799786,-1.6763946913154393,-182.96469647989343,-61.36631552421067,257.3226636330136,267.97745213015907
388,2.546406520422677,-252.70060674375492,-37.24194226398196,-11.313487055321296,-172.38523406843032,-48.96943093742083,255.23382525700103,272.18489124682276
389,2.545850707593016,-250.96083705258775,-35.36214991709419,-22.164240897565737,-159.58349131066777,-36.247198521662256,253.49702694332825,277.39243712971205
390,2.8334868889454463,-249.5649833452066,-33.15840425085922,-34.111180187782864,-144.63497935837728,-23.11768439143242,252.10524287208847,283.58279587061014
391,3.3988080006443186,-248.49905288923992,-30.69504062010387,-47.00756078529531,-127.66650264522865,-9.50765572019655,251.04125848372328,290.72218023044115
392,4.224557642166897,-247.73890875948962,-28.03731081877127,-60.6811797498863,-108.85356340439651,4.6432159237860775,250.2782929599182,298.75943239457706
393,5.286852239708199,-247.25123181558448,-25.249945858754664,-74.93903149290773,-88.41620943556006,19.378610101090164,249.7809343569723,307.6254373264739
394,6.555523041673699,-246.9947714151812,-22.39577801501122,-89.5726563086933,-66.61344330463602,34.72241955629149,249.50635518927155,317.23295174745664
395,7.994672428297414,-246.92183965157207,-19.534449492459277,-104.3639990667512,-43.73636152933231,50.676342089269276,249.4057667317737,327.47696721515774
396,9.563430629984039,-246.9799963241341,-16.721231649236177,-119.0915742269773,-20.100240015598697,67.21829605070829,249.4260623476792,338.23570701766073
397,11.216891043904278,-247.1138659317738,-14.005975810430968,-133.53671841571918,3.9641753098663153,84.30172033860755,249.5115937436566,349.37232448500555
398,12.907195233032384,-247.26702397719075,-11.432214370427452,-147.48970457409567,28.11987870733797,101.85578493481651,249.60601947993024,360.7373255296496
399,14.584732811009248,-247.3838881134324,-9.036428692394654,-160.75549312634536,52.03299700521142,119.78650263752414,249.65416264371734,372.1716842328186
400,16.199417118846046,-247.41155023064985,-6.847497747808752,-173.15890606341202,75.38203373274557,137.97869783532835,249.60381441862776,383.5105631370284
401,17.70199501663962,-247.30148828898268,-4.886338300721265,-184.5490291866277,97.86663791566147,156.29875491350816,249.40742221763117,394.5874970853561
402,19.045348211311786,-247.01110136742287,-3.1657438155317728,-194.80267607046702,119.21558973080154,174.59803826430704,249.023604987159,405.2388582820546
403,20.18574429693011,-246.50501794859613,-1.6904251700094177,-203.8267848482006,139.19372965949555,192.71684917819982,248.41844425064204,415.30839607224505
404,21.083998145809606,-245.7561358672863,-0.4572515739956888,-211.5596653519873,157.60760518525774,210.48876348186434,247.56650748885198,424.65163986848023
405,21.70650842859929,-244.74636249517587,0.5443151437893893,-217.97106767648958,174.30966635155195,227.74517887089002,246.4515704760112,433.1399665248186
406,22.026139547743313,-243.4670352732273,1.3316052121756146,-223.0611006153902,189.20090504353982,244.3198933429534,245.06701685040213,440.6641607384034
407,22.022925599133163,-241.91901505666075,1.927962277149941,-226.8580854510786,202.23189891505083,260.05353637784543,243.41590585937928,447.1373340205014
408,21.684579658333284,-240.11245719890894,2.361824253913662,-229.4154828415726,213.40228576119569,274.7976824053478,241.51071211752887,452.4971094883567
409,21.006798421604973,-238.06627715698673,2.6656911655675253,-230.80807397072928,222.7587544747577,288.4184910814537,239.37275359517406,456.7070217377576
410,19.993358754193675,-235.80733805911214,2.8750115080735137,-231.12760847298063,230.39169168446497,300.79974012441977,237.0313352663853,459.7571199131624
411,18.656008781873958,-233.36939679237594,3.027021667079492,-230.4781489364287,236.43066661211543,311.84514297106296,234.52264549081397,461.6637956577432
412,17.014161753238678,-230.79185264364872,3.159574374316203,-228.97134448786738,241.03896927330803,321.47987420789696,231.88845015340905,462.4688850571381
413,15.094406058323006,-228.11834834355994,3.309991841873988,-226.72185484271404,244.40743837143086,329.65125932785804,229.17463582302727,462.23811506103266
414,12.929849448970204,-225.39527741931278,3.5139771146580703,-223.84312302754793,246.7478252500637,336.3286203444225,226.4296576088306,461.0589806305541
415,10.559319377878737,-222.67025383564012,3.8046137181483273,-220.44366214197862,248.285939677792,341.50230355293303,223.7029497430077,459.0381494998605
416,8.026444085796605,-219.9905997392189,4.211479319946745,-216.62398178068986,249.25481294128005,345.1819488296352,221.04335690915877,456.2984974145954
417,5.378640411561706,-217.40190454499975,4.759894228376359,-212.47423611100945,249.88809483603862,347.3940901808014,218.4976417766747,452.97587850644
418,2.666034375089137,-214.94670367553852,5.470320347662311,-208.07263122589293,250.41387497018837,348.17920391007675,216.10911916926838,449.21573357256244
419,-0.05966025996474894,-212.66331843335695,6.357920856975206,-203.48458717269685,251.04908681171145,347.58834299359285,213.91646026720107,445.1696338902162
420,-2.746281580382841,-210.58489044018327,7.432285531925367,-198.7626123350762,251.99461674582554,345.6795134362891,211.95270193119265,440.99185026609524
421,-5.3423549100383765,-208.73863536534762,8.697321452690257,-193.94681624885777,253.43120182110044,342.51396017916835,210.24448720262933,436.8360268927814
422,-7.798203023221532,-207.1453315651834,10.15130401926468,-189.06596249266394,255.51616081913056,338.15253625128594,208.81155355922752,432.8520279718849
423,-10.06701135464556,-205.8190499887319,11.787078905409555,-184.13894665209267,258.38096613360125,332.652328681397,207.6664758150876,429.1830126450084
424,-12.105829257735932,-204.7671226197729,13.592402021009118,-179.176575820623,262.1296313157465,326.06370710811166,206.8146610093846,425.9627811502545
425,-13.876489187032327,-203.99033821741784,15.550401837856523,-174.18352546928912,266.83786333534783,318.42794497788503,206.2545836491966,423.3134228997761
426,-15.34642669933018,-203.48334646677486,17.640146532530327,-169.16035586349165,272.5529108346844,309.77553840734123,205.97824156994804,421.3432859626602
427,-16.489385512407566,-203.23524500669438,19.837297187996633,-164.10548186272484,279.29402969837,300.12531522617377,205.9718056286324,420.14527768486556
428,-17.28599350430576,-203.23031832585642,22.114827685694518,-159.01700481980177,287.05348375876764,289.4843886654333,206.21643063150134,419.7954980311857
429,-17.724197433388937,-203.4488934162311,24.443791862012137,-153.89433146911261,295.7979995494556,277.8489694375728,206.68919053681532,420.3522005783379
430,-17.799546355991282,-203.86827443304512,26.794118910601334,-148.73952088430684,305.47059797029215,265.2060091040109,207.36409816522132,421.85507069579813
431,-17.515316317338126,-204.46371738710926,29.13541878362576,-143.55831626057235,315.9927311978463,251.535608496812,208.2131683610889,424.324806115147
432,-16.88247195119179,-205.20940610895028,31.43778043650449,-138.3608333740094,327.2666591808377,236.81408895362708,209.2074838040597,427.76298168805374
433,-15.91946406752116,-206.07939251381265,33.67254718248017,-133.16189220689512,339.178005842064,221.0175925505638,210.3182246002993,432.1521776475609
434,-14.65186587774102,-207.04846760658597,35.813055157175526,-127.98099245489111,351.598440153739,204.12605167528207,211.51762639285462,437.4563491914452
435,-13.11185387857379,-208.09293447117375,37.83532275402844,-122.8419472336091,364.388431481878,186.12734927910756,212.7798367236399,443.6214148689922
436,-11.33754243725529,-209.19126025786773,39.71868048560683,-117.77220185351199,377.4000324618509,167.02147972429103,214.08164524265374,450.57604238353633
437,-9.372183929100666,-210.32459046747397,41.44633171152654,-112.80187572215746,390.47964694035636,146.82451668371263,215.40306960598912,458.2326134523804
438,-7.263249153463805,-211.4771153235397,43.00583509290337,-107.96257515282045,403.47074577075506,125.57219918529526,216.72778525890683,466.48835453706636
439,-5.061405863998056,-212.63628457856734,44.389499808936264,-103.28603290894583,416.2164994120187,103.3229595358278,218.04339368288987,475.22662718221045
440,-2.819416508012493,-213.79287359815115,45.59468464107699,-98.80263625546898,428.56230268639376,80.16023715166077,219.34152998824976,484.31837929611515
441,-0.5909793962483432,-214.9409097498802,46.623991807001815,-94.53990883110852,440.3581729456274,56.19394959172902,220.6178166464263,493.62376570597866
442,1.5704598112086037,-216.0774736240422,47.48534585556607,-90.52101315712197,451.4610079648898,31.561025346050275,221.87167529590266,502.9939518663592
443,3.6128974794770605,-217.20239415165707,48.19194750483508,-86.76334092566296,461.73669423076507,6.424940889239784,223.10601274737527,512.2731182348889
444,5.48693234221894,-218.31786015448222,48.762092806132266,-83.27725795543549,471.062059878395,-19.02575444927103,224.32680063095194,521.3006838857267
445,7.146866775355326,-219.42797323254183,49.2188499418993,-80.06506951587603,479.3266686845483,-44.57989998522793,225.54257068498995,529.9137650495014
446,8.551719794622818,-220.5382681442466,49.58958926789325,-77.12026839231183,486.4344510651691,-70.00710419161433,226.7638495006882,537.9498757150354
447,9.66612446158954,-221.65522694665876,49.90536653219159,-74.4271211891246,492.3051639981067,-95.0619378868252,228.00255756054284,545.2498620230696
448,10.46108535551768,-222.78581212262932,50.200164155656,-71.96063707087512,496.8756641192267,-119.48879907772637,229.27139756849311,551.6610401293252
449,10.914575741315558,-223.93704170237916,50.510000689052575,-69.68694742571387,500.1009679943378,-143.02727962349445,230.5832562676501,557.0404804053516
450,11.011958867319484,-225.11562600242917,50.87192379288599,-67.56410558996326,501.9550628287913,-165.4178423119779,231.95064211239244,561.2583526239204
451,10.746223233729822,-226.32768118437775,51.32290722052584,-65.54329404552577,502.4314222793341,-186.40760369243435,233.3851783811602,564.2012212797376
452,10.11802748597992,-227.57852964554053,51.898677320235606,-63.570403814893616,501.54317817113827,-205.75601390666858,234.89716780793765,565.7751615295174
453,9.135556699019697,-228.872591609047,52.63249935255747,-61.58792874177004,499.32290178326895,-223.24023041740213,236.495240805601,565.9085577580632
454,7.814198047744218,-230.213366508127,53.553958182238354,-59.53709797676601,495.82195888292466,-238.659998244258,238.186095052022,564.5544505524268
455,6.176049740495448,-231.60349728136646,54.687771515333054,-57.360155410067456,491.1094204073636,-251.84187454455716,239.97432991375237,561.6923140923429
456,4.249282026008057,-233.04490599881674,56.0526766837727,-55.002686059624814,485.2705336496039,-262.64266814838305,241.86237526236246,557.3291725499316
457,2.0673727541786,-234.53898560585228,57.66043352886006,-52.41588569203359,478.4047838399667,-270.95200182158123,243.85051083007227,551.4999970125187
458,-0.3317575178091923,-236.08682995732906,59.514985397027104,-49.55866936668171,470.6235996189378,-276.6939434892608,245.93696916699187,544.2673591594935
459,-2.9066843056277256,-237.68948256515833,61.61181708404066,-46.39951610459649,462.047775315333,-279.8276903427196,248.11811230472196,535.7203509830033
460,-5.613464573037777,-239.34818357138568,63.93754277800628,-42.917951080179705,452.80469689937445,-280.34732542084964,250.38866945506007,525.9728094779919
461,-8.40664153904618,-241.06459446955228,66.46974909534366,-39.10557514560489,443.02546702726147,-278.2806987300221,252.74202070549455,515.1609108502646
462,-11.240242659486215,-242.84098107403722,69.17710874842565,-34.96656544112437,432.8420283929748,-273.68751296418475,255.17050990389896,503.44022020276225
463,-14.068746078765937,-244.68033708591716,72.01976981198233,-30.51759080342607,422.3843842972405,-266.6567163744669,257.66576878554986,490.9822996688621
464,-16.847992902109567,-246.5864330958276,74.95001452946994,-25.787111364845373,411.77801140801716,-257.3033218655373,260.2190337694888,477.9709904496203
465,-19.53602498849067,-248.56377874926133,77.91317070384372,-20.814062407920705,401.14155259848724,-245.76478218065319,262.8214366007928,464.5984923422619
466,-22.09383035284064,-250.61748894443974,80.84874863150021,-15.645957147848335,390.58486810633156,-232.19705681820264,265.46425014570684,451.06136855680745
467,-24.485980503084622,-252.75304835896273,83.69176800003052,-10.336479973639635,380.20751165716086,-216.7705080539421,268.13907135555087,437.55660424986297
468,-26.681146090809484,-254.9759724306589,86.37423280589645,-4.9426781149201675,370.097684983899,-199.66576191674812,270.83792502039563,424.27784405759235
469,-28.652479236661108,-257.29136731323143,88.82670853407701,0.4781078098986897,360.3317093701888,-181.06966556080772,273.55327477707,411.4119261940046
470,-30.377852997826288,-259.70339641996196,90.97995465348659,5.8714090739923845,350.97403629375924,-161.1714651978644,276.277932176578,399.1358175337617
471,-31.8399509230003,-262.21466694130487,92.76656667735045,11.188710556756151,342.0778008582281,-140.15931847022313,279.0048604804751,387.61403528807045
472,-33.026202817266,-264.82555594616355,94.12258507282641,16.39026796197966,333.6859016254769,-118.21724177186024,281.72687696750324,376.9966171956914
473,-33.928567095217346,-267.5335020040021,94.98903245750455,21.447490983662146,325.83256907962897,-95.52257650104265,284.43626542435874,367.41767524095195
474,-34.5431656764686,-270.3322943581571,95.31334509600086,26.344746074480526,318.54536270982595,-72.24403848205958,287.1243186737478,358.9945396912503
475,-34.86978413386282,-273.2113971970725,95.05066916600624,31.080465223166946,311.8475139345611,-48.54039186013085,289.78083893145214,351.82747224472917
476,-34.91125720321467,-276.15535103611006,94.16499624361607,35.66748609425873,305.7605092572627,-24.55976300216429,292.39363081321056,345.999900223084
477,-34.67276713108561,-279.1432960097165,92.6301158487728,40.132590005225886,300.30678618292893,-0.4395821537141152,294.94802716502005,341.5790986985883
478,-34.16108909948053,-282.14866234597264,90.43036590637325,44.5152436487912,295.51239535689905,23.692887813137745,297.426490913394,338.61722509207345
479,-33.383823603823906,-285.1390709608452,87.5611651042512,48.86558552429754,291.4094683871345,47.71950338604767,299.8083364096855,337.1525924697941
480,-32.348659574657596,-288.0764816642492,84.02931490749334,53.24172776536609,288.03832416119195,71.5297646973104,302.0696110521334,337.2110552538846
481,-31.062713599037828,-290.91761782921117,79.85306382344157,57.70646907626103,285.44904910093686,95.01902197108909,304.1831722598196,338.80737618094037
482,-29.531989359375764,-293.61468471709594,75.06193256281634,62.3235365155323,283.70239996997583,118.08648541846762,306.1189862940055,341.9464475502471
483,-27.760997228520324,-296.1163843899987,69.69630577635384,67.15349500522159,282.8699018300424,140.6331638584987,307.8446642484711,346.624253717387
484,-25.75256701266566,-298.3692139146273,63.806803345980924,72.24948533133183,283.0330476547771,162.5598543425287,309.3262371095921,352.8284848736399
485,-23.507877473593698,-300.3190163325865,57.45345078148676,77.65297406009259,284.2815480290215,183.7652963557435,310.5291567109047,360.5387425782828
486,-21.026714940742508,-301.9127369259873,50.70467328723136,83.38971983863058,286.71062668163034,204.14459154730582,311.4194936760279,369.7263123653363
487,-18.30796060081916,-303.10032203354314,43.636141149906884,89.46617545988397,290.41740752113026,223.58797514482416,311.9652883685156,380.35351467706863
488,-15.350292605489132,-303.83668533785954,36.329495238193644,95.86654860104628,295.49648878773667,241.98000942098025,312.1379978181318,392.37267945027406
489,-12.153075740014875,-304.0836581404685,28.87098061247288,102.55073197436849,302.03484768094586,259.1992531407394,311.91397172577183,405.72481992141223
490,-8.717398884714374,-303.81183620362583,21.350013544634283,109.45328334131553,310.1062623296554,275.1184434935902,311.27588466067147,420.33810651149156
491,-5.047209671373796,-303.0022363651606,13.857703037936965,116.48358709092479,319.7654751567849,289.6052081401174,310.21404972711963,436.1262612904491
492,-1.1504871843480364,-301.64768130229135,6.485343261040859,123.52726372267423,331.0423504974611,302.52330463857174,308.7275414684314,452.98700678577893
493,2.9596123453081837,-299.7538404926515,-0.6771102901134962,130.44881625249891,343.9362980749134,313.73436326059203,306.8250627339066,470.8007088161986
494,7.263704855469007,-297.33986916184324,-7.542569153006786,137.09542111472385,358.4112415194556,323.10008808922606,304.5255013484181,489.4293503781932
495,11.735290444921553,-294.4386037005029,-14.028330836427267,143.30169554383087,374.3914069075728,330.4848515027037,301.85813662832606,508.71596157037493
496,16.340091770272156,-291.09629014974,-20.05756928081099,148.8952132125141,391.75818996403103,335.7585999205318,298.8624715359355,528.4846098464908
497,21.03567490688536,-287.37184050045636,-25.560770952750854,153.70250136223524,410.34833203654955,338.799975343137,295.5876821090499,548.5410284327023
498,25.77139756189955,-283.3356288458768,-30.4770835699279,157.555237560922,429.95359444411946,339.4995490399218,292.09169079638366,568.6739326421656
499,30.488715553956464,-279.06785551491885,-34.75553835900112,160.29637057911563,450.32206875735307,337.76306155847794,288.43988408932876,588.65704744285
500,35.121862767053905,-274.65652216986047,-38.35610284864734,161.78591369330107,471.1611976109598,333.5145668325468,284.70350736637846,608.2518460491805
501,39.598903433820304,-270.1950745398102,-41.25052052396608,161.90619521525755,492.1425079376168,326.69938608983455,280.9577813313609,627.2109770652154
502,43.84313936999924,-265.77978198958095,-43.42289685231118,160.56639500522317,512.9079785294692,317.2867872651646,277.27979501750127,645.2823339722956
503,47.774839072561704,-261.5069343817979,-44.869998243866405,157.70624175892289,533.0778809524943,305.2723156828451,273.7462401184901,662.2136930901424
504,51.313240713451236,-257.46994639786027,-45.60124084205895,153.2987889534304,552.2598529939584,290.6797108080881,270.431060217435,677.7578139675343
505,54.37876745571526,-253.7564670595176,-45.63835867869586,147.35222367007754,570.0588932564821,273.5623518204608,267.4030957366181,691.6778612276914
506,56.89538183388357,-250.44559670441558,-45.014754551452576,139.91069012666043,586.0879094323512,254.00418223651394,264.7238101365161,703.7529728268527
507,58.79299692695349,-247.60531413024898,-43.774550839653024,131.05412883113968,599.9784147261987,232.1200717016333,262.4451839975928,713.7837710289244
508,60.00985637900691,-245.29021242536876,-41.97137031301733,120.8971449111595,611.3909487881813,208.05558224305906,260.60786047921994,721.5975935840426
509,60.494793423735466,-243.53963300804404,-39.666887963441646,109.58692876909367,620.0248021607264,181.9861172326038,259.2396181710386,727.0532171383115
510,60.20928114516497,-242.37627378863306,-36.92920340937302,97.3002625623082,625.6266466201007,154.11544400764296,258.35423585475934,730.0448550023885
511,59.129192241961434,-241.8053296946238,-33.831089128930074,84.23966022073769,627.9977171721788,124.67359493697971,257.95079886982586,730.5052377818764
512,57.24619622360951,-241.8142030578772,-30.448172558376825,70.62870825124907,626.9992531170907,93.91416570303251,258.0134796411753,728.4076270321395
513,54.56873456340832,-242.37279884977704,-26.85711006124861,56.706699067833405,622.5559824821624,62.11104277774913,258.51180658819305,723.7666662566425
514,51.122529028986406,-243.43439672932473,-23.133808166901236,42.72267641886337,614.6575218363566,29.554604179438567,259.4014170332133,716.6380359226272
515,46.95059450440955,-244.9370694348874,-19.351742578903952,28.929041506765333,603.3576567139404,-3.4525509276051767,260.62527162181686,707.1169444965655
516,42.11274463101481,-246.80559622379008,-15.580418664819677,15.574896216617685,588.7715609832679,-36.60027654120703,262.1152908897425,695.3355502718305
517,36.68459613828451,-248.953801864474,-11.884009051897968,2.8993238907867744,571.071101214988,-69.57587826009171,263.79435972956753,681.4594636932285
518,30.75609528358668,-251.28723696439312,-8.320195269343872,-8.875174413230535,550.478449912967,-102.06934263699317,265.5786332147385,665.6835224872538
519,24.42960659555762,-253.70610463306764,-4.939231738923174,-19.548861842176585,527.2582958459204,-133.77869024597783,267.38006772491156,648.2270589165331
520,17.817619271709884,-256.10833169869085,-1.7832422877138117,-28.95034210382355,501.70898813525514,-164.41533125173976,269.1090944749807,629.3288880509054
521,11.040139510819825,-258.392679788126,1.1142479607129367,-36.94132077617485,474.15298157752017,-193.7092888733615,270.6773482620007,609.2422376777303
522,4.221847542451967,-260.46179239086547,3.72854875122892,-43.42036734754358,444.92696318047086,-221.4141444772795,272.0003625551942,588.2298155189055
523,-2.510893889652493,-262.2250783981575,6.043817473746997,-48.32552875117645,414.37203454709555,-247.31155002786673,273.00014310553433,566.5591709583098
524,-9.033087525090151,-263.6013403242255,8.052861077930014,-51.63568855696612,382.82430337146303,-271.21515181384564,273.60753614228076,544.4984618684745
525,-15.224111795082473,-264.5210661626164,9.75674271309797,-53.370616299557454,350.6062025751849,-292.9737762314671,273.76431394013764,522.3126889308929
526,-20.97060023805358,-264.92831712060223,11.164211247702553,-53.58970638431652,318.0188102680632,-312.47374546543455,273.4249099081257,500.2604160879331
527,-26.169102037597664,-264.78215864870185,12.290974381439492,-52.38946251096878,285.33539035075535,-329.6402181049605,272.5577470546439,478.5909605548365
528,-30.728444262343267,-264.05759857274074,13.158838958047081,-49.89983822152531,252.7963148029853,-344.4374852819201,271.14611739507654,457.5420109389235
529,-34.57172867226358,-262.74601322201966,13.794745238861013,-46.27959382517951,220.60546724825247,-356.868193714558,269.18858530149777,437.3376171236298
530,-37.63791115116636,-260.85505983378187,14.22972474563993,-41.71087151615934,188.9281659524038,-366.971509504549,266.69890457908645,418.1864889033231
531,-39.88292865750537,-258.40809078417305,14.497813183285842,-36.39322101357066,157.89058547581539,-374.8202775918411,263.7054566061766,400.28053978199864
532,-41.28035571883285,-255.44310177808555,14.63495066006783,-30.537324999295866,127.580601936023,-380.51726942888064,260.25023438003814,383.7936164248763
533,-41.82158895226379,-252.01126132281826,14.677901035402236,-24.35867544420727,98.0499390916325,-384.190644696445,256.38741384917716,368.880362508965
534,-41.51557331881241,-248.17508196182098,14.663220760324048,-18.07143839912063,69.31745262665693,-385.9887811472809,252.1815686650088,355.6751781178125
535,-40.38809748626009,-244.00630435836683,14.626304833671604,-11.882717570091662,41.373358928555355,-386.07464905614137,247.70559680764504,344.2912517752221
536,-38.48069743664133,-239.5835729889703,14.600533361874696,-5.98738951350149,14.184192592670373,-384.61992196185145,243.03843686782758,334.81966001400673
537,-35.849216890613164,-234.98998662752925,14.616536922233609,-0.5636404025533073,-12.301736251351473,-381.79902222519354,238.26265762397335,327.3285466400416
538,-32.56207994432833,-230.31060791636156,14.701593076045096,4.230709182256673,-38.14861820222801,-377.78329807827447,233.4620067455744,321.8624084706639
539,-28.69833554453346,-225.63001433027895,14.87916065830527,8.261045669697415,-63.42738412320454,-372.7355190559843,228.71900312257392,318.4415251337463
540,-24.345535320604693,-221.02996802259568,15.168553380785166,11.417960605681028,-88.21012616423806,-366.80486044369883,224.11265275228055,317.0615772859345
541,-19.597506213386225,-216.58727463041077,15.584749962139417,13.618427464779135,-112.56489983206377,-360.1225263438524,219.71636058835497,317.69350064208254
542,-14.55207772737312,-212.37189137125688,16.138334317684343,14.80620607505675,-136.55108153212302,-352.7981367132335,215.59610059253987,320.2836228267076
543,-9.30882088157002,-208.44533315383555,16.83555611176147,14.951545544420508,-160.21542539109822,-344.91697748571767,211.8088939658625,324.75412633509944
544,-3.966852215405925,-204.85941268008173,17.678499118396292,14.0502727442685,-183.58892858336756,-336.5381856380091,208.40163196388437,331.0038737690871
545,1.3772484980455528,-201.6553374149717,18.665342493529995,12.122362760629006,-206.6845776699676,-327.69391363231296,205.41026567300574,338.9096211532318
546,6.631363799890088,-198.86317343885761,19.790698544905343,9.210090032401292,-229.49601130511155,-318.389490800209,202.8593713330099,348.32763205439204
547,11.709570609846438,-196.5016739301513,21.046010159087206,5.375855168070309,-251.99709834074704,-308.60457332865906,200.7620867056991,359.0956900986447
548,16.533648803406248,-194.57845857390546,22.4199917189366,0.6997744794106829,-274.14239597087584,-298.2952496474308,199.12040193739588,371.0354910355375
549,21.034343381815514,-193.09051978984533,23.89909881897225,-4.722891155027325,-295.8684213746255,-287.3970441574216,197.92577763060592,383.95537865203096
550,25.152364481081555,-192.02502259754132,25.46801389731433,-10.784403143315593,-317.0956435763556,-275.8287394348186,197.16005366502918,397.65337268659175
551,28.839116284780236,-191.36035735825817,27.110136706047438,-17.36725483291412,-337.7310806596664,-263.4969153996964,196.79660478722556,411.9204224056673
552,32.05715215096009,-191.06739860333434,28.80807027680707,-24.346882697027837,-357.6713711393012,-250.30108345605893,196.8016931517859,426.54380723595824
553,34.78035906582292,-191.11091883385004,30.544094807542514,-31.594348164568206,-376.80617704925095,-236.13927426253196,197.13596403731015,441.3105960752779
554,36.99388014964021,-191.45110390625675,32.30062374292135,-38.978967070075065,-395.02177015290533,-220.9139198653393,197.75602925680815,456.0110700563293
555,38.69378953218525,-192.04511663656345,34.060638107041925,-46.37086748832841,-412.20465186635914,-204.5378554705979,198.61608355072102,470.4420104624657
556,39.88653946391243,-192.84865728105407,35.808096544482076,-53.643455163777794,-428.2450622116961,-186.94025493309698,199.66950213669566,484.40975524626924
557,40.58820475821695,-193.8174728558122,37.52831921221095,-60.67575907825844,-443.0402433038483,-168.07230864959956,200.8703717436469,497.73293481472626
558,40.8235541700425,-194.90877122210776,39.20834361492706,-67.35462031457251,-456.49733831680845,-147.91245326159026,202.1749121491496,510.2448103337827
559,40.624981831404384,-196.08250040812035,40.83724992525502,-73.57667893824937,-468.5358275054937,-126.47096869383036,203.5427503264613,521.7951553679272
560,40.03133427965422,-197.30245909565008,42.40645245436808,-79.25010924983957,-479.089428541114,-103.79376915439735,204.93801508811862,532.251643879897
561,39.0866698596218,-198.53721092124528,43.90995275203827,-84.29605485157272,-488.1074183266593,-79.96523126904782,206.3302268908767,541.5007338788955
562,37.838987271402864,-199.76078324216405,45.3445483572561,-88.64972137792559,-495.5553657161525,-55.109925304696105,207.6949652377192,549.4480648149762
563,36.33895873242094,-200.95313986299965,46.70998965992478,-92.26109563979091,-501.4152964871441,-29.39314472888601,209.0143044717158,556.0184156496099
564,34.63870065904979,-202.10042621091733,48.00907589389754,-95.0952744980783,-505.6853406907473,-3.0201646076963815,210.2770170761142,561.155296407586
565,32.790611081788995,-203.19499398256016,49.24768019597935,-97.13240420381246,-508.3789357884898,23.765800679343847,211.4785513619024,564.8202661496362
566,30.846298487362837,-204.23522001842298,50.43469318451414,-98.3672500074647,-509.52367520513985,50.686926881220536,212.62079740270852,566.9920824318951
567,28.855621830371263,-205.22514090163213,51.58187489524555,-98.80843465339149,-509.1599002166508,77.43533856542845,213.71166120694133,567.6657897296548
568,26.865856382675997,-206.17393036123005,52.70360646920236,-98.47740056045363,-507.3391332083039,103.67879508595307,214.7644723763466,566.8518459566884
569,24.920995065761606,-207.0952507968084,53.81653600255182,-97.40716176327953,-504.12244278630936,129.06735979753063,215.79725483175483,564.5753671127499
570,23.061190069498192,-208.00651291010726,54.93911739087904,-95.64091648540469,-499.57881744495694,153.24087031073498,216.83189340501968,560.8755417432005
571,21.322334971461377,-208.92807832037133,56.091046268718756,-93.23058915579648,-493.7836067657284,175.83699541960573,217.89323087302492,555.8052324341282
572,19.73578327485143,-209.8824390896326,57.292602499813405,-90.23536264386021,-486.81707020340116,196.49964030218143,219.00813008397097,549.430745392443
573,18.328195427982678,-210.8934054419251,58.56391359610421,-86.72024919207115,-478.7630560204627,214.8874473553256,220.204534205873,541.83171602168
574,17.121503194043253,-211.98532888845895,59.924157716364284,-82.75473391416381,-469.70781868738453,230.68213634338935,221.5105550131639,533.1010322183153
575,16.132977811132214,-213.1823827424906,61.39072839110874,-78.41150961225573,-459.7389726997001,243.5964341744537,222.9536147475448,523.3447001539303
576,15.375386693267508,-214.50791595900003,62.97838573201987,-73.76530766927814,-448.9445738802973,253.38136053371764,224.55966172851592,512.6815501766164
577,14.857222456029254,-215.9838898383362,64.69842063572918,-68.89181831390393,-437.4123149769371,259.8326592621789,226.35247400597845,501.2426826084015
578,14.582987849555181,-217.63040094066335,66.55785954485404,-63.866685722222336,-425.2288199623682,262.79619496697694,228.35305952451793,489.17056352997645
579,14.553520741285404,-219.46528802751732,68.55873780064287,-58.76455972027746,-412.47902053801664,262.1721680443355,230.57915598507313,476.6176978832285
580,14.766344433020196,-221.50381623483958,70.69746945386522,-53.65818597415086,-399.245598979825,257.9180374204407,233.04482906500823,463.7448301471189
581,15.216030034083865,-223.75842812237696,72.96434045121124,-48.61751937823838,-385.60848394100026,250.05007754467456,235.76016396125578,450.71865025036584
582,15.894559123146852,-226.23854886671356,75.3431502989226,-43.70884932942931,-371.6443905211627,238.64353363067804,238.7310424423828,437.7090131703889
583,16.791676393655543,-228.95043174660506,77.81102458277456,-38.993929379165124,-357.42640300504036,223.83137645237002,241.9589957971052,424.8857137875274
584,17.895223307559327,-231.89703012079403,80.33841701035773,-34.52910689198865,-343.0236077359151,205.80169512511281,245.44112314521632,412.4148927502857
585,19.1914449673719,-235.0778831102819,82.88931483460064,-30.36445134560288,-328.5007933995355,184.7938032060514,249.17006431194187,400.45518257245965
586,20.665263573823655,-238.48900399113467,85.4216556063796,-26.542883917534354,-313.918244759889,161.09316979995018,253.13401670178874,389.1537335478842
587,22.300513138446394,-242.12276277067298,87.88795636239556,-23.09931692065872,-299.3316616102602,135.02532236110002,257.3167863009227,378.64228347040205
588,24.080131663885624,-245.9677574692395,90.23614893021096,-20.059819561792658,-284.79223553330934,106.94890023204498,261.69786409912035,369.0334504455233
589,25.98630876456341,-250.00867223358767,92.41060740740352,-17.440835656550274,-270.34691168641945,77.24806592167062,266.2525209213133,360.4174312600535
590,28.00058860559783,-254.22612462367633,94.35334630395995,-15.248488088922175,-256.03885084506936,46.32450273388684,270.9519160111875,352.8592765841789
591,30.10393003844248,-258.59650925254437,96.00536048535866,-13.478012652196291,-241.90808916021828,14.589240623140705,275.7632177666122,346.39688805968643
592,32.276727825465834,-263.0918502849312,97.3080712216724,-12.113369543712885,-227.99237159098612,-17.545444723299198,280.6497387407772,341.0398428705462
593,34.49880071775951,-267.6796808757891,98.20483694491936,-11.127083882742635,-214.32811272544686,-49.67382284006101,285.57109132505894,336.76910329694164
594,36.749353782935835,-272.3229731160995,98.64248339421619,-10.480367177835037,-200.95141881115828,-81.40397267346493,290.48337527727773,333.53761865297787
595,39.00692384371078,-276.98014695880073,98.57280594996246,-10.123569653253304,-187.89908981945553,-112.3643339270388,295.3394130798027,331.27178171454756
596,41.24931828871572,-281.6051902835905,97.95399703147316,-9.997008610829564,-175.209511855064,-142.2093990000134,300.0890534073695,329.8736662586186
597,43.4535588270752,-286.14792397299027,96.75195340571153,-10.03221037712203,-162.9233488483219,-170.6244442937355,304.67956605913304,329.2239487451596
598,45.59584290111518,-290.5544448008038,94.94142224767903,-10.153592528800406,-151.0839481682726,-197.32924707787802,309.0561528649196,329.18540478749765
599,47.65153649627266,-294.7677744105734,92.50695085452996,-10.280598286847521,-139.73738700673718,-222.08077961644946,313.1625977310311,329.60686742794223
600,49.59521313087281,-298.72873443454336,89.44361276537967,-10.330275251396166,-128.93210406202334,-244.6749124951485,316.9420748170299,330.3275363955771
601,51.40075477521459,-302.37705610554946,85.75749201628177,-10.220265284304023,-118.71808254335347,-264.9471921168441,320.3381267302332,331.18153285244523
602,53.04153072127235,-305.65271816281626,81.4659164925552,-9.872141322908636,-109.14557368323693,-282.772782543887,323.29581464691853,332.0026005348902
603,54.490669115740566,-308.4974904178352,76.59743993372464,-9.214991181248328,-100.26337290714913,-298.0656790160685,325.763029749826,332.628859758376
604,55.721432491230814,-310.8566432998151,71.19157923461982,-8.189110118648227,-92.11668282777288,-310.77730893463956,327.6919410401467,332.90752361693484
605,56.707703325188106,-312.68076739129583,65.29831856400455,-6.749626785889617,-84.74461857937774,-320.8946355496008,329.0405394777049,332.6994845277119
606,57.42457882274954,-313.92763261935903,58.97739429982044,-4.869856314064472,-78.17743189888151,-328.4378711226059,329.77422374363744,331.88367385329127
607,57.84906612778597,-314.5640054733069,52.297375411014535,-2.54415600384801,-72.4335503672549,-333.457892395536,329.8673600629511,330.36108899926637
608,57.960860462808256,-314.56733537209453,45.334553759602365,0.20994075379009533,-67.51654682464039,-336.03343438143486,329.30473888265584,328.0583740194187
609,57.743179975466624,-313.92721903757376,38.171658932424684,3.3505140453774187,-63.41217110301185,-336.26812074064264,328.0828461121985,324.9308352659442
610,57.18362319465204,-312.6465552544568,30.896413427796716,6.81112656623016,-60.08559192701004,-334.28737158549586,326.2108672146068,320.9647764347409
611,56.275008736862716,-310.7423121278055,23.599946810957473,10.501863415388524,-57.47901044267268,-330.2352135681602,323.7113493070481,316.179048766303
612,55.01615270560829,-308.24584454229375,16.375092075551468,14.31155668172123,-55.50981649624809,-324.2710038689475,320.62045937738696,310.6257307447234
613,53.412537312832434,-305.20271978982294,9.314593759060154,18.111129363397193,-54.06946165481152,-316.56607084133304,316.9877946228222,304.3898743426458
614,51.476824825041255,-301.67203244614075,2.5092645366897393,21.757920289217054,-53.023215799899226,-307.3002712957477,312.87572196318536,297.58827907724407
615,49.229174230341805,-297.725213502894,-3.953866241894126,25.100792861148967,-52.21095408521806,-296.65846909087526,308.358245929357,290.36728030060124
616,46.69732415951793,-293.4443616665675,-9.993363442158264,27.985789637006313,-51.44908642433225,-284.8269522981917,303.51942558390596,282.8995656851743
617,43.916414492819115,-288.92014535646206,-15.53510484996253,30.262072515083105,-50.53369247323032,-271.9898256684639,298.4513807409697,275.380065565083
618,40.928530428034726,-284.2493417340369,-20.513855608530932,31.787882434834287,-49.2448632806691,-258.32543875742914,293.2519451007608,268.0209988059234
619,37.78196595786452,-279.5320940930135,-24.874648607496994,32.43625989965007,-47.352180299599304,-244.00293403632168,288.0220390723391,261.046193903711
620,34.530217797257954,-274.868981254828,-28.57392620668355,32.100285419304456,-44.62118879680586,-229.17901968271784,282.8628481039417,254.68484102206034
621,31.230734798692964,-270.3580020247197,-31.5804063548484,30.69762512150722,-40.82065240072914,-213.9950853374545,277.8729029354736,249.16486030434325
622,27.943460870105273,-266.09158358506556,-33.875645653678404,28.17419973746049,-35.730315218917255,-198.57478382686324,273.14516550313215,244.7060916426578
623,24.72922061322,-262.1537241437969,-35.45428247699004,24.506833346908344,-29.14885323654067,-183.02219660093795,268.76422733292685,241.51351962825845
624,21.64800573905699,-258.6173768147515,-36.32395431806505,19.704779877854072,-20.9016712787453,-167.4206851921587,264.80372563809186,239.77074547419036
625,18.75722630900883,-255.54217364758856,-36.50489465112191,13.810068552014375,-10.848197186555847,-151.8325058549861,261.32407593954235,239.63390817317443
626,16.10999360798965,-252.9725762102123,-36.029225314179534,6.896652647937786,1.1116595667159213,-136.29923094398464,258.37060902793564,241.2262438087033
627,13.753500787200286,-250.93652255196966,-34.93997033221997,-0.9316120717176541,15.032184243060554,-120.8429806752769,255.97218482353958,244.6334577954534
628,11.72756342344293,-249.44462047507406,-33.28982577372356,-9.544092944076727,30.917920404169955,-105.46842583382363,254.14033686619896,249.90007082592805
629,10.063375249632971,-248.489914999299,-31.1397271953561,-18.7875061823488,48.7213164556522,-90.1654795836086,252.86897991340712,257.02688406976785
630,8.782525159161024,-248.04823519102123,-28.55726110103463,-28.490904352484584,68.34208964608162,-74.91255866676997,252.13469086092516,265.969689980341
631,7.896310879260522,-248.07910354604388,-25.614969488289304,-38.47135567745932,89.6283788972336,-59.68026404332093,251.89755132990584,276.63932923248325
632,7.405373110178738,-248.52717090711832,-22.388597049621247,-48.54011815917265,112.37969444510502,-44.43531031790423,252.10251986349252,288.90316020592064
633,7.299662064493149,-249.32412210467803,-18.955329153288368,-58.509090081442096,136.35160892592933,-29.14452285050769,252.68128343044557,302.58796474123534
634,7.558736750816699,-250.39098253892465,-15.392065662239137,-68.1973042611935,161.26207136773803,-13.778721183830642,253.55452229747124,317.4842635552252
635,8.152386348779158,-251.64074405388777,-11.773771294839328,-77.43722741653391,186.79916326277086,1.6836832098798644,254.63450964516056,333.35195860204306
636,9.041552736064837,-252.9812198152308,-8.171937930066752,-86.08062843073964,212.63005623608808,17.25352879688373,255.82795774919487,349.92716042477866
637,10.179523712321409,-254.3180324424409,-4.653188475200619,-94.00378982584479,238.41087656267374,32.92831395557725,257.039016121588,366.9299994537069
638,11.513357804428061,-255.55763724625572,-1.2780461958416605,-101.11185500410669,263.79713641671935,48.69027230367609,258.1723236178902,384.073165317764
639,12.985493901583542,-256.6102830049813,1.9001118300881068,-107.34212944910888,288.4543589494903,64.50517533669085,259.1360161052052,401.07087219213713
640,14.535492673820194,-257.39281617767625,4.83590307485723,-112.66618696746268,312.0685073207506,80.32188690793821,259.8445937685584,417.6479156630411
641,16.101852221149056,-257.83124061510824,7.492579660847315,-117.09067215737828,334.35582883148226,96.07265660266867,260.22155735678984,433.54847133278025
642,17.623838134504393,-257.86295352450196,9.842453580423216,-120.65673730203169,355.07174503859824,111.67410374746622,260.20173052152506,448.54428951695365
643,19.043268390871795,-257.4385895848409,11.867103594304439,-123.43810485585975,374.0184563607636,127.02881283472102,259.73319587093715,462.44196399904394
644,20.306196215680576,-256.52341857197695,13.557363657526272,-125.53780396501544,391.0509831217157,142.02743644373865,258.77878539975904,475.0889942729668
645,21.364438970522794,-255.09825734886707,14.913096549791073,-127.08368869242108,406.08143122503475,156.55118474122517,257.31708134983535,486.37841712451865
646,22.176907927520325,-253.15987412278113,15.942760940579879,-128.22290358348937,419.08134599043456,170.47457211393535,255.34290085405686,496.25185079376405
647,22.710702033377093,-250.7208807663033,16.66278527063349,-129.115514779797,430.0820976767891,183.66829127385444,252.86725619899468,504.70086825888865
648,22.941937865827068,-247.80912683822638,17.096767251078255,-129.92756767159295,439.1733219266325,196.00209209146226,249.91680122881434,511.7666896680982
649,22.85629734907087,-244.4666258092703,17.274523024257046,-130.8238615595571,446.4995129858164,207.34755457767403,246.5327922818211,517.5382523088691
650,22.44928400170158,-240.74805921354664,17.231014611171073,-131.96074604330911,452.25493326774176,217.58066103023322,242.76960831206029,522.1487759888995
651,21.726187377261912,-236.71891759226278,17.005187826446292,-133.47924231041407,456.67705727149405,226.58409018760526,238.6928890166419,525.7709905251397
652,20.701763898978104,-232.45334787759072,16.638755172212573,-135.498775463741,460.0388099071348,234.2491755843527,234.37736153955788,528.6112298652084
653,19.399650306272324,-228.03178501117787,16.17495916279359,-138.1117726709291,462.6398886117744,240.47749040958615,229.90443533502076,530.9026245055046
654,17.85153299715853,-223.538450845185,15.65735098643209,-141.37933863961595,464.7974754528861,245.18204109249197,225.35965070680126,532.8976408462494
655,16.096102354830155,-219.0588055357583,15.128617531446114,-145.32816821428813,466.8366502674828,248.28807091617682,220.83006914565945,534.8602236359169
656,14.177825803295928,-214.67703565049504,14.62948692870244,-149.94879964758138,469.0808095127072,249.7334930239138,216.4016928340572,537.0577964597418
657,12.145577181473284,-210.47365920075316,14.19773914156208,-155.19525483834934,471.8423787636117,249.46898910510927,212.15699676478462,539.753365909509
658,10.051163212551456,-206.52332108134414,13.867343909785196,-160.9860573225539,475.4140809201426,247.4578252372654,208.17265016178814,543.1979581323793
659,7.947790227921252,-202.89284337933242,13.667743752448489,-167.2065670979851,480.06098906413547,243.67544872277617,204.51749471644104,547.623592634933
660,5.888515521292456,-199.63958415495128,13.623295048401657,-173.71252492780698,486.01355493216244,238.10893806782198,201.25083600642571,553.2369686679634
661,3.924727323740833,-196.81014603349382,13.752875570272256,-180.3346586029346,493.4617634897612,230.75638161817378,198.42109179133755,560.2140056954223
662,2.104695159360904,-194.4394627192996,14.069662205654156,-186.88417044256354,502.55052296235243,221.62625864330585,196.0648271595657,568.6953430194319
663,0.4722284690241239,-192.55027781601757,14.581077955121824,-193.15889969174538,513.376359227878,210.73689051329197,194.20619225440552,578.7828664645308
664,-0.9345235655084381,-191.15301654855546,15.288902781608673,-198.9499361062688,525.9854446537412,198.11602021843356,192.85676402208603,590.5372940735522
665,-2.084103544844936,-190.24603757669644,16.189538693602124,-204.0484525417632,540.3729548687912,183.80056705898738,192.01577957687402,603.9768197441434
666,-2.952586850635791,-189.81623967563823,17.274415777972568,-208.2525251744208,556.483712907888,167.83659074796574,191.67073597981124,619.0767848295238
667,-3.5242155995193687,-189.83998738512886,18.530522900730883,-211.37371986463086,574.2140489170639,150.27948566801356,191.79832021136383,635.7703235451283
668,-3.7918140408363388,-190.28431133238755,19.94104445688981,-213.2432408998823,593.4147756301418,131.19441125777874,192.3656244060306,653.9499085865702
669,-3.7569786962059375,-191.10833286375225,21.48608273097034,-213.71746158149304,613.8951557329627,110.65694804780388,193.33159505884186,673.4697081657052
670,-3.430041296641939,-192.26485863682802,23.14344398765927,-212.68268206415212,635.427717571307,88.75395086444857,194.64866067247166,694.1486540035959
671,-2.8298072605295053,-193.70208872166523,24.889465318442824,-210.0589863104564,657.7537609408819,65.58455207249195,196.26447997753115,715.774111328024
672,-1.9830770155055228,-195.3653813894931,26.69985861634304,-205.8030959999816,680.589385468667,41.261249775921115,198.12375228352533,738.1060368827608
673,-0.9239618979193196,-197.19901896209518,28.55054797868614,-199.91014495859346,703.6318707529533,15.911000047499192,200.17003255000657,760.8815099771377
674,0.30698933986304394,-199.14792170104076,30.418477420169864,-192.41432409620046,726.5662399062776,-10.323780259325433,202.34749626323745,783.8195250760306
675,1.6638332642868943,-201.1592606407584,32.282366954233574,-183.3883749586317,749.0718458380843,-37.28440180313741,204.60260306301439,806.6259421640993
676,3.096419697230584,-203.18392545310576,34.12339674397896,-172.94194033006372,770.8288316294213,-64.79538711890481,206.88561321368024,828.998502384421
677,4.551697227191522,-205.17780983279312,35.925801067564414,-161.21881269597208,791.5243317956548,-92.6643538151047,209.15191740791502,850.6318302158937
678,5.975105505591321,-207.10288443905753,37.677356293194116,-148.3931549474628,810.8582992604187,-120.68239123541493,211.36314796479783,871.2223584902413
679,7.312020934914366,-208.9280358501284,39.36974985727607,-134.6648010341469,828.5488624997932,-148.62501085842183,213.48804796499556,890.4731273620436
680,8.509220391389816,-210.6296587656492,40.99882013298674,-120.25377554698414,844.3371373573598,-176.25373016913454,215.50308370997126,908.0984212055296
681,9.516326282466686,-212.19199728129888,42.56465973416825,-105.39419883796492,857.991437272094,-203.3183237047439,217.39279451109437,923.8282167799226
682,10.287195418581947,-213.60723910741103,44.07157716972493,-90.32776741636533,869.3108432497488,-229.55974481222276,219.1498818639946,937.4124210495205
683,10.781213869063379,-214.8753739485212,45.52791424108285,-75.29701754086975,878.1281104144807,-254.7136890155885,220.77504747640577,948.6248776592001
684,10.964460445805903,-216.00383380727277,46.94571964133568,-60.53859195381321,884.3119011052634,-278.51473633951923,222.27659642142618,957.2671173868972
685,10.810703186009388,-217.00693858068837,48.340282949081846,-46.27673333781455,887.7683448888814,-300.7009769374904,223.6698277981106,963.1718201031939
686,10.30219656367839,-217.9051747582117,49.72953727128154,-32.71722129045607,888.4419334143125,-321.01899357227205,224.97624045467418,966.2059445582004
687,9.430252302095008,-218.72433809244535,51.13334273912561,-20.041952080234008,886.3157631963575,-339.22904784273584,226.2225852997156,966.2734693867044
688,8.195563544295872,-219.49457270390735,52.57266657663859,-8.404333742284638,881.4111433325912,-355.110296581154,227.43979835208546,963.3176766636064
689,6.6082704494379865,-220.24933930568284,54.06867848949357,2.074364269233319,873.7865893732085,-368.4658523805355,228.66185002072336,957.3229010593191
690,4.687764358245072,-221.02434434939616,55.64178302319924,11.307605163582481,863.5362305582313,-379.1274991367286,229.92454640310848,948.3156657091602
691,2.4622367343079747,-221.85646013322852,57.310613842360446,19.2450606472985,850.787666268973,-386.9598805038997,231.26431787565338,936.3651319060916
692,-0.03201240992403075,-222.78266337684897,59.09101870807732,25.872946996737024,835.6993185807115,-391.8639960056329,232.7170289575269,921.5828037164521
693,-2.751484231379016,-223.83901652244327,60.99506781168555,31.21323987612616,818.4573398783168,-393.77986497396097,234.3168412632562,904.1214490803721
694,-5.646579931272886,-225.05971220021837,63.03012132654155,35.32182489690808,799.2721455920885,-392.68825054797816,236.09515824589226,884.1732233279847
695,-8.662854466846609,-226.4761971074097,65.19799389454269,38.285676842955574,778.3746503649137,-388.61137232091625,238.0796764012374,861.967006556004
696,-11.742386932184735,-228.11638727031513,67.49425377805139,40.219192832211036,756.012290327435,-381.61257450958084,240.2935628338672,837.7649907484004
697,-14.82522715766172,-230.00398260002083,69.90769227109412,41.259832334254526,732.4449146987112,-371.79495470554826,242.75477387649426,811.8585746727189
698,-17.850877275071827,-232.1578850374338,72.41999455083203,41.563238626540716,707.9406276706579,-359.2989949381652,245.47552408555077,784.5636442640881
699,-20.759767378643396,-234.59172149997906,75.00563655198722,41.2980305837889,682.771657898863,-344.29927107234505,248.4619095959458,756.215333843401
700,-23.494685613422455,-237.313470297916,77.63202400294139,40.640459470269846,657.2103290167948,-327.00034784493886,251.71368465232334,727.1623794266948
701,-26.00212492314424,-240.3251876236339,80.25988007872118,39.7691219045536,631.5252007908367,-307.6319943881061,255.2241852749273,697.7611893252831
702,-28.23351145220095,-243.62282903118572,82.8438779853743,38.85990731474827,605.9774465909186,-286.4438779840579,258.98038958856336,668.3697684396257
703,-30.146283290272443,-247.19615951684673,85.33350489736851,38.08133671854196,580.8175282581445,-263.699911079234,262.96310052475275,639.3416401637064
704,-31.704792644882787,-251.02874508747166,87.67413447097174,37.590421018080214,556.2822237112903,-239.67243743931294,267.14723369221906,611.0199127957662
705,-32.88100932923814,-255.0980188419997,89.80827693197527,37.52913319130146,532.5920553664793,-214.63644714997164,271.5021915279909,583.7316351512551
706,-33.65500856767931,-259.37541574772746,91.67696878812585,38.02155200772623,509.9491584007981,-188.86400657964703,275.99230463208715,557.7825782696684
707,-34.01523167083795,-263.82657243161907,93.22125893999039,39.171697416631226,488.53561694181195,-162.61907833454097,280.5773225668679,533.4525665359712
708,-33.95851427720336,-268.4115912633806,94.38374477797238,41.06204170850499,468.5122833847226,-136.15288798963846,285.2129393746258,510.9914623666862
709,-33.48988361467574,-273.0853715618925,95.11011100397289,43.752648081990756,450.01808134988937,-109.69996974220783,289.85134351278214,490.6158844177943
710,-32.62213342795169,-277.79801465552464,95.35062527708392,47.28086150759691,433.16977667533115,-83.4749932064353,294.44178751430053,472.5067111464004
711,-31.375192575610022,-282.49531341796865,95.0615479263543,51.66145778877872,418.0621840065059,-57.67043970387168,298.93117892686513,456.80739117522637
712,-29.775310570877178,-287.1193402561838,94.20641745697813,56.887147073427364,404.7687600142392,-32.45516018774589,303.26470026447527,443.62305146016985
713,-27.854090268324832,-291.60914967837095,92.75717908053274,62.92932861495284,393.34251922479604,-7.973810113535117,307.38647101624827,433.0203661903791
714,-25.647404153079737,-295.9016118598351,90.6951297658728,69.7390042709651,383.81719606455346,15.652879071946085,311.2402684064012,425.0281259300093
715,-23.19423582274596,-299.9323915289997,88.01166005638423,77.24777809998562,376.20856798995413,38.32706480171088,314.7703248964362,419.63842937321743
716,-20.535491719074695,-303.63708167544013,84.70877980883982,85.36889676394529,370.51585010043755,59.97209542050026,317.9222188321865,416.8084098953336
717,-17.71282943979247,-306.95249391578795,80.7994217106931,93.99831815604503,366.72307159584136,80.53027134195604,320.6438698423536,416.4624055493937
718,-14.767547794059173,-309.8180969694911,76.30752250138787,103.01583151037885,364.800348700445,99.9602002874399,322.88664253267285,418.4944833096963
719,-11.739580350009208,-312.1775819832757,71.26788677841158,112.2862886132697,364.7049769324909,118.2338857487915,324.6065509217368,422.7712348041068
720,-8.666628978378274,-313.98051910305105,65.72584166115408,121.66103899049628,366.38227745388224,135.33368393863847,325.765542523461,429.13476972016224
721,-5.583467127081281,-315.1840548920787,59.736692178855414,130.979687048299,369.76614723381977,151.2492546019939,326.3328261345351,437.4058425236538
722,-2.521434408681933,-315.75458661105904,53.36498722167937,140.07230034485073,374.7792805190894,165.97461780296948,326.28619299406785,447.3870565356664
723,0.4918653116538424,-315.6693388493069,46.683604893190406,148.76219056385256,381.3330494051285,179.50541442004675,325.6132690894419,458.8660963497229
724,3.4326604811595147,-314.91776199465545,39.77266497322321,156.86935978355126,389.3270539356368,191.83645372854375,324.3126286977115,471.6189456774261
725,6.280911920296006,-313.5026713907765,32.71827558274387,164.21465473868443,398.6483766651471,202.9596170593818,322.3946967753055,485.4130538469755
726,9.02003533793595,-311.44105103726497,25.611121380964892,170.6246044046325,409.1706022403838,212.8621714149417,319.88237087051505,500.0104205840921
727,11.636473876259588,-308.7644562117279,18.544902061815513,175.93683733567366,420.7526883542838,221.52553069385957,316.81130171806467,515.1705747779469
728,14.119154854164826,-305.5189648752023,11.614633157195234,180.005892542918,433.2377993304862,228.92448522717436,313.2297850863771,530.6534275508498
729,16.45886938156439,-301.7646470118911,4.914826877621602,182.7091603418541,446.45223626896075,235.026903628802,309.1982347329068,546.2219820338885
730,18.647616078079366,-297.57454246294424,-1.4624208453033605,183.952627189393,460.2046163064678,239.79389550728436,304.78822584235246,561.644881489151
731,20.677950893731364,-293.0331595663787,-7.429400317668507,183.67606021164192,474.28546578829514,243.18041016485415,300.0811182558584,576.6987750070697
732,22.542384071010176,-288.23452764105974,-12.90476651117454,181.85725997970528,488.4673955022982,245.13623573265272,295.1662876676039,591.1704789052054
733,24.23286261493564,-283.27985525563963,-17.815466045077745,178.5150377429776,502.50601840218366,245.6073559059529,290.13900986779475,604.8589160083895
734,25.74037223940358,-278.2748629188217,-22.0985435106794,173.71063519648717,516.1417498588079,244.53761787194222,285.09805763666515,617.5768269995306
735,27.054686701260408,-273.3268730349359,-25.702752584144427,167.54739616978608,529.1025964831585,241.87066479806123,280.1430818921489,629.1522678124409
736,28.164284917782354,-268.5417513074272,-28.589897598584045,160.1686119405605,541.1079917851354,237.55208810553543,275.37185811615365,639.4299305643978
737,29.056447557550534,-264.0208017741441,-30.73583792396318,151.75358383406675,551.8736764242832,231.53175663526864,270.877485942193,648.2723454985139
738,29.71753517896818,-259.8577219093773,-32.13110048292004,142.51206520767957,561.1175504721984,223.76627943803257,266.74563411498883,655.5610292319165
739,30.13343984132805,-256.1357245294307,-32.781063835214724,132.67734690455697,568.566349922073,214.22155466348644,263.05192482795974,661.1976336105236
740,30.290192015769303,-252.92492965213336,-32.70569859159528,122.49832584338617,573.9629262743676,202.8753485911239,259.8595505970387,665.1051183281801
741,30.1746953016577,-250.2801221528933,-31.938871296934252,112.23094076845372,577.0738437123144,189.71983730923944,257.2172130270861,667.2289247855902
742,29.77555354853279,-248.23896013228173,-30.527240319014055,102.12937289234142,577.6969599897039,174.7640308959677,255.15746556312257,667.5380792860544
743,29.08394890356121,-246.8207044516108,-28.528791024361016,92.43739671299492,575.6686298943014,158.03598857008282,253.69553111904122,666.0261125139521
744,28.09452527919297,-246.0255221699745,-26.01107237990832,83.38023390728151,570.8701667614076,139.5847254097947,252.8286502130561,662.7116582496119
745,26.80622996746168,-245.83439619460066,-23.049207340957814,75.15721708380019,563.2332179908087,119.4817086248529,252.5359963300705,657.6385914432376
746,25.223066822094243,-246.2096511988262,-19.723754797048457,67.93551563678825,552.7437524205146,97.8218451692833,252.77917365412486,650.8755835030714
747,23.354717629967357,-247.0960827949917,-16.118501805295814,61.84511733257248,539.4444164923233,74.72387333689906,253.50328937822687,642.5149871690877
748,21.21699371708509,-248.42265409210927,-12.318261988767924,56.97519996402033,523.4350872651751,50.3300889297465,254.63856981215324,632.6710092402203
749,18.83208696191572,-250.1047021242336,-8.406750019533876,53.37196969881357,504.8715284982564,24.805360993399887,256.10246766212,621.4771810959534
750,16.228597724665164,-252.046577299312,-4.464593768170495,51.03798788851494,483.96213726411577,-1.664578243979164,257.80218832753866,609.0831896547912
751,13.441326427624505,-254.14462310286314,-0.567535702547435,49.932956928489716,460.9628501468353,-28.875551368180798,259.6375469939632,595.6511815719643
752,10.51082545416629,-256.2903916465454,3.2151358875808316,49.9758892564397,436.170358020425,-56.60800908895318,261.5040565524034,581.3516982203739
753,7.482718446579783,-258.37398365500206,6.821896604235704,51.048542978278135,409.9138544148794,-84.63067226875852,263.2961392794818,566.3594353205184
754,4.406804505305743,-260.2873990654103,10.200018273943934,52.999973928318965,382.5456112743356,-112.70462525232045,264.9103526028847,550.8490453230314
755,1.3359744803633349,-261.92778624797756,13.306315372539288,55.652027395680115,354.43073310246785,-140.58771743803862,266.2485207059644,534.991208594727
756,-1.6750252075471699,-263.2004835995005,16.107605198882176,58.80557229358703,325.9364812554749,-168.03911096526107,267.2206687754497,518.9491872378534
757,-4.570939293124877,-264.0217567106064,18.58088788237073,62.24726435638451,297.42158046888727,-194.82380063213083,267.747665183989,502.87604095951167
758,-7.2974142809845866,-264.3211472930425,20.71325733475235,65.75661133069481,269.2259176132481,-220.71692815571816,267.7634887739219,486.91262934271845
759,-9.802423290714874,-264.0433661463149,22.501558648389246,69.11310172309885,241.66101876396763,-245.50771728193163,267.2170533967182,471.1864551975673
760,-12.037654339127428,-263.14968080614864,23.951811880060234,72.1031509418251,215.00164780993057,-269.0028700173003,266.07353926441596,455.8113292352361
761,-13.959812206870117,-261.61876810297093,25.078426840901194,74.52661760338319,189.47881243975286,-291.02928821108827,264.31519953642305,440.88776833675723
762,-15.531787300037585,-259.4470216833527,25.903238294659953,76.20265217567119,165.27439654347617,-311.436018632793,261.9416299933388,426.50398767901436
763,-16.723650684490114,-256.6483237170067,26.454395622504897,76.97466368741522,142.5175665224168,-330.0953615501009,258.9695088139702,412.73731637363636
764,-17.51344260850764,-253.2533076040588,26.76514519789145,76.7142300391026,121.28302599348994,-346.90312886633154,255.43183146719204,399.6558577747172
765,-17.88773161779221,-249.30815371360023,26.872546852426254,75.32383236388979,101.5911208796032,-361.7780835458652,251.37668165950896,387.3202259125181
766,-17.841931533729202,-244.87297271976175,26.816167230117838,72.73835907350994,83.40972677837176,-374.6606332135215,246.86559261948477,375.7852128210627
767,-17.380372897349236,-240.01984113566945,26.636792072110936,68.92539348842628,66.65778579742465,-385.5108848031598,241.97156371190928,365.1012714385329
768,-16.516133529808556,-234.83056136810686,26.37519657135897,63.88436288908599,51.21030465709571,-394.30619301608266,236.77680556533755,355.31572987712855
769,-15.270639886136758,-229.39422394011802,26.0710083421162,57.644680461886495,36.90458304960706,-401.03835331560276,231.37029253276347,346.47368161344554
770,-13.673057147842986,-223.80465231444742,25.7616918463913,50.26305116910353,23.547412249776663,-405.7106006602499,225.84520430404424,338.6185207527293
771,-11.759491389877793,-218.15781106610393,25.481676793555252,41.820136688267425,10.92296818673559,-408.3345783984226,220.2963389072421,331.7921115462958
772,-9.572031385770963,-212.5492561993965,25.261646441235744,32.41678419825096,-1.1988807411523015,-408.9274378345561,214.81757733278587,326.034597264066
773,-7.15766057646927,-207.07170231310243,25.12799512338767,22.170021510868676,-13.05412433385112,-407.50921819049734,209.4994756975364,321.38386622195316
774,-4.567071582995025,-201.81277509240684,25.102457868190307,11.209009697709064,-24.876277715706788,-404.10063961033114,204.4270542532252,317.8747031144071
775,-1.8534166471923301,-196.85300924017164,25.201908809686863,-0.3288742171184514,-36.88840095226631,-398.72141947697054,199.6778436624542,315.53766256007464
776,0.9289723674628856,-192.26414160884067,25.43831951916203,-12.301677096761393,-49.29568078392504,-391.3891959272979,195.32023801608182,314.39770964584926
