time,ax,ay,az,gx,gy,gz,accmagnitude,gccmagnitude
0,7.1489344789403075,-256.27507153696223,-15.102097206817556,-26.014092483802393,-49.837904746223224,29.168151971952014,256.8183017339345,63.60264765297229
1,7.167069733300989,-256.35445696007787,-14.968170073822364,-26.359556138062583,-49.68988174220092,29.332104388458497,256.89185981868553,63.67385356074904
2,7.177536934216643,-256.4240195984671,-14.835105995006316,-26.653590350465162,-49.55470960930048,29.462610657440162,256.9554665578536,63.70707260858232
3,7.1807874840381105,-256.48358219551693,-14.704159926413134,-26.886267915706696,-49.42952431940296,29.550328714109096,257.0090131637044,63.691683551165895
4,7.177346558421611,-256.53300437792393,-14.576463184401405,-27.04874611634672,-49.31088176473657,29.586043612379612,257.0524231575556,63.617494773806264
5,7.167801809675449,-256.57217744751944,-14.452993729715809,-27.133559384650642,-49.19477743766074,29.560879258274287,257.0856455027585,63.47502256369606
6,7.152794785004803,-256.6010232108753,-14.33455333817034,-27.134886813554804,-49.07666839198668,29.46650189768511,257.1086521921096,63.25575248942573
7,7.1330150502509095,-256.6194970735356,-14.221752328647737,-27.04878575396961,-48.95149719390118,29.295309497634978,257.1214405483938,62.95237597206114
8,7.109196590464953,-256.62759526241666,-14.115001985355786,-26.873383273235778,-48.81371840484706,29.040602219213397,257.1240400954799,62.55899548813269
9,7.0821158488201155,-256.6253657546124,-14.014514410582354,-26.609018089996024,-48.657328924256795,28.696730284365692,257.11652354563944,62.0712933504549
10,7.052590637461655,-256.6129222579748,-13.920309326248844,-26.258326835143038,-48.47590409293332,28.259216586922115,257.0990212006283,61.48666054113775
11,7.021479021393033,-256.5904603578414,-13.832227283246961,-25.82627012841829,-48.26264174295794,27.724852338315547,257.07173782632947,60.80428355075265
12,6.9896772380458785,-256.5582747219886,-13.749948719843728,-25.32009590454724,-48.01041640133726,27.091764848442722,257.03497083783657,60.02518857257752
13,6.95811590446609,-256.5167760888496,-13.673018223146832,-24.74923954078977,-47.71184569735801,26.359457199302046,256.98912846855313,59.15224370479952
14,6.92775413045784,-256.46650667078836,-13.600873176661288,-24.125162563976755,-47.359370795991744,25.528820049325734,256.9347465084464,58.19012106556299
15,6.899571485250257,-256.4081525561203,-13.532875758359886,-23.46113402484098,-46.94535245561593,24.602116105969067,256.87250214828816,57.14522196611413
16,6.874557897100424,-256.3425516795183,-13.468346997073589,-22.77196092126263,-46.46218406282917,23.582937971584123,256.80322344255643,56.02556946732776
17,6.85370154819213,-256.2706960245505,-13.406601320486317,-22.073676103333803,-45.90242261087876,22.47614022807,256.72789298078436,54.840673616437456
18,6.8379748594771534,-256.19372703211764,-13.346979817713912,-21.383193638680805,-45.25893791962003,21.287746946791398,256.6476446539723,53.60137526157816
19,6.82831887190779,-256.1129237292606,-13.28888039484386,-20.717942498537354,-44.52507933911041,20.024836398143382,256.56375294341143,52.31967446274852
20,6.825626639678956,-256.0296837373352,-13.231783202559788,-20.095489662957025,-43.69485769860751,18.695405550690783,256.4776148197181,51.00854911724666
21,6.830726458843036,-255.94549786756076,-13.175270211530414,-19.533163511131395,-42.763138426370546,17.308217831314753,256.39072491897815,49.68176854347015
22,6.844365731005935,-255.86191931571108,-13.119038551269485,-19.04768789977035,-41.725839762114035,15.872638380713097,256.3046450051479,48.35370557507265
23,6.867196028039356,-255.78052851291173,-13.062907984397741,-18.654836833934503,-40.58012807517574,14.398461548752142,256.220968808106,47.03914943039677
24,6.899759652406468,-255.70289457269638,-13.006823368811995,-18.369119175806116,-39.32460076628576,12.895735560661732,256.14128322992866,45.75312046873874
25,6.942477908447743,-255.63053410932,-12.950853045705026,-18.203502356943797,-37.95944633377721,11.374589138529279,256.0671267508748,44.51068712806026
26,6.995641469976068,-255.564868088683,-12.895183919888366,-18.16918339898657,-36.486571125912356,9.845064440797142,255.99994574939117,43.3267850016139
27,7.059403414277531,-255.5071774000497,-12.84011378820245,-18.275414519048706,-34.909683165652076,8.31696010003568,255.94104947111245,42.216038210845554
28,7.133775407354666,-255.45855802178713,-12.786041316091993,-18.52938905046514,-33.23432519722117,6.799687518741294,255.89156455550562,41.19258394186535
29,7.218627158845514,-255.4198769279479,-12.733453938041361,-18.9361912833785,-31.467851626314665,5.302142985726528,255.85239028452253,40.269902102083485
30,7.313688835874623,-255.39173020393608,-12.682913830497005,-19.498811175714376,-29.61934703562795,3.8325975859400523,255.8241560187853,39.46065326356478
31,7.418555785219835,-255.37440523081244,-12.635041972944354,-20.21822187048858,-27.699487107452832,2.3986062718084713,255.8071826594106,38.776529070860384
32,7.532694664554226,-255.36784918797798,-12.590500219174407,-21.093514816677562,-25.72034576295556,1.0069368758646318,255.80145034923265,38.228119838041295
33,7.655449947271307,-255.3716462915409,-12.54997133272406,-22.122084292125958,-23.69515489924646,-0.33648067286303995,255.80657479017134,37.82480398095186
34,7.78604985253389,-255.38500596044395,-12.514137119288897,-23.29985055167929,-21.638025106494435,-1.6265850874366634,255.8217943386955,37.574663186248216
35,7.923611117932023,-255.40676354668747,-12.483655009063805,-24.62150895648711,-19.56363707791665,-2.8591949135419603,255.84596950778493,37.48442591177952
36,8.067142553822894,-255.43539458335212,-12.459133605058268,-26.08079150130548,-17.486914030853697,-4.031000975157893,255.87759584643075,37.55944016272901
37,8.215547795620783,-255.46904283801553,-12.44110787240823,-27.67072723415107,-15.42268533226935,-5.1395412324298615,255.91483052599528,37.80367476441205
38,8.367628026500038,-255.50556186057844,-12.43001491013982,-29.383889101063925,-13.38535076997099,-6.183159661019047,255.95553239054573,38.219746826810415
39,8.522085741821094,-255.5425692186969,-12.42617156427452,-31.212616580832215,-11.388553766186796,-7.16095128108448,255.9973147601879,38.8089719894731
40,8.67753089090092,-255.5775122184969,-12.429755254218152,-33.14920585296842,-9.444870570487474,-8.072695958875821,256.0376098982505,39.57143343981708
41,8.832490864054439,-255.60774354500535,-12.440789106650945,-35.18606185300935,-7.565521298864136,-8.918783987819431,256.07374368415134,40.50606551835831
42,8.985425693168462,-255.63060489680808,-12.459131952535332,-37.31580908045663,-5.760107717385059,-9.700136681026997,256.1030186472506,41.610747740134414
43,9.134749501573062,-255.64351640042597,-12.484473268931648,-39.53136020151207,-4.036381981577333,-10.418125265510222,256.1228031956924,42.88240508997211
44,9.27885873512426,-255.6440694152823,-12.516332925191742,-41.8259432713809,-2.4000501935466585,-11.074491284704072,256.13062467261375,44.31711045343605
45,9.41616706526732,-255.63012020515785,-12.554065564108946,-44.193089845658584,-0.8546146027520969,-11.671271544162323,256.1242637143601,45.91018508036575
46,9.545146084550437,-255.59988175935482,-12.596869479051396,-46.62658742952676,0.5987415680750816,-12.210730449759218,256.1018471688408,47.65629309917681
47,9.664370103811768,-255.55201081481957,-12.643799861826535,-49.120400705107485,1.961222498262927,-12.695302453358176,256.0619365745262,49.549526367334835
48,9.772562704314668,-255.4856869844578,-12.693786261185451,-51.66856687805557,3.2364370948430548,-13.12754726080007,256.0036090318373,51.58347643968283
49,9.868642379566452,-255.40068094665023,-12.745654013681454,-54.26507135518544,4.430361216458536,-13.510120449427735,255.92652733617487,53.751291213141165
50,9.951764661793698,-255.2974088980985,-12.79814932493107,-56.90371079822974,5.551241386340343,-13.84576213955473,255.83099649170842,56.045714852930054
51,10.021358439683825,-255.1769708229562,-12.84996757248884,-59.577951379319416,6.609437800992627,-14.137306301567733,255.71800408709768,58.45911090437499
52,10.077154557137055,-255.04117050709883,-12.899784188001538,-62.28079080338239,7.617206251739204,-14.387713072898041,255.58924239689145,60.98347003935478
53,10.119205196251947,-254.89251564592507,-12.94628716714848,-65.00463332115852,8.588420834629874,-14.60012600636741,255.44711049286445,63.610405585933314
54,10.147893081741268,-254.73419690804997,-12.988210023094828,-67.74118736362337,9.538241728890927,-14.7779553880207,255.2946951723749,66.33114159172787
55,10.16393019901251,-254.57004541566099,-13.024364032919598,-70.48139534439188,10.482734533016064,-14.924987640045117,255.13573013598483,69.13649935272744
56,10.168346344780371,-254.40446874800227,-13.053668996657393,-73.21540442867264,11.438449421551583,-15.045519448821718,254.974533533766,72.01688887107439
57,10.16246830430956,-254.24236626465938,-13.075182327524866,-75.93258560963852,12.421969671694262,-15.144513721781108,254.81592473518796,74.96231151645324
58,10.14789076782458,-254.08902527902714,-13.08812684015666,-78.62160630973612,13.449440005974173,-15.227772808618292,254.6651219455586,77.96237929000687
59,10.126440298770438,-253.9500003194165,-13.091917822254523,-81.27055903742153,14.536085842780443,-15.302122656049226,254.52762300964167,81.00635462480835
60,10.100133786585868,-253.83097824738346,-13.086189814970666,-83.8671455539154,15.695735065593007,-15.37559982225834,254.40907226129647,84.08321278480223
61,10.071132907337775,-253.73763223496087,-13.070823160742316,-86.3989128172395,16.94035446610449,-15.457631749275569,254.31511648320972,87.18172694591176
62,10.041696219894478,-253.6754675605697,-13.045969992782402,-88.85353406112482,18.279613740477114,-15.559199584451818,254.25125297088005,90.29057437334787
63,10.014130645804455,-253.64966202689908,-13.01207903116274,-91.21912617203458,19.720490869185802,-15.692972325198298,254.22267251426976,93.39846118295546
64,9.990744185619036,-253.6649036770383,-12.969918349332808,-93.48459338917972,21.26693378443012,-15.873401210562609,254.23409996344844,96.49426328660526
65,9.97380176840215,-253.72522842658532,-12.920595188472547,-95.63998740036497,22.91959421717086,-16.116764071677995,254.289634969075,99.56718232687167
66,9.9654860720692,-253.83386021447305,-12.865571896363443,-97.67687505193864,24.67565022770072,-16.441150701999923,254.39259545769008,102.60691752638273
67,9.967864965734185,-253.99305630357287,-12.806677126326194,-99.5887068331592,26.52873376593803,-16.8663821281987,254.54536641411354,105.60385701502616
68,9.982866917219859,-254.20396049802324,-12.746111578226161,-101.37118152368835,28.468978264988664,-17.41385885733848,254.74925666484225,108.54929475713304
69,10.012265313698673,-254.4664673740315,-12.686447808987023,-103.02260429359234,30.48319851976748,-18.106335646088365,255.00436667424515,111.4356810214613
70,10.057672225580937,-254.77910117534594,-12.63062388787252,-104.54423657337034,32.5552110585143,-18.967622968111062,255.30947090646228,114.2569148776288
71,10.120541772866632,-255.1389137394304,-12.58193079231803,-105.94063577331454,34.66629824544433,-20.02221797246195,255.66191900203725,117.00868608914097
72,10.202182927473082,-255.54140654410838,-12.543993397011063,-107.21998118473883,36.795813857188605,-21.29487009089952,256.05756071736505,119.68887076868205
73,10.303781215279741,-255.98048248091766,-12.52074474444076,-108.3943791061375,38.92192219825661,-22.810088347053807,256.4907000611654,122.29798023757935
74,10.426428289697677,-256.4484330535852,-12.516393018288225,-109.48013568684468,41.02245730273216,-24.591598763902255,256.9540841176785,124.83965601452294
75,10.571157732363869,-256.93596626533497,-12.535380260169337,-110.49798079206379,43.07588374267273,-26.66176115724724,257.43893156890107,127.32119645853815
76,10.738984734680077,-257.4322795420353,-12.58233144626746,-111.47322121250528,45.06233622777196,-29.04095523652348,257.9350049681968,129.75409323184465
77,10.93094658805563,-257.92518071608174,-12.661992254597124,-112.43579764183374,46.96471153127177,-31.746946466464294,258.4307294628206,132.15454932044688
78,11.148140292792082,-258.4012584052088,-12.779153860721358,-113.42021774921282,48.76978320256791,-34.79424263895379,258.913358962923,134.5439455510522
79,11.391753284787045,-258.8461011543958,-12.938563449718622,-114.4653378655534,50.46930696360038,-38.193452576466306,259.369188813646,136.94921983925153
80,11.663083414111561,-259.24456269008977,-13.144819811535834,-115.61396850394841,52.06108265226351,-41.95065885091301,259.78381207270024,139.4031230418322
81,11.963544867667744,-259.5810688072353,-13.402254314053383,-116.91228412526755,53.54993710045787,-46.0668168959469,260.14241476638523,141.9443172961261
82,12.294657599933076,-259.83995988671006,-13.714798582532358,-118.40902501277624,54.94859144299992,-50.53719347514146,260.4301040966561,144.61728696446878
83,12.658018915577761,-260.00586179159484,-14.085841254383405,-120.15448846323606,56.27837615750373,-55.35085816513057,260.6322624593162,147.47203851095554
84,13.055257019041049,-260.0640768269193,-14.518077164156484,-122.19931724707304,57.56975787858375,-60.490242244742646,260.73491921137395,150.5635734951335
85,13.48796750081297,-260.00098554980565,-15.01335312166588,-124.59310479813303,58.862643999819284,-65.93077997846474,260.7251313611729,153.95112792286537
86,13.957634815400825,-259.804449590956,-15.57251491879026,-127.3828480647886,60.20643444446749,-71.64064758317902,260.5913638408255,157.69718084031982
87,14.465541769863497,-259.4642054187621,-16.19526030122406,-130.61128954570725,61.65979470868994,-77.58061510892483,260.3238598751198,161.8662446210767
88,15.012670796554668,-258.9722391252535,-16.88000251536023,-134.31519903399516,63.29013016836801,-83.70402605687205,259.91499216787975,166.5234583076746
89,15.599601255658964,-258.3231326762568,-17.623748914398384,-138.5236524909824,65.172748536716,-89.95691877094141,259.3595860316857,171.7330132472548
90,16.226407135396418,-257.51437251358226,-18.421999118490373,-143.25636992373953,67.38970526725102,-96.27830234395583,258.655206061279,177.556446909157
91,16.892559236374783,-256.5466119457058,-19.268667312455666,-148.52217596043903,70.0283357267282,-102.60059779083996,257.80239850888404,184.05084614313927
92,17.59683533283474,-255.42387950827197,-20.156033256884367,-154.31764596551787,73.17948818855412,-108.8502524187469,256.80488224698325,191.2670052861059
93,18.337241162309834,-254.15372641899148,-21.07472636989907,-160.6259970876459,76.9354830037288,-114.94853164299633,255.66968210886338,199.2475875269443
94,19.110944649291845,-252.74730727550107,-22.01374679194024,-167.4162777549099,81.38783527712171,-120.81248807777934,254.4071993738895,208.02533980513064
95,19.914225578353005,-251.21938911531453,-22.960526677646588,-174.64290108926465,86.62479029531406,-126.35610281057845,253.0312150830749,217.62141218844067
96,20.742442892496147,-249.58828480904208,-23.901034074582487,-182.24555787091325,92.72873195204917,-131.4915886345723,251.55882266057793,228.04383207033072
97,21.59002173101902,-247.8757074913231,-24.81992068853802,-190.14953350840406,99.77353366894631,-136.13083991536254,250.01028696934816,239.28618163029586
98,22.450462116755705,-246.10654336602423,-25.700713686520537,-198.2664415422959,107.82192813192768,-140.18700887902713,248.40882746024204,251.3265239079372
99,23.316370834092588,-244.3085407814614,-26.526050596179008,-206.495374172492,116.92297609656393,-143.5761834976078,246.78032352217747,264.12661874687416
100,24.179517506432717,-242.51191404831442,-27.27795543161129,-214.72445872049266,127.1097153863861,-146.2191377855767,245.15294060442446,277.631464979567
101,25.030915161659657,-240.74886127659613,-27.938153352629335,-222.83279821280004,138.39706912309154,-148.04312112521316,243.55667636086955,291.76919971261844
102,25.86092471952061,-239.0529968605109,-28.488420298902394,-230.6927646060912,150.78008743753736,-148.98364915497294,242.0228272711446,306.4513795065545
103,26.65938201911416,-237.45870146474712,-28.910963035334607,-238.17260456868425,164.23258969600323,-148.98625483517318,240.5833782515188,321.57366157630895
104,27.41574536750968,-236.0003956101029,-29.188823856215773,-245.1393099731911,178.7062649460249,-148.0081547621481,239.27032083205765,337.0168957235373
105,28.11926109245685,-234.7117470967768,-29.306302813488077,-251.4616979985422,194.1302771982462,-146.01978298361757,238.11490941720825,352.6486293771929
106,28.7591440960054,-233.6248272201989,-29.249388806041082,-257.01363865404653,210.411409691869,-143.00614287854663,237.14686963954395,368.3250187333342
107,29.324769898047123,-232.7692356427599,-29.00618926805737,-261.6773604201217,227.43476879439623,-138.96792750038435,236.39357748342414,383.8931285110627
108,29.805874189410527,-232.17121849278888,-28.56734662033633,-265.34675755698134,245.06505395480193,-133.92236048575495,235.87923232149487,399.19359136722727
109,30.192755522240137,-231.85280835600742,-27.926428248804093,-267.93061574303385,263.1483853225605,-127.90371344123544,235.62405088006608,414.06358573752016
110,30.476476464590256,-231.83101785109284,-27.08027570818957,-269.35566661376197,281.5146651866961,-120.96346175724591,235.64351199850302,428.34007803272857
111,30.649058393738226,-232.11712001400846,-26.029298201542215,-269.56937718799355,299.980432985027,-113.17004908398684,235.94768346774316,441.8632619319478
112,30.703665181827365,-232.7160485304037,-24.777695214317443,-268.542377831725,318.35215605054475,-104.60824118318943,236.54066201813782,454.4801142381239
113,30.63477137771605,-233.62594898800253,-23.33359364691936,-266.270433025543,336.42987973065203,-95.37806236272321,237.42015573862267,466.0479738739335
114,30.438311094389476,-234.83790888411818,-21.7090861901192,-262.77586349198776,354.0111419570965,-85.59332183736548,238.57723499786118,476.4380389736316
115,30.111804611872795,-236.3358891331365,-19.9201603216791,-258.10833703878643,370.8950402848747,-75.37975253667737,239.99627335395073,485.5386680088391
116,29.654460581852156,-238.09687326857352,-17.986511252765293,-252.34495962062118,386.8863256509015,-64.8728003107898,241.65509396914032,493.25836607434195
117,29.067252512088643,-240.09124258189357,-15.931237165101932,-245.5896179853678,401.7993882850379,-54.215116287692844,243.5253297743171,499.52833821488474
118,28.35296880176464,-242.2833764543431,-13.780420713022231,-237.97155027366347,415.46199867462565,-43.553818416364386,245.5729973178565,504.30449872753394
119,27.516236010592845,-244.63246756539004,-11.562606681782688,-229.64314961624166,427.71867135628145,-33.037599126717716,247.75927526037736,507.5688389539046
120,26.563515429458878,-247.09353188809763,-9.30819167126962,-220.77703631240723,438.4335324538629,-22.81376385263941,250.04146920476566,509.330076229382
121,25.503073557809767,-249.61858375492585,-7.048747318643122,-211.56246486575944,447.4925935047612,-13.025289582546717,252.37413530300657,509.6235331812171
122,24.344927806585865,-252.1579372646339,-4.816303216056923,-202.2011613836801,454.80536334646376,-3.8079937105381516,254.7103262718312,508.5102286046225
123,23.100769415735563,-254.66158758639133,-2.6426185810125067,-192.90271289416063,460.30576469633087,4.71209865986299,257.0029157120823,506.0751969133309
124,21.783865858172774,-257.08062007818427,-0.5584723202817048,-183.87965110359113,463.95235967834924,12.421106600838193,259.20595074089994,502.4250899994158
125,20.408944637106078,-259.3685921913813,1.4070008415854318,-175.34238703699853,465.727925439852,19.219292437443762,261.27597959499997,497.685149987234
126,18.99205932916252,-261.48283317101055,3.2269047664967583,-167.49415811720556,465.6384535849083,25.022651514748844,263.1733004346191,491.99567055900405
127,17.550437215115117,-263.3856095610833,4.877089297097993,-160.5261446553662,463.7116725719479,29.764056213142702,264.863080136138,485.5080858235594
128,16.102306319650506,-265.0451103302195,6.336559679383769,-154.61289903260075,459.9952088995558,33.39394060312886,266.3162973016109,478.3808380299534
129,14.666698602635627,-266.4362138941608,7.58778361183084,-149.9082102050419,454.55451048459656,35.88053534976187,267.5104719017245,470.77517897394034
130,13.263225729756657,-267.54101017567103,8.616897518725727,-146.5415017780828,447.47065456971546,37.20968385065485,268.43015464822406,462.8510556053165
131,11.911824516691565,-268.34906352248123,9.413818689438152,-144.61483728024953,438.83815356479124,37.3842883604209,269.067161766226,454.7632192082678
132,10.632470841809564,-268.8574158621466,9.972273696062432,-144.20058421101257,428.7628561835851,36.42344765117827,269.42055435538464,446.65768044341416
133,9.444863332050788,-269.0703427989756,10.289755706767512,-145.33977005243375,417.36001874705494,34.3613545901345,269.4963748584363,438.66860996295725
134,8.368081031077095,-268.99888730804616,10.367423774589753,-148.04114821169372,404.7525935573759,31.24602247792633,269.3071651227299,430.9157567555405
135,7.420222179229591,-268.6602052053929,10.20995606240247,-152.2809787682961,391.0697496981998,27.137903423038694,268.8713000792647,423.5024252568201
136,6.618033889604738,-268.07676294447134,9.82536680177002,-158.00351718364192,376.44560970452693,22.108451420051527,268.21217744610834,416.514020345147
137,5.976544653271336,-267.27543127281996,9.22479422655391,-165.1221930697716,361.0181576439794,16.238668739934894,267.3573068558584,410.0171404193423
138,5.508713075437316,-266.2865180991295,8.422264256461796,-173.52144954313692,344.92825491841705,9.617658974415924,266.3373416290183,404.0591766433324
139,5.225106942483606,-265.14278105844744,7.434432576055452,-183.0592003002018,328.3186930029279,2.3411962814278624,265.18509355744004,398.66836372166034
140,5.133626544396656,-263.8784552909298,6.280306030748479,-193.5698458429471,311.33321826104327,-5.489689576304722,263.93456609740065,393.85422459323746
141,5.239284990465477,-262.5283254280447,4.980942965922924,-204.86777324005232,294.1154807703205,-13.770117700655497,262.6200348650474,389.6083561944796
142,5.544056045139432,-261.12686333703203,3.5591313803833198,-216.75124776203833,276.8078825076005,-22.392755402555164,261.275196909135,385.90551251155637
143,6.046797006042223,-259.7074456593821,2.039043737636589,-229.0065925130569,259.5503254443224,-31.24921431023681,259.93240275757137,382.7049510311404
144,6.743250705780361,-258.3016586176031,0.44586807662429684,-241.41254592668474,242.47888295955215,-40.23143970137559,258.621978714961,379.9520168080055
145,7.626127154384737,-256.93869276767293,-1.1945834011558425,-253.74468704179017,225.72443572587449,-49.23308349090763,257.3716421264662,377.5799430989726
146,8.685261899933057,-255.6448275460383,-2.8562850777787534,-265.77982336002685,209.4113244887076,-58.15084562420483,256.2060095048845,375.5118480446559
147,9.907845106781133,-254.4430042510697,-4.513422671243648,-277.3002437860164,193.65607657225777,-66.88576396948416,255.14619617609625,373.66290317705125
148,11.278712809299398,-253.35248600186898,-6.140824721280259,-288.0977484376368,178.56626075941168,-75.34442973958926,254.2095059152883,371.94264253535727
149,12.780689869140533,-252.38860380655737,-7.714391945805066,-297.9773777229756,164.2395171995266,-83.44010438907708,253.4092095001997,370.2573726214055
150,14.394972898179288,-251.56258874899186,-9.21151441726303,-306.76077491182804,150.76279651319356,-91.09371485638434,252.7544118158392,368.5126351255249
151,16.10154088207136,-250.8814910233033,-10.611465750178755,-314.2891289817492,138.2118269299219,-98.23470659270862,252.25000768769587,366.61566752968434
152,17.879581385449868,-250.3481867204182,-11.895763209504938,-320.4256571008563,126.65081180918551,-104.80173750044412,251.89672662594842,364.4778019862416
153,19.707920700361992,-249.9614727211578,-13.04848287971332,-325.0575982387173,116.13234383136502,-110.74320021616712,251.69126595508266,362.01674064210795
154,21.565446748969936,-249.71624882484022,-14.056519784517414,-328.09770069545385,106.69750787350276,-116.01756468059739,251.62651042936375,359.158645878015
155,23.4315139412115,-249.60378449650045,-14.909784080299918,-329.4851961610551,98.37613325931989,-120.59353706941535,251.69183456672934,355.839986222545
156,25.28631980180986,-249.612065522399,-15.601326093500166,-329.1862604776108,91.18714867762132,-124.4500343468191,251.87348177858703,352.00908214070415
157,27.11124429855812,-249.72621359530245,-16.127385068676706,-327.19396646001434,85.13899040615512,-127.57597595206137,252.15501214942867,347.62730032308866
158,28.88914446847226,-249.92896954453107,-16.487359228501063,-323.52773818053714,80.23001699997234,-129.96989632571982,252.51780860128338,342.6698517327773
159,30.604598936196336,-250.20122863816124,-16.68369812519118,-318.2323212815397,76.44889106846503,-131.6393853049086,252.94162920614437,337.1261595025574
160,32.24409898587732,-250.52261417611635,-16.721721802950785,-311.3762918924772,73.77490011790108,-132.60036832815481,253.40519157222434,330.99977888664296
161,33.79618489275387,-250.8720736699867,-16.60937433426835,-303.05013750661334,72.17820202281004,-132.87624439753606,253.88677366176535,324.30787181096963
162,35.251528253641766,-251.22848061680526,-16.35692153880462,-293.363955087293,71.61999472292811,-132.496906012014,254.36481441774237,317.08026057628064
163,36.60296300790876,-251.5712245619264,-15.976604221781441,-282.4448229290286,72.05262272225961,-131.49767099824612,254.81849752134764,309.35810635400276
164,37.84546960632714,-251.88077298370453,-15.482259201239996,-270.43391207614576,73.4196438656618,-129.91816031597043,255.22830264086514,301.1922761795444
165,38.97611829495512,-252.1391904003703,-14.888920777224138,-257.48340923905073,75.65588807760517,-127.80115742064251,255.576510541271,292.64147534053205
166,39.993978616025736,-252.33060263100157,-14.21241517850073,-243.75332527080312,78.68754491034771,-125.19148317942158,255.84765102578137,283.7702291150768
167,40.90000278467485,-252.4415969657204,-13.468959921997302,-229.40826150419423,82.432318631537,-122.13491619154905,256.028885481334,274.64679879456537
168,41.69689043549476,-252.46155187986216,-12.67477892918934,-214.61420173041427,86.79968809005784,-118.67718266555251,256.1103185473972,265.34111301303864
169,42.38894141572088,-252.38289266203932,-11.845742815486037,-199.53539153384895,91.69130393643084,-114.86303362352821,256.08523594009597,255.9227879159743
170,42.981902152324686,-252.20127165260828,-10.997042378852349,-184.331359873088,97.00154861956614,-110.73542092427472,255.95026754608492,246.45929971732906
171,43.48281006404047,-251.91567346841472,-10.142902274705262,-169.15413112263965,102.6182761326148,-106.33477856799881,255.70547640249083,237.01436225338108
172,43.899839669949415,-251.5284466034961,-9.296341075552254,-154.1456707973816,108.42374020392161,-101.69841338449505,255.3543751095062,227.64655260187584
173,44.24215310523197,-251.0452634563223,-8.468982854990982,-139.43560631206503,114.29571263540427,-96.8600101068302,254.90387181072296,218.40822157385827
174,44.51975633152038,-250.47501161244534,-7.6709235932816044,-125.13926506029063,120.10878786909052,-91.84925860989799,254.36414849309764,209.34472218023853
175,44.74336069516738,-249.829620358446,-6.910653104727698,-111.35607289884018,125.7358647430898,-86.69161298308866,253.74847527376707,200.49398440625714
176,44.924248291118246,-249.12382779248676,-6.1950304705456825,-98.16835268152388,131.0497908769471,-81.40819117212762,253.0729655428944,191.88645493831086
177,45.07413912570412,-248.37489524562994,-5.529308818714593,-85.64055231024085,135.9251490806205,-76.01582032839012,252.35627810956342,183.5454048725599
178,45.20505810657514,-247.60227683841364,-4.91720393481793,-73.81891550461107,140.24015922868975,-70.52722806378459,251.61927363054824,175.48758915822972
179,45.329200071377976,-246.82725274907463,-4.361000371872269,-62.73158894951669,143.87866398492133,-64.95137449367421,250.88463341394433,167.7242220942623
180,45.45879130713874,-246.07253506143525,-3.861688181723154,-52.389139657608645,146.73216315057616,-59.29391449519288,250.17644906475763,160.2622163467563
181,45.60594648899719,-245.3618548631165,-3.4191231004924054,-42.78543845920485,148.7018594420411,-53.557774135766955,249.51979138450042,153.1056201941425
182,45.78252079595751,-244.71953863815094,-3.0322031191902807,-33.89885129456699,149.70067819128204,-47.74382034101002,248.9402665350299,146.25717993524384
183,45.999957928848794,-244.1700810265216,-2.6990548432692147,-25.693671410742372,149.65522473151523,-41.85159947640755,248.46356676820022,139.71995231617038
184,46.26913549910422,-243.73771983254608,-2.4172236306644943,-18.12172418121271,148.50764573224518,-35.88011904841169,248.11502205189873,133.49889548971163
185,46.600209600484625,-243.44601797010412,-2.1838619387451383,-11.124081751849424,146.21736368504364,-29.828646770684056,247.9191578579855,127.60237517150887
186,47.00246036449165,-243.31745605839617,-1.9959106241774087,-4.632834586603927,142.76265613100213,-23.697501957545335,247.899263445065,122.0435330658656
187,47.48414006447094,-243.3730387218497,-1.8502683223084224,1.427122085875098,138.14205241411943,-17.48881497539044,248.07697429228884,116.84147518312353
188,48.05232503069817,-243.63191725367753,-1.7439445490182934,7.136319530422858,132.3755206606464,-11.207231083454483,248.47187190515274,112.0222471944873
189,48.71277240356867,-244.11103108357125,-1.674192720402435,12.578990470772391,125.50541662392968,-4.860535489999543,249.10110395480052,107.61957224555152
190,49.46978264036808,-244.8247703969423,-1.6386198643979464,17.841410002347907,117.59716440370715,1.5398229037775788,249.9790275883827,103.67533392254788
191,50.326068686746446,-245.78466226735793,-1.6352705171040554,23.010322908801676,108.7396372381674,7.978330373406736,251.11687873739137,100.23979364999268
192,51.282632788965614,-246.99908273313366,-1.6626831460499367,28.171476730530408,99.04520492913215,14.435148909177974,252.5224702947272,97.3715378648393
193,52.33865206129158,-248.47299728258474,-1.7199182516324805,33.408278414241664,88.64941326869247,20.886014041898513,254.19992204070493,95.13715578457447
194,53.491374184140476,-250.20773216260673,-1.806557988579173,38.80058998617496,77.71026029528747,27.302301135719276,256.14942513752953,93.6106532207548
195,54.73602502075894,-252.20077884326557,-1.9226778490920322,44.42367554553045,66.40703459973894,33.651266180618265,258.36704394073416,92.87261153254958
196,56.06573048830515,-254.44563395952667,-2.0687918157801817,50.34730826718208,54.93868266334414,39.89646144676137,260.8445578972423,93.00910354401722
197,57.47145563995292,-256.93167717858483,-2.245773449486483,56.63504211852644,43.52167579389089,45.99832029059858,263.56934647031267,94.11038020537514
198,58.94196445169589,-259.64408969306083,-2.4547565456892415,63.34364838905439,32.38735295181356,51.91489915175944,266.52432030583884,96.26934300635098
199,60.463804103393045,-262.56381635315364,-2.6970201722584375,70.5227116413947,21.778723831098695,57.60275869377959,269.6879021373424,99.57981770323043
200,62.021317653874206,-265.667574829958,-2.9738639529508553,78.21437344079797,11.946727108730142,63.01796046535293,273.03406123524235,104.13464503580225
201,63.596689165848474,-268.9279157540333,-3.286480208562153,86.45320579581077,3.1459518555723545,68.11715062220307,276.5324056921588,110.02360423107581
202,65.1700256159093,-272.31333854523297,-3.63582989450105,95.2661905191814,-4.3701542677396645,72.85869823052148,280.1483375633199,117.33118584454243
203,66.71948009469743,-275.7884685137255,-4.022529175995246,104.67277655803575,-10.354548198429935,77.20385246633077,283.8432766761655,126.1342325854953
204,68.22142053317849,-279.314301566334,-4.446753001650102,114.68498525342457,-14.572263530182422,81.1178806614874,287.57495952022134,136.49947071439905
205,69.65064732693065,-282.8485233303971,-4.908161187231811,125.30753348892921,-16.80640618607043,84.57114772562576,291.29781983345276,148.48096045266283
206,70.98066181991841,-286.3459095340915,-5.405851324476445,136.5379465891058,-16.86436432088399,87.54009709546187,294.96345715708895,162.11750137486382
207,72.18398576367291,-289.7588138352501,-5.938341442734716,148.36663656334926,-14.584098375277305,90.00809409395063,298.5211985478693,177.43003770619217
208,73.23252967183149,-293.03774780361823,-6.503584129843341,160.7769268001439,-9.84035305639545,91.96609450877379,301.91875667511914,194.41911850086262
209,74.09800559365466,-296.13205542920406,-7.099013121350172,173.7450112129418,-2.5506111426485156,93.41310448356785,305.10298472437955,213.0624781767066
210,74.75237759647077,-298.99068145056907,-7.7216232483613485,187.23984335700453,7.319408387674752,94.35640259046153,308.0207250628816,233.31281281321756
211,75.1683416684652,-301.56302904971125,-8.368084782128228,201.22295828253058,19.75091652135391,94.81150109277243,310.6197446846022,255.0958358088425
212,75.31982608692991,-303.79989810730416,-9.034893228794,215.6482359947698,34.66809761933078,94.80183047278489,312.8497461601782,278.3087017128325
213,75.18250333518415,-305.6544904541692,-9.718555278478755,230.46161942499654,51.93524115048929,94.35813897453023,314.6634383089279,302.8188880741165
214,74.73430498005746,-307.0834638456242,-10.415810715290442,245.60080077490167,71.35516514735507,93.51760759557583,316.0176464216783,328.4636210036579
215,73.95593129633669,-308.04801221773977,-11.123888245516522,260.99488750423006,92.66912057899104,92.3226916352437,316.8744380070179,355.0499205551966
216,72.83134768487045,-308.51494619572617,-11.840789867039236,276.5640543146493,115.55834378646459,90.81971306711814,317.2022367042008,382.355327927489
217,71.34825964488697,-308.45774425384695,-12.56559336553198,292.21918384323106,139.64739329524994,89.05724285559424,316.97689355803607,410.1293602319188
218,69.49855655568324,-307.85754081526846,-13.298756171389687,307.86150133234383,164.50936713202518,87.08432740218639,316.1826805853041,438.09572345076964
219,67.27871145772562,-306.7040131167093,-14.04239704204323,323.3822210513754,189.6730457620592,84.94862788048736,314.81316657453135,465.9553032139291
220,64.69011989979737,-304.9961248529612,-14.80052604316051,338.662245330009,214.63194100027604,82.69455576460702,312.8719304398154,493.3899472626763
221,61.73935697162215,-302.7426827985897,-15.579189484039878,353.5719880343243,238.85515014484653,80.3615026135358,310.37306480197276,520.0670511097788
222,58.43832939331929,-299.9626640675157,-16.386496201471722,367.97142808576893,261.799817871694,77.98227550824535,307.3414234707172,545.6449542933933
223,54.80430045820304,-296.68527744794704,-17.232495811006295,381.7105283532729,282.92490153199924,75.58185773809888,303.81257260224584,569.7791408127639
224,50.85977070422188,-292.9497327103324,-18.128888382651876,394.6301729603138,301.7058274051444,73.17661269058172,299.8324171962224,592.1292051401882
225,46.632206286865,-288.8047061982403,-19.088557806661665,406.56377401778286,317.649526709749,70.77403330232212,295.4564915705381,612.366489110901
226,42.15361870359709,-284.30750759861155,-20.12493666255911,417.33967155222047,330.3092613008922,68.37310821777704,290.74892237457453,630.1822169324855
227,37.46001159243109,-279.5229693508581,-21.251226935957366,426.7843965981329,339.298599687249,65.96533106131768,285.78109272171963,645.295866658336
228,32.590720703905966,-274.522094828764,-22.47951632178986,434.72679113332055,344.3038927363755,63.536326362706696,280.6300535616473,657.4634344809153
229,27.587680374204957,-269.3805130605989,-23.81984210115812,441.00288940365147,345.09463182110915,61.06801159329667,275.3767418032588,666.4851917817783
230,22.494653213068695,-264.17679578233833,-25.279262246197113,445.4613767067661,341.53115368836563,58.54116624200183,270.1040732116616,672.2125180151747
231,17.356459238797797,-258.9906968359193,-26.860995716405114,447.9693677657791,333.5692843876709,55.93824157238767,264.89498167291487,674.5534212027474
232,12.218236862564817,-253.90137439116722,-28.5636907186188,448.4181978210838,321.2616807214836,53.24622243097327,259.8304754392357,673.4764289871566
233,7.124761794406986,-248.98565348561644,-30.380871607457443,446.7288999611193,304.755816537135,50.45934650896228,254.98777609823657,669.0126353978244
234,2.11984204500109,-244.31638038777658,-32.30060337455763,442.85705067318605,284.2887531884507,47.581495933398806,250.4385979799728,661.2558050367908
235,-2.7542013546298403,-239.960911921492,-34.30539882318985,436.7966972572835,260.17900928901815,44.62809896613271,246.24761529186216,650.3605503133801
236,-7.4569666053921555,-235.97977306449937,-36.372378842680966,428.583129687512,232.81598932700268,41.62741348692699,242.47115240293945,636.5386958179967
237,-11.95032232461102,-232.42550601819423,-38.47368168838437,418.29431995648605,202.64753475114503,38.62110607939513,239.15612052386146,620.0540200318441
238,-16.198689251446137,-229.3417246570444,-40.57710373433044,406.05091830232607,170.1662214197529,35.66408763172152,236.33921264164763,601.2156164247568
239,-20.169267752772804,-226.76238058277457,-42.64694261343239,392.01476268138555,135.89504472190993,32.82361452859119,234.0463587634621,580.3701450171956
240,-23.83222820090985,-224.71124131631043,-44.645004609953574,376.38592135853094,100.3731117019916,30.177709773447642,232.29243577535576,557.8932557064436
241,-27.16088134781154,-223.20157759932593,-46.53173202608195,359.3983466748775,64.14190278986592,27.812997456041067,231.08122081591173,534.1804625099041
242,-30.131844087882406,-222.23605527349793,-48.267403177194545,341.3142708335111,27.732579712169308,25.822074569093033,230.40557406625112,509.63774076577965
243,-32.72521228671326,-221.80682732569858,-49.81335743178435,322.4175221852094,-8.345291811649574,24.30056456278315,230.24783589588014,484.672112907653
244,-34.92474684851116,-221.8958226033384,-51.13319964813018,303.0059824144258,-43.61335564590877,23.34400587318059,230.58042354396105,459.6824843231022
245,-36.71807283653481,-222.47522843574777,-52.19394176638271,283.38343930987685,-77.63228549095852,23.044725747732407,231.36661297699789,435.05098631912165
246,-38.09688556825277,-223.50816413734051,-52.96704374200928,263.85111362245004,-110.0077903422705,23.48883676394521,232.56149149322832,411.13507313400856
247,-39.057153174802835,-224.94954061046056,-53.429321214561604,244.69914958661997,-140.3948731061273,24.75347384330257,234.11306560850502,388.2605995040266
248,-39.59930242794373,-226.74709770237405,-53.56369307669633,226.19835706209815,-168.5004775138182,26.904366664769746,235.96350646983024,366.7160727522911
249,-39.72837343204051,-228.84260540571321,-53.35974821886334,208.5924817479159,-194.08470312455077,29.993818197877065,238.050511254685,346.7482304749472
250,-39.454128690189755,-231.1732074983758,-52.81411705332543,192.0912624007159,-216.96079197831023,34.05913533286512,240.30875372976578,328.55904520448075
251,-38.79110287926569,-233.67287743808217,-51.9306399628097,176.86451265541726,-236.994096044055,39.121533008629314,242.67139091981895,312.3042037441078
252,-37.75858120954431,-236.27394758367566,-50.72033155241067,163.03743871792682,-254.1002252566859,45.18551061731034,245.0715868329034,298.0930521403261
253,-36.38049619529031,-238.90866583324708,-49.20114632854384,150.68736902355096,-268.24255530721445,52.238681170785725,247.44400985169,285.9899379899757
254,-34.68523489673911,-241.5107300681659,-47.39755781287605,139.84202410478767,-279.4292464701177,60.252021149158324,249.72625898749726,276.0168225723802
255,-32.70535143399842,-244.01675116712602,-45.33996862572815,130.479393250505,-287.70989400319195,69.18050179371534,251.8601763556657,268.1569816897467
256,-30.477183026197096,-246.36759975100256,-43.063973283095436,122.52921167007214,-293.1719015042601,78.96405955247876,253.79300886789432,262.3595723904353
257,-28.040371752959008,-248.50959954885127,-40.60949814166058,115.87595371399198,-295.93664473452367,89.52886310184353,255.47839055437157,258.5448167895471
258,-25.43729811675483,-250.3955403098475,-38.01984427405449,110.36318238704392,-296.15547663952736,100.78883564487121,256.8771271318073,256.6095439473704
259,-22.712435857761097,-251.98549431474046,-35.34065950181482,105.79903188263951,-294.0056142333524,112.64739267077375,257.9577753070922,256.43283354696933
260,-19.911640251759117,-253.24743139368363,-32.61886582083753,101.9625561439609,-289.68594282270294,124.99935557262249,258.69701961927206,257.8815181472315
261,-17.081384423672375,-254.15763655862494,-29.901568375149978,98.61065749986619,-283.41277070650756,137.7329994047131,259.0798581307165,260.8153228207945
262,-14.267960092022731,-254.70094091238164,-27.234972146193783,95.4853158158737,-275.41556668228037,150.73218864631565,259.0996140659876,265.09145199750213
263,-11.516660606441642,-254.87078007745245,-24.66333253316771,92.32086669625504,-265.93271289266653,163.87854931983628,258.7577932548415,270.5684730115998
264,-8.870965150348479,-254.66909523966956,-22.22796563716966,88.85112079973152,-255.2073065026598,177.05362092605782,258.063807187335,277.1093923628116
265,-6.371743518075343,-254.10609058114173,-19.966342914404386,84.81616801114582,-243.48304509601422,190.14092897380596,257.0345791707833,284.58387062836704
266,-4.0565008457975225,-253.1998581544768,-17.911292755721455,79.96876255284631,-231.00023219612743,203.02791939933368,255.69404727327392,292.8695710567986
267,-1.9586810853303136,-251.9758780627599,-16.090328587831735,74.0802310531811,-217.9919406903224,215.6077001721066,254.072573432826,301.8526810641398
268,-0.10704709266054459,-250.46639906684433,-14.525119476026887,66.9458794893099,-204.68037293874693,227.78054254197954,252.2062642797571,311.4276823191471
269,1.4748457622918834,-248.70970310183267,-13.231115035794355,58.389893430870245,-191.27345688225589,239.45510420560433,250.13620657589985,321.4964730722626
270,2.769066620410431,-246.74925697934634,-12.217331687907485,48.269728328118084,-177.96171760126722,250.54934870080606,247.90761908507153,331.9669668539476
271,3.763602521710038,-244.6327558749414,-11.486301935384972,36.479974554971974,-164.9154635215745,260.9911487241507,245.56892326803256,342.7513060152191
272,4.4525163207266365,-242.41106604428398,-11.034182751615836,22.955659720821128,-152.2823256799095,270.7185743828344,243.1707374430467,353.76383749130974
273,4.8359606181826456,-240.13707848320828,-10.851013944819142,7.674923792796855,-140.18518732952998,279.6798794969462,240.76480287734313,364.91900204316045
274,4.920043349231059,-237.86449066895753,-10.921112905068222,-9.339023865554285,-128.72054041840116,287.8332098488421,238.40285540078187,376.1292878679843
275,4.716545640857829,-235.6465396322666,-11.223588479081476,-28.01677745608927,-117.95730580261322,295.1460669998781,236.13546210059903,387.30339550682044
276,4.242498218928622,-233.5347158508463,-11.732953835955094,-48.24256062217745,-107.93615528822218,301.5945696156379,234.01084889076913,398.3447530771544
277,3.5196286169241895,-231.5774931563031,-12.419816239421152,-69.85512510830519,-98.66937451950479,307.1625603666138,232.07375055137103,409.1505081366786
278,2.5736971634253645,-229.8191142075273,-13.251620791682221,-92.6498224090738,-90.14130459191507,311.8406099273321,230.36431935844325,419.6111044766778
279,1.433744658241062,-228.29847330260222,-14.19342543932432,-116.38191178367957,-82.30939535145833,315.624970350727,228.91713083298734,429.6105289287488
280,0.13127831976329088,-227.04813782430722,-15.208685652247869,-140.77111547316207,-75.10589349515405,318.51652820254327,227.76032484992325,439.0272849210599
281,-1.300575340329991,-226.0935463036843,-16.260028980267496,-165.5073668538191,-68.44017351091394,320.5198034155756,226.91491722277723,447.7361158500954
282,-2.8279217033455417,-225.45241520898273,-17.31000210382769,-190.25762442710933,-62.20169947758274,321.642033244446,226.39431122353537,455.61046210212464
283,-4.416925466346973,-225.13437865162095,-18.32177625220215,-214.6735511507143,-56.26358073140166,321.8923724535056,226.2040309183967,462.52559107353824
284,-6.034588795993231,-225.14087584066536,-19.259801015237564,-238.39979452957195,-50.48665337215706,321.281231166187,226.34168933666538,468.3622918593389
285,-7.649457726253477,-225.46529082824586,-20.090400847172088,-261.08255869975613,-44.72398199260344,319.81976075072413,226.79719477169834,473.01098024021775
286,-9.232237789672864,-226.09333835572912,-20.78231165833672,-282.37814209653925,-38.82563507086613,317.5194863004689,227.55318826311378,476.3760216414027
287,-10.756303791168715,-227.00367906779994,-21.307156083252664,-301.9611224315714,-32.6435511953948,314.39207277165946,228.58569508048632,478.38005464924873
288,-12.19809306908335,-228.16873779624694,-21.639855584968434,-319.5318978998223,-26.03629069283053,310.44920173355945,229.86496366216244,478.9680865986644
289,-13.537376614256567,-229.55569071099026,-21.758976372212828,-334.8233318989617,-18.873463044903918,305.7025279759617,231.35645776143176,478.11113445333945
290,-14.757408168947373,-231.12758126224261,-21.64700518628051,-347.6062929345983,-11.0396339417967,300.16368127110127,233.02196201374738,475.8091977642404
291,-15.84495804521209,-232.84452117764138,-21.290551245959115,-357.6939309180327,-2.437543387827087,293.8442800329829,234.82075805336777,472.09337690412303
292,-16.790245553042396,-234.66493161450916,-20.680472357226925,-364.94458811735717,7.009495318094321,286.7559317460124,236.71082796157813,467.02699155555825
293,-17.58679029243454,-236.54678126106714,-19.811925854829664,-369.26330978491444,17.356098796539595,278.91021008916414,238.65004439614796,460.70561297772343
294,-18.23120628549469,-238.44878274969196,-18.68434741043835,-370.601993491098,28.6342484763287,270.31861889958486,240.59731194224113,453.25599512341404
295,-18.72296297589798,-240.33151552532578,-17.301361785854134,-368.9582881594672,40.853630298606674,260.99257408314077,242.51363117045915,444.83396301717363
296,-19.064134056319926,-242.15845105863704,-15.670629522233126,-364.3734105720297,54.002798462436644,250.94345037621562,244.3630644069548,435.62137645219315
297,-19.259150484019848,-243.896863537676,-13.803633684443463,-356.92907904767105,68.05103626881649,240.1827459668705,246.11358909119443,425.8223212731075
298,-19.31456953290823,-245.51861470423594,-11.715412321912622,-346.7437714786023,82.95075257890545,228.7224137892814,247.737829824426,415.6586884741895
299,-19.23886812467771,-247.00080500576163,-9.424245183247104,-333.9685082078338,98.64023070123005,216.57539724121946,249.21366351974675,405.36529335974706
300,-19.042265587374875,-248.32628543949912,-6.951306207564455,-318.78235170098554,115.04653665622041,203.75639450592809,250.5246940571624,395.18467645157534
301,-18.736577410479764,-249.48402635071963,-4.320295107631442,-301.38780951937315,132.08839503859033,190.28286088679184,251.6605943530405,385.3617212654248
302,-18.335097107034844,-250.4693414094783,-1.5570614210310776,-282.0063194356457,149.67885454187646,176.17624051596837,252.6173151363962,376.13821913004125
303,-17.852498593123713,-251.28396692342966,1.3107670873723152,-260.87397657834373,167.72759355555328,161.4633961450826,253.39716096072684,367.74750327512754
304,-17.304747526750617,-251.93599844257764,4.254142377846405,-238.2376281795729,186.14275785958694,146.17818118617137,254.0087350686857,360.4092629683106
305,-16.709007292551682,-252.4396883068808,7.2429342303767585,-214.35141580828534,204.83227137294256,130.36307704091791,254.46675575552368,354.32463639403653
306,-16.083523709791166,-252.8151093550958,10.246245162394109,-189.47379645923058,223.7046091683083,114.07080485340566,254.79174783751574,349.6716705300388
307,-15.447472032302755,-253.08769133549288,13.232701148526681,-163.86503021245102,242.66906398454879,97.36581442786438,255.00961362676256,346.601227986394
308,-14.820750696826199,-253.2876376126552,16.170718891033886,-137.78508686435893,261.63557193721005,80.32555233468503,255.15108847266828,345.2334143918997
309,-14.223709002146004,-253.44923065913179,19.02875189993256,-111.49189691010687,280.5141908077185,63.04141490339729,255.25108664262362,345.65459501728975
310,-13.676800779633549,-253.61003560258052,21.77551899492366,-85.239853278365,299.21434489530407,45.619300301847716,255.3479442140667,347.91506511351565
311,-13.200162942410337,-253.81001170656776,24.38021992427607,-59.278460719154545,317.64396184217816,28.17968830296637,255.48256669056065,352.02743358664696
312,-12.813125364769064,-254.0905421457737,26.812743412170263,-33.851030962554034,335.70862721908406,10.857196309109995,255.69749012335046,357.96577233325445
313,-12.533665066767165,-254.49339305597465,29.043872910793766,-9.193332192926107,353.3108730295751,-6.2004169681176915,256.0358656126987,365.6655724020444
314,-12.377822153178098,-255.05961387488665,31.0454946236939,14.467882436595433,370.3497010126527,-22.83380679859025,256.5403783240551,375.024533528905
315,-12.359097634740166,-255.8283925309868,32.79081128160864,36.91652321389119,386.7204256091133,-38.87414454890342,257.25211375655755,385.90419775463573
316,-12.487854860295133,-256.83588101796005,34.2545641354971,57.949023821273165,402.31490701086904,-54.14573898801698,258.2093860345482,398.132422738139
317,-12.770747276011784,-258.1140092548609,35.41326481370736,77.37642497560374,417.02223104019106,-68.46913561108185,259.44654547232255,411.50667598221963
318,-13.210195801152635,-259.68930788917396,36.24543778916168,95.02667128040571,430.7298777439805,-81.66463966241083,260.9927855883513,425.7981161315306
319,-13.803939384599872,-261.581763882503,36.73187296379457,110.74708815340487,443.3254031766048,-93.55619471664774,262.8709731248619,440.75641067449124
320,-14.544682332932453,-263.803736305961,36.85588636398863,124.40698226105876,454.6986383395141,-103.97553383391018,265.0965284434345,456.1152203059929
321,-15.419861687421017,-266.3589636262611,36.603585329891736,135.90028452567256,464.7443853678066,-112.76650466340762,267.6763877837099,471.59825855906894
322,-16.411557050318002,-269.24169760228926,35.964132985145696,145.14813073353065,473.36556371461825,-119.78945401920264,270.60808300023115,486.9258109597405
323,-17.496563557944803,-272.43600234221856,34.930005366660865,152.1012533313735,480.47672888134844,-124.92554232426932,273.87897813847786,501.82157162927103
324,-18.646645873030426,-275.9152595849611,33.497233662275995,156.7420416162776,486.0078547893703,-128.08084523918,277.465705084301,516.0196289599797
325,-19.828986738759394,-279.64192221652735,31.665623695452044,159.08611848741197,489.90824061372325,-129.19009045765077,281.33384187383575,529.2714087887961
326,-21.006837456894804,-283.56755671362015,29.43894493285387,159.18328223061226,492.15037654890506,-128.2198739825818,285.4378763496441,541.3523668636858
327,-22.14036960211088,-287.6332110832834,26.825081507938137,157.11767272639986,492.73358307789374,-125.17120390596246,289.72149409166366,552.0682153135366
328,-23.18771780659049,-291.770137696997,23.836137729277628,153.00704295379984,491.6872267012534,-120.08123172958486,294.1182226324986,561.2604718240698
329,-24.106193265312495,-295.9008902494537,20.488490086574597,147.00104724638803,489.07331274941015,-113.02405148775011,298.55245387767656,568.8111351037356
330,-24.85363743996018,-299.9408011591264,16.802776880278312,139.2784953084617,484.9882632610604,-104.11047456678055,302.9408536102254,574.6463147036957
331,-25.389875903356003,-303.79983047679127,12.80381556067574,130.04356354304932,479.5637050540604,-93.486722122846,307.1941513776645,578.7386757207436
332,-25.67822395296225,-307.3847603695668,8.520437216710878,119.52100117744486,472.9661197695842,-81.33201638911129,311.219286572189,581.1085976591676
333,-25.68698901088945,-310.60169129714745,3.985228056746835,107.95041643123518,465.39524309190267,-67.85509603076089,314.92186797776895,581.823989820799
334,-25.39091018141867,-313.35877798954823,-0.7658302905085403,95.57977578283032,457.08114339810624,-53.289728044225704,318.2088854237094,580.9987508056165
335,-24.772472733538542,-315.56912602408636,-5.693825926681746,82.65829555915045,448.27995928950287,-37.88933804549307,320.99159424671166,578.7899045696191
336,-23.823034684790574,-317.1537536446949,-10.757485534970316,69.42894861159843,439.26832878853963,-21.920929978436746,323.1884765061118,575.3934872921425
337,-22.543704074884825,-318.04450889974805,-15.913837000520035,56.12084979569105,430.3365978975114,-5.658512410064537,324.7281677573623,571.0392952464124
338,-20.945909296758725,-318.1868201660151,-21.118946031751843,42.941822862092714,421.7809499640214,10.623711866073185,325.5522256541187,565.9846313613931
339,-19.05161197821258,-317.5421505085607,-26.3286968419901,30.071487558357,413.89464716981985,26.658107414296012,325.61760862698605,560.5072049345031
340,-16.8931236142729,-316.0900254608982,-31.499578455693623,17.65523531578805,406.95861874817376,42.19001995656248,324.89873191209364,554.8973432860214
341,-14.512504168833896,-313.82951179124404,-36.58943367106503,5.799476394928722,401.2316651636735,56.98354920240265,323.3889766234352,549.4496667057326
342,-11.960542783059235,-310.78004275990764,-41.55812905950624,-5.431471427281558,396.9405735494144,70.82641482950976,321.1015467007141,544.4543651745556
343,-9.295345683048488,-306.981513125272,-46.368112340379874,-16.016535656802308,394.2704603747151,83.53369855691548,318.06959823166915,540.1882104046389
344,-6.580581270861869,-302.49360340234597,-50.98483697797306,-25.97686898396577,393.3556774933071,94.9503131464011,314.34560409202913,536.9054556854082
345,-3.883453834164857,-297.3943351837001,-55.37705012640088,-35.37259335149199,394.2716405951438,104.95213136505116,309.9999609261059,534.8288279128527
346,-1.272492862491067,-291.7779041355041,-59.51695538441404,-44.297430210002794,397.02796298997305,113.445797865507,305.1188909803289,534.1408944848813
347,1.1847463228213784,-285.75188017125765,-63.380272897880005,-52.87152753457126,401.5632952177864,120.36733684577358,299.80173345786216,534.9761692908227
348,3.423972670796803,-279.4339007343205,-66.94622449786348,-61.23295035770917,407.7422712396725,125.67974977200092,294.157754442373,537.4143763983371
349,5.386345554526717,-272.9480093083318,-70.1974711011348,-69.52839735938839,415.35493403525606,129.36986182565923,288.3026277160243,541.4752949901048
350,7.020470140686253,-266.42080503340173,-73.1200251520972,-77.9037317595631,424.1189495980557,131.44471569337713,282.35474938028636,547.115561393127
351,8.284126675747167,-259.9775704976667,-75.70315447720333,-86.49487894114111,433.6848155490345,131.92782236068697,276.43154750707384,554.2277177088009
352,9.145672641463642,-253.73853522225244,-77.93928733774163,-95.41956468334274,443.64413126292675,130.8555604849474,270.6459363592805,562.6416907859416
353,9.585072670123479,-247.8154151602275,-79.82392290209708,-104.77026717360596,453.5408285481106,128.27397302357068,265.10304637303074,572.1287721230939
354,9.594527799132015,-242.3083469497647,-81.35554734456457,-114.60865031610884,462.8850784681029,124.23614959279308,259.89733939353346,582.4080497541905
355,9.17869224894648,-237.3033122003268,-82.53555322632698,-124.96164693022145,471.16940694729294,118.80031386362123,255.11019591243294,593.1551132172128
356,8.354481676082688,-232.87012324054734,-83.36815820873726,-135.81927400687053,477.8863865999119,112.02866431220758,250.8080383948108,604.0127135818522
357,7.150491215692356,-229.06101820943584,-83.86031800269392,-147.13418920053576,482.54714113189243,103.98694920782803,247.0410325776104,614.602924932028
358,5.606054285671306,-225.90989026557517,-84.02162770388819,-158.82293605823736,484.6998150751997,94.74469696914701,243.8423869125908,624.5402423201758
359,3.7699839671528186,-223.4321528742631,-83.86420552029556,-170.76877174724703,483.9471337707471,84.37597424676295,241.22824904203884,633.4449826754447
360,1.6990477141753975,-221.62522052918857,-83.40255349241365,-182.8259220334482,479.9622084275205,72.96050857854081,239.1981773007135,640.9563386517663
361,-0.543767021142354,-220.46956209235452,-82.65339109348952,-194.82506196143208,472.50182525483854,60.584991247397916,237.7361449092817,646.7444703768451
362,-2.8911342242315623,-219.9302627502657,-81.63545949545788,-206.57977697880062,461.4165887607099,47.34436902567109,236.81201524090622,650.5210997563482
363,-5.273353938580119,-219.95901134286188,-80.36929668906339,-217.89372025394556,446.6574573114236,33.34294009460205,236.3834091552184,652.048186326471
364,-7.620336809509837,-220.49641397051045,-78.87698628036115,-228.56815160260803,428.2784016057445,18.695088354555836,236.3978711634405,651.1444003918585
365,-9.86354797765395,-221.47452404004991,-77.18188514133874,-238.4095262414919,406.4351195703806,3.5255199335203353,236.79523156664396,647.6892546416759
366,-11.937854033194307,-222.81947465638748,-75.30833664777325,-247.2368009979272,381.37993940925924,-12.031096072817588,237.51005786632922,641.6248958000901
367,-13.783222145043661,-224.4541019333485,-73.28137688835017,-254.88814322217473,353.4532225720222,-27.831136204567127,238.4740911262334,632.9556812390524
368,-15.346226591055935,-226.30045670776045,-71.12644132225813,-261.22676335628626,323.07173002042083,-43.72368665090154,239.61857112303517,621.7457638336334
369,-16.58132462078125,-228.28211597634822,-68.86907906375933,-266.14564443289,290.7145325045591,-59.55282158797659,240.87636697879714,608.1149783126858
370,-17.451871103436723,-230.3262227890616,-66.53468091292306,-269.5710073570528,256.90712664040973,-75.1604112407717,242.18384625023324,592.2333640540846
371,-17.93084992275877,-232.36520303714596,-64.14822519949018,-271.46442378391055,222.204463654147,-90.38933769263626,243.48243391469987,574.3146740076039
372,-18.00130939221042,-234.33812811160703,-61.73404302946197,-271.8235614855488,187.17360774709084,-105.0869670539498,244.71983205338634,554.6092089884469
373,-17.65649872199089,-236.19171225059776,-59.31560251676593,-270.68161429012645,152.3767177491537,-119.10870674279782,245.8508899807945,533.3962847608234
374,-16.899712511275126,-237.88095131025884,-56.91531041589855,-268.10552653970666,118.35499175002215,-132.32146755558563,246.83813196359918,510.97659302425063
375,-15.743860080573324,-239.36942491088308,-54.55432906251986,-264.1931687035751,85.61413364117963,-144.60685210360953,247.65196467248205,487.6646651918938
376,-14.210785608344084,-240.62929605065898,-52.252406494056345,-259.06965477286906,54.61179813338762,-155.86390318401104,248.27059860959702,463.78159742354893
377,-12.330372641923905,-241.64105124768685,-50.02771811056167,-252.88301231940966,25.747353383751065,-166.0112668587577,248.67972673934295,439.6481523749912
378,-10.139471953144318,-242.39303014826658,-47.896719282229014,-245.79942293773695,-0.6458244715409351,-174.9886553661742,248.8720094166459,415.5783211216502
379,-7.680694829946507,-242.88079645400964,-45.874009714306744,-237.99824586797823,-24.305435055009557,-182.75753444929464,248.84641753264032,391.8734091008943
380,-5.001115208650703,-243.10640203308517,-43.97221181639836,-229.66702309558846,-45.04274323945882,-189.3010065219542,248.60748563200593,368.8167014087108
381,-2.1509241521524727,-243.07759321176962,-42.20186654787757,-220.99664218300197,-62.742606763204535,-194.62291115750233,248.16452363939467,346.66876157179007
382,0.8179206442829372,-242.8070026896475,-40.57135112063669,-212.1768054304735,-77.36126311461916,-198.74621220092175,247.53082999081252,325.6634189604222
383,3.8530095190696843,-242.3113628460642,-39.08682350926845,-203.39192277980533,-88.92216711683282,-201.71078137286938,246.72294098736538,306.0044987246126
384,6.902722176855662,-241.61076723934235,-37.75219888608911,-194.81751344492076,-97.51022105368011,-203.57071814551637,245.7599419368406,287.8633414257494
385,9.917363160601347,-240.7279977076566,-36.569162705032944,-186.61716967196986,-103.2647691120366,-204.39136334702542,244.66285601538206,271.3771460706284
386,12.850165509012141,-239.68792543971165,-35.537224101011944,-178.9401067730302,-106.37173758657934,-204.2461695082193,243.4541175679968,256.6481504423855
387,15.658144294090832,-238.51698640649903,-34.65381167082646,-171.91929739991576,-107.05529290498755,-203.21358582628352,242.1571285035012,243.74363835259408
388,18.302789673799374,-237.24272525028329,-33.91441175711767,-165.6701652212094,-105.56936331044561,-201.37410185850024,240.7958901342858,232.69673742043238
389,20.750596484767378,-235.8933974890491,-33.31274713844968,-160.28979385393677,-102.18933009042802,-198.80757375377638,239.39469857742517,223.50794584321537
390,22.97343359938611,-234.49761770931673,-32.84099163331658,-155.85659115510975,-97.20414439745284,-195.5909317252262,237.9778896063283,216.14730416505608
391,24.948761169832586,-233.08404094633457,-32.49001393118345,-152.43033688959528,-90.90907012061267,-191.79633898458158,236.56961830751413,210.55710912796107
392,26.659707838523385,-231.68106522199005,-32.24964243850325,-150.05253364657494,-83.59919558775984,-187.48984204228668,235.1936596815448,206.65505185089495
393,28.095023247218798,-230.31654484630278,-32.108942170816825,-148.74697735923937,-75.56379972624127,-182.73052227889775,233.87321808098363,204.33765288831322
394,29.248923447555708,-229.01750636123194,-32.05649439953403,-148.52046579690565,-67.08160374160708,-177.5701314551232,232.6307357919452,203.48386359313662
395,30.12084758743769,-227.80986176799368,-32.080669512237044,-149.36357143982895,-58.416889850176986,-172.05317103256513,231.48769388105632,203.95870736078152
396,30.71514332653767,-226.7181167919431,-32.169883313705036,-151.25141870550277,-49.816427305234264,-166.21735718672352,230.4644014759345,205.61684509507336
397,31.040696320862818,-225.765075280703,-32.31282706335914,-154.14442299018185,-41.50711591905439,-160.09439981622182,229.5797728896009,208.30596502070526
398,31.11051681723761,-224.97154423753614,-32.498662326275486,-157.98896816272693,-33.69423991402897,-153.71101458520187,228.85109542510804,211.8699161334721
399,30.941294621558203,-224.3560471081807,-32.71717337766018,-162.71801761688639,-26.56021936908124,-147.09008267109664,228.2937940357159,216.15152586155048
400,30.552932324525152,-223.9345552396951,-32.95887217284083,-168.25166976916248,-20.26375054511306,-140.25187402678657,227.92120168323126,220.9950648079519
401,29.968065191816233,-223.72024847713803,-33.21505332472667,-174.49768079506126,-14.93923788964533,-133.21525627738734,227.74434567799943,226.24834355851237
402,29.211574380883157,-223.7233155488586,-33.4777988325791,-181.35198519548146,-10.696438146256703,-125.99882157065672,227.77176032888585,231.7644473166565
403,28.310098331527612,-223.95080345528095,-33.739934396586605,-188.69924904520678,-7.620259600335186,-118.62187624588981,228.00933512530975,237.4031327283734
404,27.291545644503564,-224.4065229536147,-33.99494103343103,-196.41349243625487,-5.7706855612057195,-111.10525183544452,228.4602058809056,243.0319271207354
405,26.184611895368807,-225.09101482184647,-34.23682739068128,-204.35881751248533,-5.182818400253572,-103.47190988541826,229.12469422672538,248.52698294274214
406,25.018302764325668,-226.001579104788,-34.459969610271216,-212.39027701956647,-5.867065837636749,-95.74732691658947,230.00029876699202,253.7737488018605
407,23.821466309522922,-227.13236707584363,-34.65892675020786,-220.35491545954739,-7.809511764158869,-87.95965894849027,231.08173912969406,258.6675223716875
408,22.62233781028839,-228.4745332985565,-34.828240641505815,-228.09301035562558,-10.972527700076034,-80.13969643672854,232.36105211369463,263.11394889180485
409,21.44810127640115,-230.0164431056559,-34.96222972433272,-235.43953416312698,-15.295687168437404,-72.32062946142838,233.82773731853703,267.02952168325766
410,20.324472485168098,-231.74392916409136,-35.054786964371026,-242.22584756857353,-20.697043675641574,-64.53764954361962,235.46894819695402,270.3421285982149
411,19.275309165194262,-233.64058963950635,-35.09919240215867,-248.28162263826994,-27.07482397584651,-56.82741904155991,237.26972346438586,272.99167206468576
412,18.32225458077964,-235.68811985927982,-35.08795112080862,-253.43698067436893,-34.309572621932155,-49.22744197831365,239.2132532567972,274.93077226967966
413,17.48442123526646,-237.86666930923448,-35.01266728994499,-257.52481610837697,-42.266762538748864,-41.77537133904664,241.2811743411162,276.1255447561621
414,16.778121517759917,-240.15521623100017,-34.8639644541091,-260.38326542643995,-50.79986064836861,-34.508287378494764,243.45388899488503,276.55642656065123
415,16.216651548260984,-242.531952862019,-34.63146149196851,-261.85826980600564,-59.75380892524076,-27.46197951107314,245.71090273402478,276.21900988892156
416,15.810133181396766,-244.9746752218379,-34.3038126746856,-261.806172541059,-68.96885189943646,-20.67026111642771,248.03117663039282,275.12482983991157
417,15.565417509280167,-247.46117202547052,-33.868818838276276,-260.0962879434116,-78.28461428754689,-14.1643423075085,250.39349026838525,273.30204327604554
418,15.486051721886286,-249.96960763096578,-33.31361476305439,-256.61337743026706,-87.54430950320292,-7.972280968117109,252.77681130190453,270.79592999873455
419,15.572309857435458,-252.47889388111668,-32.624935514117745,-251.25997093097152,-96.59894284639442,-2.1185281408215033,255.16066708865063,267.6691454511956
420,15.821286381960473,-254.96904537725203,-31.78946185151522,-243.95847748256668,-105.31136320589357,3.3764191630600724,257.5255130962499,264.00165693655697
421,16.227049360669568,-257.4215123230762,-30.794241851997924,-234.65303757897567,-113.56001500539352,8.496246717506086,259.8530918773907,259.8903033497836
422,16.78084751606906,-259.819484813725,-29.62718258413182,-223.31108039045665,-121.24224838833582,13.228924624899353,262.12677562398335,255.4479314196819
423,17.471363492723004,-262.14816237774414,-28.277602213088745,-209.92455946165188,-128.27705975438613,17.56667638778355,264.3318847432487,250.80207803570005
424,18.28500486825775,-264.39498252141374,-26.736829556584514,-194.5108490488016,-134.6071549447545,21.505815162381367,266.4559744330928,246.09318632118675
425,19.206225021639447,-266.54980173908245,-24.998835111570155,-177.11328927201455,-140.20025098781318,25.04645199513973,268.4890806770825,241.47236095347145
426,20.2178673788172,-268.6050219479289,-23.060875101423516,-157.80137282476318,-145.0495567739458,28.19208440273561,270.42391642977475,237.09868505947617
427,21.3015278554942,-270.555654907859,-20.924128188220696,-136.67057084702867,-149.17339694826398,30.94907459888341,272.2560082798842,233.13613708795387
428,22.437930735764642,-272.3993173685739,-18.594302954407855,-113.84180151431477,-152.61396713343606,33.32602588118478,273.98376394823146,229.75016207855268
429,23.607312714872894,-274.13615077871367,-16.08219280119687,-89.46055100539536,-155.435233748979,35.33306537327029,275.608461900759,227.10396798905913
430,24.789808973112674,-275.7686613726061,-13.404153443351847,-63.69566092884787,-157.72001898465305,36.98104320900663,277.13415615231645,225.35463357572604
431,25.965834463979146,-277.30147904934205,-10.582476917694462,-36.737797614091285,-159.56634043230787,38.28066257020213,278.56749179533887,224.64912862167833
432,27.116453005718558,-278.74103651437446,-7.64563541328341,-8.797616788191888,-161.08310430577117,39.24156089468183,279.9174297640951,225.12035921443427
433,28.223725795661444,-280.09517367848355,-4.628368759435949,19.89636686704715,-162.38527993671042,39.87136903562662,281.19488283675514,226.8833599530605
434,29.271029555783688,-281.372676182314,-1.571591429709948,49.10020026743777,-163.58871029773505,40.1747813734465,282.41226877576906,230.03176120855346
435,30.243333228799003,-282.5827606967857,1.477901365342756,78.55720078090849,-164.804737410219,40.15267517148613,283.58299043345636,234.6346621577624
436,31.127421611498825,-283.73452276281716,4.467943451797932,108.0009520003148,-166.1348409181397,39.80132115716625,284.7208560919744,240.73403778782532
437,31.912054807971504,-284.8363649888622,7.341731187593953,137.15858150675717,-167.6655008852885,39.11172887014193,285.8394558997622,248.34279855468128
438,32.58805392145302,-285.8954243842326,10.038780175361408,165.75430739487533,-169.46350036246164,38.069169493374915,286.95151195443486,257.44360339262136
439,33.14830592651765,-286.9170176780203,12.496095556264684,193.51322708812214,-171.57187865132053,36.65291566651907,288.0682205354606,267.9884999561205
440,33.587684062842214,-287.9041229521846,14.649536786006147,220.1653044187581,-174.00673250754403,34.836232324745986,289.19860545876946,279.89943146775926
441,33.9028841896863,-288.8569151608504,16.435348371150116,245.44949063703666,-176.75504035118465,32.586645185389166,290.34890181871646,293.0696099337405
442,34.09218216179576,-289.77237249789044,17.791819017678687,269.1178942835404,-179.7736546279667,29.866504534441102,291.5219898393803,307.36571444082335
443,34.15512225622386,-290.6439703604746,18.661023469962068,290.93989638664937,-182.98957051776603,26.633851978080447,292.7168993904248,322.6308348285709
444,34.0921516813042,-291.4614798456014,18.99059456626166,310.70609369620604,-186.3015358821081,22.843587372920258,293.9284068932548,338.68804883667576
445,33.90422074414214,-292.2108880941975,18.735468150377887,328.23194550949466,-189.58301842502337,18.448922663990597,295.14674757016866,355.3444973696793
446,33.592371854191754,-292.87445797378405,17.859540562521182,343.3610001982941,-192.6864926698431,13.403099060226683,296.3574668275931,372.39580900412625
447,33.15734289472345,-293.430944052514,16.337177418687688,355.96758601687975,-195.4489533471548,7.6613338795890575,297.5414344819508,389.63072117792007
448,32.59921151751954,-293.85598000792913,14.154513327224583,365.95886642591233,-197.69850547579455,1.1829534132826889,298.675043993612,406.83575035689483
449,31.917106694280093,-294.12264900961407,11.310485194858027,373.27618149069656,-199.2618272104711,-6.06634176992556,299.73061537379215,423.7997747015204
450,31.109012492239067,-294.2022427683863,7.8175467528343745,377.89562193899957,-199.97225154359077,-14.11214249109963,300.6770145227455,440.31840774949814
451,30.171686475004524,-294.065206617589,3.702018716990572,379.8278092011771,-199.67816886375627,-22.96900060186343,301.4804931796654,456.19805783012765
452,29.10071130928712,-293.6822573909357,-0.995962159207072,379.11688158298017,-198.2514154736272,-32.63818467618958,302.10574263423604,471.25958325082183
453,27.890693310667224,-293.0256486617623,-6.222920207127268,375.83871257305105,-195.59528446645106,-43.10561191480014,302.5171416274555,485.3414663229266
454,26.535615933405218,-292.07054492897026,-11.912954130310704,370.0984116621608,-191.65177580663115,-54.34005274536977,302.6801653298705,498.302439310835
455,25.029349053526385,-290.7964531279067,-17.989078246046024,362.02718113578146,-186.4076934007662,-66.29170809663336,302.56290838161124,510.0235026747057
456,23.36630539763326,-289.1886466418136,-24.36496326425312,351.77862512385906,-179.89920079848687,-78.89125873120581,302.1376607032906,520.4092823214133
457,21.542223400645945,-287.23950439226815,-30.94702743237536,339.5246312202849,-172.21446797468798,-92.0494799877659,301.38246048229036,529.388681419994
458,19.555042126214474,-284.94967754151077,-37.63680901536329,325.45097081960813,-163.49408488776265,-105.65750227652985,300.28253615975865,536.9147979172876
459,17.405820606418477,-282.32899208855264,-44.33353346838603,309.7527900362778,-153.92898872749723,-119.5877757988236,298.83154155880277,542.9641046080714
460,15.099643314538286,-279.39700035730715,-50.93677464353965,292.6301834848512,-143.7557546993554,-133.69576541042463,297.0324888023257,547.5349257092506
461,12.646447302251461,-276.18310973559556,-57.3491004731218,274.2840510427206,-133.2492351582748,-147.82235818957182,294.8982944634097,550.6452910668161
462,10.061705734857643,-272.7262426827038,-63.478591630873325,254.91242645251705,-122.71269408217343,-161.79691554622863,292.45187587518706,552.3303021003443
463,7.366907213445099,-269.0740156991559,-69.24112845982414,234.70743322558684,-112.46576121990572,-175.44085106821046,289.72576539704534,552.6391936633255
464,4.589779792460948,-265.28146258933685,-74.56235741873549,213.85296965952077,-102.83070329052751,-188.5715743140643,286.76124744406854,551.63230996438
465,1.764221846048207,-261.4093635080742,-79.37927129036918,192.52315777873503,-94.11765595316707,-201.00661760862909,283.60706091416785,549.3782174451662
466,-1.0700824368267488,-257.52227034371094,-83.64136309755118,170.88152164394958,-86.60956238774968,-212.56776099849185,280.317742009767,545.9511478322962
467,-3.8683681429464434,-253.68633706555505,-87.3113378768768,149.0808010007033,-80.54761466859014,-223.0849874225219,276.9517045733394,541.4289073533173
468,-6.581802708663721,-249.96707006326145,-90.36538694990813,127.26326569011498,-76.11799332527457,-232.40012929059586,273.5691656409571,535.8913186905644
469,-9.158776362922977,-246.42711043813662,-92.79304580455417,105.56137746082176,-73.44065188427227,-240.37010152464327,270.23002482677225,529.4191968151904
470,-11.546422205471815,-243.1241509309393,-94.59666966529382,84.09864607574539,-72.56079970101281,-246.86964862232728,266.9918003626944,522.0938100136519
471,-13.692303409555866,-240.10907727809294,-95.79057091874347,62.990540418832694,-73.44360172409202,-251.7935608227837,263.90771452873463,513.9967488416245
472,-15.5461939567471,-237.4244086911243,-96.3998703172923,42.34533682121625,-75.97244453633994,-255.0583359407202,261.02500823364034,505.21011863172276
473,-17.0618727628236,-235.10309538150244,-96.45911964681682,22.264811165052585,-79.95092388007144,-256.60328011568305,258.3835493439236,495.8169814049791
474,-18.198849281170446,-233.16771270502866,-96.01075733503764,2.844705401317544,-85.10850193446993,-256.3910551796245,256.01478232733433,485.90199342439877
475,-18.92394153907183,-231.63007170517162,-95.10346002898903,-15.825078033321644,-91.1095761162274,-254.40769493286356,253.9410481403225,475.5522060974965
476,-19.212634767437805,-230.49124508902983,-93.79045218051097,-33.660578061043,-97.5655089128417,-250.6621279321581,252.17528359280743,464.85801040003054
477,-19.050159862502245,-229.74198695997092,-92.12783211497445,-50.584173982817006,-104.04900390300253,-245.18525895912353,250.72108967673557,453.91419930255825
478,-18.432245153650566,-229.36350542921173,-90.17296720962531,-66.52525767137065,-110.11008906872581,-238.0286728004156,249.57313998956073,442.8210945497194
479,-17.365511316308787,-229.3285313198901,-87.98300312632169,-81.42112904250776,-115.29289429626415,-229.26303070886254,248.71788503759555,431.68563843048634
480,-15.867496497304812,-229.60261521080477,-85.61352309442506,-95.21804023793065,-119.1523907302278,-218.97623172768894,248.1344972629788,420.62230233390824
481,-13.966315565386548,-230.14557998303215,-83.11738372698585,-107.8722936057148,-121.2702952445391,-207.27140873845485,247.79599587805984,409.7536303032623
482,-11.699972897330165,-230.9130567004098,-80.54374450110043,-119.35128595827771,-121.26942854916135,-194.26482364578442,247.67048990062614,399.2102316027088
483,-9.115361637891532,-231.85803697032455,-77.93729941185964,-129.6343900180099,-118.82594121250472,-180.08371844730598,247.72248121047122,389.13006644739954
484,-6.266993531944097,-232.93238336851442,-75.33771176696223,-138.71357582063655,-113.67897612672198,-164.86417001296354,247.91417565257814,379.65692955794736
485,-3.215511957083029,-234.0882497360432,-72.7792467190747,-146.59370018250516,-105.63750486980823,-148.74898724674705,248.20675800421347,370.93811701828264
486,-0.026046598258394046,-235.27937418237107,-70.29059077636603,-153.2924276028537,-94.58424493711739,-131.88568067429003,248.56159510516665,363.1213497602066
487,3.2335285920616585,-236.46221853980475,-67.89484298030632,-158.83978441705474,-80.47672227838304,-114.42452657923144,248.9413398022353,356.35110785081645
488,6.494371769907026,-237.59693784132753,-65.60965870940723,-163.27738211013963,-63.3456790780635,-96.51674048950902,249.3109157755975,350.76459127781897
489,9.688423208875038,-238.64817140839253,-63.44752436251954,-166.65737010853417,-43.29113387383495,-78.31276819497505,249.63836926765705,346.48755672537936
490,12.750072252676194,-239.5856531556288,-61.41613960531255,-169.0411913540368,-20.476477410946966,-59.960696996762586,249.89557818680163,343.6302828761896
491,15.617690660534818,-240.38464307554113,-59.51888334267565,-170.49821649144783,4.87896604474817,-41.60478598500106,250.05881240343112,342.2838912896699
492,18.23498974638483,-241.02618514427002,-57.755339928449004,-171.10432648250514,32.5084631810383,-23.3841120746073,250.10914189099307,342.5172023935322
493,20.552168096464147,-241.49719964434462,-56.12186307527965,-170.94050093743567,62.107038649142744,-5.431328648410431,250.03269219564038,344.37424636752576
494,22.526826898842742,-241.7904204702293,-54.612156136543625,-170.09145286744388,93.3408688787062,12.128463482468112,249.82074975171713,347.8724880602203
495,24.124640207371126,-241.90419046446678,-53.21784869256738,-168.64433286471976,125.85653301328425,29.17872737548848,249.4697227288063,353.00177322987724
496,25.31977692374918,-241.84213012746793,-51.92905079020183,-166.6875097437312,159.28981044175913,45.6123707674075,248.9809661883771,359.7239651839968
497,26.095079451187235,-241.61269693344735,-50.734868079582704,-164.30942239972848,193.27378016022507,61.332477384032785,248.36048312321475,367.9732161731801
498,26.44201106288583,-241.22865381424288,-49.623863782354086,-161.59749011402846,227.44604378779314,76.25286719764219,247.61851539482177,377.65680418933346
499,26.36039059661415,-240.70646622803253,-48.58445703515551,-158.63706629032927,261.45495778947844,90.2984661621231,246.76904085375,388.65646089124414
500,25.857939284456812,-240.06564783027193,-47.60525149421937,-155.51042375751612,294.96481974001836,103.4054710822638,245.82919519319586,400.830118903525
501,24.949669743921454,-239.3280751120905,-46.67529266241267,-152.29576764082267,327.6600076832335,115.52130080430223,244.81863911610554,414.01401540869847
502,23.65715052102695,-238.51729110576437,-45.784256555101614,-149.06628246987543,359.2481198900313,126.60432941016492,243.7588925433246,428.02510161742777
503,22.007680658966105,-237.6578169649953,-44.922575547475695,-145.8892306761526,389.4622029809382,136.623401357161,242.67265727881883,442.6637214591376
504,20.03340762320971,-236.77448785623105,-44.081509380770505,-142.82512684364895,418.0621875790577,145.55713462482578,241.58314772920352,457.71653486337664
505,17.770418697418236,-235.8918264837325,-43.25317042506236,-139.92701401007258,444.8356706755115,153.3930276007936,240.51344636801736,472.95966909728486
506,15.257831028839453,-235.03346420490618,-42.430512531274424,-137.23986470133138,469.5981913160446,160.12639894023238,239.48589721082988,488.1620841894654
507,12.536899902541368,-234.22161657458432,-41.607292368564714,-134.80012152980305,492.193140459821,165.7592056333361,238.52154721875712,503.0891345184794
508,9.650160065332933,-233.47661773516424,-40.7780114143829,-132.6353824313133,512.4914280957902,170.29880000498235,237.63964284101124,517.5062981795991
509,6.6406118755829215,-232.81651660000196,-39.93784610310303,-130.76422680872815,530.3910043202854,173.75669707565586,236.8571871852561,531.1830301974742
510,3.5509624231350574,-232.25673724125397,-39.08257312966385,-129.19617368832823,545.8163007633209,176.1474257260816,236.188562549931,543.8966777590455
511,0.4229306654268721,-231.80980607936598,-38.20849640423783,-127.93176286359329,558.7176287716137,177.48752903930313,235.64522300001218,555.4363785445248
512,-2.703375606009165,-231.48514909769847,-37.31238150272668,-126.9627540517239,569.0705439294121,177.7947629784022,235.23546199472034,565.6068494321114
513,-5.790004844789418,-231.28896304255176,-36.39140250811723,-126.27244460576162,576.8751643505492,177.08752234510735,234.9642604483342,574.2319638271855
514,-8.801625091187189,-231.2241650276156,-35.44310471829233,-125.83611017544983,582.1554135454295,175.3845033268266,234.83322065127717,581.1580124048013
515,-11.705904714857004,-231.29042481570377,-34.46538481074443,-125.62157272566184,584.9581479797895,172.70459646800512,234.84059090046534,586.2565445654157
516,-14.473812582385976,-231.4842831840288,-33.456488084317606,-125.58989597174462,585.3521249322562,169.0669941655193,234.98138440597714,589.4266965747235
517,-17.079841623048406,-231.79935818478373,-32.41502082872461,-125.69620073293582,583.4267683095313,164.49149190336323,235.24759406630992,590.5969272847133
518,-19.502160300356003,-232.2266387259344,-31.339974846776617,-125.89058431648984,579.2906989069047,158.99896000977137,235.628501961631,589.7261032722193
519,-21.722695835918273,-232.7548617462175,-30.23076051076802,-126.11912143144188,573.0700102961636,152.611960627983,236.1110789222165,586.8039009881343
520,-23.727151885226547,-233.3709656481667,-29.087244337697637,-126.32492103430954,564.9062898284228,145.35548199080998,236.680465618035,581.850521847935
521,-25.504962582272956,-234.0606090275302,-27.909786866817086,-126.44921428119565,554.9544034460256,137.25775910827446,237.32052277749585,574.9157445187428
522,-27.049184978455138,-234.80874049239839,-26.699276568051232,-126.4324524044774,543.3800808159218,128.35114724137568,238.01443480241312,566.0773646890752
523,-28.356332819597306,-235.60020281367449,-25.457155650634775,-126.21539781636561,530.3573521706329,118.67301289479697,238.74534851283323,555.439094624229
524,-29.426155974539785,-236.42035294448533,-24.1854342246218,-125.7401947674574,516.0658993714056,108.26660717905446,239.49702719158756,543.1280117246191
525,-30.26137148932298,-237.2556784622057,-22.886690558035017,-124.9514060710391,500.68839085741445,97.18188844823372,240.2544994075023,529.2916566700513
526,-30.867354112917333,-238.0943904330786,-21.564057152137806,-123.79700002008622,484.4078732710801,85.47626498322815,241.00468197803377,514.0948875929358
527,-31.25179586292125,-238.92697251380233,-20.221194682138538,-122.22926828378274,467.40529154577905,73.2152337722498,241.73695672409707,497.7165973204336
528,-31.42434528988546,-239.74666660686896,-18.862258063455528,-120.20565316895036,449.8572040186869,60.47289713757528,242.4436815591588,480.3463962928516
529,-31.39623742649068,-240.54987687960684,-17.491860597914748,-117.68946241927335,431.93374986031677,47.33234355360984,243.12061817397333,462.181354599335
530,-31.17992523189181,-241.33647631357343,-16.115043028157004,-114.65045203942732,413.7969133597024,33.88588136878322,243.7672610094949,443.422883286072
531,-30.78872288766112,-242.11000275737217,-14.73725429680501,-111.06526217705989,395.5991143061694,20.235114254555793,244.38705497557865,424.2738187590232
532,-30.236470519631872,-242.87773440524066,-13.364350044733241,-106.91769731108923,377.4821371005445,6.490845886005645,244.98749218978244,404.93575615436765
533,-29.537228684534654,-243.65063765456003,-12.00261361650466,-102.19884930221552,359.57639471486095,-7.227200429365565,245.58008083381858,385.6066595405718
534,-28.705009328972142,-244.44318350245078,-10.65880265390501,-96.90706977087983,342.0005085190035,-20.790863039307393,246.1801821724822,366.47876013710066
535,-27.753548109463814,-245.27303212552386,-9.340222274276618,-91.04780621984494,324.8611722860065,-34.06424094900532,246.806714983334,347.7367393399866
536,-26.696121119637436,-246.16058900724707,-8.054823425034632,-84.63332346106542,308.25325895801933,-46.90462721095358,247.48173009327837,329.5561816626757
537,-25.545407238941362,-247.12843975439122,-6.811322363261325,-77.68233723043981,292.26012230537395,-59.16369178767737,248.2298612465965,312.10227382536533
538,-24.313395473110486,-248.2006744115616,-5.619334461011731,-70.21958960646025,276.95404260154635,-70.6889256673549,249.07766197866215,295.52872019676266
539,-23.011334815699115,-249.40211555222814,-4.489512982268477,-62.27539561662814,262.39676595431706,-81.32535294754678,250.0528414596606,279.9768417233973
540,-21.64972242573333,-250.75746760568742,-3.433681459757516,-53.885187135614665,248.6400909823575,-90.91751082809272,251.1834153268258,265.57482550239
541,-20.238324459751873,-252.2904076440691,-2.4649469619166404,-45.08907400577028,235.72646392640587,-99.31168898088282,252.49679023132543,252.43709524944026
542,-18.786222865855496,-254.02264009600356,-1.5977808579786548,-35.93143372148073,223.689553540315,-106.3584095732077,254.01880309489798,240.66377877875755
543,-17.301880891621334,-255.9729395414603,-0.8480536547193387,-26.460530864684713,212.5547893862466,-111.91511744761053,255.77273787364575,230.34025662472155
544,-15.793219955415838,-258.1562068944773,-0.2330111062525736,-16.728156925312664,202.33986039074938,-115.84903712103441,257.7783439773351,221.5367852761154
545,-14.267700878693345,-260.5825649177073,0.22881992733197584,-6.789271579607146,193.05518349365758,-118.04014030096342,260.05088140914575,214.30819825724794
546,-12.732403279091287,-263.2565191786618,0.5178054835800415,3.2983805563176603,184.7043636321776,-118.38415564506556,262.6002182138959,208.69369752234775
547,-11.19409807071251,-266.1762103761152,0.6134654469640008,13.474706846726715,177.28467487800575,-116.79554245398812,265.43000606289087,204.71675540168286
548,-9.659309257734462,-269.33278357113846,0.49482548487125416,23.677784829199073,170.78759730318714,-113.21034243810412,268.53695986880894,202.3851528873523
549,-8.13436228932132,-272.70989924358145,0.14086054465546596,33.844483078363574,165.19944456610418,-107.58881883558827,271.9102671831517,201.69118285158206
550,-6.625417042015099,-276.2834101087997,-0.46897342617860394,43.91119613576639,160.50211322145933,-99.91779003135883,275.5311526200731,202.6120465718283
551,-5.138483996854801,-280.02122611921635,-1.354127274312646,53.81469223821301,156.67397672521125,-90.21256554786136,279.3726215213513,205.1104686847354
552,-3.679422444461761,-283.8833879574101,-2.5322784729273398,63.493058368613646,153.69093573087858,-78.51839605538581,283.39940543878316,209.1355496337466
553,-2.2539197508009576,-287.822366498091,-4.018600476664415,72.88671261023411,151.52762244856712,-64.91135607374008,287.5681296482774,214.6238661378949
554,-0.8674511008912322,-291.7836019691122,-5.825004098075502,81.93944031074138,150.15874149690663,-49.49858847265457,291.82771961109415,221.50081955415118
555,0.4747801153855134,-295.706291636555,-7.959378462633271,90.59939944360691,149.5605137850433,-32.41785397128197,296.120058815319,229.68221975368922
556,1.7679200139411995,-299.5244286494474,-10.424864036307849,98.82003263767531,149.71217452216885,-13.836346907480953,300.38090461508887,239.07607899788206
557,3.0075574536213994,-303.16808724427256,-13.219194470042206,106.56081907409609,150.59746239913116,6.05123925786133,304.5410615265077,249.58457693336135
558,4.189828867409189,-306.5649409618501,-16.334146709740303,113.78779904585487,152.20602502436432,27.025387196330325,308.52780301276766,261.1061445242573
559,5.311529480595656,-309.64199100951566,-19.75513916208226,120.47380757013318,154.53465628973063,48.84513304268615,312.2665231942883,273.5376015087694
560,6.370224588800003,-312.32747147270663,-23.461015125711096,126.598361193611,157.58827485720727,71.25207575344419,315.6825892050241,286.7762688658276
561,7.3643533892845605,-314.5528866041046,-27.42404288548075,132.14715425813617,161.38054972540493,93.9749160804465,318.70335296762835,300.72196514709566
562,8.293316117531521,-316.25512260004433,-31.610154731096195,137.11113768274012,165.93407899849893,116.73439120069426,321.26026772811434,315.2787840390817
563,9.157532892356462,-317.37856228302854,-35.97943489831127,141.48517532682195,171.2800314371613,139.24844344672775,323.29103998008094,330.3565415062648
564,9.958460851613903,-317.8771174698807,-40.486851698412735,145.26630140771496,177.4571673160983,161.2374422653814,324.7417329110284,345.8717770913552
565,10.69855628758947,-317.7160834116278,-45.08321308453393,148.4516387051953,184.51016682439996,182.42927152261979,325.5687259991743,361.74819964770643
566,11.381170611254591,-316.8737156581705,-49.71630912092693,151.03608154702457,192.48721292500963,202.56410162803297,325.7404298771415,377.9164868765119
567,12.0103719283024,-315.34243412523404,-54.33219094043496,153.0098968314382,201.4368032021012,221.39868764531727,325.2386581660982,394.31338178603045
568,12.590687354181322,-313.12957262217543,-58.87652565457001,154.35644371439426,211.40380283531823,238.7100694064809,324.05956950976974,410.8800756157085
569,13.126766242159626,-310.2576138532861,-63.29596223030279,155.05024788021612,222.42479902312093,254.2985952848805,322.214113212513,427.5599220012765
570,13.62297310609982,-306.76387802299536,-67.53944581759235,155.05567766504325,234.52287626572223,267.9902425133038,319.7279393817527,444.29558663105945
571,14.082931283126383,-302.6996648773455,-71.5594270404786,154.32644636598582,247.70200101493032,279.63825499418493,316.64076677451976,461.0257955346469
572,14.509051562281298,-298.12888107339586,-75.31292598113268,152.8061038633068,261.9412793011872,289.1241550726691,313.00523501585576,477.68189837293636
573,14.902089971124434,-293.1262140879573,-78.76242447339047,150.4295878327176,277.18942365373476,296.35820397038196,308.88529851582024,494.1845047178844
574,15.260782702207997,-287.7749378971363,-81.87657202182285,147.1257973005713,293.35982403235056,301.27938869809384,304.3542440197948,510.4404741503699
575,15.581603196378506,-282.16445255617367,-84.63069912643591,142.82105037622293,310.3266492932368,303.85500774054645,299.49243040211934,526.3405388544007
576,15.858677772189141,-276.3876687650986,-87.00713737613064,137.44321115822552,327.92240160382437,304.07991996442826,294.3848575955492,541.7578093150636
577,16.0838835399795,-270.5383499354289,-88.99534919336897,130.92622653185902,345.9373016984951,301.975514770831,289.1186722343916,556.5473658901349
578,16.24713741452048,-264.7085195670047,-90.59187250444016,123.21480069634815,364.1207984164421,297.58845727199457,283.7807123396471,570.547080731812
579,16.336869608199134,-258.9860324717565,-91.8000878625088,114.26894571039894,382.1853763582806,290.9892585649997,278.455183968943,583.5797518005811
580,16.34066057204405,-253.4523956545579,-92.62981831759146,104.0681697065945,399.8126889491962,282.2707152498873,273.22155041198437,595.4565634117766
581,16.24600795058154,-248.18090919563917,-93.09677559785155,92.61509252814214,416.6618817541412,271.54625242411214,268.1526998843392,605.9818123550664
582,16.0411802249222,-243.23517998827685,-93.22186955969052,79.9383079484468,432.37980586081085,258.94819114053746,263.31344132791224,614.9587532131226
583,15.716106663403293,-238.66804250877257,-93.03040120897711,66.09434313699124,446.6126681124409,244.6259474044172,258.75936066892797,622.1963242866515
584,15.263249360321305,-234.52090173632496,-92.55116302691967,51.16860220160276,459.01853854408495,228.7441580912931,254.53605261143508,627.5164255707413
585,14.678402809271386,-230.82349452285015,-91.81547388032658,35.27522327341977,469.280048781063,211.48072139348392,250.67872642811204,630.7613457444193
586,13.961369608909342,-227.59404762037272,-90.8561791517561,18.55582747449641,477.1165784477563,193.02473604282275,247.21216862301662,631.8008900475686
587,13.116467253174811,-224.8397937758582,-89.70664945781968,1.177191082576688,482.295244570577,173.57432468141812,244.15103114822293,630.5387555475497
588,12.152830135225559,-222.55779273115476,-88.39981304218915,-16.67207397461041,484.6400795308616,153.33433234702423,241.50040174153298,626.9177379232264
589,11.084482439396046,-220.73599291399094,-86.96725721162176,-34.7856952498707,484.0388979428738,132.51390060590484,239.25660389312827,620.9234300057983
590,9.930170885365623,-219.35446329490438,-85.4384326048108,-52.9445905720185,480.4474993817857,111.3239300394258,237.4081688325393,612.5861767463916
591,8.712960479312187,-218.3867238767212,-83.8399904019481,-70.92218216143853,473.89101813360327,89.97445655727246,235.93692109994,601.9811714192709
592,7.459610489535901,-217.8011072575063,-82.19527679107736,-88.4899453115802,464.46239948093506,68.67197836993765,234.81912234970852,589.2267013613939
593,6.1997607032237765,-217.5620917348251,-80.52400129361192,-105.42296516215652,452.3181427679905,47.616779146252675,234.02662415296447,574.4806681642273
594,4.964968626863467,-217.63155736529228,-78.84208633578203,-121.50529521455682,437.67159576807774,27.000298741661236,233.5279887326258,557.9356096694246
595,3.7876458604403482,-217.9699290877038,-77.16169540446073,-136.53494448318074,420.7842065649307,7.002606496561714,233.28954585404014,539.8125342846862
596,2.699945930325669,-218.53718422736807,-75.49142705250132,-150.32835946126454,401.9552334353465,-12.209965869884385,233.27636359358686,520.3539374253802
597,1.7326564241447289,-219.293714166505,-73.83665277373241,-162.7243052356314,381.5104753599017,-30.486973894506377,233.45311952564842,499.81640020970997
598,0.9141458530237194,-220.20104057421526,-72.1999692514043,-173.58708183973994,359.790611673206,-47.69573473720232,233.78486628182924,478.46316767262385
599,0.2694110089138149,-221.2223945701679,-70.58173051527935,-182.80903522312005,337.13972748816036,-63.72286948518474,234.23769103648365,456.5570674946437
600,-0.18073576027243113,-222.32317227697652,-68.98062351208662,-190.31233827536846,313.89455434847144,-78.47545905736067,234.779272207544,434.3540664953966
601,-0.4203077555700765,-223.47128260957848,-67.39425128790704,-196.0500293996393,290.3748788880139,-91.8817644026475,235.37933876894644,412.0976820480376
602,-0.43859119742621444,-224.63740340624082,-65.81969085306075,-200.0063075169123,266.87547364864446,-103.89147047085648,236.01003848232864,390.01438192116854
603,-0.2303862610123982,-225.79516088202547,-64.25399736701935,-202.1960952346688,243.6597918032882,-114.47542658929049,236.6462216359114,368.31002938833495
604,0.20396029609732486,-226.9212456809396,-62.69463223204062,-202.6638968518297,220.95554987269858,-123.6248734110981,237.26564709317458,347.16736687626775
605,0.8587237980123071,-227.99547705360288,-61.139799675741386,-201.48199445300324,198.95220833683308,-131.35016836729375,237.84911788586064,326.7444829774843
606,1.7231561785291154,-229.00082497351045,-59.58868384002955,-198.74804282778726,177.80025735095293,-137.67904706329853,238.38055406870316,307.1741738898504
607,2.782003234896696,-229.923398164009,-58.04158554170061,-194.582141712036,157.61212937469355,-142.65448531967797,238.84701070869875,288.56408940500637
608,4.016154377418472,-230.75240399770777,-56.49996418868119,-189.12348114842243,138.4644951879272,-146.33225161843217,239.23864851102965,270.997542511377
609,5.403388975159806,-231.48008422017818,-54.966395587806346,-182.52667140353682,120.4016551087129,-148.77825826689275,239.5486637742541,254.5348573757049
610,6.919180188545605,-232.10162866246213,-53.44446041173769,-174.95788127533143,103.43971312774211,-150.06582919740578,239.77318331519274,239.21513097833372
611,8.537516912084254,-232.61506768988662,-51.93858068585973,-166.5909159862549,87.57121774821408,-150.27300304467957,239.91112886899893,225.05828853724137
612,10.231706797954267,-233.02114317213076,-50.453822683148545,-157.60336618365793,72.76996831867743,-149.4799833522375,239.96405439978207,212.06732192144824
613,11.97512756280096,-233.3231572840703,-48.99568420662425,-148.1729510133865,58.99571694685211,-147.76683477574676,239.9359589068266,200.23061267760792
614,13.74189933424643,-233.52679838863452,-47.56988269800632,-138.47416008379653,46.19853991115812,-145.21150585919762,239.8330767602137,189.52425558009708
615,15.507457459731542,-233.6399434660127,-46.18215824922281,-128.67527269737178,34.3227045558636,-141.88823629021917,239.6636473348988,179.9143132289274
616,17.24901277463218,-233.6724369259323,-44.838102640806795,-118.93580133071482,23.309913834457916,-137.86638119922685,239.43766569179587,171.35894610428713
617,18.945894213329808,-233.63584610667746,-43.54302211029872,-109.40437449069341,13.101867264946083,-133.20965974282197,239.1666161847687,163.8103751673543
618,20.57977598309765,-233.54319427543516,-42.30183776570054,-100.21704613682827,3.6421305733647196,-127.97581279201248,238.8631910178632,157.2166452838437
619,22.134797639330486,-233.40867253280248,-41.11902361175484,-91.49599792682899,-5.122646700288667,-122.21663685082636,238.5409959200192,151.52316699663888
620,23.597589980358862,-233.24733284913566,-39.99857841521426,-83.34858778298849,-13.242088700696735,-115.97834847885107,238.21424542157467,146.6740210802316
621,24.957222577848544,-233.07476566951846,-38.94402456378791,-75.86669302799552,-20.761922343643754,-109.30222439887739,237.89745091084822,142.61301491773838
622,26.20508997828158,-232.906767066041,-37.9584250184558,-69.12629692083536,-27.724159683427633,-102.22545598601643,237.60510572135377,139.28448289638033
623,27.334753392984318,-232.75900198244705,-37.04440844708333,-63.18727218448176,-34.1675121299259,-94.78215255981745,237.35137267318154,136.63382647655706
624,28.34175343159183,-232.6466712797876,-36.20419246909883,-58.09332297239292,-40.12792254330099,-87.00442614351303,237.1497803521182,134.6077954845996
625,29.223407447319495,-232.58419079908023,-35.439595494011684,-53.872057016418054,-45.639117204268786,-78.92349149447745,237.0129347126418,133.15452194082266
626,29.97860252719371,-232.584890612423,-34.75202888817537,-50.535171703495834,-50.73310148398402,-70.57071922720407,236.9522524486053,132.22333134101453
627,30.607592274818362,-232.6607423303611,-34.14246312762215,-48.07875023099555,-55.44054807721178,-61.978586353575196,236.97772228466383,131.76437233789758
628,31.111802654911934,-232.82212194295337,-33.6113640063405,-46.483674804810484,-59.79105251080194,-53.18147707485051,237.09770006740266,131.72812193999033
629,31.493649691744764,-233.07761517213842,-33.15859758311576,-45.716170934149254,-63.813255049660526,-44.216296755551134,237.31874323805133,132.06483718007425
630,31.75636997032838,-233.4338716200099,-32.7833051237318,-45.72849875517386,-67.53484915176725,-35.122873238397766,237.64548984613853,132.72403364498922
631,31.903863740116872,-233.8955130469604,-32.48375168640512,-46.45980363259985,-70.98251299066891,-25.94413142233226,238.0805866377534,133.65407503251322
632,31.94054996708785,-234.4650998134349,-32.257154165681165,-47.837129858399784,-74.18181167751709,-16.726038653953704,238.62466983310733,134.80195545466754
633,31.87123290535397,-235.14315773294626,-32.09949658330255,-49.77658986448754,-77.15712341649885,-7.517329438165725,239.27640087197182,136.11334739658824
634,31.700980586385647,-235.92826527189396,-32.00534219581004,-52.184669319792015,-79.93164270138513,1.6309720451883056,240.0325576077246,137.5329732075252
635,31.43501686610652,-236.8171983960425,-31.967653498201848,-54.95963799195564,-82.52750765736357,10.66620428427077,240.88817933214958,139.0053373133247
636,31.0786300173827,-237.80512775291143,-31.977632329933076,-57.99302877041636,-84.9660869527986,19.5348608033444,241.83676189255885,140.47583122901347
637,30.637101922230375,-238.88586055540216,-32.024592930431936,-61.17114333538798,-87.26844527975923,28.1834819533578,242.87049720560378,141.89219592350676
638,30.115662372943838,-240.0521175993141,-32.09588083744695,-64.37654259730083,-89.4559869752258,36.55960196555383,243.9805497227426,143.20629869192285
639,29.519472673101824,-241.2958343454709,-32.176849866931384,-67.48948299810795,-91.55125702560974,44.61270610788467,245.15736087322023,144.37615691963188
640,28.853641629429784,-242.60847397161766,-32.25090801406864,-70.38926584193426,-93.5788592941547,52.295154327005264,246.3909712547809,145.36812086559635
641,28.12327520825837,-243.98133982883888,-32.29964105538728,-72.95547580901571,-95.56643471569294,59.56303145392904,247.67134947114326,146.15911297517056
642,27.333558755481114,-245.40587494606692,-32.30302008873935,-75.06909634992144,-97.54562858197309,66.37688930186953,248.98871620040399,146.73881273873218
643,26.489868038125675,-246.87393721776738,-32.239696364010186,-76.61350298529688,-99.55296692821574,72.70235218241767,250.33385247581597,147.1116736648124
644,25.597902778054575,-248.37804064641387,-32.08738362438514,-77.47534934352362,-101.63055811734063,78.5105639943048,251.69838227892924,147.2986619177827
645,24.663834057497528,-249.9115552861755,-31.8233249752224,-77.5453734284041,-103.82653722503525,83.77846167661554,253.075021224374,147.33861363440354
646,23.694455169226977,-251.4688610406951,-31.424838307586093,-76.7191616364992,-106.19517769160875,88.48886613419103,254.4577850985469,147.2891190377416
647,22.697324297713596,-253.0454528757836,-30.869931663617564,-74.89791448218462,-108.79660682146923,92.63038759820222,255.8421540012197,147.2268558675965
648,21.680886913708072,-254.63799707378618,-30.137977464383386,-71.98926038111334,-111.69607897137014,96.19714792070288,257.2251895781732,147.24731249803298
649,20.654565988458113,-256.2443398055367,-29.210431982687627,-67.9081618237618,-114.96278228889399,99.18832769330128,258.60560423241543,147.46386248807391
650,19.628809164439712,-257.8634705232569,-28.071583863350963,-62.577951382334156,-118.66818053809915,101.60755109914771,259.983782269225,148.00617645716252
651,18.61508387748982,-259.49544340952656,-26.709313081663197,-55.93152317479184,-122.88391886651492,103.46212544521593,261.36175361687424,149.0179823892918
652,17.625813949691313,-261.1412602720454,-25.115839548616123,-47.91268954889852,-127.67934877557316,104.7621549954652,262.74312097857654,150.65420976987053
653,16.674254075193144,-262.8027179060458,-23.288438557808696,-38.47769444537092,-133.11875068751192,105.51955036493685,264.1329410276006,153.0775748821349
654,15.774301642708814,-264.48222225527434,-21.230098506270288,-27.59685569402001,-139.25835074212813,105.7469562254886,265.53755973202783,156.45468348674504
655,14.940248276607406,-266.1825709599631,-18.9500950425573,-15.256289523713457,-146.14324108080874,105.45662232215216,266.9644013577894,160.95174297439306
656,14.186476132429567,-267.9067053868026,-16.464455195956198,-1.4596528139303477,-153.8043198402251,104.65924632239422,268.4217104459377,166.72998918566992
657,13.527106199525846,-269.6574332533639,-13.796285222665912,13.770176750291835,-162.2553687713562,103.36282181847274,269.9182463481432,173.9409436570973
658,12.975607636987352,-271.43712361028525,-10.975936929549585,30.38957411816047,-171.490383532908,101.57153042194774,271.46293085960804,182.72162514041557
659,12.544378614089256,-273.24737721210766,-8.040989182965912,48.332892206950625,-181.48126529559522,99.28472259025277,273.06445110992377,193.1898448383516
660,12.244310343947417,-275.0886771211719,-5.036024340995111,67.51153867103466,-192.17597352979993,96.49603676539226,274.73082210975963,205.43971789967742
661,12.084346987529532,-276.96002663413964,-2.0121836826844772,87.81349909361546,-203.49722985363232,93.19270975080974,276.4689161070137,219.53752429944328
662,12.07105479930246,-278.85858407635885,0.9735083534426823,109.10339130393986,-215.3418523698901,89.35513225789416,278.28396895899675,235.51805017236973
663,12.208214236471377,-280.7793063287825,3.859054357955632,131.22311985571875,-227.58078928021544,84.95670168754154,280.1790767038796,253.38153569529277
664,12.49644872847602,-282.71461476224766,6.578624011755832,153.9931794504211,-240.0599094344164,79.96401927316276,282.1546979979705,273.09134732709725
665,12.932903362030213,-284.6540983644249,9.06391109404034,177.21463245803784,-252.60159510350826,74.33747077675538,284.20817984930466,294.57248012209976
666,13.51098590625529,-286.58426937134635,11.245685622023592,200.67175985510082,-265.0071677065463,68.03221916770877,286.33332522093735,317.71097942070634
667,14.220181554999808,-288.4883869230062,13.055509997509306,224.1353575804973,-277.0601596589217,60.99962424305106,288.5200218517099,342.35435010609194
668,15.045951740954054,-290.3463642997426,14.427578622617938,247.36662181807688,-288.5304245261244,53.189088043941034,290.7539521749501,368.3129957668916
669,15.969726521438362,-292.1347751242624,15.30063143943555,270.12153745844495,-299.179053255112,44.550306374120915,293.01640443821515,395.36269997928844
670,16.96899929245455,-293.8269734069821,15.619883823748072,292.15565484800896,-308.76403665133046,35.03588625235307,295.2842048852872,423.2481284023874
671,18.017531741515942,-295.39334131604807,15.338908769694026,313.2291121564431,-317.0465838332631,24.604267679961865,297.5297899841196,451.6872945880504
672,19.08567579658565,-296.8016769011297,14.421402815380212,333.1117356630874,-323.79797361437414,13.22286688791231,299.72143600748603,480.3768955570552
673,20.140817826807055,-298.01773155883456,12.842765098884843,351.5880294915445,-328.806781274829,0.8713384482874964,301.8236606916373,508.99838664709733
674,21.14794858540937,-299.005903684581,10.591419677372112,368.4618516193242,-331.8862877996343,-12.455163683510081,303.7978081447186,537.2246305174668
675,22.07036037130303,-299.73009050767183,7.669815094065099,383.56056646717485,-332.88184342059236,-26.742860169389896,305.6028234938106,564.7269244378687
676,22.870470436112456,-300.1546942189578,4.095042335774219,396.7384682740638,-331.6779236322818,-41.956499355884745,307.19621764537965,591.1821853053802
677,23.51076643909137,-300.2457708008348,-0.10097715217606039,407.8792858406016,-328.2045856717494,-58.036938697286026,308.53521462237705,616.2800554850766
678,23.954865395438613,-299.97230014452634,-4.871767913477922,416.8976093628933,-322.44300923008075,-74.89930332693774,309.5780638993453,639.729686390498
679,24.16867175885164,-299.30754393429476,-10.157058954120828,423.73912390030137,-314.4297900432997,-92.43186332893701,310.28548779286155,661.2659616679656
680,24.121612720980988,-298.2304436371097,-15.88402192499727,428.3795901162676,-304.2596528530512,-110.49575656528965,310.6222194574788,680.654938143513
681,23.787919273016072,-296.7269958156437,-21.96896439003271,430.82257960512067,-292.086265510259,-128.9256612700304,310.55857129539396,697.6983107803727
682,23.147910357665292,-294.79152805803545,-28.319429835638296,431.0960487522644,-278.1208735374676,-147.5314914279092,310.0719585186405,712.2367495845195
683,22.189225906326953,-292.4277891595929,-34.836632578326025,429.2479221938209,-262.6285386330707,-166.10114741362702,309.14829094135666,724.152014505628
684,20.90794495465896,-289.649764865082,-41.41813456295289,425.3409534738428,-245.92185773529462,-184.40430404650667,307.7831406688561,733.3678296839495
685,19.309519501376087,-286.4821374254538,-47.9606544479574,419.44722904697954,-228.35216025041703,-202.19715902679746,305.9825962351724,739.8495853495706
686,17.409454540939873,-282.9603236182077,-54.362889445940326,411.6427657632414,-210.29832499605237,-219.22799983765137,303.76372565719987,743.6030209793964
687,15.233670094148255,-279.1300502704528,-60.528229059482506,402.0026982293858,-192.15351690750458,-235.24338255850603,301.15459133076973,744.6721097758661
688,12.818491880140417,-275.04645609458333,-66.36724840777701,390.5975387042819,-174.3103045914103,-249.99466023636614,298.19378716034225,743.1363984672394
689,10.210232804622263,-270.77274043512335,-71.79988662814804,377.49090602118986,-157.14476805074236,-263.2445615757457,294.9295000502054,739.1080535337387
690,7.464346418709373,-266.37840981697184,-76.75723950743676,362.7389662708202,-141.00032499084563,-274.7735112381286,291.4181300659597,732.7288302877784
691,4.6441545352720235,-261.9371992549603,-81.18292035158956,346.39163177531634,-126.17208065566722,-284.3854036882234,287.722532457303,724.1671237462267
692,1.8191732885496514,-257.5247657013805,-85.03396566126345,328.49536604268445,-112.89253239172706,-291.91258804672003,283.9099679791593,713.6151883410151
693,-0.9369155534710364,-253.21626512298553,-88.28128148457463,309.09728022960695,-101.31943347444968,-297.21988120848954,280.04986466581414,701.286536623659
694,-3.548579201588852,-249.08393187431733,-90.90964312844974,288.25010380536526,-91.52654169276732,-300.20749025747546,276.21150400870397,687.4134588063415
695,-5.940945682837329,-245.1947785834598,-92.91727620283456,266.0175689380881,-83.49784952123056,-300.81278713593576,272.46174690922425,672.2445601679328
696,-8.042408401487345,-241.60852645361197,-94.31506097923781,242.47974989978889,-77.12571968120113,-299.0109371615113,268.8629095243905,656.0422008778014
697,-9.787208826681255,-238.37586028344234,-95.12541410740086,217.73792784310362,-72.21314090014259,-294.8144381841456,265.47088646921196,639.0797414924368
698,-11.117879497231682,-235.53708096222604,-95.38091071211554,191.91859544449878,-68.48008569120677,-288.27167730888675,262.3335998408383,621.6385382767297
699,-11.98743398955138,-233.12120255624015,-95.12271476148797,165.1762706975403,-65.57371085587916,-279.4646531814141,259.48982897546244,604.0046827511466
700,-12.361202585692473,-231.14551351199216,-94.39888592875869,137.69485591620148,-63.0819117517569,-268.5060384621362,256.9684500139382,586.4655256920298
701,-12.218230804224408,-229.61559422348554,-93.26262739163523,109.6873600263001,-60.54954448469409,-255.53576520112773,254.7880886489032,569.3060557901084
702,-11.552180561403274,-228.52575844241755,-91.77053233564891,81.39390065727191,-57.49648465378487,-240.7173053421969,252.9571660940902,552.8052122551176
703,-10.371698438329265,-227.85986569881314,-89.98087888022407,53.07801395228228,-53.43660830041475,-224.2337940469745,251.47429923039684,537.2322018595354
704,-8.700240829132037,-227.59243754978246,-87.95201509515779,25.02141616862455,-47.89676251395737,-206.28411192444764,250.32900241862308,522.8428726285638
705,-6.57537052085331,-227.6900028258131,-85.74086873033248,-2.482529330936816,-40.43483476004202,-187.0790105029861,249.50263125394616,509.8761776613615
706,-4.047562430376305,-228.11259579698248,-83.4016107529605,-29.136295540317516,-30.656122361511514,-166.83733867926418,248.96950717292557,498.5507501838781
707,-1.1785766522894978,-228.8153351226369,-80.98449754655788,-54.646221064708605,-18.22733599947157,-145.7824093774256,248.69816492518402,489.06160917215664
708,1.9605263114029419,-229.75001892307034,-78.53491275068681,-78.73065746328847,-2.887732455458078,-124.13853574882907,248.65267061367845,481.57702618772214
709,5.291640850861586,-230.86668071798394,-76.09262513339385,-101.12782299384905,15.542949503680076,-102.12776330586999,248.79396459076202,476.23560841464473
710,8.73204702677529,-232.11506111303586,-73.69127296038525,-121.6030009387294,37.15989250335639,-79.96682540152837,249.08118991853414,473.14368596877335
711,12.196918930730874,-233.44596027776856,-71.35807803741973,-139.9547933312112,61.97190958355993,-57.864351112869095,249.47297300872188,472.3731239481813
712,15.601814769946582,-234.81244598651998,-69.11378435069935,-156.0202223500896,89.90326834998842,-36.01835420839794,249.92862843942896,473.95969908107134
713,18.865059253156122,-236.1709007138135,-66.97280768049171,-169.6785491007867,120.79831013963927,-14.614028061861438,250.40926469396155,477.9021765961653
714,21.909938881333215,-237.48189828954605,-64.94357461682293,-180.85374477871324,154.42844578563137,6.178135793666833,250.87877140956164,484.1621907911125
715,24.66664344440792,-238.71090551537498,-63.02902296979914,-189.51560012425563,190.50104318452372,26.20389672765804,251.3046715446422,492.664976927939
716,27.073901405016812,-239.8288071355573,-61.22723117795197,-195.67949829232882,228.66968619836553,45.32648131438604,251.65882395504772,503.30093404216854
717,29.080272008937758,-240.81225439377536,-59.53214204376728,-199.4049086593935,268.5452775405629,63.42747234830468,251.9179638425712,515.9279325334488
718,30.645072295955313,-241.64383902523932,-57.93434577458862,-200.7926891459471,309.7074778812815,80.4073786974998,252.06407114910968,530.3742294380969
719,31.738932320066333,-242.3120967366175,-56.42188858482736,-199.9813148006027,351.7160165787732,96.18589410141699,252.0845608189877,546.4418251704465
720,32.343986384039646,-242.81134749050906,-54.98107567182812,-197.14218078086984,394.12147243015187,110.70185145465642,251.97229417030408,563.9100896586283
721,32.45372131734468,-243.1413842125605,-53.5972409177766,-192.47415681500536,436.47520070945234,123.91287715620575,251.72541712643007,582.5395002478878
722,32.072514092730195,-243.30702633536387,-52.25546002994219,-186.19759538952823,478.3381694622285,135.79474868817059,251.34703802690154,602.0753630121974
723,31.214899860757768,-243.31755910142536,-50.94118886207472,-178.54801521406344,519.2885569630367,146.3404586069412,250.8447642609676,622.2514268688824
724,29.90461754383819,-243.18608315968754,-49.640814032565046,-169.76969339289053,558.9280471671952,155.55899059609564,250.23012234183287,642.7933401693326
725,28.173483515997013,-242.92880147530914,-48.342108143815146,-160.1094025290718,596.8868355566594,163.47381910155957,249.51788993274235,663.4219370924384
726,26.060144834415805,-242.56427194088084,-47.034586453132,-149.81052050172707,632.8274197855811,170.12115367515526,248.72537069837554,683.8563719287316
727,23.608762265801168,-242.11265431682043,-45.70976562579403,-139.10771860883835,666.4472952639925,175.54796173758263,247.8716437107277,703.8171402165583
728,20.86767020301441,-241.59497910918284,-44.3613283380489,-128.22239708726426,697.4807044882623,179.8098173862118,246.9768184551744,723.0290355589026
729,17.88805576744325,-241.03246358589664,-42.9852001155252,-117.35898701486538,725.6996016047186,182.96863726447742,246.0613242200002,741.224090589643
730,14.722693414900327,-240.44589633756644,-41.579546980299405,-106.70217834336532,750.9139926562862,185.09037583082085,245.1452588814258,758.1445418288838
731,11.424764799778481,-239.8551067537469,-40.14470426103202,-96.41507179244552,772.9717999411423,186.24276035647938,244.24781701223222,773.5458430345867
732,8.046786873855547,-239.2785298144669,-38.68304812366635,-86.63819521082766,791.7583785294853,186.49314951935133,243.38681114522623,787.1997317090124
733,4.6396642873715574,-238.7328702131342,-37.19882178074145,-77.48927939831866,807.1957864441387,185.90659772044185,242.57829339999748,798.8973299270428
734,1.2518752730463032,-238.2328637702472,-35.69792796927239,-69.06365786588542,819.2418793300748,184.5441999695372,241.83627827098243,808.4522350950671
735,-2.0712062768304227,-237.79112912917523,-34.18769841085296,-61.43513991564124,827.8892681538647,182.46177962420867,241.172561977643,815.7035309229154
736,-5.287855491384949,-237.41809933842094,-32.67664978830219,-54.65720518183786,833.1641479130731,179.70896403842573,240.59662992010124,820.5186269350768
737,-8.360415549873665,-237.12202120694508,-31.1742343384319,-48.7643781605075,835.1249799246269,176.32867239264374,240.11564156380615,822.7958194261496
738,-11.255602122445167,-236.90901000514685,-29.69059143783016,-43.773660623305915,833.860992613203,172.35701740384604,239.7344812279391,822.4664601526895
739,-13.944706460695985,-236.7831476391293,-28.236304493606248,-39.68592492830617,829.4904572332331,167.8236004431157,239.45586323562782,819.4966222249442
740,-16.403711211467396,-236.74661324493928,-26.822165027589726,-36.487198490709375,822.1586956534812,162.7521599192273,239.28048009665508,813.8881651696803
741,-18.61333264273287,-236.7998359497208,-25.458943242465423,-34.14979579783778,812.0357857254936,157.16151720962108,239.20718257471745,805.6791210937818
742,-20.55900156459182,-236.9416605095775,-24.157162070539574,-32.633277357135384,799.3139433622271,151.06675381516663,239.23318087404218,794.9433485818633
743,-22.230793027342425,-237.16951791429076,-22.926870321129662,-31.885234565691764,784.2045770223643,144.48054790786844,239.35425708128776,781.7894281057465
744,-23.623312163042023,-237.47959481536162,-21.777410381420914,-31.841916532743163,766.9350286233929,137.41459746881034,239.56498042655303,766.3588010866221
745,-24.735540664015602,-237.86699759247074,-20.717176905652046,-32.42873020104026,747.7450345065986,129.8810597275166,239.8589186940627,748.8231837480404
746,-25.57064575941948,-238.32590887820007,-19.753364737221563,-33.560658748850244,726.882960382206,121.8939414811511,240.22884106094483,729.381315791137
747,-26.135751519756145,-238.84973625320018,-18.891706656134534,-35.14265447748477,704.6018840377826,113.47038138174541,240.66690960817348,708.2551314334544
748,-26.441671131110798,-239.4312543525611,-18.136204269042093,-37.07007005504153,681.1556172018094,104.63177335349788,241.16485848919766,685.685464695359
749,-26.50259853252345,-240.0627425702955,-17.488858321818658,-39.22919500684718,656.7947712113732,95.40469014800237,241.71416104479565,661.9274200005584
750,-26.335758458541047,-240.73612090063867,-16.949407654197454,-41.49796213404938,631.7629781437511,85.82157755461495,242.3061859800191,637.2455513871389
751,-25.96101530708184,-241.44308638826058,-16.515088597283427,-43.74688126617239,606.2933785660742,75.92120225493109,242.932344194722,611.9089976478014
752,-25.400443153474505,-242.17525234426913,-16.180428555676055,-45.840246252957975,580.6054786586428,65.748848699413,243.58422810293436,586.1867160952504
753,-24.67786149292092,-242.92429198626084,-15.937088594045786,-47.63764662626895,554.9024638939136,55.35627173527727,244.25374531993057,560.342945022069
754,-23.818343732625983,-243.6820875424306,-15.77376988524221,-48.99579923128414,529.3690354347832,44.80142138100979,244.93324847210008,534.6330059771653
755,-22.84770777361996,-244.440885256445,-15.676197839185956,-49.77069845724003,504.16981122000726,34.14796374394403,245.61566269084955,509.29953398181937
756,-21.79199989724317,-245.19345624081953,-15.627195773772952,-49.82006734673316,479.44830862464494,23.464627402728745,246.2946121595743,484.56919910567535
757,-20.676984411253226,-245.93326270720556,-15.60685728208636,-49.006076468579295,455.32650163511204,12.824407568540492,246.96454684388166,460.64995854183246
758,-19.527652066780863,-246.6546286296354,-15.592823009480691,-47.19828339484177,431.90492414788247,2.3036611537244767,247.62087013827076,437.7288560955765
759,-18.36776013194432,-247.35291330899375,-15.560663333802404,-44.27673288056206,409.2632729692709,-8.018875003105308,248.26006755850912,415.97036666452226
760,-17.219416182948603,-248.02468561175388,-15.484363602952222,-40.135145761114586,387.46144918173286,-18.0631122496321,248.87983582149292,395.5152667638845
761,-16.10271609945693,-248.66789585046553,-15.336903641747465,-34.68411228872213,366.5409641358423,-27.74865583466477,249.47921070056947,376.47999786872725
762,-15.035444450147883,-249.28204132736658,-15.0909188818393,-27.85419313492677,346.5266261925634,-36.99584106857883,250.0586909177937,358.9564771015752
763,-14.032842657925924,-249.86832044578577,-14.719427102045534,-19.59882041576271,327.4284171949851,-45.726734792794,250.6203540294266,343.0123004047861
764,-13.107447444872733,-250.4297689955735,-14.196602273461272,-9.896884965554632,309.24346481802866,-53.866080384374676,251.1679587836972,328.69127831241116
765,-12.268999455170949,-250.9713708062272,-13.498575031294875,1.2451027759813293,291.95801937613334,-61.342169516524116,251.70702685758826,316.0142448608979
766,-11.524419850365728,-251.500133624547,-12.60423768917459,13.791382033793598,275.54935134610133,-68.08762989510716,252.24489540806368,304.980085917427
767,-10.877851093610795,-252.0251200534669,-11.496030580352727,27.675929793093125,259.9874980473776,-74.040124105439,252.79073074793322,295.5669430656336
768,-10.330757027544937,-252.55742289248494,-10.160686035194146,42.8021372761091,245.23680367893274,-79.14295961328108,253.355492886408,287.73356157710987
769,-9.88207665331955,-253.1100744194379,-8.589906619731188,59.04322317176574,231.25721535606468,-83.34561339047451,253.9518408303231,281.4207643849941
770,-9.528425681110145,-253.69788017005217,-6.780955437065311,76.24341004388029,218.00531797308457,-86.60417651085811,254.59396954166215,276.553046938575
771,-9.264339810649686,-254.3371696181959,-4.73713834768424,94.21986829318014,205.43511133741367,-88.88172471658996,255.29737129234834,273.0402988336488
