time,ax,ay,az,gx,gy,gz,accmagnitude,gccmagnitude
0,-9.64223060829952,-263.6933735601065,30.07880572483753,21.450595567374016,63.01933490656197,-5.446332176853848,265.5505480508078,59.15673454648474
1,-9.685655104464562,-263.5862981659414,29.19675489072905,17.620393585949788,62.15080881250515,-4.675703452887707,265.360942174265,59.42020066677157
2,-9.706799282369149,-263.5026823678167,28.33009966846192,13.604599560813533,61.157901312159375,-3.862594557187823,265.1959337454428,59.78906811037831
3,-9.699352330077357,-263.44344694947483,27.487584987341506,9.38386525447214,60.043434921734494,-3.01599758887983,265.05717330008406,60.289105096463615
4,-9.657199954430618,-263.4091082413806,26.677500371674768,4.941494732111968,58.81417672551387,-2.1462384968146484,264.9458760549602,60.946412731008905
5,-9.574577947052134,-263.3997587545562,25.9075147276046,0.26441785486399405,57.48118418288019,-1.2649235020867236,264.86278985009443,61.78688959764138
6,-9.446221597550265,-263.41504674797807,25.18453000100217,-4.655927600409702,56.06007039957358,-0.3848644602716067,264.80816343548884,62.83566777859973
7,-9.26750646350507,-263.4541553197273,24.51455761889783,-9.822840911083285,54.571172879728095,0.48001828294902626,264.7817159449758,64.11653265572187
8,-9.034576043721062,-263.515782901331,23.902621013697555,-15.23375975023478,53.03961088899321,1.314817122450759,264.78260962591816,65.65134047773672
9,-8.744452261185229,-263.598128186328,23.352686924089245,-20.879839558357514,51.495218098524056,2.103784106849755,264.80942899578156,67.45944877055054
10,-8.395125338625594,-263.69888331110457,22.867627383918986,-26.745724444707957,49.97233926457243,2.830505044339467,264.86017033379323,69.55717508560447
11,-7.9856205861443526,-263.8152394210573,22.449213254266525,-32.80951519378331,48.50948235847262,3.478102166918139,264.9322456718213,71.95729922493715
12,-7.51604066499106,-263.9439085957405,22.09813881035728,-39.04293301481808,47.148820692088734,4.029466568911662,265.0225052131561,74.66862290622733
13,-6.987582888708375,-264.0811654519837,21.814075386576754,-45.411672145439994,45.935543034353834,4.467521475865005,265.12728136208915,77.69559890622136
14,-6.402532013593331,-264.2229105784368,21.595750622641038,-51.87593008746182,44.917053450707854,4.775517063797678,265.2424562888729,81.03803920850133
15,-5.764229787246751,-264.364756361227,21.441048570289713,-58.39110033450915,44.14202677315472,4.937356721970654,265.36355327735976,84.69090877116555
16,-5.077023334788168,-264.5021339326236,21.347124830397398,-64.9086082752941,43.65933037602993,4.937953101583472,265.485850204731,88.64420841213158
17,-4.346195257962567,-264.63041814373156,21.310530093888353,-71.37686664758162,43.51682814968091,4.763610079913032,265.60451162570536,92.88294720557516
18,-3.577878910364647,-264.74506580331433,21.327335286554206,-77.74232322951534,43.76008788348647,4.402424171217953,265.7147342796388,97.3872019679154
19,-2.7789624206122725,-264.841761052715,21.3932523238636,-83.95057084762887,44.43101854914152,3.8446961797689205,265.8118995492007,102.13225911391554
20,-1.9569845648394364,-264.9165607809573,21.503746195868764,-89.9474879854541,45.56646930532579,3.0833411666409183,265.89172558226716,107.08883239598161
21,-1.120024690409612,-264.96603254413515,21.654136134790573,-95.68037690178306,47.19682728078718,2.1142822851839855,265.95041151010537,112.22334864421998
22,-0.27658784599781555,-264.98737757069006,21.839685314434256,-101.09906532157743,49.34465577104309,0.9368120413363953,265.98476643111235,117.49829250884267
23,0.5645146004646839,-264.9785320186105,22.055679582880895,-106.15693782083314,52.02341777409362,-0.4460966343223925,265.9923164686342,122.87260040397811
24,1.3942889854290736,-264.93824058049796,22.29749618152235,-110.81186417741534,55.23633135079116,-2.027547247594241,265.97138414221195,128.30209339732303
25,2.2036879679148496,-264.86609778034597,22.560663470534198,-115.02699429858137,58.9754027627057,-3.796561227555016,265.9211355084164,133.73993875437296
26,2.9837430673330374,-264.7625539527423,22.84091257525617,-118.77139315629816,63.22068036981583,-5.738018358858664,265.8415921296582,139.13713048887016
27,3.7256996930061144,-264.6288849874345,23.13422168414249,-122.02049483185051,67.93976676895042,-7.832706749777128,265.7336069704272,144.44298094966632
28,4.421152668223509,-264.46712731972366,23.436853470416857,-124.75636228988648,73.08761905596906,-10.05748809459163,265.5988056599974,149.60561828053986
29,5.062179984300193,-264.2799820334237,23.745385760839028,-126.96774823470923,78.60665828971706,-12.38557866268685,265.43949688186666,154.57248807193466
30,5.641472487549997,-264.0706939513999,24.056735104511137,-128.64996139878232,84.42720004155737,-14.786941404346061,265.25855758616694,159.29086087894083
31,6.152457269908891,-263.84291295185693,24.368172300338802,-129.80455137921595,90.46820856025184,-17.228780394684158,265.05930000698436,163.70835000114596
32,6.58941259290584,-263.6005454283575,24.677328373059847,-130.4388339855064,96.63836737298865,-19.676125659576492,264.84532807752277,167.77344621301754
33,6.947572196485527,-263.34760394836735,24.982189244048264,-130.5652883922544,102.8374492149078,-22.092493948493008,264.6203909399859,171.43607846976545
34,7.223216891564573,-263.0880628525141,25.281077680778758,-130.2008666003491,108.95795889952021,-24.44060892228612,264.38824096380404,174.64821186789766
35,7.413751495389343,-262.8257267580304,25.57262205275277,-129.36626302203408,114.88701519596648,-26.68316247710181,264.1525030054967,177.3644953292996
36,7.517765475182565,-262.5641177287513,25.855712741481838,-128.08519540419348,120.5084324050221,-28.783597718517964,263.9165605897761,179.54297031945262
37,7.53507608422494,-262.3063854164593,26.129448382793644,-126.38374660209739,125.70495861696683,-30.70689357572508,263.6834633924989,181.14584754412982
38,7.466753234527199,-262.0552429184658,26.393075152839234,-124.2898099078785,130.36062462162374,-32.42033115912866,263.45585898089763,182.14035091110264
39,7.3151257640109835,-261.81292950442304,26.64592293407239,-121.83266955518037,134.3631544423245,-33.89422256431744,263.2359502700822,182.4996177579741
40,7.0837690439114045,-261.58119979285163,26.887342465823124,-119.04273385253224,137.60638547982794,-35.10258380197445,263.0254786405671,182.2036326430366
41,6.777474027871901,-261.36133748293,27.116647596511516,-115.95142251801292,139.9926438009983,-36.023734879298814,262.8257312172734,181.2401603778531
42,6.402197958593489,-261.15419042923253,27.33306660607949,-112.59119379528656,141.43501880928596,-36.64081181205533,262.6375695068979,179.60563397470924
43,5.9649971018919326,-260.960222700838,27.53570626926896,-108.99568258749743,141.85948180281878,-36.94217749773574,262.4614754441772,177.305946095381
44,5.473942049678603,-260.779578351039,27.723531762153836,-105.19990981391301,141.20679493520834,-36.921720810105164,262.2976099531883,174.3570893724467
45,4.9380162680883375,-260.61215110618826,27.895364572988626,-101.24051665928742,139.4341608920499,-36.5790357676972,262.14587854004037,170.78559216870465
46,4.366998666760899,-260.4576541986826,28.049899335101255,-97.15597574734849,136.51656916688492,-35.91947498861094,262.0059983407084,166.62870200598354
47,3.7713310619264884,-260.31568507952596,28.185739133157814,-92.98673414913449,132.44780201959287,-34.95407386009365,261.87756143083516,161.93427859847102
48,3.1619715561979858,-260.1857806320789,28.301447519561577,-88.77524971112149,127.24107167537566,-33.69934413130853,261.76008996435286,156.76037134875713
49,2.550235191777771,-260.0674597346645,28.39561437122198,-84.56589155849746,120.92926956616523,-32.176938234593806,261.6530798285478,151.17447130583392
50,1.9476238494893718,-259.96025158378393,28.466931895641025,-80.40468695590442,113.56481792405894,-30.413188633424955,261.55603099373866,145.25244391764426
51,1.3656481358539618,-259.8637099928927,28.514276473543916,-76.33890913953488,105.21912344730866,-28.438529720678094,261.46846448577173,139.0771654447693
52,0.8156446305829301,-259.77741568544445,28.536791464985225,-72.41651333795743,95.98164192379573,-26.28681294951999,261.38992765971585,132.73690171768607
53,0.3085921844944797,-259.70097006378745,28.53396563714746,-68.68543998542344,85.95857164563088,-23.994528711293402,261.3199908629654,126.32348220707291
54,-0.14506898010927177,-259.6339847692378,28.505701716878313,-65.19281411505074,75.27120223695037,-21.599950869357745,261.2582393851306,119.93033438255313
55,-0.5356116833883131,-259.57607150506084,28.452369932608516,-61.98407722502406,64.05395402240129,-19.142221825474127,261.2042647795986,113.65045227399162
56,-0.8541861901393599,-259.52683623857365,28.3748422831614,-59.10209196227038,52.45215090065201,-16.660397556094907,261.15765937430194,107.57437821935342
57,-1.0929713575883913,-259.48588121434796,28.274504471686534,-56.58626061517528,40.61957632017112,-14.19247316646094,261.11801723004834,101.78827730553665
58,-1.2453097423808113,-259.45281729406446,28.15324378517439,-54.471695872636076,28.715866907665013,-11.77441008972482,261.0849440295879,96.37217956552904
59,-1.3058244929594598,-259.4272880439376,28.013412585548707,-52.78847707973706,16.903801291643543,-9.439186071361426,261.058077432302,91.3984555237413
60,-1.2705165241737284,-259.409005786643,27.857768423386872,-51.56101801920416,5.346542614075839,-7.215888598667393,261.03711836595977,86.9305765744693
61,-1.1368410762116488,-259.39779858739297,27.689392939331885,-50.80756396503327,-5.795107796477686,-5.128871639227661,261.0218725942847,83.02219390526432
62,-0.9037632259090062,-259.3936658899732,27.51159254764341,-50.53982730514211,-16.365390916038436,-3.19699465278438,261.01230071539356,79.71654983138004
63,-0.571792260113904,-259.3968393112362,27.327784422656617,-50.762763180440956,-26.216154288732405,-1.4329619642432925,261.0085735656059,77.04621552536737
64,-0.14299513398012698,-259.40784404053727,27.141371664596736,-51.47447987248669,-35.20925506313861,0.15722031616586576,261.011128940216,75.03313124050963
65,0.3790103798536908,-259.42755545505406,26.955611783071404,-52.66627344017568,-43.218762919076184,1.5746537436441552,261.0207246889306,73.6889108095911
66,0.9890817789436889,-259.4572449869006,26.77348278459251,-54.32277262323146,-50.132930507721866,2.8278087338982094,261.038482631551,73.0153623583838
67,1.6805955972196458,-259.4986090164974,26.597551185463,-56.422178467482134,-55.85590566180997,3.932624703523614,261.065917422271,73.0051720863614
68,2.4455068863760845,-259.5537747261007,26.429846281179497,-58.93658342758668,-60.30916621032364,4.912438523694974,261.1049445855414,73.64269740119853
69,3.2744222660428313,-259.62527755824175,26.27174504688262,-61.83235651341057,-63.432664606637246,5.79773319596835,261.1578625910736,74.90481902104337
70,4.156684543611288,-259.7160062866674,26.123872033751017,-65.07058383189421,-65.1856756023907,6.6257016518522365,261.22730512449857,76.76180802234259
71,5.080467315405497,-259.8291136896786,25.9860184024842,-68.6075571324029,-65.54734573831578,7.439624021369398,261.31616159713985,79.17817232528436
72,6.032878415237203,-259.96789318994047,25.85708370304085,-72.39530633579285,-64.51694839440432,8.288060498528468,261.42746618864186,82.11345698636362
73,7.000071431406935,-260.1356242916836,25.735043205995833,-76.38217525630897,-62.11385249737371,9.223865923185288,261.56425803733333,85.52298319420746
74,7.967364828728405,-260.33539198939786,25.616942661840046,-80.51344252474493,-58.377216675930384,10.303036328747607,261.72941738780264,89.35852131379717
75,8.919368593611049,-260.5698873874305,25.498921483455273,-84.73199176371011,-53.365423636843495,11.583401951869012,261.9254844404587,93.56890295864774
76,9.840118738072162,-260.84119839313126,25.376264613866766,-88.97903609192682,-47.15527179002502,13.123185535842442,262.15446917146556,98.10058524698873
77,10.713220334174533,-261.15060037814993,25.243482736295203,-93.19490192913368,-39.84094269393164,14.97944911737603,262.4176613523589,102.89818663645458
78,11.521999921600313,-261.4983570753298,25.094419925868788,-97.3198758152613,-31.53276372437752,17.206456760606027,262.715450321455,107.90501767032472
79,12.24966811588763,-261.88354176045107,24.922387301493238,-101.29511554424688,-22.35578546782394,19.853984756283065,263.04716381014947,113.06363132140368
80,12.879493072873137,-262.3038881425276,24.720320721706965,-105.06362338674013,-12.448192774085747,22.96561448924296,263.4109344935492,118.31641627322254
81,13.394985211562373,-262.7556795072636,24.480960036832926,-108.57127470921442,-1.9595674683567899,26.57704635474663,263.8036020698266,123.60625262034193
82,13.78009332112249,-263.23368354990174,24.197046817665594,-111.76789020908907,8.95098009772591,30.714475658120257,264.2206575976718,128.87724356980573
83,14.019411848151234,-263.7311389691864,23.861536893026376,-114.60833470155332,20.116793716376023,35.39307326804334,264.65623551230993,134.07552940170675
84,14.098398668880114,-264.23979828730955,23.467823543012518,-117.05362040720907,31.365750694174615,40.61561483263456,265.10315721439935,139.1501818675134
85,14.003601918266398,-264.7500295605668,23.009966809512502,-119.07198848138198,42.52241905690353,46.371302539219876,265.5530284266385,144.054169022277
86,13.72289356264296,-265.2509777325049,22.48292403042889,-120.63993941882059,53.410271895777306,52.63482263290831,265.9963907154517,148.74537272902717
87,13.245706582713204,-265.7307844591949,21.882776340910638,-121.74318105072018,63.853936172365735,59.36568012138617,266.4229257855606,153.18763407731362
88,12.563271975998964,-266.1768633424362,21.20694549863324,-122.37746205585643,73.68145135234292,66.50784917946294,266.8217094096454,157.35179591533495
89,11.66885115423532,-266.5762255644911,20.454394936902386,-122.54925911955898,82.72651142184608,73.98977361530112,267.1815100625355,161.2167067362082
90,10.557958545923261,-266.9158488605994,19.625808425304534,-122.27628698284643,90.83066221137639,81.72474627798793,267.49112540963654,164.77014638688894
91,9.22856839507149,-267.18308068956605,18.72373926757972,-121.58780256512301,97.84542459301453,89.61168941031724,267.73974785679025,168.00963159148455
92,7.681299178798206,-267.36606458854527,17.752722786082746,-120.5246771870588,103.63431318517557,97.53634963960722,267.91734864434665,170.9430583039792
93,5.919569060510119,-267.45417716700786,16.71934498049868,-119.13921492842627,108.07472000915166,105.3729115558257,268.015068611862,173.5891388279787
94,3.949716435416168,-267.4384619805741,15.632260667104186,-117.49470069367132,111.0596335485833,112.98602276041352,268.0256027370852,175.97759499325218
95,1.7810807113759943,-267.3120455945456,14.50215518375307,-115.66466886933357,112.49916625066658,120.23321112006367,267.94356481884694,178.14907483788167
96,-0.573960329079955,-267.0705205926822,13.341645042595665,-113.73189251709269,112.32186772092146,126.9676620530051,267.7658183113019,180.15476916267716
97,-3.0999992026593186,-266.7122802162818,12.165114782425414,-111.78710356679123,110.47580629729889,133.04131039221068,267.49175942203,182.05571547409093
98,-5.778655320028671,-266.2387897555598,10.988489648121005,-109.92746582195115,106.92940756896424,138.3081881725567,267.1235391700443,183.9217892415242
99,-8.588680896867995,-265.65478081667266,9.828946460975349,-108.25483357258825,101.67204379402948,142.62795715687326,266.66621220628883,185.83039469631126
100,-11.506117128703053,-264.96835629442234,8.70456792637486,-106.87383759317153,94.71437229450775,145.86954371956566,266.1278019548431,187.86487815469036
101,-14.504501042084573,-264.19099633850243,7.633948458130519,-105.88984590299157,86.0884234552895,147.91478452696606,265.51927407262497,190.1126951871472
102,-17.555122853720906,-263.3374586565379,6.635762276834329,-105.4068484389835,75.84744011972833,148.66198490321764,264.8544131945341,192.66336898158272
103,-20.627333096667538,-262.42556994619275,5.7283069266245095,-105.52531325298283,64.06547039253994,148.02928829393434,264.14960122714507,195.60628172147653
104,-23.688898141130622,-261.4759089828868,4.9290371443475225,-106.34005795196357,50.83671551948626,145.95775499567003,263.4234989632367,199.02834446720905
105,-26.7064019332938,-260.51138583035157,4.254104852904587,-107.93817490153559,36.27463392429813,142.41405118382943,262.69663642818114,203.0115942938191
106,-29.64569079164337,-259.5567256187066,3.7179208078547044,-110.39704338831471,20.51080207059869,137.39265503494454,261.99092098015757,207.63077058057596
107,-32.47235707177518,-258.6378691388172,3.332752294442879,-113.78245768158529,3.693533206302734,130.91749530617778,261.3290755899593,212.95092570143285
108,-35.15225660103132,-257.78130600742696,3.1083696141502566,-118.1468974638725,-14.013743133673282,123.04294911261002,260.7340228312911,219.02512906433748
109,-37.65205404426369,-257.0133592800732,3.0517522815499167,-123.52796627812036,-32.434334452534,113.85413976481364,260.228232854067,225.89232706381173
110,-39.939789684232494,-256.3594429649738,3.166864154863717,-129.9470237016329,-51.380359997649656,103.46649216403537,259.83305582853393,233.57542411364435
111,-41.985460281149315,-255.84331573353887,3.4545052530885387,-137.40803706068255,-70.65502950715202,92.02452207978938,259.5680608344285,242.07965051988984
112,-43.76160554399104,-255.48635510547575,3.912246623982786,-145.8966780856382,-90.05510264251626,79.6998563139659,259.45040378461937,251.39128084647248
113,-45.243890259865346,-255.3068763975655,4.5344529788294725,-155.3796887492445,-109.37350016846314,66.68850285803217,259.494246604026,261.4767612826175
114,-46.41167036754078,-255.3195197242139,5.3123955717824956,-165.80453862396735,-128.40203304619868,53.207413056657096,259.7102485026482,272.28229624915235
115,-47.24852939994206,-255.5347265048822,6.234454901121425,-177.09939349686329,-146.93421145467448,39.49040069117708,260.1051479857642,283.7339331413569
116,-47.74277001435723,-255.95832452757656,7.286409472477667,-189.17341176397974,-164.76809234553642,25.783504875398435,260.68145152268943,295.73816997859285
117,-47.88784404661064,-256.5912376630033,8.451803376597812,-201.91738145620712,-181.70912152251984,12.339903792155487,261.43724160716965,308.1830944616629
118,-47.68270387028572,-257.4293326425054,9.712381958184352,-215.20470685851836,-197.57292455914808,-0.5854962692551081,262.3661131426028,320.940045537921
119,-47.132057968065446,-258.4634108269356,11.048581536113495,-228.89274963221408,-212.18800030176564,-12.741658130009682,263.4572426255574,333.8657711431844
120,-46.246514649207064,-259.6793477546435,12.440056266351528,-242.82452482340153,-225.39827132454448,-23.88704880448008,264.6955896550332,346.80503920151006
121,-45.042599832466756,-261.0583777586834,13.86622316073422,-256.83074653981214,-237.06544741637583,-33.795158633775,266.0622251673382,359.5936437428298
122,-43.542637744474334,-262.5775154243626,15.306805205224366,-270.73221079133504,-247.07116072522155,-42.25975015782292,267.53477582416946,372.06173439999
123,-41.774487187434666,-264.21010044963276,16.742352514544134,-284.3424937186018,-255.3188341672371,-49.0996871641546,269.0879694819607,384.0373857318516
124,-39.771130585275415,-265.92644784725525,18.1547225013408,-297.47093237395285,-261.7352477152781,-54.16320444088727,270.69426289404146,395.3503130153947
125,-37.57011815769557,-267.69458155300083,19.527502094967954,-309.92584294484203,-266.2717700199195,-57.331493891747556,272.32452987351525,405.83563368755995
126,-35.21287506794941,-269.4810264770711,20.84635802644256,-321.517918527171,-268.90522566215327,-58.52150212868146,273.9487861211436,415.3375688550526
127,-32.74388493994591,-271.25163206064906,22.099304928429913,-332.06373605647644,-269.638371689626,-57.687857551399105,275.5369259283848,423.7129776233522
128,-30.20976841520673,-272.97239981472933,23.27688526069166,-341.3892907415084,-268.4999616299034,-54.8238705295157,277.05944625739824,430.8346189480447
129,-27.658280156381124,-274.6102883068434,24.37225959385037,-349.3334672489513,-265.5443815712434,-49.96157814063123,278.4881353957309,436.5940417562123
130,-25.137251753028586,-276.13397139260644,25.381210174897145,-355.75135055504643,-260.8508514710309,-43.17083444638542,279.7967062141505,440.90401419329606
131,-22.69351121193875,-277.51452868630815,26.302064441781773,-360.5172761900613,-254.522195279201,-34.557477562169446,280.96135751392706,443.7004163587057
132,-20.37181179364436,-278.7260509534853,27.135547858143507,-363.52752025422194,-246.68319484137655,-24.260634397874355,281.96125063035595,444.9435369834341
133,-18.213803449538368,-279.74614709393666,27.88457707830395,-364.70253533366105,-237.478553655181,-12.449251338909487,282.77889216621287,444.6187327336771
134,-16.2570788839189,-280.5563434799738,28.554005257371116,-363.9886506092483,-227.0705061847019,0.6820370943242953,283.40041733003795,442.7364291283196
135,-14.53432360488052,-281.14237035377977,29.150331481487243,-361.3591734777839,-215.63611580052907,14.91757039403579,283.81577167244467,439.33146427586246
136,-13.072595561862427,-281.49433357290275,29.681385930779076,-356.814854808172,-203.36430953056612,30.025709778879715,284.01879193631316,434.46180006673643
137,-11.892755234393725,-281.60677329481473,30.156001732240945,-350.38370805803663,-190.45270148967717,45.76411769203705,284.00718939472483,428.2066487655503
138,-11.009061527067768,-281.47861443776947,30.583683817688524,-342.1202008109774,-177.10426012168713,61.885112467058526,283.7824417142478,420.664084415212
139,-10.428942914670905,-281.1130169816327,30.974284584007535,-332.1038630491417,-163.5238778280777,78.14094440153326,283.34960210450237,411.9482263739725
140,-10.152947353947267,-280.51713709014456,31.337695530240094,-320.43737765161154,-149.91490511380795,94.28884764550882,282.71703699059543,402.18609535933297
141,-10.174868794502876,-279.7018122642883,31.683562951036837,-307.2442343221252,-136.4757144742251,110.0957351779843,281.89610525277124,391.5142500690735
142,-10.482042819075541,-278.6811851065827,32.02103406460308,-292.66603860993695,-123.396361032179,125.34242113094255,280.9007930254968,380.0753152192127
143,-11.055799078796236,-277.47228091000517,32.35853790524079,-276.8595736765,-110.85540656160127,139.82727536446544,279.7473182690635,368.0145107092735
144,-11.872053807561647,-276.0945544066474,32.70360335752997,-259.99371448467184,-99.0169704444984,153.36923897919985,278.45371907370617,355.47628752993694
145,-12.902021901861145,-274.5694207206794,33.06271517876713,-242.246291824263,-88.02806529760781,165.81015544475636,277.03943905339645,342.60116921010354
146,-14.113024973030976,-272.9197847968455,33.4412078623055,-223.80099609552911,-78.0162670525053,177.01639868931701,275.5249221727015,329.52288759884146
147,-15.469369525582174,-271.1695821570072,33.8431966386265,-204.84439742854923,-69.08776006162874,186.8798050467453,273.93122775621447,316.36588814885084
148,-16.933268051425934,-269.34334166531835,34.27154450825235,-185.563140398449,-61.32578816631859,195.3179389792077,272.2796741241918,303.2432631595859
149,-18.465775391237802,-267.4657782198966,34.72786364144131,-166.14135114509543,-54.78953319541824,202.27374216980198,270.59151641727436,290.25515346976727
150,-20.027713229447727,-265.5614204042929,35.21254866588474,-146.75827591852567,-49.513433320773196,207.71463147912314,268.8876611878267,277.48764212312796
151,-21.5805570809768,-263.6542755739785,35.72483847977899,-127.58615580910124,-45.50694495769886,211.63112321022717,267.1884177320145,265.01214908714417
152,-23.087262545471514,-261.76753276190834,36.26290257624958,-108.78833343741378,-42.75474313958252,214.03506925675285,265.5132841044191,252.8853244382314
153,-24.513010753387046,-259.9233021279201,36.82394763772228,-90.51758267273036,-41.21734633742247,214.9575953314515,263.8807642813544,241.14942783425207
154,-25.825856550710878,-258.1423884772443,37.40434035109755,-72.91465043188573,-40.83214270913477,214.44683282541334,262.3082120354742,229.83317351404372
155,-26.99726691372957,-256.4440957160361,37.999742864020284,-56.106998998424466,-41.51478616830677,212.56553398163257,260.81169681227857,218.9530115252823
156,-28.002541320012444,-254.84605902463625,38.605257826371194,-40.207737371574375,-43.16092288466318,209.38865492031547,259.40588726130636,208.51480669474867
157,-28.821110267841156,-253.36410191426737,39.215580323460216,-25.31473062682701,-45.64820219102466,205.0009826038056,258.10394894115683,198.51586664063475
158,-29.436712626177922,-252.01211592833246,39.82515416150814,-11.509877125995919,-48.83852064417508,199.49487026338375,256.91745379692327,188.94725887950133
159,-29.837456694832948,-250.80196125995988,40.42833003594103,1.1414551848489976,-52.58044442404403,192.96813171389957,255.85629998198445,179.7963452847923
160,-30.015773511729208,-249.74338687371534,41.01952315548181,12.59083988778762,-56.711753505514444,185.52212940339945,254.92864132358355,171.04945079855898
161,-29.96827396201899,-248.84396891473614,41.59336779789677,22.807053719194496,-61.062051067132295,177.26007530834352,254.14082624912464,162.6945736405877
162,-29.695523563187415,-248.10906635308848,42.14486597356825,31.776187485988693,-65.45538326593363,168.2855491607444,253.49734636588514,154.72403745858975
163,-29.201750351866924,-247.54179299969883,42.66952705571808,39.50160061774786,-69.71281764199091,158.70122596829307,253.0007951926116,147.13698276681143
164,-28.494502092009313,-247.14300528213994,43.16349521757261,46.0037101999805,-73.65493281907042,148.60779504939174,252.65183786552763,139.94159618089446
165,-27.5842691453967,-246.9113054880152,43.62366192854901,51.319603358571555,-77.10417759519194,138.1030463447693,252.44919301899014,133.1569817278808
166,-26.484088823263225,-246.8430605522173,44.047761392573534,55.502461331201985,-79.88706379631662,127.28109689305501,252.38962842534275,126.8145890379263
167,-25.209145802476502,-246.93243687997614,44.43444731706802,58.620784034251116,-81.83616439922687,116.231730996622,252.467972306745,120.95912829323998
168,-23.77638120876075,-247.17145215511454,44.783349621507966,60.75740512765165,-82.79189649576321,105.03983118959569,252.67714247209855,115.64892075547472
169,-22.20412043610871,-247.55004555992983,45.09510970400473,62.008289528603775,-82.60407758627697,93.78488284000844,253.00819559444713,110.95565554939917
170,-20.51172712014407,-248.05616832329974,45.37139283322756,62.481108169494775,-81.13325308902907,82.54054233276206,253.45039908605344,106.96354707806154
171,-18.719288336614206,-248.67589699519482,45.614876264416885,62.293588579784185,-78.25180231394724,71.37426660412054,253.99132818953993,103.76791184363364
172,-16.847334191366745,-249.39357221899968,45.829211909138685,61.57164459007724,-73.84483897455934,60.34700953099501,254.61699101993375,101.47320732905816
173,-14.916593387992956,-250.1919659095182,46.01896284417984,60.447294158831035,-67.81093015215767,49.51299745917059,255.3119842354884,100.19059774971372
174,-12.947784997191286,-251.05247956894914,46.189513541430706,59.05638102965561,-60.062664034514675,38.9196012830464,256.05968168853997,100.035130811926
175,-10.961445520318613,-251.9553759712745,46.34695433346159,57.53612345006922,-50.527101287490204,28.607325511593316,256.84245778114575,101.12262511669108
176,-8.977789441942937,-252.88004566498068,46.4979412520132,56.02252106495597,-39.146147212351735,18.6099354048511,257.6419463661804,103.56637859571863
177,-7.016600728966337,-253.80530877415657,46.64953298891493,54.64765872615829,-25.87688166042453,8.954741454476181,258.43933498139785,107.4738135953163
178,-5.0971520772586425,-254.70975146938582,46.80900734976529,53.53695271380783,-10.691880953825558,-0.33694362579103376,259.2156930373508,112.94317350149903
179,-3.2381480947686514,-255.57209523008248,46.983660259245966,52.806390237996546,6.42043907285424,-9.2491662251237,259.952331314404,120.06037921167398
180,-1.4576880684017142,-256.37159566958076,47.18059122084735,52.55981678581357,25.455436991816313,-17.770509650820095,260.6311888206535,128.89614203735303
181,0.22675644852757784,-257.0884663816039,47.40648011803112,52.88632791950882,46.39180349682729,-25.893094821525874,261.23524185717275,139.50341417684132
182,1.7983542582919585,-257.70432214667574,47.66736116676658,53.85782290632477,69.19105950853175,-33.611418881599654,261.7489291462859,151.9152405958844
183,3.2409225127103056,-258.20263494734405,47.96840043214291,55.52677772550096,93.79700147544033,-40.92105553148303,262.15858609473054,166.14305884809383
184,4.538935155751405,-258.5691954667125,48.31368347397762,57.924295204938936,120.13511070411725,-47.817249471510465,262.4528805548905,182.17547737922771
185,5.677536465762807,-258.7925719014391,48.706019421500464,61.058490582910615,148.11195271824232,-54.29344559289244,262.62324164409745,199.97754872704346
186,6.642563599984642,-258.86455683788137,49.14676719135062,64.91327130519646,177.61460039912228,-60.33980099752792,262.66427213714536,219.49054156407283
187,7.420581148022583,-258.7805915382272,49.6356887180958,69.44756927904135,208.51012076316513,-65.94173384707302,262.57413359346117,240.63220417360353
188,7.9989298542906715,-258.54015538738986,50.17083303585513,74.59508064092637,240.64516980021128,-71.07856662958098,262.3548918543717,263.29750127654427
189,8.36579098930071,-258.1471068112187,50.74845403845144,80.26456109480152,273.8457431608276,-75.72232217145938,262.012809228585,287.35979618945123
190,8.51026733937814,-257.60996110700415,51.362964033508504,86.3407136449863,307.9171329270044,-79.8367284504425,261.5585690312135,312.6724415077662
191,8.422481334526251,-256.9420906048908,52.00692492419413,92.68569093483516,342.64414220653424,-83.37648316178611,261.0074184429547,339.0707342724567
192,8.09369030181882,-256.1618334079882,52.67107888552856,99.14121828416963,377.79160942683217,-86.28682171865537,260.3792168854868,366.37418601463025
193,7.516418151970981,-255.2924983922361,53.34442050834347,105.53132791551943,413.1052922809748,-88.50342406693558,259.6983789683689,394.38905401679136
194,6.684601998264567,-254.36225589838568,54.01431235853667,111.66568095567816,448.3131566456719,-89.95268756668187,258.99370322136195,422.9110772471285
195,5.593751315661727,-253.4039054650283,54.666645618468706,117.34344159989537,483.12710812721105,-90.55238597087006,258.298080099303,451.72835838033586
196,4.241116358173749,-252.45451398266778,55.286046840033926,122.35765652486208,517.2451933961568,-90.21272818248956,257.6480750547257,480.6243319628139
197,2.6258617751169195,-251.55491981878592,55.85613079809962,126.50008119489706,550.354285842341,-88.83782424552065,257.0833848206224,509.38075822565384
198,0.7492407308683809,-250.74910092049694,56.35979810235365,129.56638233170236,582.1332562548125,-86.32755886068422,256.64616758545907,537.7806826004568
199,-1.385235737129971,-250.08340784360294,56.779574774127184,131.36163229007678,612.2566150228369,-82.57986375697746,256.38025068557994,565.6113029669651
200,-3.771639958013957,-249.60566618289943,57.09798941022583,131.70599677268336,640.3985982302853,-77.49336915490339,256.33022286350086,592.666690209028
201,-6.401485879906517,-249.3641569493786,57.29798169809327,130.44050286095953,666.2376560891272,-70.97040152576935,256.5404219639322,618.7503126666151
202,-9.263611305153203,-249.40648793395746,57.363333927660065,127.43276021351971,689.4612883157783,-62.92028055187416,257.0538330310279,643.6773211786373
203,-12.344091481932141,-249.77837386697942,57.27911498353213,122.5824946623716,709.7711571758629,-53.262853642737106,257.9109160111972,667.2765581425457
204,-15.62619144403155,-250.5223480937334,57.03212430257648,115.82674042853186,726.888395167666,-41.93219260006427,259.14838654603034,689.3922610918426
205,-19.090363954853046,-251.67643340864544,56.61132148193958,107.14452520658251,740.5590112741828,-28.880364678753725,260.79797752340085,709.8854388132332
206,-22.714298872381512,-253.2728044639351,56.00822558007551,96.5608723638011,750.5592882285134,-14.081179532531683,262.88521296651305,728.6349063268636
207,-26.473028377958546,-255.33647859288357,55.21726677274851,84.14993781371503,756.7010540226461,2.466195507005986,265.42822930107593,745.5379743563743
208,-30.33909088136372,-257.88407572336774,54.2360722253105,70.03709735197083,758.8367043044689,20.733866301898676,268.43668187490476,760.5107991007831
209,-34.282754508946404,-260.9226910147602,53.06566816161519,54.399805087948636,756.8638483707009,40.66220783753875,271.91077659789664,773.4884087327599
210,-38.27229894860214,-264.4489255974425,51.71058129285523,37.46705672930555,750.7294499675747,62.15734593751144,275.8404674380734,784.4244333968469
211,-42.27435220526526,-268.4481209632842,50.17882497118563,19.517314314844683,740.4333347819344,85.08924479470241,280.2048599052808,793.2905747831111
212,-46.25427658997586,-272.8938407641266,48.481758591169495,0.8747825527399441,726.030939295888,109.29051708706176,284.9718582117629,800.0758589954324
213,-50.17659595917912,-277.7476396599843,46.63381293065288,-18.096028471144805,707.6351811140305,134.55606736729445,290.0980891914695,804.7857222589162
214,-54.00545376612353,-282.95915220006054,44.65207949210302,-36.99746440401508,685.4173401132294,160.64367018775073,295.52912914080184,807.4409832922082
215,-57.705089028932484,-288.46652567659805,42.5557687750851,-55.40755761510873,659.60685414492,187.27557143801616,301.20005079287483,808.0767591754832
216,-61.24031522791955,-294.1972100332853,40.36555107853133,-72.89040194536247,630.4899532859127,214.14118328873863,307.0362973611624,806.7413830156539
217,-64.57698574158417,-300.06910576561893,38.102803897708085,-89.00786436234266,598.4070825628146,240.90091790214737,312.95487957221167,803.4953808163667
218,-67.68242908281547,-305.9920574252835,35.78880158107829,-103.33233585535557,563.7490937277792,267.19117091764423,318.86587992115307,798.4105605209348
219,-70.5258389049321,-311.8696658606879,33.44389407162445,-115.46012365754235,526.9522204075408,292.63042245984377,324.6742360542795,791.5692561400027
220,-73.07860887841723,-317.60137717148837,31.086729733500995,-125.0249839229407,488.49188474953775,316.82637323443646,330.28176270019776,783.0637502438152
221,-75.31461098532418,-323.08479134442314,28.73357931358587,-131.71120327391267,448.8754133880993,339.38398069755806,335.5893594791272,772.9958646740494
222,-77.21042475264456,-328.21811950932283,26.39781134059723,-135.26558065729446,408.63376410680917,359.9142107598181,340.4993404012245,761.4766638547527
223,-78.7455307268267,-332.9027069023992,24.08955324259546,-135.50765933368194,368.3123860744601,378.0432777517167,344.91781048234014,748.626170857738
224,-79.90248246559105,-337.04553102245353,21.815550331056702,-132.3376249376502,328.46136512597883,393.4221099920571,348.7570075523657,734.5729738390103
225,-80.66706874631893,-340.56158347155724,19.579212798092104,-125.74141492039506,289.62504754156214,405.73574960990805,351.93752559933563,719.4536125431612
226,-81.02847371058213,-343.37605051501276,17.380825098394766,-115.79275602559586,252.33138724566564,414.7123747589377,354.3903411885334,703.4116757957039
227,-80.97943841305474,-345.42621994590013,15.217885101385363,-102.65203093266113,217.0813096873115,420.131624274519,356.0585754466279,686.5965922308711
228,-80.51642292466873,-346.6630573146294,13.08554078153279,-86.56204901657986,184.33841798675715,421.83191326452055,356.89893801170814,669.1621399470065
229,-79.63976417477477,-347.0524102192638,10.977096778063265,-67.84094681072305,154.51937649882822,419.716453688352,356.8828136765207,651.2647282303509
230,-78.35382210068985,-346.5758138166947,8.884569064378141,-46.87256733137916,127.98529323642738,413.7577332217297,355.99696602901525,633.0615158552318
231,-76.66710616502374,-345.2308840068481,6.799271277413416,-24.0947632010108,105.03438830703746,404.00025399439306,354.24384527384206,614.7084289962995
232,-74.59237546882413,-343.0312974528618,4.712419592616576,0.01386327188754613,85.89618458520413,390.5613874246403,351.6415000300447,596.3581322931718
233,-72.14670688315947,-340.0063701519869,2.615743524556797,24.948227633543738,70.72739433769162,373.63026165931024,348.2231053164181,578.1579946051231
234,-69.35152508247792,-336.2002584861679,0.5020876806871868,50.191464436640686,59.60960766132513,353.46466308280947,344.03613065847543,560.2480806103066
235,-66.23258558437084,-331.67081783251746,-1.6340146509056466,75.22949239006128,52.548821671597715,330.3860002992967,339.14118249814834,542.759192231631
236,-62.81989806007303,-326.48816312187546,-3.7958193760898524,99.564903171186,49.4767878621765,304.7724442844747,333.6105633225081,525.810980452784
237,-59.147574319433225,-320.7329828679222,-5.9839266586726385,122.7296900604492,50.254100522125825,277.05041920779826,327.5265962013776,509.51014999815163
238,-55.25358515107521,-314.49466322570265,-8.195938440138315,144.29641528199164,54.674900908884325,247.68467362204996,320.97976812579316,493.94878887500346
239,-51.17941310730016,-307.8692815814226,-10.426240153933207,163.88751749698127,62.47302894195958,217.1672110348848,314.06674878175403,479.20287207587944
240,-46.96959366062853,-300.95752978586063,-12.665922429367066,181.18257282431816,73.32941656814386,186.0054010483885,306.88834279380285,465.33100960602565
241,-42.671143631678255,-293.8626252411826,-14.90285113291815,195.92343305830585,86.88048643248987,154.70962431513092,299.5474325498867,452.3735260860369
242,-38.332882337832935,-286.68826373245815,-17.121885866126803,207.9172650299252,102.7272987632525,123.7808231904265,292.14696529928574,440.3519658163385
243,-34.00465708016599,-279.5366614770796,-19.305238640387902,217.0376004814717,120.44518036703363,93.69833340009875,284.7880324777424,429.2691103216566
244,-29.73649023120121,-272.50672584898854,-21.43295663401349,223.223574203422,139.59357223886448,64.90836079464312,277.5680816058981,419.10957573251954
245,-25.577670117311804,-265.6923853498132,-23.48350650878816,226.4775786981432,159.72584448408296,37.813443212260374,270.57929232346544,409.84102778474585
246,-21.575811871292636,-259.1811005328296,-25.43443327714425,226.86159604227126,180.39884599673837,12.763202515455427,263.9071390502576,401.4160161688292
247,-17.77591734129401,-253.0525695829499,-27.26306434172365,224.49248199917008,201.1819785755934,-9.953352566542586,257.62915431632473,393.7743906866299
248,-14.219464902127243,-247.37763572328947,-28.94722886104284,219.5364743943952,221.66560845405266,-30.11376441415294,251.81389967384305,386.8462221919175
249,-10.943560396441498,-242.21739882186367,-30.465963492453366,212.20317891109298,241.46865127969153,-47.56615451416627,246.52014561819712,380.5551145785935
250,-7.980179154539102,-237.62253043612114,-31.800177257792665,202.73925373068278,260.2451894060488,-62.23125045954738,241.79625807109215,374.8217630483371
251,-5.3555260955676856,-233.63278971429196,-32.93325049013098,191.42197401303972,277.6900038437677,-74.10238005847287,237.6797864430751,369.56759110284526
252,-3.089536643613085,-230.27673656805885,-33.85154557344261,178.5528128577011,293.54292835274094,-83.2434574266146,234.1972467024962,364.71828609333113
253,-1.1955359861593249,-227.571637826994,-34.544810579299856,164.45113169844322,307.5919604440309,-89.78504016183182,231.36409182303817,360.2070518956888
254,0.3199317749940053,-225.52356130185478,-35.006460991167266,149.4480340579073,319.67509343448023,-93.91858895125591,229.18486115845278,355.97740770992374
255,1.4570997335160059,-224.1276515988526,-35.23372953869383,133.8804056890371,329.6808647982174,-95.88911124367303,227.6534995314273,351.98538358109624
256,2.22280191073845,-223.36857999122304,-35.22767979915374,118.08514412996382,337.54764845397284,-95.98641790187656,226.7538359965952,348.2009947440152
257,2.630134155217143,-223.22115862103092,-34.99308558239302,102.39357303004513,343.26175173255234,-94.53526456727184,226.46021124753986,344.6089164592501
258,2.6979682549103647,-223.65110693149407,-34.53818479354498,87.1260407905332,346.85441060830817,-91.88468644313997,226.73824148433957,341.20832609290994
259,2.450340633200727,-224.6159557576923,-33.87432276087182,72.58671688641927,348.3978078774103,-88.3968648269469,227.5457052587338,338.0119264175123
260,1.9157409036448512,-226.06607203213554,-33.015505223449644,59.05861948720786,348.00026654525544,-84.4358840083944,228.83353828167944,335.04420955229756
261,1.1263279223305065,-227.94578460709704,-31.97788485881956,46.79893116804998,345.8007930479076,-80.35674570709001,230.54691933730996,332.3390608995464
262,0.117101776912817,-230.1945893716145,-30.779207249362596,36.03468205829323,341.9631608161713,-76.49500273310093,232.62642840708995,329.9368341522979
263,-1.0749405215052117,-232.74840985058367,-29.43824258927011,26.95889813536168,336.6697334031263,-73.15735242535973,235.00925612152,327.8810507039574
264,-2.4116398917099082,-235.54088801263137,-27.974228348690822,19.72732312570102,330.1152276689128,-70.61349343081747,237.63044199669483,326.2148897870533
265,-3.854478033664797,-238.50467927270756,-26.406345654759637,14.455822955677176,322.5006112766315,-69.08949800347467,240.42411784232345,324.9776406241941
266,-5.365329802135288,-241.57272581269004,-24.753248485554575,11.218570640657124,314.0273151161206,-68.76288921578828,243.3247324574663,324.201286399197
267,-6.90715102622641,-244.67948332858452,-23.032660235677483,10.04708754916579,304.8919207863807,-69.75954220236736,246.2682342682604,323.90738329584536
268,-8.44459191890393,-247.76207787846874,-21.26104726697767,10.930186967346296,295.28145711330006,-72.15245496540187,249.1931896741222,324.10438671816274
269,-9.944530011755727,-250.76137138634965,-19.453374138726847,13.81483237951217,285.36940960452847,-75.96236124746656,252.0418163200702,324.7855606582938
270,-11.37651982870134,-253.62291652256218,-17.62294062452748,18.60789050400913,275.3125146981216,-81.16008883563899,254.76091229099174,325.92758412218774
271,-12.713159165688491,-256.2977842422394,-15.781296566498566,25.17873085164494,265.24837830013763,-87.67050415016494,257.30266444502564,327.48993990621364
272,-13.930373756170463,-258.74325024951645,-13.938227229835832,33.3626003598708,255.2939265267502,-95.37783041790387,259.62532179634906,329.4151358907784
273,-15.007623343403111,-260.9233299769127,-12.10179923022631,42.96468312995255,245.54466649195732,-104.13208403403512,261.6937229391797,331.6297684476268
274,-15.928033017663617,-262.8091552367827,-10.278455467752346,53.76474045857599,236.07470713073778,-113.7563431413421,263.47966990195323,334.0463938306706
275,-16.678454360426734,-264.379189462165,-8.473146945309514,65.52221418460633,226.93746532926838,-124.0545445159248,264.96214449576513,336.56612984143845
276,-17.2494615473422,-265.6192822841768,-6.689489863645955,77.98166650207827,218.16696207642462,-134.81949939168624,266.12736704905785,339.08187029549555
277,-17.635288066481156,-266.5225678761278,-4.929937785969406,90.87842243924004,209.7795978828339,-145.84082522079927,266.9687011688388,341.48196212916787
278,-17.83371011983464,-267.0892149210606,-3.195960640667901,103.94427829143262,201.7762869545094,-156.91250747787387,267.48641170812033,343.65417170885706
279,-17.84588318507632,-267.3260393177217,-1.4882244361346133,116.91314118032005,194.14482572645892,-167.83983214161,267.6872865173454,345.48975425114423
280,-17.676138652052206,-267.2459938176974,0.19323265083748106,129.52647153852567,186.86237305235085,-178.44546411400916,267.5841357781615,346.8874384783171
281,-17.33174778554782,-266.86755134864865,1.8488308762891579,141.53841088336597,179.89792599387576,-188.5744883587149,267.1951854060404,347.75714723834494
282,-16.822660318790906,-266.21400052718985,3.4792884601121044,152.72049040844414,173.21468608084484,-198.09827748972896,266.5433828572046,348.0232925848764
283,-16.161224650595926,-265.3126729219506,5.085471846424594,162.86583035373718,166.7722254616898,-206.91709978185082,265.65563480715576,347.62750879855355
284,-15.361895896893637,-264.19412228963745,6.66825845332158,171.79275525094278,160.5283797740219,-214.96143258591832,264.5619968830187,346.5307168906938
285,-14.44093699352814,-262.8912763777522,8.228414048995003,179.34776624405507,154.44081388998296,-222.19199576398668,263.29483603935546,344.7144474971858
286,-13.416116772844765,-261.438581938162,9.766487577875525,185.40782909979407,148.46822687294977,-228.59856656167534,261.88798624461293,342.18138440141786
287,-12.306407577828873,-259.87116329153474,11.28272692885723,189.88195520301204,142.57118249900174,-234.1976803383319,260.3759178580893,338.95512706216044
288,-11.13168368428215,-258.22401400010773,12.777019302134693,192.71207242789194,136.71257071127715,-239.0293599600492,258.7929402939595,335.07920634118636
289,-9.912420752943454,-256.5312397316221,14.248859150005647,193.87320265737628,130.857722845919,-243.15304945593954,257.17245607079667,330.61542183726715
290,-8.669395922805318,-254.82536810863118,15.697345207477778,193.37298184956663,124.97421909614067,-246.6429534067538,255.5462820162376,325.64160011444363
291,-7.423388114406962,-253.13673832514846,17.121206312623517,191.25057555584735,119.0314401408807,-249.58300089137782,253.94405034076206,320.24889851082645
292,-6.1948786236024,-251.4929798381976,18.518854006105283,187.57505637485573,112.99992558483582,-252.0616603620771,252.39269878289568,314.53879703770764
293,-5.003752996666374,-249.91858584243133,19.888458511758188,182.44331911510002,106.8506091624833,-254.16682911424286,250.91605539589258,308.61992977872467
294,-3.8690062571191084,-248.43458385882582,21.228043607706027,175.97761409890933,100.55400413332501,-255.98100862126984,249.53452013143252,302.6049068774023
295,-2.8084545661143143,-247.05830293038377,22.535595043359734,168.3227790724632,94.07941192559977,-257.5769561499702,248.26484249039893,296.6072691527991
296,-1.8384571880856506,-245.80323483266704,23.809176585624225,159.64324585364434,87.39422306926076,-259.0139752567858,247.11999237289245,290.73870053176677
297,-0.9736532069679069,-244.6789853750086,25.047047557214945,150.11988988928243,80.46337196869929,-260.33497455160045,246.10911988126915,285.1066001259798
298,-0.22671787204368998,-243.69131106245067,26.24777583715901,139.9467806450339,73.24899626195989,-261.5643869995014,245.23759899263698,279.81208759338455
299,0.39185626490480546,-242.8422358194493,27.410340610842702,129.3278798196382,65.71033779938924,-262.70700241002754,244.50714943060584,274.94848432362755
300,0.8739482055684695,-242.13024197189938,28.534219586702605,118.47372410608604,57.80390650966883,-263.7477251922967,243.91603055536555,270.6002810163825
301,1.213962330307278,-241.55052919621238,29.619455943351994,107.59812050971239,49.48391183193356,-264.6522299131013,243.4593006145352,266.8425715723822
302,1.408942572955143,-241.09533462296022,30.666700994057845,96.91487565261053,40.702950242491546,-265.3684508537386,243.1291342166056,263.740906054925
303,1.4586429620353782,-240.75430660789922,31.67722948836662,86.63457635773241,31.41292270867677,-265.8288103644968,242.9151902943366,261.35149347094847
304,1.3655514539119762,-240.5149237560169,32.652925633574,76.96143708720142,21.566143396107663,-265.9530653597224,242.8050220271686,259.7216691397058
305,1.1348650462409071,-240.3629496427051,33.5962393171482,68.09023018755668,11.116591256196577,-265.65163221595037,242.78451922902812,258.89053172632606
306,0.774415065647755,-240.28291248184038,34.510113516461054,60.20331694681788,0.021249824517615944,-264.8292378133669,242.83837271665047,258.889651611857
307,0.2945420606227746,-240.25859792644133,35.39788526353173,53.467800766778524,-11.758521930287575,-263.3887386245047,242.95054929519947,259.74375507605043
308,-0.29207991260436617,-240.27354241030295,36.26316373515471,48.032827764473375,-24.25564366325632,-261.2349508587706,243.10476537954938,261.4712977558192
309,-0.9706691574887483,-240.31151415749662,37.10969022786141,44.027064088470276,-37.496044309040656,-258.27834314757604,243.284947146855,264.0848560385044
310,-1.7246105454786445,-240.35696948755302,37.94118602100467,41.5563824294967,-51.49751440676407,-254.43845928182574,243.4756657855114,267.5912861998101
311,-2.53577424408081,-240.3954734670573,38.761195268855,40.701792398408685,-66.26871654248711,-249.64696128434932,243.6625379768622,271.9916270681016
312,-3.384872889895524,-240.41407611176572,39.57293089190361,41.517651041359635,-81.8083800077708,-243.8502104732134,243.83258398853513,277.2807504477842
313,-4.2518490187454825,-240.40163788416464,40.379131806692584,44.03019115806735,-98.10469440113751,-237.01133307919685,243.97453830038265,283.44679121564735
314,-5.1162827000904665,-240.3491009032311,41.181939570067215,48.23640595513393,-115.13490575933706,-229.11174431352237,244.07911024432016,290.4704125993883
315,-5.957807671767625,-240.24970489527834,41.982801461787126,54.10332786045872,-132.8651092653038,-220.15212827483768,244.13919451046507,298.32397925186154
316,-6.75652293599738,-240.09914927381863,42.78240521284009,61.56773595701629,-151.25022561385856,-210.15288978085826,244.15003337294857,306.9707204372056
317,-7.493386061041883,-239.89570471933607,43.580648299315946,70.5363199437452,-170.23414409559638,-199.15410835458002,244.10933404896397,316.3639684294917
318,-8.150574625795974,-239.6402792421489,44.37664241230498,80.88631900855948,-189.7500142500084,-187.21503519234406,244.01734580458728,326.4465544212555
319,-8.71180337010781,-239.3364450008002,45.16875176227471,92.46664235954195,-209.7206690323939,-174.41318220465172,243.87690237273162,337.1504373477687
320,-9.162586446190774,-238.99043307262014,45.954662469446525,105.09946585604229,-230.05916493201238,-160.84305885279647,243.69343594712632,348.39663100335434
321,-9.490436527304535,-238.61110376719995,46.73147942034104,118.58228807276818,-250.66942717227892,-146.614617135683,243.47496930849837,360.0954817239793
322,-9.684995421907278,-238.20989972060048,47.49584644613843,132.6904209502618,-271.44699003063977,-131.8514666667085,243.2320922939647,372.1473325786983
323,-9.738094204529554,-237.80078773554948,48.244085227282845,147.17988596741714,-292.2798231535869,-116.68891981329789,242.9779276220846,384.4435911933218
324,-9.6437443815949,-237.4001931114158,48.97234776499664,161.79068657160664,-313.0492348012716,-101.27192204449487,242.72808895125175,396.8681987792996
325,-9.398064846142955,-237.02692722411692,49.676776595019355,176.25043035690976,-333.63084257719936,-85.75291631383934,242.5006311353041,409.2994793341352
326,-8.999152094930094,-236.7021057117305,50.353666298058435,190.27827808287284,-353.8956015406465,-70.28968370240543,242.31598929263728,421.61233102701175
327,-8.446903317957695,-236.44905111642447,50.999619360452286,203.58919859277182,-373.7108787695119,-55.04319634002834,242.19689984578002,433.6807064224651
328,-7.742803540613097,-236.2931704455359,51.61168897367564,215.89850705517654,-392.9415625860359,-40.175512995724596,242.16829331423435,445.3803142109492
329,-6.889689065945292,-236.26179508180456,52.18750090174516,226.9266575806194,-411.4511939026869,-25.84774256887354,242.25714558649392,456.59146242665935
330,-5.891500043516851,-236.383968192364,52.72534628997359,236.40424971715652,-429.10310656711175,-12.218095860296847,242.4922720942748,467.20195183078647
331,-4.753034935838165,-236.69016373219907,53.22423751035836,244.07719193195598,-445.7615632947901,0.5599586177823501,242.90404828544328,477.1099186072444
332,-3.47971879069614,-237.21192164250374,53.68392000086421,249.71194529647028,-461.2928739967107,12.339423442020156,243.52404040126652,486.22651857275616
333,-2.077395611998047,-237.98138604415612,54.10483465233769,253.10074958198797,-475.5664843249577,22.981378554960138,244.3845329697394,494.47834192011413
334,-0.5521530252398995,-239.0307371277428,54.4880277095223,254.06671481364253,-488.45602431934157,32.35646188615936,245.51794366741294,501.80944938346374
335,1.0898148761106377,-240.39151284937537,54.835008351878336,252.46864692938263,-499.8403102532217,40.34622479463848,246.95612209082375,508.1829287208539
336,2.84230297028207,-242.0938229712185,55.147557865534786,248.20546860542092,-509.6042970106817,46.84436571299564,248.72953599086662,513.5818850190856
337,4.699147547972952,-244.16546481986074,55.42749821491546,241.2200961846204,-517.6399831296831,51.757847284087305,250.8663559638827,518.0097990567516
338,6.654236449663043,-246.6309569071218,55.67643146005981,231.50264025225226,-523.847275361755,55.00790311165018,253.39145690636863,521.4902134553994
339,8.701479194403975,-249.51051302764438,55.89546448014636,219.09280926411,-528.1348236081908,56.53094011369521,256.3253614061491,524.065734831557
340,10.834740598517884,-252.81898540542923,56.084935510518854,204.08141116733944,-530.4208399363775,56.27934159783828,259.6831563805308,525.7963698572164
341,13.047742267037002,-256.5648105486355,56.24415975050683,186.61086582641911,-530.6339166801388,54.22217482414899,263.47341926827215,526.7572423790128
342,15.333937041228715,-260.7489952944324,56.37121054949842,166.87466025960737,-528.7138579842181,50.34580518960751,267.6971935239808,527.0357659612191
343,17.68636211759872,-265.364182851442,56.46275045828032,145.11569849874655,-524.6125362090902,44.65441734280961,272.3470548461308,526.728369990271
344,20.097477146814498,-270.39383939663156,56.513922950358996,121.62351788645762,-518.2947792779786,37.17044148436436,277.4063094712092,525.9368967567935
345,22.558994149515954,-275.8116009901549,56.51831119771631,96.73036369815007,-509.73928771156596,27.934880750664394,282.8483640917361,524.7648012418529
346,25.06170648281845,-281.58081846360955,56.46796543148572,70.8061343654603,-498.93957169792793,17.007532775314242,288.6363038218146,523.313294889052
347,27.595324160990078,-287.65433482356417,56.353495747779284,44.252230877351145,-485.9048903840217,4.467094992324818,294.7227105404489,521.6775801594832
348,30.148322310134812,-293.97452565100036,56.16422318823078,17.494366789663047,-470.66116872635286,-9.588861223497648,301.0497490090644,519.9433247263336
349,32.707808374596006,-300.47362773338034,55.88837878597407,-9.025580017634441,-453.2518618657087,-25.044067619003865,307.5495422016675,518.1835224426006
350,35.25941220973975,-307.07437452993787,55.513338339225776,-34.85856607943984,-433.7387322396404,-41.76391244424034,314.14485019342675,516.4558813725477
351,37.787201886930404,-313.69094903182037,55.02588037843789,-59.558094957996744,-412.20249936258284,-59.59599968260713,320.75005885422235,514.8008656852347
352,40.2736273513637,-320.2302552155179,54.4124563122678,-82.69047530773513,-388.7433157866445,-78.37094724732412,327.27247566169854,513.2404971875502
353,42.69949425736184,-326.5934986956772,53.65946482860558,-103.84542091856281,-363.48101543831973,-97.90345991227748,333.61392026775763,511.77799361705564
354,45.043971241619445,-332.6780555240302,52.75352683264969,-122.64675154395673,-336.55507322574374,-117.99371393802969,339.67258707783463,510.3982849542354
355,47.28463516103642,-338.3795955914179,51.681762100426866,-138.7629141785282,-308.1242090303644,-138.42908925659748,345.3451461189028,509.06940692798855
356,49.39756005905441,-343.59441408800063,50.43207396172641,-151.9170052464201,-278.36556692495265,-158.98628075493204,350.5290370464435,507.7447241393134
357,51.35745684742671,-348.2219115544499,48.9934528425721,-161.89593666100282,-247.4734038553747,-179.43381153817757,355.12489970120976,506.3658858415445
358,53.13787218057792,-352.16715124566235,47.35631173825686,-168.5583569981491,-215.6572330559001,-199.5349571434289,359.03907399399407,504.86636842060295
359,54.71145674089496,-355.3434129820849,45.5128644491032,-171.8409222148159,-183.13938760535385,-219.05107074886732,362.1860929914201,503.1754157955644
360,56.05031424470739,-357.67465616337824,43.45754923277022,-171.76252293989614,-150.1519990796729,-237.74527694909833,364.4910865158195,501.2221620032097
361,57.12644137262884,-359.0978017829195,41.18748739968271,-168.42613190993248,-116.93342327594557,-255.38647706469683,365.89200897279267,498.9397199877223
362,57.912264519296,-359.56474519221314,38.70295226042428,-162.01804054507144,-83.72418485255675,-271.75358299678913,366.3416057792515,496.2690517732207
363,58.38127218362283,-359.04401923910575,36.0078138128986,-152.80439634362463,-50.76254968304484,-286.6398706187018,365.80903930047947,493.16248974321616
364,58.50873345794408,-357.52204128256403,33.10992175686526,-141.12510753159867,-18.279863733069195,-299.85732028466856,364.28110805685344,489.5868375931894
365,58.27248486992071,-355.00389575593437,30.021393455773843,-127.38532155275728,13.504180528420724,-311.24079421969867,361.7630105903289,485.5260226813848
366,57.653760640039174,-351.5136239130966,26.758781566441222,-112.04479316544956,44.38617413760593,-320.65189021970895,358.2786251838604,480.98328862374507
367,56.638035623592316,-347.0940121390976,23.34310518793725,-95.60553331117745,74.18333463567622,-327.9823090704556,353.87029634916604,475.98291031882354
368,55.21584601344185,-341.80588853262094,19.799736429650558,-78.59817750620377,102.7373811385603,-333.1565801021202,348.59813723394046,470.57139368546126
369,53.38355048474242,-335.72695361137005,16.158140304762753,-61.56754052937045,129.91777521762398,-336.134006074994,342.53887303250167,464.8181015254905
370,51.143994029756854,-328.9501844351749,12.451469931769077,-45.05783891295013,155.6241884629528,-336.9097149775998,335.7842636683032,458.8152341224051
371,48.507038208898074,-321.58186198569865,8.716022134510537,-29.598066468778217,179.78809489636,-335.51474054012937,328.4391543656177,452.6770922570866
372,45.48992463966497,-313.73927946714946,4.990561981366781,-15.68799849830945,202.37342960543435,-332.0150924856904,320.6192105034554,446.53856101703224
373,42.11744300994666,-305.5481947874317,1.315529599469426,-3.785271692113344,223.37629922849865,-326.5098190164248,312.4483988774792,440.5527737885575
374,38.42188073842961,-297.1400944181308,-2.267851089425352,5.706066919622112,242.823771239026,-319.128105742461,304.05628176517985,434.88794692769955
375,34.44273869772298,-288.64933846292877,-5.718535045383516,12.445228880209664,260.77180506021716,-310.0254958118346,295.57519328939554,429.72341709686987
376,30.2262060658331,-280.2102580231152,-8.996657210664807,16.16235900562742,277.30241812507046,-299.37935407225643,287.1373693303784,425.24496327630516
377,25.824397024157946,-271.9542755072098,-12.064534736277075,16.66411268689858,292.52020413775324,-287.3837317757241,278.8721022105012,421.6395481051371
378,21.294362148133903,-264.0071162080477,-14.887631508107612,13.837134047695331,306.5483391810201,-274.2438149805062,270.9029893272996,419.0896598113959
379,16.696897349687553,-256.48617555814934,-17.435447544346715,7.649514790263154,319.5242238432644,-260.17015690981174,263.3453411062713,417.7674688739341
380,12.095182584535527,-249.49810165796475,-19.682299716357182,-1.8496308987963295,331.5949157308323,-245.37290086185894,256.30380873736806,417.8290290936633
381,7.553290812923269,-243.13664755744546,-21.607965690752238,-14.532310453948172,342.91250621609424,-230.05619618039478,249.87028670603266,419.4087517625984
382,3.1346145903315463,-237.48084243448594,-23.198169016005508,-30.195343137475557,353.6295884305666,-214.41299667384504,244.12213917222724,422.61436773062275
383,-1.0997371210317979,-232.593524785473,-24.44488931171006,-48.56543052637698,363.8949515622277,-198.6204104934289,239.12079234650037,427.52256968343727
384,-5.092516090429663,-228.52027340507863,-25.346487565078597,-69.30545685074274,373.84962093694196,-182.8357446660771,234.91072665540094,434.1754993358561
385,-8.791829077500664,-225.28876293322375,-25.907642919360928,-92.02188666108913,383.62334533848224,-167.19335790154992,231.51889251383648,442.57821363578756
386,-12.152493796307075,-222.90856016551214,-26.139104238438826,-116.27314332518377,393.3316133369756,-151.80240335830544,228.9545622013645,452.697231470352
387,-15.137205052962859,-221.37136555333115,-26.057266883524502,-141.5788627025922,403.073259586865,-136.74550991078016,227.20961818513817,464.46022810366566
388,-17.717465765770076,-220.6516918383305,-25.683591943687343,-167.42991941911663,412.9287005544786,-122.078417116758,226.25926574660912,477.75690870526677
389,-19.874245919766718,-220.70795900454817,-25.04389111497125,-193.2991165298059,422.958817490921,-107.83054642782001,226.063145387643,492.4410549906111
390,-21.598342717103943,-221.48397208391881,-24.16750528318318,-218.6524121380166,433.2044835760434,-94.00645996816361,226.5668086410531,508.3337007827171
391,-22.890427031134692,-222.91073620961063,-23.086408469535687,-242.96052939785716,443.6867132499403,-80.58812905478497,227.70350998096998,525.2273543651143
392,-23.76077431415621,-224.9085521443506,-21.834270998445756,-265.71076163646677,454.4073960190648,-67.53790814987033,229.39625787468614,542.891149279284
393,-24.22869167070166,-227.38932600066815,-20.445516572670197,-286.4187457516447,465.3505651198512,-54.80208686455272,231.5600601352324,561.0767720141142
394,-24.32166616635103,-230.25901992496085,-18.954407446938053,-304.63993886553124,476.4841430137474,-42.31487393784652,234.1042933394451,579.5249856293884
395,-24.07427181931833,-233.42016696337413,-17.394189781433397,-319.98049985807074,487.76209947160135,-30.0026538893206,236.93512379608333,597.972543110626
396,-23.52688316578998,-236.7743734692932,-15.79632710196811,-332.10725303262,499.1269522919198,-17.788350277773674,239.9579084882677,616.1592636225972
397,-22.724250847758384,-240.22473589780876,-14.189843731362267,-340.7563994462993,510.51253435642155,-5.595729795159599,243.07950811632548,633.8350300378364
398,-21.713998790765853,-243.67810496757295,-12.600792915759166,-345.7406454262105,521.8469438970543,6.646511243649055,246.21045018814962,650.7664594726031
399,-20.54510321657894,-247.04713833481114,-11.051857091078151,-346.95443988279766,533.055588813175,19.00102277031716,249.26688758446772,666.7430029812152
400,-19.26641128098481,-250.25209268105095,-9.562080960659959,-344.3770537602323,544.0642321975014,31.518564944533484,252.17230690681887,681.5822484748566
401,-17.925251887899492,-253.2223170347703,-8.146732182728016,-338.07329671178115,554.8019459411806,44.235362717548014,254.85895090697926,695.1342333451005
402,-16.566183640243153,-255.89742069889914,-6.817279734590596,-328.19174686728246,565.2038826888731,57.171126806532406,257.26892996359726,707.2846194336162
403,-15.229915638292212,-258.2281008326568,-5.581476496733781,-314.9604668660739,575.2137832540848,70.32778782028716,259.3550084611485,717.9566404691417
404,-13.952426780394205,-260.17662618388715,-4.443530239668887,-298.68028882122377,584.786146334616,83.68895983211996,261.08106270732367,727.111796809685
405,-12.764299070955476,-261.7169844771149,-3.4043459347037324,-279.71586593586755,593.8879993371144,97.22011931810178,262.4222174890358,734.7493385310306
406,-11.690270693319766,-262.8347113456903,-2.4618220848171215,-258.4848002076069,602.5002227171773,110.8694567984606,263.36467831658246,740.9046386214119
407,-10.749005712936363,-263.52642813456856,-1.6111845377938194,-235.44525381022544,610.6183949442143,124.56933351326558,263.9052855064508,745.6466063503134
408,-9.953069686982737,-263.79912389284453,-0.8453429591994444,-211.08252658567247,618.2531404914828,138.23825544706628,264.0508239921177,749.0743216426223
409,-9.309094456785612,-263.6692229004416,-0.15525764497330505,-185.8951263433736,625.4299785395907,151.78326266763088,263.8171285972352,751.3130826906479
410,-8.81811103214007,-263.16148282721366,0.46969277424365236,-160.38086888801644,632.1886848152806,165.10262316533075,263.22802814178766,752.510053184703
411,-8.476026611779204,-262.30777010726325,1.0413495340441075,-135.02352135949286,638.5821928009668,178.08871673867986,262.31417316830124,752.829677629149
412,-8.274220185263452,-261.1457585294278,1.5724226783874247,-110.28044937205247,644.6750731351839,190.63099561602544,261.11179146423274,752.449009430261
413,-8.200230503915515,-259.7175946482568,2.076154390030144,-86.57165202230223,650.541640961236,202.61891408890907,259.6614131639809,751.5530719235794
414,-8.238510131710266,-258.068569679091,2.5659996635651185,-64.27047734175073,656.2637499231404,213.94472882665227,258.0066033061449,750.3303503564355
415,-8.371219499853886,-256.24583243004355,3.0553267348353454,-43.69621310470771,661.9283384463934,224.5060837964799,256.19273466748314,748.9684942466985
416,-8.579035273498683,-254.297172041419,3.5571391380091715,-25.108652384341926,667.624799137422,234.20830781871737,254.2658279891545,747.6502943616008
417,-8.841948003182662,-252.26989337974646,4.083820765678262,-8.704646440212462,673.4422458533152,242.96636793454272,252.27148088689518,746.5499860655015
418,-9.140025269832066,-250.20980232109605,4.646904975093683,5.38341653079098,679.466755341043,250.7064374027044,250.25390126128087,745.829920246051
419,-9.45411866022332,-248.16031311619204,5.256868694899742,17.0873278606129,685.7786611728808,257.36705277516,248.25505617681875,745.6376338322192
420,-9.766496028213563,-246.16168555412253,5.922952636985506,26.40113621143393,692.4499765366259,262.899849568239,246.31394296367628,746.1033433757973
421,-10.061384356892205,-244.2503956107456,6.6530090099833155,33.37778407282452,699.5420186863755,267.2698802040247,244.46598557544718,747.3378766574543
422,-10.325412744799412,-242.45863972636232,7.453378415766767,38.12451932929132,707.1033012372382,270.45553134706955,242.7425560255097,749.4310486633319
423,-10.547949338724363,-240.81397003901301,8.328797751612663,40.79730722613755,715.1677511816321,272.4480710092029,241.1706182363181,752.4504799242209
424,-10.721330252577594,-239.33905590926557,9.28234082366469,41.59446914548986,723.7532959613263,273.2508689553384,239.77248995815606,756.4408474743075
425,-10.840982334199909,-238.05156565603323,10.315392885702709,40.749769493202464,732.8608526243142,272.8783462126292,238.56571726474687,761.4235514882678
426,-10.905444693231958,-236.96416113418084,11.427659429501789,38.52516174568061,742.4737366082672,271.3547192595957,237.56305503632078,767.396773625349
427,-10.916296043306195,-236.08459633876566,12.617208499181828,35.20339000251753,752.5574929665474,268.7126101603967,236.77254550800407,774.3358962141975
428,-10.877996324531233,-235.41590966601052,13.880544922538697,31.08062393406035,763.0601392057605,264.9915948730895,236.19768546402153,782.1942453615266
429,-10.797652075395392,-234.9566980172579,15.212714193146308,26.45928371976295,773.9127975761586,260.2367587505769,235.8376712369037,790.9041169753543
430,-10.684715871984999,-234.70145974496245,16.607433012682623,21.641188354440427,785.0306862942263,254.4973220104724,235.6877094771673,800.3780433480657
431,-10.550630917435706,-234.64099257399198,18.05724260838818,16.92113602398777,796.3144337259013,247.82538964169288,235.73938076449883,810.5102594216072
432,-10.40843236611148,-234.7628322227595,19.553680251851812,12.580999342641388,807.651676549653,240.27487036046455,235.98104269066,821.1783316759542
433,-10.272316919838218,-235.0517177492988,21.087464367998848,8.884392230481584,818.9189018218259,231.90059811890654,236.39825932365127,832.2449180665885
434,-10.157191594684367,-235.4900708732943,22.648689233237704,6.071941805449948,829.9834932757326,222.7576776017245,236.97424517355597,843.5596339462927
435,-10.078211675129594,-236.05847858350964,24.227026158815093,4.357180749391023,840.7059437459937,212.90106243172588,237.69031382138706,854.9610058472749
436,-10.050317208372668,-236.73617073359702,25.81192893820198,3.923063971978689,850.9421977791292,202.38536181474444,238.52632374861622,866.2785016998457
437,-10.08777713525959,-237.5014864541843,27.392842053587067,4.91910647094778,860.5460903935129,191.2648587290935,239.46111601364157,877.3346316757458
438,-10.20375015950329,-238.33232476841982,28.959410553944824,7.459135010496066,869.3718485644719,179.59371147940294,240.47293994888466,887.9471174667171
439,-10.409871477419687,-239.20657590815696,30.501690582204205,11.619643635839374,877.2766206413789,167.4263015343414,241.5398641000301,897.931128845893
440,-10.715874377797412,-240.1025307819629,32.01035934233336,17.438742239713623,884.1229955530628,154.81768477025423,242.64017049329547,907.101584802958
441,-11.129255402966876,-240.999267024714,33.476922914562024,24.91568880377096,889.781468970088,141.82410070395235,243.75273117698066,915.2755129072106
442,-11.654991160051692,-241.87701101934428,34.89391960360536,34.01099941778081,894.1328085852015,128.5034947158837,244.85736677466306,922.2744556370429
443,-12.295313911301609,-242.7174760047223,36.25511533915751,44.64713450466338,897.0702665922662,114.9160113215807,245.93518727450592,927.9269072468919
444,-13.04955176903677,-243.50417664922202,37.55568625114777,56.7097625406979,898.5015856595409,101.12442226468725,246.96891526579626,932.070760540448
445,-13.914037868588625,-244.22272032075668,38.79238226977881,70.04960155631593,898.3507463098393,87.19446164102106,247.94319140778796,934.5557406805577
446,-14.882091597757125,-244.86107500711825,39.96366464262218,84.48483294820507,896.5594089756537,73.1950507431889,248.84486139295657,935.2458030976616
447,-15.944073992104002,-245.4098135532853,41.06980963264014,99.80407296287947,893.0880126049345,59.198406125471045,249.66324317480107,934.0214740103293
448,-17.087518639109366,-245.86233338214714,42.11297038124611,115.76987700797214,887.9165026380466,45.280033554497344,250.3903725731588,930.7821140469329
449,-18.297338577253,-246.21505002797616,43.097189127642686,132.12274225620266,881.0446734171541,31.518616928179082,251.0212244411583,925.4480870295085
450,-19.556108496234007,-246.46756187326645,44.0283528835302,148.58556485196783,872.4921225061241,17.995814931020888,251.5539056405618,917.9628163267631
451,-20.844419978036754,-246.6227827707432,44.91408737418464,164.86849868367477,862.2978259544883,4.79597961116392,251.98981547243852,908.2947096414287
452,-22.141305606320127,-246.68703880033095,45.76358641337724,180.67415259298295,850.5193536151617,-7.994189381695167,252.333768970686,896.4389294344854
453,-23.424725563104992,-246.67012494911197,46.58737651065092,195.70305177152753,837.23175216103,-20.286042968940592,252.59407822175115,882.4189807130638
454,-24.67210788432096,-246.58531664255594,47.39701907381544,209.65927640051206,822.5261307218003,-31.989423683336103,252.782586203282,866.288081208127
455,-25.86093102993676,-246.44932987414884,48.20475504249649,222.25617537377363,806.5079903101146,-43.013142163659424,252.9146466226841,848.1302715097848
456,-26.96933521263483,-246.282222896866,49.0230994718234,233.222035068795,789.295343208624,-53.26548323464627,253.0090426813856,828.0612146901186
457,-27.9767473871796,-246.10723282924684,49.864396625056166,242.3055651521722,771.0166714795669,-62.65473713906948,253.0878384118599,806.2286265371856
458,-28.864503839823303,-245.95054215222817,50.740349062742084,249.2810508564519,751.8087738159708,-71.0897535755425,253.17615818606822,782.8122696096096
459,-29.616453431115733,-245.84097229195373,51.66153619697574,253.95302011875998,731.8145465958563,-78.48051898501184,253.3018923378044,758.0234386267374
460,-30.2195235277087,-245.80960355396252,52.63693827428918,256.1602878450002,711.1807385223264,-84.73876019732764,253.49532873073306,732.1038633233292
461,-30.664229908592137,-245.88932213075003,53.67348080420595,255.77926753144564,690.0557097882734,-89.7785792486617,253.78871114378444,705.3239594771129
462,-30.94511195645448,-246.11429565003317,54.77561246940271,252.72647800188628,668.5872181644071,-93.51712464740007,254.2157255830018,677.9803700458158
463,-31.061075419184366,-246.51937903207778,55.94492708207862,246.9602137387142,646.9202478256498,-95.87530374012265,254.81091546018172,650.3927558208038
464,-31.015626856019452,-247.13945279562807,57.17983784105555,238.48138526344826,625.1948935510044,-96.7785393654959,255.6090266314929,622.8998174879207
465,-30.816986404887874,-248.0086969044099,58.4753106546918,227.33356736371152,603.544313500044,-96.15757203137544,256.64428417993406,595.8545569213617
466,-30.478068599664464,-249.15980502955676,59.82266299229173,213.6023161599467,582.0927674885479,-93.9493068200356,257.94960486363937,569.6188134904824
467,-30.0163245695798,-250.62314665418282,61.209435447380464,197.41383121488076,560.953763577795,-90.09770248060822,259.5557522423094,544.5571400392836
468,-29.453443000356422,-252.42588755443794,62.61934433222181,178.93304700030598,540.2283429068387,-84.55469900104742,261.49044529792644,521.0301121804977
469,-28.814911593904007,-254.59108259266463,64.03232441394813,158.36124010826302,520.0035401929932,-77.28117959034319,263.7774354435277,499.38719288084974
470,-28.129445284518827,-257.1367581133841,65.42467070790042,135.93323566635516,500.35106437819087,-68.24796348287259,266.43557067372126,479.959301139917
471,-27.428292066737118,-260.0750042428139,66.7692867686896,111.91428942901973,481.32624957783634,-57.43682701905863,269.47786888393097,463.0512577575772
472,-26.74443191902945,-263.4110999723405,68.0360442863059,86.59671172256867,462.967329703158,-44.84155146482606,272.9106250062018,448.9343013038218
473,-26.111688883836877,-267.14269613899205,69.1922552861217,60.29628629378119,445.2950897485238,-30.468996239067422,276.7325787045243,437.83888185819296
474,-25.563780670756046,-271.2590833355089,70.20325397169928,33.34852127110487,428.3129418825143,-14.340194909116219,280.9341709713325,429.94794750942634
475,-25.133333821807362,-275.7405732525452,71.03308025409568,6.104750784255021,412.0074648211049,3.5085319744683234,285.4969188926624,425.39093828422864
476,-24.850895101130742,-280.5580227846664,71.64525150395596,-21.071915598512696,396.34943083010995,23.02445860321525,290.3929379134062,424.2386942722421
477,-24.743970997229702,-285.6725303831484,72.00360357856813,-47.810821664309245,381.2953269831617,44.13734932432089,295.584640178759,426.499470124612
478,-24.836126873812002,-291.03533375164704,72.07317733267034,-73.7382205947072,366.78935710162966,66.75839684467154,301.0246362120718,432.1162279480463
479,-25.146175492309144,-296.5879371585256,71.82112305410485,-98.48202686614792,352.76588918343845,90.77924427430874,306.6558655275754,440.96535571624037
480,-25.687481762836057,-302.2624952428743,71.21759277892833,-121.67694518139642,339.15229102906255,116.07114520327512,312.41197971917416,452.8569289701413
481,-26.467407049354946,-307.9824778321194,70.23658934963203,-142.9700594401759,325.8720750892159,142.48432897545737,318.2179987981076,467.53659964685636
482,-27.48691220364408,-313.66363644935916,68.85674155895234,-162.02695263962704,312.84825319094637,169.84764932456517,323.99125762166545,484.6891570731543
483,-28.74033351733333,-319.21528732472524,67.06197703761545,-178.53839990223761,300.006783721729,197.9686017468692,329.64265369434236,503.9437623937685
484,-30.215339856248246,-324.5419173690543,64.8420689886901,-192.22762977688666,287.2799792570152,226.6337968690139,335.0782000503045,524.8808094213649
485,-31.893072545186786,-329.5451084216433,62.193039686084624,-202.8580829766616,274.60973297413994,255.60997238836816,340.20087712676707,547.0403130564505
486,-33.748462437191684,-334.12576099605985,59.11741293102124,-210.24151372060223,261.9504190494246,284.6456137495846,344.9127654009153,569.9316720353636
487,-35.75071156485872,-338.1865816546632,55.62431904735408,-214.24617925716228,249.27132677164948,313.4732323811069,349.1174259413455,593.0445961818829
488,-37.863921002277834,-341.6347782678497,51.72946815974145,-214.80475237200997,236.55850050811557,341.8123193099776,352.72247885417875,615.860928709965
489,-40.047844070539746,-344.38488573533215,47.45501769023233,-211.92147818171497,223.8158764505853,369.37295240636087,355.64231039000776,637.8670298730602
490,-42.2587465091144,-346.36162323585444,42.82936449392411,-205.67799630315454,211.06562935587175,395.8599918387556,357.8008197144444,658.566320576251
491,-44.45036199845515,-347.502665386728,37.886887679039894,-196.23718802754658,198.34766607168567,420.97775758918345,359.13409837196684,677.4915237173043
492,-46.57493864916862,-347.761196704079,32.66765444299989,-183.8444155914911,185.71822877886152,444.43505072704176,359.5929220074315,694.2161087774733
493,-48.58437519802528,-347.1081143540768,27.217081904997798,-168.82561880691156,173.24760463635755,465.95035744890043,359.14492784624,708.3644655916758
494,-50.43144244067315,-345.53375090290956,21.585530106171763,-151.58192205349178,161.01698467128367,485.2570595897461,357.77635554128256,719.6204153079418
495,-52.071076570038194,-343.04900749054036,15.827791998021066,-132.58065448385528,149.11457219643384,502.1084673245123,355.49324463223434,727.7337948672896
496,-53.46171846536077,-339.68581662218185,10.002447890922461,-112.3429572726024,137.6311010721322,516.2824925095888,352.3220075416717,732.5249946255793
497,-54.56665857556094,-335.4968884198517,4.171062285459653,-91.42840784484567,126.65497502323919,527.5857977186137,348.30932878501403,733.8874575218349
498,-55.35533336141373,-330.5547303411314,-1.602783613892769,-70.41730953831343,116.2672725564722,535.8572855018837,343.5213745526213,731.7882450647631
499,-55.804509471643634,-324.94996500470063,-7.25461324382104,-49.891462207697685,106.53687512684623,540.9708300507947,338.0423290349167,726.2668344295812
500,-55.89928863457982,-318.78900222949767,-12.720302882015083,-30.41433365923866,97.51597015445545,542.8371944884946,331.97230334139107,717.4323348976284
501,-55.63387060554994,-312.1911487579743,-17.93741595578107,-12.511585806841433,89.23615732958444,541.4051183234427,325.4246888892217,705.4593110244673
502,-55.012022392040635,-305.28526153907194,-22.846573465398645,3.347126223142526,81.70534854430808,536.6615980075819,318.52304900152666,690.5823883762898
503,-54.04721713890119,-298.2060672053522,-27.392806438289476,16.76425864926917,74.9056021890782,528.6314145800551,311.3976594845506,673.0898070883154
504,-52.76242318575494,-291.0902813986239,-31.52683698938603,27.427701758282776,68.79197707819944,517.375982582552,304.18182096440904,653.3160849232592
505,-51.189541358112905,-284.07266736872236,-35.206238788034526,35.12079989046081,63.292436667524036,502.99160380296723,297.0080731286695,631.6339564120375
506,-49.3685056861243,-277.2821743683408,-38.396434026480705,39.728725105333204,58.30878608514004,485.60721073980176,290.0044441736647,608.445766641005
507,-47.3460787604213,-270.83829301357264,-41.0714911976691,41.241039441582856,53.71858577516109,465.3816813130683,283.29086774374844,584.1745139394164
508,-45.17438698334731,-264.84775675704617,-43.21469574067406,39.750450555217,49.37795651969532,442.5008008774109,276.9758940717054,559.2547506017792
509,-42.9092522548876,-259.4017056034343,-44.81887401449017,35.447918411798135,45.12516946545339,417.1739416736514,271.1538114488793,534.1235600838185
510,-40.60838469074742,-254.57341026848223,-45.88646010490406,28.614400250510116,40.78489886933341,389.6305242519692,265.9022785683852,509.2118287935226
511,-38.32950578935454,-250.41663284974445,-46.429304255190324,19.609624328174768,36.17300256151178,360.1163203495935,261.28054830884435,484.93601866503315
512,-36.128473288369825,-246.9646748068964,-46.468230616427334,8.858361722303025,31.10168509523724,328.8896525523023,257.32834010653573,461.6906241191363
513,-34.057477992178626,-244.2301356708184,-46.032360014141666,-3.1652749168628818,25.38489164967921,296.2175435113881,254.06539211465838,439.8414668727677
514,-32.16337916006249,-242.20537730381002,-45.15822039668103,-15.954930654881519,18.843777038546374,262.3718671181685,251.49169673574934,419.71994727159256
515,-30.486238595060104,-240.8636597372084,-43.88867381602022,-28.989895417728043,11.312092773243078,227.62555576283813,249.5883949419361,401.6183323889774
516,-29.058104455698743,-240.16088704920193,-42.2716944230878,-41.7531462324064,2.641334975548515,192.24892078033207,248.3192775771236,385.7861186179122
517,-27.9020844404944,-240.03787716402053,-40.359036952779455,-53.748906055716105,-7.294502935837732,156.5061462439129,247.632817294731,372.427460201922
518,-27.031735196212846,-240.42304952618977,-38.20483919387519,-64.51909616958756,-18.5947247571052,120.65201840085409,247.46463452082693,361.6996082883078
519,-26.45078161963021,-241.23541058941046,-35.86420453559714,-73.65809898752538,-31.328415435564548,84.92895361539566,247.7402860408341,353.71226392046094
520,-26.15316703398356,-242.3877096245257,-33.39181136389603,-80.82531377014641,-45.531739012725225,49.564386298967264,248.37825613417658,348.5277203525417
521,-26.123423515232172,-243.78963652400049,-30.840594442095032,-85.75507854239362,-61.20614891917407,14.7685745574859,249.29302770415987,346.1616608232011
522,-26.337341135073668,-245.35093858785874,-28.260539280900893,-88.26364432113198,-78.31757539687517,-19.267125438080285,250.39811421799905,346.5844890150372
523,-26.762905706001536,-246.9843439147997,-25.697624042197575,-88.25301674461953,-96.79661678666974,-52.3714758211124,251.60894183526793,349.7230975725795
524,-27.36146682897514,-248.6081939203751,-23.192935281667456,-85.71161705791073,-116.53972244281596,-84.39403845217005,252.84548393280465,355.46301805508807
525,-28.089091660382305,-250.1487053900924,-20.78197468690461,-80.71184965564505,-137.41131824040846,-115.20531494536861,254.03456616799585,363.650934532018
526,-28.898054859282343,-251.5418020883928,-18.49416481460651,-73.40478821872007,-159.24679308767293,-144.69636143012698,255.1117780744443,374.097574326351
527,-29.738411771326117,-252.73447626483247,-16.352553328887403,-64.01230026745137,-181.85623761429997,-172.77791806999872,256.02294598602657,386.58100735057843
528,-30.559600259871186,-253.68566068827542,-14.373707768822824,-52.81701636607932,-205.02880485101414,-199.37911612038923,256.725141146813,400.85038744106595
529,-31.312016963638147,-254.366611496334,-12.567786679500102,-40.15061270914091,-228.53754767936118,-224.44584472629904,257.1872156431829,416.6301555534764
530,-31.948516353889634,-254.76082058184105,-10.938768287766882,-26.380913609984923,-252.14457935219195,-247.93887398235887,257.3898767724586,433.62469886667725
531,-32.425785803344084,-254.86349290665038,-9.484815065624872,-11.898334887200964,-275.6064012587226,-269.8318387524062,257.32532715648813,451.5234269317551
532,-32.70555672493088,-254.68063859943615,-8.198751611138476,2.8978163247973256,-298.67924568856984,-290.109188819362,256.99651290404626,470.0061916580395
533,-32.75562019942469,-254.2278415552345,-7.068633962501675,17.612691415084942,-321.12428988720586,-308.76420533196756,256.4160349670838,488.74894697763125
534,-32.550624674146285,-253.5287750634386,-6.078390006927405,31.868441545098246,-342.7126105745297,-325.79717205225097,255.60478893973342,507.4295201172228
535,-32.072642475886084,-252.6135404165037,-5.208512359831248,45.315542380517265,-363.2297646273019,-341.21377383727645,254.59040540589723,525.7333522097147
536,-31.311500380634712,-251.51690647117192,-4.436786653793426,57.64256036757326,-382.4799006869018,-355.02377577743573,253.40556637511173,543.3590629662259
537,-30.264876976276653,-250.2765269404794,-3.7390394601930943,68.58409862525976,-400.28932657615377,-367.2400163357138,252.0862734583075,560.0237018424693
538,-28.938176014767315,-248.93120800071569,-3.089890930960336,77.92674939877264,-416.50947729854016,-377.8777282759206,250.67014040609297,575.4675641535416
539,-27.344190555452396,-247.5192918356377,-2.4634977537508025,85.5129711843511,-431.0192474045732,-386.95418312740316,249.19477670754245,589.458471673975
540,-25.50257764171157,-246.0772123781227,-1.8342725162899383,91.24289636759914,-443.7266696577714,-394.48863894274746,247.69632051638865,601.795440602177
541,-23.439167530671778,-244.63826830711486,-1.1775663651656285,95.07415532378384,-454.5699394689358,-400.50255744511156,246.20816877893176,612.3116833720904
542,-21.185134914323637,-243.23164601427433,-0.47030287339808813,97.01987249257046,-463.5178014964912,-405.02004540603315,244.7599407269385,620.8769131719624
543,-18.77606196319873,-241.88171245242125,0.3084478635293072,97.14504701102491,-470.5693307196338,-408.06846620183,243.37669850673547,627.3989400199733
544,-16.250924436197167,-240.6075850561206,1.1769646422391353,95.56157376732959,-475.75315452305966,-409.6791610350131,242.0784361904591,631.824564112576
545,-13.651032669700715,-239.4229736916232,2.150448230058975,92.42218924766799,-479.1261741680737,-409.8882154995441,240.87983620582972,634.1397855828286
546,-11.018958958799724,-238.3362782314547,3.2406783761138502,87.91363975812645,-480.77185267965797,-408.7372060892413,239.79028073358808,634.3693596014014
547,-8.397481506722695,-237.35091535396052,4.4557592252520495,82.24936822485638,-480.798140893044,-406.27386250868153,238.81409535427758,632.575731735644
548,-5.828572742613501,-236.46584016261744,5.799956199720831,75.66200239528597,-479.3351138864244,-402.5525846050596,237.95099381731325,628.8573908350724
549,-3.352456692640496,-235.67622265933753,7.273626318353501,68.3959055291532,-476.5323868597631,-397.6347571598334,237.19668675519557,623.346676496008
550,-1.006756650382675,-234.97423594497,8.873242837944991,60.70002330602384,-472.55637397485816,-391.5888121751894,236.54361347547697,616.2070772302131
551,1.1742491372050905,-234.34991183071034,10.591513810130296,52.821228346558065,-467.58744713527796,-384.489997665162,235.98175423543853,607.6300558783645
552,3.160249800274093,-233.79201995565626,12.417592596359588,44.99832603049514,-461.8170451975636,-376.4198253158994,235.4994802918322,597.8314422573185
553,4.925392541033625,-233.28892840839117,14.337376534981226,37.45684266398232,-455.4447780802754,-367.46518708875135,235.08440043174537,587.0474402125644
554,6.448637077260532,-232.82940726941843,16.333887672163307,30.40467176843594,-448.67556436861474,-357.7171519233971,234.72416566579383,575.5303062455042
555,7.713974674558444,-232.4033414301064,18.38772671196746,24.02860970145812,-441.71683467884736,-347.2694758010811,234.40719829581883,563.5437674328241
556,8.71051789611543,-232.00232539082205,20.477588452146016,18.491771146419087,-434.77582606915433,-336.2168789571816,234.12331752525554,551.3582552790969
557,9.432471771178049,-231.6201202030455,22.580824566030536,13.93184032356976,-428.05698575604913,-324.6531613604728,233.86424085580953,539.2460385775738
558,9.879000616984065,-231.252960842027,24.674038096964388,10.460086010807501,-421.7594962468398,-312.6692410447945,233.62394825344865,527.4763424994335
559,10.054007154757066,-230.89971055841107,26.733693446877346,8.16104776646312,-416.07492933159807,-300.35120887346693,233.39890395739437,516.3105431419556
560,9.96584187612282,-230.56186664853635,28.736725692683024,7.092786905691988,-411.1850332430148,-287.778496726554,233.18813834371906,505.99752617325015
561,9.626960874390452,-230.24342915573413,30.661133468782822,7.28758844093777,-407.2596554265724,-275.02225280233085,232.9931989953331,496.7692943795224
562,9.053549545693443,-229.95064999731372,32.4865402633081,8.752999012862691,-404.45480248858445,-262.14400746211345,232.81798580917737,488.83690178083896
563,8.265127716525301,-229.6916848728031,34.19470984203593,11.473090580782696,-402.9108387947476,-249.19469680549977,232.66848958525551,482.3867822367138
564,7.284149043835753,-229.47617409319304,35.77000279794127,15.40985014393215,-402.75082569382545,-236.21409086817255,232.55245717597595,477.5775292942041
565,6.135604322525671,-229.3147810687068,37.19976300663598,20.504611786845857,-404.07900430983545,-223.23065131290895,232.47900885079068,474.5371727506071
566,4.8466350647325465,-229.2187183463305,38.4746250187631,26.67946840206987,-406.97942626565685,-210.26182199111585,232.45823481294914,473.3609872221068
567,3.4461607305823225,-229.1992905462545,39.588736069635324,33.8386255616872,-411.51473863994477,-197.31473660926733,232.50079755090957,474.109859803481
568,1.9645204686718738,-229.26748113718764,40.53988925042726,41.86968743838256,-417.72513192573797,-184.38731197807184,232.61756472376817,476.80923789413663
569,0.4331282537882248,-229.43360570391397,41.3295671305552,50.64489188162761,-425.6274625105876,-171.469682966029,232.81929349700653,481.44867378013123
570,-1.1158610584938313,-229.70704847354995,41.9628974689725,60.022335850274374,-435.2145636927109,-158.54592562096462,233.11638187933443,487.98197825002177
571,-2.649878011286511,-230.09609193235062,42.44852451499394,69.84725091556636,-446.45476088240935,-145.59600738582148,233.51869618401037,496.3279901084598
572,-4.136260636455975,-230.60784207547695,42.79840077072949,79.95339997659279,-459.29160704501567,-132.59789799781717,234.03547691818628,506.37196135108076
573,-5.5425755689462495,-231.24824488577326,43.02750499582989,90.16467007021748,-473.64385353998534,-119.52977194846235,234.67531887075336,517.9675489995263
574,-6.8369407222258785,-232.02218356831472,43.153492806328,100.29693198741599,-489.4056694460684,-106.37223352489805,235.44621546231258,530.9393944324875
575,-7.988351106182176,-232.9336411353497,43.196286601519965,110.16022513400053,-506.4471196485767,-93.11049838167288,236.35565281914026,545.0862599316372
576,-8.96700833340914,-233.9859092617929,43.17761181669644,119.5613056848734,-524.614909035365,-79.73647107282794,237.41073566536534,560.1846807224869
577,-9.744653448262158,-235.18182210203668,43.12048671021899,128.3065682941946,-543.7333976512897,-66.2506655717601,238.61832518812182,575.9930795863415
578,-10.294902039259531,-236.52399315711673,43.04867319933977,136.20531848757554,-563.6058897795513,-52.66392476383513,239.98516872361563,592.2562803708697
579,-10.593580131854901,-238.01503420853155,42.9860968307877,143.0733379689848,-584.0161985161157,-38.9989042102599,241.51800236767323,608.7103464478904
580,-10.619058953432031,-239.65773736452806,42.956244888102454,148.73665293930367,-604.7304862380024,-25.29129420570512,243.2236100182145,625.087660522414
581,-10.352586099187027,-241.4552039332081,42.98155283713505,153.03539021238842,-625.4993801417587,-11.590761696363328,245.10882542867407,641.1221536094482
582,-9.77860976012791,-243.41090689792844,43.082790608182506,155.82758980373794,-646.0603602811665,2.0384002226569176,247.1804673005475,656.55458388562
583,-8.885091570077345,-245.5286771635957,43.27846134993338,156.99283616155276,-666.140414619671,15.5169228372262,249.44520115635584,671.1377606300421
584,-7.663802512808744,-247.8126074441909,43.58422606938047,156.43557233247242,-685.4589509357784,28.750516935302564,251.90932565116663,684.6416044757898
585,-6.110595369485875,-250.26687159756347,44.012368033294614,154.08797055729974,-703.7309487275912,41.63013570246044,254.57848503097725,696.8579326037616
586,-4.22564639192618,-252.8954612277939,44.57131120853465,149.91224760689929,-720.6703258028385,54.03254839278484,257.45731351273037,707.6048565146807
587,-2.013658196798651,-255.70184526577944,45.265207527523984,143.90233255483585,-735.9934847462694,65.82122789203203,260.54902126269235,716.7306812028933
588,0.5159847679003122,-258.68856185862404,46.09360821190956,136.0848179566496,-749.4229950517133,76.84755489084539,263.85493520592416,724.1171988537288
589,3.349117431541362,-261.8567552338551,47.0512343679278,126.51915178098623,-760.6913586884525,86.95234010251177,267.3740110228266,729.6822785627646
590,6.466761615588937,-265.20567331360104,48.12786119511201,115.29705555796463,-769.5448013586964,95.96766377538022,271.10233537211326,733.3816666164329
591,9.845169253599066,-268.7321446906191,49.308328167549625,102.54118208557263,-775.7470293339361,103.71902877529791,275.0326395403539,735.2099295303512
592,13.45594944795817,-272.4300558822253,50.57268429024991,88.40305144064786,-779.0828925478401,110.02781988047886,279.1538470812543,735.2004936495414
593,17.266285075422026,-276.28985119065175,51.89647291572733,73.0603250450393,-779.3618979211907,114.71405776245052,283.45067821068017,733.4247595096164
594,21.239241330293993,-280.2980778135987,53.25115473330246,56.71349288021625,-776.4215215134409,117.5994314612123,287.90333257673257,729.9902948575084
595,25.334164703266836,-284.4369981584544,54.6046608863306,39.582058247089165,-770.1302727130433,118.51058783798857,292.4872696773948,725.03813576923
596,29.507166641071695,-288.68428992689957,55.922061558762934,21.900308335932742,-760.3904673328773,117.28265013055486,297.1731030693805,718.739249621862
597,33.71168171577585,-293.01285277508015,57.16632971884237,3.9127588091716707,-747.1406688652929,113.76292997744325,301.9266210669849,711.2902363302218
598,37.899085965435475,-297.3907383758395,58.29917568696264,-14.130641415526735,-730.3577586094417,107.81478807972641,306.7089431775929,702.9083653237001
599,42.01935771739467,-301.78121846759035,59.28192604231143,-31.979461301002623,-710.0585965787482,99.3215884435066,311.47681813922793,693.8260654693743
600,46.02176112765823,-306.1430028713548,60.07641990278242,-49.38781290984101,-686.3012365755063,88.19068052482884,316.18306608637664,684.285003511845
601,49.85553205057882,-310.4306165557384,60.64589636327215,-66.11937144667277,-659.1856607324974,74.35733303569044,320.7771641463486,674.5299030380575
602,53.47054665834965,-314.594941847842,60.955848440302766,-81.95231544645867,-628.8540010243826,57.788532742482836,325.20597186392087,664.80226955734
603,56.81795537612486,-318.583928954286,60.97482107562527,-96.68411994137008,-595.4902175702573,38.48655120001893,329.414590418182,655.3341969887009
604,59.850768186272376,-322.3434748975491,60.675133742066755,-110.13614510265728,-559.3192058942667,16.49217214202838,333.3473475594228,646.3424355760874
605,62.524382154872704,-325.81846730430453,60.03351224373574,-122.15797173175831,-520.6053076452696,-8.112537216061247,336.9488981868815,638.0228996714338
606,64.79704781494102,-328.9539845395283,59.03161955501395,-132.6314382451452,-479.6502015825046,-35.20203532744187,340.16542786322077,630.5457843083605
607,66.63027716963948,-331.69663680549326,57.656482000797624,-141.4743257120357,-436.7901540295235,-64.60582452065451,342.9459425705699,624.0514404809059
608,67.98920193519915,-333.9960235620562,55.90081465362456,-148.6436128091239,-392.39261103027354,-96.10780584884661,345.24362206795746,618.6471297687968
609,68.84289579793479,-335.8062710250706,53.76325792182341,-154.1381782977006,-346.85211940069325,-129.44658994483348,347.01720613758084,614.4047399495859
610,69.16467854142032,-337.08760060469217,51.248543960017045,-158.00076695374122,-300.58557285536864,-164.31686614517585,348.23237336001563,611.3594962534086
611,68.93242241636025,-337.8078669739057,48.36761312852137,-160.31896724117502,-254.02679499918645,-200.3719052362047,348.86306213915793,609.5096511246727
612,68.12888131364558,-337.94399499582767,45.13769370372522,-161.22489892709464,-207.62049569559034,-237.22723466690243,348.8926749539153,608.8170857785402
613,66.74206015853999,-337.4832392986555,41.58234215486347,-160.89330694795694,-161.81567234960667,-274.4654803203206,348.315100560406,609.2087229161007
614,64.76563490276024,-336.42419033031433,37.73142148004593,-159.53782674483793,-117.05857059020528,-311.64231829978036,347.1354870435276,610.5786466576321
615,62.199423341175674,-334.77745812509517,33.62097929908014,-157.40532363722377,-73.78536186072598,-348.2934275119212,345.37070376987214,612.790855728681
616,59.049895685773045,-332.5659801735799,29.2929816550689,-154.7683839831928,-32.4147275579547,-383.94228466980076,343.049443477379,615.6826210130134
617,55.330703103012695,-329.82492015845537,24.794863570941818,-151.91620619462006,6.659446852530327,-418.10860322229627,340.2119347921579,619.0684501331014
618,51.063192803925915,-326.60114588290077,20.178870175115648,-149.14427306804413,43.075068320926924,-450.31718937394527,336.9092563570775,622.7446609325104
619,46.27686986094304,-322.95229458773053,15.501179015260393,-146.7432720119871,76.50833951371487,-480.1069710468064,333.2022633663623,626.4945331213216
620,41.009759589461645,-318.9454510768095,10.820812642576463,-144.98776976730522,106.6796062779712,-507.0399473106752,329.16015450202264,630.093956267333
621,35.30862180630722,-314.6554787248613,6.198368981841872,-144.12515076258177,133.3584098614939,-530.7098057314872,324.8587220871355,633.3174384785657
622,29.228970895457838,-310.1630557320489,1.694613472464126,-144.3653017977992,156.36762838563814,-550.7499644206596,320.37834082832364,635.9442959966492
623,22.834863072918665,-305.5524790001519,-2.6310107760447203,-145.87148034941117,175.58661595382034,-566.8408156871767,315.8017606711668,637.7648170433234
624,16.198422629378737,-300.9093058560275,-6.721892250444362,-148.75274968666673,190.95327206910676,-578.7159784168799,311.2117768432745,638.5861857521336
625,9.399090025918456,-296.31790988670645,-10.525716828624574,-153.05830705823917,202.4650004034607,-586.1674033256861,306.6888552392053,638.2379615584872
626,2.522585518880232,-291.85903175656154,-13.995831042581926,-158.77396954744165,210.17854544389078,-589.0492149550704,302.3087943189926,636.5769317947457
627,-4.340406967016976,-287.6074089341245,-17.092449383730923,-165.82100821688354,214.20872639336167,-587.2802140269152,298.14050578601245,633.491186635314
628,-11.095818710511171,-283.6295689881071,-19.783658386274634,-174.05742852713337,214.72611609127134,-580.8450026446543,294.24399500197364,628.9033030628807
629,-17.648007085652264,-279.98186858682203,-22.046177085085247,-183.2816849130695,211.95373551148765,-569.7937323838775,290.66861764454774,622.7725651674621
630,-23.901753554742246,-276.7088540485148,-23.86584190924007,-193.2386994950603,206.1628507822549,-554.2405106491592,287.4516811070106,615.0961879479061
631,-29.764390735638443,-273.84200927010744,-25.237794972082046,-203.62794334226433,197.66797059044316,-534.3605327469942,284.61744771215564,605.9095470211327
632,-35.147990006649614,-271.39894349339676,-26.16636824123959,-214.11324704460867,186.82114885890428,-510.38603556778776,282.1765824922952,595.285445500755
633,-39.97153426691877,-269.3830553344853,-26.664671396784303,-224.33394481064542,174.00570230961972,-482.60119395002044,280.1260718376511,583.3324729680053
634,-44.16299781023029,-267.7836916907901,-26.753906541977027,-233.91692553677942,159.62945611515565,-451.3361031055299,278.4496215644119,570.1925324538107
635,-47.66125684551654,-266.5768012635422,-26.462446243924937,-242.48916072109057,144.1176336788818,-416.9600097884894,277.118524496825,556.03763085149
636,-50.417759675139735,-265.7260627853129,-25.824721136795922,-249.69029288641866,127.90550846607586,-379.87397071079283,276.09296876108385,541.0660446580262
637,-52.397894302754615,-265.1844478560918,-24.87996901330243,-255.1848885714273,111.43093677423569,-340.5031285409174,275.3237389831591,525.4979831613108
638,-53.5820025709485,-264.8961583269355,-23.67089928317668,-258.67397965364665,95.12689128117425,-299.2888031302417,274.7542443419198,509.5708723335994
639,-53.96600318209237,-264.7988598116812,-22.242325593755382,-259.9055339842165,79.41411746868793,-256.68059767831437,274.3227913515702,493.5343739686442
640,-53.56160053833015,-264.82611779073676,-20.639816078595622,-258.68351402473843,64.69403911707913,-213.12871562249518,273.9650068315153,477.6452377598751
641,-52.396071577144205,-264.90993240530304,-18.90840586960577,-254.87520604851372,51.3420438335301,-169.0766736051767,273.6163090041751,462.1620631317208
642,-50.511637919201384,-264.9832636116091,-17.091410716860217,-248.41653864591322,39.70128236212522,-124.9545788080153,273.2143228991475,447.34002848832444
643,-47.96444494017636,-264.98244059722896,-15.229374040623801,-239.3151625767554,30.07711324691534,-81.17311544838121,272.701140670814,433.4256344759325
644,-44.823182189001734,-264.8493582810755,-13.359172553450858,-227.65113651980337,22.732315295483726,-38.118355751963534,272.0253378986947,420.6515099141911
645,-41.16739046444525,-264.5333784233974,-11.513297868170001,-213.57515324213887,17.883173933405928,3.8525239500841266,271.14367248374475,409.2313458177177
646,-37.08550968951327,-263.99287168090615,-9.719323551272154,-197.30434223720695,15.696525170760376,44.414579738106255,270.02241177026525,399.355051135553
647,-32.67272854409982,-263.1963579409885,-7.999559343220545,-179.11578895217076,16.28781448035668,83.27748678160847,268.6382542267883,391.18425596433985
648,-28.028701570678127,-262.12322373567036,-6.370887307099636,-159.33800783478063,19.720199426096926,120.18701198976908,266.9788327884009,384.84831490210246
649,-23.255201864912237,-260.76401597304385,-4.84476902943196,-138.34068946609955,26.004696190280146,154.9256419883636,265.0428063521291,380.44097731141574
650,-18.453777253164205,-259.12032933291937,-3.4274089719425835,-116.52310776811184,35.10134280481815,187.31246173684877,262.83956268739223,378.0178883448358
651,-13.723475078157922,-257.2043195475522,-2.120056496242156,-94.301621540144,46.9213270989211,217.20239551749214,260.388569376674,377.5950636500697
652,-9.158695631381477,-255.03788610506004,-0.9194274691880279,-72.09673605106839,61.33000583240355,244.48492830950235,257.7184191512518,379.148442728173
653,-4.84722730447006,-252.65157584840713,0.18177469663938578,-50.320204598997584,78.1507234731613,269.0824226095012,254.86562243327236,382.61457353632636
654,-0.8685082319662694,-250.08326390598873,1.194259350446438,-29.36264499152922,97.16932469452678,290.9481356992125,251.8732035449821,387.8924191390405
655,2.7078498983105224,-247.37667083608343,2.131491343076532,-9.58211998028689,118.13924388292611,310.0640279743719,248.78915842209952,394.8462140881474
656,5.823249706299381,-244.57977520286664,3.008997374075879,8.705916386437757,140.78704756127723,326.43843701906366,245.66483121599933,403.30924311193286
657,8.430991141013527,-241.74317930952705,3.8436570515438406,25.23697053354757,164.81830142083427,340.1036768970223,242.55326518010182,413.0883748563201
658,10.496842612701487,-238.91848267255352,4.652999460265133,39.80390371150878,189.92363255423086,351.1136091136643,239.50757986691417,423.9691616003575
659,11.999302096694151,-236.15671319872146,5.454525352872603,52.261202247667875,215.78485947220727,359.5412214688026,236.57942203573182,435.72131046143556
660,12.929558121001165,-233.50686010881438,6.265073906585686,62.52704830589649,242.08106723154037,365.47624334447755,233.81753191488,448.10433855213637
661,13.291167550248709,-231.0145456544228,7.100251241691125,70.58320483826846,268.4945118347604,369.0228202708285,231.26645973410353,460.87323957199084
662,13.09947289811438,-228.72086496142728,7.9739355663167855,76.4728122364696,294.716246343501,370.2972664774975,228.96546005107874,473.7840092028387
663,12.380786425688221,-226.66141549239416,8.897870908685414,80.2962702767836,320.4513705194259,369.4259113829385,226.94758387170566,486.5988990826997
664,11.171371510260816,-224.86553024207026,9.881357900842696,82.20544418618402,345.4238161177957,366.54305429952285,225.23898145796437,499.09129182472907
665,9.51625388716269,-223.3557221448453,10.931046035594802,82.39648459578304,369.3805911437851,361.7890404796409,223.85842229156984,511.0501104564491
666,7.467896670619991,-222.14734124738692,12.050827494059757,81.10158549717899,392.0954185797611,355.3084704423379,222.81703287797242,522.2836937937304
667,5.084773772433287,-221.24844091391216,13.241828449539744,78.58002182084039,413.3717187824341,347.2485531104409,222.11824785758088,532.6230852571273
668,2.4298765367506303,-220.65984469788378,14.502490108580663,75.10881030717401,433.04490046697276,337.75761179208865,221.7579652469608,541.9246980109951
669,-0.43081189410140525,-220.37540153463755,15.828728993208273,70.9733261786177,450.98394292498136,326.98375047412594,221.72489257017034,550.0723351472111
670,-3.429840710351391,-220.38241354876257,17.214164262436565,66.45818624350102,467.092271036603,315.07368590960056,222.00106713874973,556.9785599240734
671,-6.499781378036447,-220.66221799500954,18.650399084422755,61.83867876049924,481.3079434948134,302.17174817726766,222.5625307822533,562.5854271103657
672,-9.574652192191088,-221.19090259634638,20.127342893714864,57.372983451579074,493.60319234338897,288.41904869747907,223.3801368749356,566.8646015926616
673,-12.591248347030733,-221.9401316570854,21.633561591593207,53.29538287880887,503.98336744876667,273.9528102941652,224.42046543126946,569.8169039371281
674,-15.490351355806181,-222.8780586448336,23.15664334705122,49.81062044093988,512.4853517347334,258.9058489402681,225.6468202262082,571.4713335821627
675,-18.217795333491086,-223.9702993986394,24.683568632121098,47.08951221989508,519.1755207857568,243.40619144307004,227.0202803137717,571.8836276581371
676,-20.72537187303688,-225.18093882398927,26.201074351327584,45.26587164570982,524.1473233005665,227.57680801944855,228.5007770716779,571.1344166017159
677,-22.971559779676085,-226.4735430437337,27.696003163715613,44.434759082031604,527.5185573560343,211.5354344973853,230.04816714051114,569.3270373207577
678,-24.922070584564675,-227.81214868238158,29.155630155563383,44.65202429917188,529.4284127033828,195.3944568186532,231.6232715215679,566.5850618683146
679,-26.550205386493676,-229.16220150336062,30.567959893847522,45.93506955606137,530.0343427050478,179.26083106797952,233.18885186795555,563.0495955227842
680,-27.837023058949164,-230.49141823298626,31.921987719585108,48.264725791181746,529.5088221743207,163.2360150801753,234.71049688787556,558.8763935373233
681,-28.771324121266083,-231.7705482115579,33.20792006862748,51.588105426442155,528.036040134716,147.4158919141946,236.1573948971175,554.2328409478953
682,-29.349458593416767,-232.97401541976683,34.41734966749021,55.82227361852506,525.8085699848151,131.89067015582313,237.5029728150473,549.2948349793452
683,-29.5749700453155,-234.08042616294298,35.5433826255004,60.85856593285102,523.0240542860741,116.7447504026562,238.7253870321162,544.2436052219588
684,-29.45809190232513,-235.07293286590215,36.5807157946583,66.56737381202093,519.8819379107244,102.05655113212204,239.80785721951946,539.2625035398349
685,-29.015115707192088,-235.9394496014542,37.52566440712867,72.80321865826423,516.5802819688025,87.89829059986032,240.738839859634,534.5337942928048
686,-28.267654087155332,-236.67271983441222,38.37614190836149,79.40994005085025,513.312691825949,74.33572482238156,241.5120436751254,530.2354763711123
687,-27.241823434137483,-237.2702413552976,39.13159589448454,86.22583364082955,510.26539519437466,61.42784533313585,242.1262941003147,526.5381717932764
688,-25.967372905421392,-237.73405756856647,39.7929059493202,93.08858960522282,507.6145096845804,49.22654405650949,242.5852585132055,523.6021204579246
689,-24.476787404092153,-238.07042814055538,40.362250846182576,99.83990197010718,505.52354178773294,37.77625556770713,242.8970480796267,521.5743254318522
690,-22.804392524391634,-238.28939533158953,40.84295386588448,106.32964034774098,504.1411594698514,27.113588490335157,243.07371554020483,520.5858959914797
691,-20.98548876488135,-238.4042650017514,41.23931566134553,112.41949663341565,503.5992774706294,17.266957838409457,243.13067090294373,520.7496352851622
692,-19.055540487919686,-238.43102329532383,41.55644413665126,117.98603918275197,504.011487867157,8.256229361052913,243.08603878648339,522.1579157974729
693,-17.04944213574769,-238.38771148774165,41.80009046673379,122.92312648056911,505.4718589134965,0.09238604652274168,242.95998226758516,524.8808794686257
694,-15.000880135722015,-238.29378249052243,41.97649992125762,127.14365252370546,508.0541134677254,-7.222773577607588,242.77401866175023,528.9649915776847
695,-12.941803853941444,-238.16946285681496,42.092285461502065,130.58061797691718,511.81118575879174,-13.696895214497237,242.5503525258425,534.4319698130731
696,-10.902013188779549,-238.0351433066284,42.154330759215256,133.18754439449864,516.7751433375167,-19.347274461017847,242.31124978052588,541.2781035899767
697,-8.908864405830283,-237.91081836459617,42.16972715564888,134.93827174574278,522.9574511193922,-24.200992631779602,242.07847377312925,549.4739741635364
698,-6.9870901205744556,-237.81559183142238,42.14574642151237,135.82619958070606,530.3495472063335,-28.29496250445773,241.87279955097068,558.9645830958013
699,-5.158724389834467,-237.7672602358632,42.08984846312607,135.86304745075356,538.923695643137,-31.675858955010817,241.71361740344426,569.6698943241355
700,-3.4431199805355113,-237.7819818976644,42.009720583138844,135.0772204666633,548.6340787527439,-34.399905077095575,241.61863164701174,581.4857926422259
701,-1.8570421470552962,-237.8740351245972,41.91334250002001,133.5118723208633,559.4180903785845,-36.532481309792054,241.60365601074955,594.2854583852103
702,-0.4148216435748473,-238.05566540374755,41.80906900472103,131.22276165905248,571.1977907362017,-38.14752425601699,241.68250285893134,607.9211543382091
703,0.8714508559571853,-238.33701813638606,41.70572006074728,128.2759979767892,583.881483560555,-39.32668384670561,241.8669598009692,622.2264162837563
704,1.9917063872562848,-238.72615031328468,41.612666755054384,124.74576866936646,597.3653770851188,-40.15821232364271,242.1668438723577,637.0186331960733
705,2.9376715583838795,-239.22911148277703,41.539901257200924,120.71212747717858,611.5352925016186,-40.735565709029906,242.5901204683391,652.1019970684039
706,3.702648500901488,-239.85008191379507,41.49808001364297,116.2589053335657,626.2683869008782,-41.15570742188839,243.14307209463152,667.2707957378776
707,4.28131145038761,-240.5915547556214,41.498531374378054,111.47177952085069,641.4348612505598,-41.51711436499181,243.8305014204692,682.3130142890337
708,4.669526819841226,-241.45454941873933,41.553220950848285,106.43651143922538,656.8996260919758,-41.917498524908225,244.65595407211964,697.0142009028539
709,4.8642003621471535,-242.43884470716276,41.67466971698894,101.23734310763776,672.5238974783862,-42.451272031720514,245.6219483380081,711.1615413667315
710,4.863152504838281,-243.54322162160028,41.87582116440629,95.95553063948765,688.1666939990414,-43.20679992058056,246.73020067897102,724.5480740491327
711,4.665021102948125,-244.7657068178219,42.169854949304195,90.66798854221132,703.6862043918595,-44.26350103820734,247.98183730799136,736.9769657466882
712,4.269189531140432,-246.10380844300664,42.569945724655994,85.44601934408085,718.9409960072251,-45.6888721290309,249.37758318628232,748.2657599396234
713,3.675737145505147,-247.5547367131017,43.08896755387881,80.35410690612974,733.79103813314,-47.53552194984654,250.91792086380053,758.2505034317527
714,2.8854086602987397,-249.11560239014116,43.73914664846812,75.44875819951238,748.0985208049118,-49.83831054575187,252.60321295811454,766.7896551538737
715,1.8995988911460884,-250.78358733026207,44.53166802072656,70.77738728628043,761.7284583948482,-52.61169319838932,254.43378374528376,773.7676816173348
716,0.720349645355116,-252.5560823793489,45.47624455809451,66.37724644742842,774.5490770720896,-55.84736890856385,256.40995712338906,779.098246541601
717,-0.6496436617305508,-254.4307890410679,46.58065963633995,62.27442195495474,786.4319955290132,-59.51232955157305,258.5320499758814,782.7269072186629
718,-2.2070169030281948,-256.4057826608061,47.8502966459687,58.48292468143007,797.2522189563103,-63.547397977990535,260.80032181799385,784.633237223841
719,-3.9477135889126833,-258.47953646251534,49.287670844997606,55.00391761957821,806.8879768852214,-67.86633145958915,263.2148836728868,784.8323041804574
720,-5.866951506598899,-260.6509074628902,50.89198077694706,51.8251328486784,815.22044555831,-72.35555180901217,265.7755712102522,783.3754421194897
721,-7.959177794899559,-262.9190866561695,52.65869787696299,48.92053886296502,822.133403961066,-76.87454676897282,268.4817888376776,780.3502698942473
722,-10.21801042901972,-265.2835166132177,54.57921354352689,46.250324275300585,827.5128788320307,-81.25697041195413,271.33233231919536,775.8799196650228
723,-12.636164445881318,-267.74377980665736,56.640562683824726,43.76126421033377,831.2468378255663,-85.312454159841,274.3251976136579,770.1214528195933
724,-15.205361939402254,-270.2994607862468,58.825241396232485,41.38753016396935,833.2249919645166,-88.8291247795384,277.45738317846826,763.2634554642087
725,-17.91622561742234,-272.94998493874147,61.111133945902516,39.05199267772253,833.3387691620776,-91.57681105122674,280.7246921066964,755.5228225451553
726,-20.758156532541022,-275.6944360261247,63.47156073507599,36.668049479114664,831.481520366695,-93.31090622244082,284.12153925243,747.1407592855446
727,-23.719197820177087,-278.53135409436373,65.87545509410988,34.14199057605112,827.5490186549572,-93.77683862127493,287.64076714622905,738.37805078001
728,-26.7858880703234,-281.45851482098914,68.28767282057686,31.37588714926405,821.4403082187443,-92.71508843641193,291.2734732226934,729.509673978733
729,-29.94310998628681,-284.4726910221541,70.66943446076137,28.270964220267857,813.058952856468,-89.86667560100737,295.0088497500803,720.8188487975029
730,-33.17394175373688,-287.56939693330406,72.97889617354788,24.73138920181985,802.3147207841536,-84.97903239503924,298.8340368711236,712.5906447147261
731,-36.459519866606925,-290.74261613512056,75.17184057617386,20.6683803472564,789.1257238569992,-77.81216448549863,302.73398843577314,705.1052747867138
732,-39.778923111362566,-293.9845148360589,77.20247431788138,16.00451113785644,773.4210053040055,-68.14499488582365,306.6913500663145,698.631220318129
733,-43.109088066001924,-297.2851438919324,79.02431442830948,10.678059071991127,755.1435423892019,-55.78177585171967,310.6863494229823,693.4183369830902
734,-46.42476677579248,-300.63213560242434,80.59114105177512,4.647220994713929,734.2536010345657,-40.55844327871728,314.6967001484677,689.6910978138413
735,-49.69853717488654,-304.01040496071147,81.85799042915431,-2.106006094533532,710.7323502795168,-22.348776557686026,318.69752353601746,687.6421307459678
736,-52.900876425621675,-307.4018693908669,82.7821592905129,-9.572497023910314,684.5856169971132,-1.0702150165193591,322.6612954383697,687.4262084660679
737,-56.00030682183536,-310.78520554904753,83.32419034083183,-17.71344945676057,655.8476368435686,23.310828065909917,326.5578298606176,689.1548461485553
738,-58.963623234565944,-314.13566580545745,83.44880824776257,-26.45883617976513,624.5846375786888,50.77431945591134,330.35431440295827,692.8916586528997
739,-61.756209926980674,-317.42498007127233,83.12577642019515,-35.70706335249905,590.8980775417822,81.2427957119249,334.01541570851725,698.6486235924058
740,-64.34245250015006,-320.621370534216,82.33064691409675,-45.32600748257122,554.9273567855656,114.57855450340413,337.5034751235927,706.3833908552824
741,-66.68624757984092,-323.6897075240308,81.0453790908278,-55.15555735934902,516.8518218280889,150.58200785888678,340.7788157951479,715.9977722593511
742,-68.75160877166468,-326.5918337344692,79.25880727654729,-65.0117262414384,476.8918967388302,188.99134814542944,343.80018206873837,727.3375354856279
743,-70.50336262723846,-329.28708067300147,76.96694382679952,-74.69232517138762,435.3091921005145,229.48366176434826,346.52532972855926,740.1936117181034
744,-71.90792291273138,-331.7329948553138,74.1731120253326,-83.98410181781668,392.40546795614074,271.6776003097019,348.91178084385734,754.3048037071475
745,-72.93412527677971,-333.8862815564052,70.8879133212815,-92.67115212164865,348.5203564361419,315.1376814764504,350.9177494619368,769.3620480777646
746,-73.55409776731776,-335.7039607179113,67.12904494752661,-100.54430562658371,304.0277845239235,359.3802411524945,352.5032338397023,785.0142414256325
747,-73.74413668690568,-337.14471301788694,62.92099498783813,-107.41107243719286,259.33107799697115,403.88099501113953,353.63125709689393,800.875583306517
748,-73.48555386595244,-338.1703749869211,58.29464905311588,-113.10562764239117,214.85677410569934,448.0840959336885,354.26922146319276,816.5343194061402
749,-72.76546202707674,-338.747522226528,53.286842171109015,-117.49821401574253,171.04722204676307,491.4124979508079,354.3903231307812,831.562684980405
750,-71.57746912745682,-338.84906178459704,47.939879535744275,-120.50329164308813,128.35210540799548,533.2793643720453,353.974957502785,845.5277590093744
751,-69.92225817505991,-338.4557414688909,42.3010327998299,-122.08578068079491,87.2190788423474,573.1001932509604,353.01203122732795,858.0028605628822
752,-67.80803383832946,-337.5574782490421,36.422001074639375,-122.26484295756757,48.08377138964145,610.3052813586849,351.5000908789336,868.5790699759226
753,-65.2508207178351,-336.1544119225636,30.35831459431255,-121.11481707525343,11.359467255750275,644.3521113791928,349.44818091681196,876.8764460528463
754,-62.27460122912242,-334.25760379916886,24.168657049365308,-118.76312962369806,-22.573176810265593,674.7372305071576,346.8763559926351,882.5545292979721
755,-58.91128432780027,-331.8893209018533,17.914088233937076,-115.38522251011443,-53.37599050445571,701.0071981484928,343.81579259541434,885.3217597140615
756,-55.2004996281567,-329.0828707231128,11.657158643926007,-111.19674651968947,-80.76233857733133,722.7682199667258,340.3084688830501,884.9434925387935
757,-51.18921416646587,-325.88197705267163,5.460919793379662,-106.44346546066397,-104.50500234426949,739.6941525942242,336.40640625285545,881.2483659569154
758,-46.93117074112753,-322.3397119510099,-0.6121528126433574,-101.38948084353714,-124.44259165937693,751.53264879665,332.1704897417898,874.1328551468416
759,-42.486147868579586,-318.51702142233034,-6.501294002598618,-96.30450343615351,-140.48425311738202,758.1093050453469,327.668905557033,863.5639253780997
760,-37.9190432234048,-314.4809019076197,-12.148599227406846,-91.45094592925274,-152.61251207060104,759.3297625823155,322.97525220778067,849.5797648339304
761,-33.29878644952034,-310.3023007588285,-17.500142129347648,-87.0715845737473,-160.88415618629415,755.1797931773551,318.1663964617578,832.2886355484886
762,-28.69709402501868,-306.0538261325262,-22.507008940302605,-83.37844902439836,-165.4291372009984,745.7234691886133,313.3201567232136,811.8659338089221
763,-24.187087584743708,-301.80736047687225,-27.126203549584222,-80.54347229885762,-166.4475376471,731.0995738057187,308.5129048073279,788.549603631107
764,-19.841806003786978,-297.6316773350463,-31.32138642391331,-78.69129113955944,-164.2047204107446,711.5164520158945,303.8171827723682,762.6340975776834
765,-15.732649077632601,-293.590163497028,-35.063422757590814,-77.89444849527636,-159.02484663671456,687.2455362602764,299.2994341906793,734.4631236154634
766,-11.92779602630565,-289.73874689047346,-38.33072779021133,-78.17112247703677,-151.2830049724867,658.6138029863855,295.01794804073853,704.4214498624748
767,-8.490645079151527,-286.12412402021766,-41.10940836928422,-79.48539135720429,-141.39623650606237,625.9954276171173,291.0211071516747,672.9260579285617
768,-5.478321059748763,-282.7823686945167,-43.393208854839045,-81.74994051735096,-129.81376211978252,589.8029065362949,287.3460212685552,640.4169394191764
769,-2.940296381774919,-279.7379865361739,-45.18327637293323,-84.83102337881466,-117.00672283792254,550.4779064615282,284.0176077229276,607.3478197780963
770,-0.9171675989962788,-277.00345842449667,-46.487765371523274,-88.55540395717746,-103.45773197458097,508.4820852957576,281.0481615092387,574.1770704877141
771,0.560374970085098,-274.5792919097048,-47.321304528962045,-92.71893417651361,-89.65051469086309,464.2881061649888,278.43743267892677,541.3590369315715
772,1.4723528304747495,-272.4545741170955,-47.70435059917991,-97.09635558775078,-76.05988068534438,418.37104037901435,276.173203751973,509.33596765380076
773,1.8100553754760107,-270.60799400467397,-47.66245423649599,-101.4518650068742,-63.14224373439462,371.2003278755505,274.2323346667264,478.5306839912566
774,1.5763297067334427,-269.0092775426935,-47.22546261948147,-105.5499503335869,-51.326871226134195,323.23243695685966,272.58221913692813,449.34007962648053
775,0.7855961344446314,-267.6209582267571,-46.42668289934013,-109.16599005747618,-41.00801951037881,274.90433958323314,271.182575841279,422.1294904094667
776,-0.5364101142090902,-266.40038906046755,-45.30202913245202,-112.09612034716484,-32.53808668178111,226.62789419749254,269.98748222433704,397.227929563585
777,-2.3531626217055477,-265.30189200614745,-43.88917354958413,-114.16590847091541,-26.22189168272575,178.78520435242766,268.9475489775185,374.924146585849
