time,ax,ay,az,gx,gy,gz,accmagnitude,gccmagnitude
0,-38.18107500635497,-249.49612661049306,-71.02399090736465,-54.931376392034004,6.315799371717073,-14.792432204462871,262.16056345344094,58.50786602021461
1,-38.017336517679304,-250.56721718556335,-70.89566157998466,-54.1666096095047,9.029573389381765,-13.774579839682504,263.1182629444996,58.610839540138485
2,-37.85008240773628,-251.54771168521341,-70.78327874493822,-53.318311295139914,12.048413019904018,-12.972448135642699,263.99269220822424,58.75239389066098
3,-37.68426771458118,-252.4256918692448,-70.6858315371245,-52.39441172194469,15.363385059274307,-12.410877610880906,264.77318687069874,58.94032488340014
4,-37.524692304783606,-253.19023092272886,-70.60088401449012,-51.40705356889614,18.959654902519198,-12.112030387725442,265.44968842914653,59.185117191930644
5,-37.37586819873543,-253.8316287475311,-70.52449623401087,-50.37273556276718,22.815989506383097,-12.094709572442808,266.0129276721482,59.50003909941171
6,-37.2419030825812,-254.34165687619318,-70.45120030916245,-49.312311587268546,26.904314982415432,-12.37367061582109,266.45463223237573,59.901126101457706
7,-37.1264041275615,-254.71380863838058,-70.37403721567473,-48.2508309227298,31.18934964845222,-12.958940405557986,266.76775608539253,60.40704495890023
8,-37.03240485982621,-254.943548135756,-70.28465782230309,-47.21721003725458,35.6283343620733,-13.85516353865843,266.94672608028907,61.03883431953647
9,-36.96231623417253,-255.02854950514782,-70.17348896966269,-46.243731541413666,40.170882550441036,-15.060998806610764,266.9876977458325,61.819522788566864
10,-36.91790159092537,-254.968915887251,-70.02996263627539,-45.365371454217076,44.75897252292139,-16.5685919367598,266.8888097720579,62.77363017888714
11,-36.90027401415066,-254.76736562159203,-69.84280362352405,-44.61896181760214,49.327104456899995,-18.363152503293712,266.65042396889794,63.92656258024634
12,-36.90991363153979,-254.4293718347572,-69.60036886386847,-44.04220204746831,53.80264396349283,-20.422663180962118,266.2753355207168,65.30391696130958
13,-36.946701398567455,-253.96324118333365,-69.29102928997395,-43.672539334613475,58.10637327631286,-22.717747909993292,265.7689373216001,66.93071635201632
14,-37.00996494723862,-253.38011831375198,-68.90358308073463,-43.54594588109304,62.15326939243746,-25.211722037109,265.13932231709407,68.83060204863611
15,-37.09853143006074,-252.69390470338175,-68.42768705630431,-43.695628479227565,65.85352508671427,-27.860842244252343,264.39730922899486,71.02501410541
16,-37.210782156179434,-251.9210838716437,-67.85429118882371,-44.150713323922716,69.11382271829378,-30.614767340116092,263.55637978975284,73.53239467632089
17,-37.34470418593276,-251.0804492185071,-67.1760598626107,-44.93495525873534,71.83886166230488,-33.41723307085204,262.63251944888543,76.36744964632328
18,-37.49793481400732,-250.1927355693828,-66.38776289527001,-46.06552523500302,73.93312823441373,-36.206935320249805,261.6439581029279,79.54050193965031
19,-37.667795949902654,-249.28016051469922,-65.48661958332481,-47.55193215994839,75.30288295825613,-38.91860679881325,260.6108124233527,83.0569649372151
20,-37.85131672840654,-248.3658865019942,-64.47258025165593,-49.395135225453004,75.858325133084,-41.484263047821905,259.554636517634,86.91695705141939
21,-38.04524412794203,-247.47341900000634,-63.34853202605101,-51.58690000043682,75.51588019412105,-43.83458482651711,258.4978926101336,91.11506952615885
22,-38.2460427145011,-246.62595956165296,-62.120418775062966,-54.10944590884223,74.20054263401231,-45.90039618380924,257.46335780209836,95.6402901147074
23,-38.449885598224476,-245.84573513658952,-60.79726907970956,-56.935424405330025,71.848197469157,-47.61419124177104,256.47348651841025,100.47607685555204
24,-38.65263920105767,-245.15332664695075,-59.39113014294868,-60.02825683483785,68.4078372519615,-48.91165863391346,255.5497509241649,105.6005701027614
25,-38.849844698390804,-244.56702080745384,-57.91690924841261,-63.34284943287429,63.84358978570788,-49.73315153008745,254.71198344727438,110.98692821631056
26,-39.036699365947776,-244.10220943112597,-56.3921275221406,-66.82669071295214,58.136473835730584,-50.02505399013366,253.9777465616172,116.60377309278434
27,-39.20804178314626,-243.7708597940216,-54.83659341202373,-70.42132355711615,51.28580584877633,-49.74100121779221,253.36175501811252,122.41573548344745
28,-39.35834592653967,-243.58107777605085,-53.27200557086455,-74.0641702597701,43.310189664567915,-48.8429215158049,252.87537454173554,128.38409569596115
29,-39.48173036758441,-243.53678237033114,-51.72149665113946,-77.69067319729027,34.24803333612342,-47.30187991589961,252.52621851244368,134.46752131431566
30,-39.57198961707287,-243.63750593364097,-50.209130804958,-81.23669661962232,24.15755239754642,-45.09871562280728,252.31786039057616,140.62290822765982
31,-39.622654757425714,-243.87832953558384,-48.75936854967102,-84.64111657171662,13.11623669823955,-42.22447584508035,252.24967488886722,146.80633263689776
32,-39.62708980516564,-244.24995722304783,-47.3965133788499,-87.84850709152929,1.2197770228989364,-38.68065645545483,252.31681544980094,152.9741182477189
33,-39.57862891999612,-244.73892718183168,-46.14415519970295,-90.81181367578698,-11.419533446325833,-34.479265341859545,252.5103297489107,159.08401415571285
34,-39.47075774694935,-245.3279519565291,-45.02462620559283,-93.49489276175333,-24.67489043572825,-29.642727793421646,252.81740900698534,165.09646643705784
35,-39.29733979278967,-245.99637452631012,-44.05848484004037,-95.87479193219922,-38.407514913109665,-24.20365519978312,253.2217612292864,170.9759532562976
36,-39.05288572931728,-246.72072262202943,-43.26404285703504,-97.94365159613167,-52.469573131182784,-18.20449886175361,253.70409353901277,176.692342695411
37,-38.73285997493076,-247.47534056227323,-42.656949130197134,-99.71012472889693,-66.70740668600229,-11.697109873719747,254.24268490712925,182.22222637962645
38,-38.33401507332325,-248.23307616383602,-42.249841942004835,-101.2002347016,-80.96498710520052,-4.74222400374734,254.81402795363172,187.5501801080137
39,-37.854740575973175,-248.96599983292901,-42.052079062062006,-102.45761913977547,-95.08749805884415,2.591112382654854,255.39351706466465,192.66990332946102
40,-37.29540971102552,-249.6461336232682,-42.06955196008791,-103.54313687417783,-108.92493783244073,10.22616251798677,255.95615974663608,197.58519032651483
41,-36.65870451358484,-250.24616969067864,-42.30458701232845,-104.53384271394644,-122.3356267221533,18.079155755181983,256.47728882286447,202.31068608482235
42,-35.94989870282461,-250.74015991810256,-42.755932794688434,-105.52135932586897,-135.18950044749926,26.05997329308661,256.93325460121963,206.8723792166987
43,-35.17707764351072,-251.10416124196416,-43.41882897465856,-106.6096963560736,-147.37107314189478,34.072858428977625,257.30207831402987,211.3077844823165
44,-34.351276202795724,-251.31682421048737,-44.28514938041442,-107.91258424400108,-158.78196265911612,42.01714929223971,257.56405084777026,215.6657703749982
45,-33.48651802075849,-251.35991544105283,-45.343609783942796,-109.5504043703582,-169.34288639768977,49.78803528318681,257.7022639458764,220.00599432422345
46,-32.59974340748952,-251.21876768981258,-46.58002981884289,-111.64680853308425,-178.99505628667785,57.277342632801194,257.7030644348324,224.39791963565452
47,-31.710617462709834,-250.8826538619922,-47.97763816791281,-114.32512923129488,-187.70092523753976,64.37435948046448,257.55642520196733,228.91940358599166
48,-30.84121473536941,-250.3450832562173,-49.51741044425517,-117.7046875511429,-195.44426250128666,70.96671605120268,257.2562293307314,233.65486376466868
49,-30.0155815578904,-249.6040196854026,-51.178429722054375,-121.89710720456817,-202.2295605655877,76.94134009239062,256.80046591436457,238.6930483674141
50,-29.25918215414269,-248.66202200944076,-52.93826031707419,-127.00274126989999,-208.08080048088215,82.18551091734766,256.1913377666958,244.12445450363725
51,-28.598239877576805,-247.52630814802487,-54.773326243404064,-133.10731252386702,-213.03962511707414,86.5880365313415,255.43528266329164,250.0384557587651
52,-28.05899028816045,-246.20874379841933,-56.65928676451567,-140.27885925339825,-217.16299025366027,90.04057689312523,254.54291082221096,256.5202154686569
53,-27.666867694642757,-244.725756809759,-58.5714024636588,-148.56506654272306,-220.52038104321792,92.43913218625723,253.52886190297014,263.64747468187403
54,-27.445650842547842,-243.09817751881184,-60.48488624716971,-157.99104892955538,-223.19069577040352,93.68570815624243,252.41158485230142,271.48731304001126
55,-27.416596435024218,-241.35100457849342,-62.37523479381721,-168.55763501852252,-225.2589096565689,93.69016146334761,251.21304371147687,280.09298657417753
56,-27.597591028827384,-239.5130952047244,-64.21853725346396,-180.24018931537157,-226.8126386259119,92.37221707935674,249.95835233011903,289.50094880624823
57,-28.002352492061714,-237.61677844756258,-65.99175939122735,-192.98799228571414,-227.93872639194728,89.66363755423124,248.67534090833556,299.7281608119564
58,-28.639711667245674,-235.697390027945,-67.67300269321358,-206.72418723076177,-228.71997780810815,85.51051104151527,247.39405735897023,310.7697922893147
59,-29.513003190566508,-233.79272752135108,-69.24173904336023,-221.34629242395042,-229.23215693631033,79.87561178722385,246.146206670817,322.5974093410956
60,-30.61959163368228,-231.94242540021077,-70.67902236968443,-236.7272690855926,-229.54135949402487,72.7407737774782,244.96453192988292,335.1577356898912
61,-31.95055540965083,-230.18725084631316,-71.96767913442464,-252.71712980052638,-229.70185610028076,64.10920585030176,243.88214159849744,348.3720623675277
62,-33.490546406223196,-228.56832340596472,-73.09247968586867,-269.1450671635561,-229.7544850894488,54.00766538157645,242.93178915463156,362.13636644837925
63,-35.21783823107815,-227.12626451624237,-74.04029218291599,-285.82207779703475,-229.72565190231057,42.4883984040492,242.14511325860985,376.3221819949798
64,-37.104570464273735,-225.90028665948725,-74.80021992475571,-302.54405138441757,-229.62696686493067,29.63074757182677,241.55184919061242,390.7782459827095
65,-39.11719065491551,-224.92723631475906,-75.36372154627666,-319.0952870601445,-229.45552563474723,15.542326525746708,241.17902532964607,405.33291865300964
66,-41.21709010882604,-224.24060979748944,-75.72471197141735,-335.25238973548136,-229.19480821703988,0.359660501999145,241.05016183856054,419.79735185022764
67,-43.36142372502674,-223.86956623396745,-75.87964059270162,-350.788486610201,-228.81614485786582,-15.75180116868108,241.184492297124,433.9693511481458
68,-45.50409813721927,-223.83796686737927,-75.82754217993606,-365.4776898591584,-228.28067180084815,-32.59838437803978,241.5962324504147,447.6378491865928
69,-47.59690628173444,-224.16347404094753,-75.57005582305764,-379.099716668068,-227.54167810014692,-49.95966934366197,242.29392305446535,460.5878802973537
70,-49.590780548404645,-224.8567459636747,-75.11140797063553,-391.4445643298782,-226.54722735390382,-67.59079660336751,243.27987554988755,472.60592215347555
71,-51.43713123088651,-225.9207643563732,-74.4583572410128,-402.3171281123,-225.24292600576376,-85.22562126786258,244.54974964888086,483.4854507876453
72,-53.08923234004154,-227.35033114356747,-73.62010082978647,-411.54164489249735,-223.5747032544255,-102.58070682739266,246.09229069011766,493.0325425456127
73,-54.5036131605555,-229.1317674583288,-72.60814464865156,-418.96584706951256,-221.49146714600485,-119.36011618633017,247.88925170290662,501.0713513209359
74,-55.64141145430969,-231.24284337069207,-71.43614147224429,-424.4647187233933,-218.94750758117678,-135.2609215082665,249.91552050930989,507.4492916877217
75,-56.469643262460345,-233.6529599656805,-70.11970298994405,-427.94375802625746,-215.9045298784938,-149.9793174422775,252.1394659001811,512.0417672260917
76,-56.962345017043795,-236.32359675562034,-68.67619242573231,-429.3416645625521,-212.33322185610754,-163.21718649509063,254.52350898604217,514.7562967402189
77,-57.10154602987703,-239.20902714898884,-67.12450408908835,-428.6323854404871,-208.21428245060545,-174.68893323686186,257.0249164079002,515.5359075065699
78,-56.878033155356476,-242.25729328069366,-65.48483477621329,-425.8264681138704,-203.5388697905184,-184.1283781854695,259.59680158814183,514.3616828668133
79,-56.29187451191344,-245.411419502294,-63.77844946478413,-420.97167939490885,-198.3084602109027,-191.29548475785973,262.1893091988619,511.2543706170918
80,-55.35267584144755,-248.61083177266795,-62.02744073612091,-414.15285856723244,-192.53414535307698,-195.98268530088316,264.75094725445183,506.27497846381016
81,-54.079551543456795,-251.79293868727976,-60.25447868504567,-405.4909780843177,-186.23543019060332,-198.02057610336345,267.23002153510384,499.52430359863746
82,-52.50080232804581,-254.89481975084212,-58.48254653647718,-395.14138960604214,-179.4386280565586,-197.2827669619014,269.57611924776563,491.141366102696
83,-50.653302089529284,-257.8549586563828,-56.73465709225849,-383.2912388128524,-172.1749766547323,-193.6896979814093,271.74158359830125,481.3007417590475
84,-48.581607351982,-260.61495462677277,-55.03354631446882,-370.15604272019453,-164.47861867503616,-187.2112735661275,273.6829187901649,470.20882017061115
85,-46.33681303260524,-263.1211439893058,-53.401342423274606,-355.9754406772762,-156.3845994952769,-177.86820890092332,275.36206630358686,458.0990494145083
86,-43.97518790940745,-265.32606750526855,-51.859211475444866,-341.00815606612275,-147.92703104542613,-165.7320349287829,276.74749838266615,445.2262683494571
87,-41.55663169678205,-267.18972646820083,-50.426983220103196,-325.52623934368785,-139.13755512147435,-150.9237608406028,277.8150832845261,431.86027042608947
88,-39.14300281524727,-268.6805814970133,-49.122763898260565,-309.80870210242216,-130.04421253488292,-133.6112452913635,278.54868833053223,418.2787853860933
89,-36.79637163388103,-269.7762611255422,-47.962545440899206,-294.1346925184494,-120.6707888300012,-114.0053760759743,278.94050007806055,404.7601034832804
90,-34.577257816989174,-270.46396146152784,-46.95982317428881,-278.7764008372187,-111.036665919813,-92.35520046363027,278.99105481219124,391.57559651357155
91,-32.542911903775256,-270.74053225624925,-46.12523650230001,-263.99191598914285,-101.15716524157048,-68.9421830295302,278.7089859618889,378.98240736638763
92,-30.745700011025775,-270.6122579053175,-45.466248701573804,-250.0182784775562,-91.04432550793994,-44.07379347178848,278.11050718049296,367.2165823896971
93,-29.231646531757544,-270.0943537082772,-44.98688245487004,-237.06498823301823,-80.7080206292447,-18.07664295647243,277.2186602327994,356.4869069514383
94,-28.039183168185318,-269.21020786119635,-44.68752682732389,-225.30822718974431,-70.15729468618156,8.710606116797656,276.06236529206575,346.96967376021126
95,-27.19814409737726,-267.99040795668293,-44.56482920064172,-214.88604323448823,-59.40177408781504,35.944335139650576,274.6753177032306,338.8045674321609
96,-26.72903724364494,-266.47159706428516,-44.61168254810831,-205.8947140715598,-48.45301409107831,63.28285940394389,273.0947796681725,332.09179196957194
97,-26.64261123609016,-264.69520855005396,-44.81731465147062,-198.38646683023242,-37.3256478361703,90.39292396372558,271.36031751280467,326.8905071211876
98,-26.939727099727296,-262.7061304212628,-45.16748171171324,-192.36867360425848,-26.038229447782037,116.95564350884473,269.51253499512,323.2185821217671
99,-27.611533209042854,-260.5513490705139,-45.64476468645489,-187.80457752623582,-14.613695625591385,142.67175769191846,267.5918504609571,321.05362584045963
100,-28.63993161095975,-258.27861909929686,-46.228963033619436,-184.61553264265947,-3.079408525897047,167.26611002924574,265.63736083894526,320.3352121578567
101,-29.99831375536612,-255.93520094122388,-46.897577557631905,-182.68466888443297,8.533217868511368,190.4912963525823,263.6858290060226,320.9681868871392
102,-31.652534390253802,-253.56670182999144,-47.626371559325555,-181.86182612941315,20.18946959096327,212.13046555453377,261.7708234555333,322.8269152605027
103,-33.56208433904868,-251.21604872322135,-48.38999710157042,-181.96954343301098,31.852395011107486,231.9992889771607,259.92203086010744,325.7603052196438
104,-35.681416469758624,-248.92261450004537,-49.16267066943634,-182.80984459353397,43.48408910538827,249.9471434059985,258.1647534316217,329.5974213506011
105,-37.96137478274785,-246.72151149136056,-49.91887987627497,-184.1715316969314,55.04709963968123,265.8575747336908,256.51959441188154,334.153488497423
106,-40.350674558478076,-244.64305951576657,-50.6341003998965,-185.83768514332567,66.50585266618815,279.64812400058446,255.00232705969574,339.23607467162805
107,-42.797382034591415,-242.71242929667,-51.285500282416294,-187.59307146241773,77.82800017343952,291.2696046121675,253.62393547853222,344.6512414524138
108,-45.25034483654697,-240.9494565408732,-51.85260730620965,-189.23117732482729,88.9856047792593,300.7049198789127,252.39080974636477,350.20945749636627
109,-47.660528870790166,-239.36861713470066,-52.3179146625325,-190.56061709804277,99.95609332194607,307.96750496370294,251.3050731973393,355.7310868235943
110,-49.982223196684586,-237.97914989259746,-52.667400947413135,-191.41069923325873,110.72293119464162,313.0994682497533,250.3650164825113,361.0512869148157
111,-52.174081271643715,-236.78531006118905,-52.890942940972366,-191.63598082541768,121.27599039915536,316.1694953443817,249.56561126923268,366.02418037025814
112,-54.199974684729256,-235.78673431464208,-52.982603651134916,-191.11968739229567,131.61160493132616,317.2705658003868,248.89907609793792,370.5261960880536
113,-56.029643732319514,-234.97889631411337,-52.94078339984117,-189.77592453974702,141.7323260130469,316.5175198464376,248.35546790253056,374.4585104789847
114,-57.63913752515186,-234.3536311147027,-52.768227751322385,-187.55065854227652,151.64640599607063,314.0445017379914,247.92327484084728,377.7485555837337
115,-59.011044361887215,-233.89970673330896,-52.47189222161678,-184.4214927135447,161.36705288516868,310.00229905232595,247.5899890616685,380.35059833194543
116,-60.134520605703,-233.60342189746422,-52.06266944768347,-180.39631394076363,170.91150694378453,304.5555936724408,247.3426415097471,382.24543197074144
117,-61.00513303892318,-233.44921038608638,-51.55498956985523,-175.51092644302523,180.29999643693756,297.8801398045757,247.16828470661636,383.43925449752766
118,-61.62453532504263,-233.42023456596783,-50.96630901710359,-169.82582481576804,189.55463103014506,290.1598863184276,247.05441365842182,383.96183714968237
119,-62.00000344234251,-233.49895361491275,-50.31650674792421,-163.42228303907754,198.69828880772718,281.5840641932533,246.9893194542701,383.8641065085665
120,-62.14385763022646,-233.66765509622078,-49.62721015076364,-156.39794875538124,207.75354696189666,272.34426418706664,246.96237428429782,383.2152755850729
121,-62.072799570531615,-233.90894156658902,-48.9210749383523,-148.86213301839277,216.74169814458403,262.6315344614396,246.96425006842583,382.09966288935703
122,-61.80719329657682,-234.20616644566618,-48.22104425359234,-140.93097691027242,225.6818856830589,252.63353237169207,246.98707533415376,380.61333559525264
123,-61.37031677115873,-234.54381525391375,-47.549611889646414,-132.72266087456117,234.59038248832385,242.53176841132478,247.02453627153304,378.8607052557397
124,-60.78760845304596,-234.90782951681086,-46.92811326358155,-124.35280322687898,243.48003107649973,232.49898255927886,247.07192812679375,376.95119323621054
125,-60.085929912608556,-235.28587135890564,-46.376065773338475,-115.93017330058427,252.3598555966174,222.6966933638907,247.12616263369765,374.996068688051
126,-59.29286208504243,-235.66752740104943,-45.91057748485186,-107.55282339507976,261.23485069242054,213.2729580091322,247.18573645705433,373.1055450379206
127,-58.436049339877634,-236.04445126721507,-45.54583984724494,-99.30472279077708,270.10594601321947,204.36037792501924,247.25066494745556,371.3862023695625
128,-57.542602371724485,-236.41044488133394,-45.29271656007519,-91.25295696852206,278.9701390246056,196.0743799258414,247.32238503230272,369.9387835600454
129,-56.63856814623178,-236.76147974532185,-45.158437051393605,-83.44553619963644,287.8207824694441,188.5117979426244,247.40363082580453,368.85639241170526
130,-55.74847289119306,-237.09566046411229,-45.14639934776031,-75.9098402794948,296.6480066038695,181.74977558980123,247.49828549752564,368.2231031142968
131,-54.8949423856956,-237.41313390392918,-45.256083436237546,-68.65171072801206,305.439250586766,175.84500540531303,247.61121307177945,368.11297303741713
132,-54.098402434224276,-237.71594852627152,-45.48307262846895,-61.65518842405415,314.17987265648594,170.8333167332645,247.7480741098088,368.58943584435235
133,-53.376861269184765,-238.007869548676,-45.819177098018415,-54.88288327996719,322.85380537727497,166.72962059005877,247.91512956161205,369.70503960058943
134,-52.74577453941465,-238.29415655860203,-46.252650825343494,-48.27695291732961,331.44422031341713,163.52821590528453,248.11903737013586,371.5014847953323
135,-52.21799229341144,-238.58131107346637,-46.76849086475718,-41.760658931841895,339.9341657526534,161.20345684517298,248.36664668445607,374.00990967281655
136,-51.803785793819316,-238.87680238672215,-47.348806456420164,-35.24046171213209,348.3071413566789,159.71077552198093,248.66479490107216,377.25136485291347
137,-51.51095019462318,-239.1887808469219,-47.973245204192274,-28.608607527048623,356.5475748967967,158.98804850533017,249.02011323201504,381.23741605814206
138,-51.34497736814409,-239.52578824272913,-48.61946408846587,-21.74615454680958,364.6411687305286,158.9572893080522,249.4388468783543,385.9708130814907
139,-51.3092916534136,-239.8964749050004,-49.263634032462356,-14.526377459612139,372.57508758093576,159.526642428855,249.9266958253958,391.4461650522749
140,-51.40553986444996,-240.30933244863144,-49.880967809944245,-6.8184832141724545,380.33796453390596,160.59264771703133,250.4886816557716,397.6505665583189
141,-51.63392529101396,-240.77245003661366,-50.44626219712216,1.508436743556249,387.91970880873413,162.04273706590038,251.12904479871725,404.5641260699873
142,-51.99357356911698,-241.29330090037104,-50.934446334284765,10.581298996410407,395.3111065208252,163.7579190145753,251.85117549463746,412.1603570610399
143,-52.48291633680577,-241.87856459897284,-51.321129062529614,20.51885198103893,402.5032141178574,165.6156009072962,252.65758043868522,420.4064028705542
144,-53.10007676923112,-242.53398908681297,-51.583138348015915,31.427521045934437,409.4865533372923,167.4924930499461,253.54988552372288,429.2630784466409
145,-53.843239709588374,-243.26429513675623,-51.69904580670768,43.3973662980036,416.2501264790117,169.26753526236982,254.52887343933196,438.6847256311416
146,-54.71098853917978,-244.07312412839107,-51.649669006470624,56.498245328984176,422.7802815778663,170.82478382677283,255.59455330517392,448.6188935779006
147,-55.70259143565653,-244.9630286982624,-51.41854387828881,70.77627320464914,429.05946824983556,172.05619614109435,256.74625816560194,459.00587164717706
148,-56.81822123765197,-245.93550427889022,-50.99235932683632,86.2506725778474,435.0649353151092,172.86425094336695,257.98276508529204,469.7781171593202
149,-58.05909548339576,-246.99105818208665,-50.36134606307504,102.91110712938301,440.76742924235475,173.16434325289146,259.30243176945703,480.8596328935851
150,-59.42752601720013,-248.1293116672329,-49.51961189778425,120.71559081903149,446.1299572199657,172.88689514529392,260.7033430968537,492.1653581768824
151,-60.92687072267919,-249.34912937751048,-48.465416303735346,139.58906254385252,451.1066806036672,171.9791266574419,262.1834606823493,503.60064305399084
152,-62.56138346432138,-250.64876961205402,-47.20137791825061,159.42270975480457,455.64200453206547,170.40643610839885,263.7407685568274,515.0608781279038
153,-64.33596224619255,-252.02604816485953,-45.734609707400224,180.07411451210808,459.66992821738654,168.15334618494288,265.3734082867068,526.431353524653
154,-66.25579987965948,-253.47850794328613,-44.07677769494295,201.3682806914849,463.113717709544,165.22398115778066,267.07979736786876,537.5874186525599
155,-68.32594592368824,-255.00358624815752,-42.2440804648861,223.0995812648313,465.8859583139127,161.64205133599847,268.8587254439415,548.3950092444936
156,-70.55079307604024,-256.59877136647964,-40.257148052056856,245.03463997570518,467.88903682755205,157.45033326387167,270.7094236653807,558.7115990308415
157,-72.93350526171086,-258.2617399527779,-38.14086033701257,266.9161331172039,469.01609400600927,152.70964831483113,272.63160320469376,568.3876201026254
158,-75.47540807692745,-259.99046663076297,-35.92408675823728,288.46746573847946,469.15247502461585,147.49735817468925,274.6254595821576,577.2683786692238
159,-78.17536473019696,-261.7832974753504,-33.639351127766794,309.3982438046859,468.17769026694094,141.90541266528425,276.69164011811233,585.1964717488072
160,-81.02916203013234,-263.6389795933915,-31.322427376272017,329.4104308600994,465.96788107280565,136.0380023933134,278.8311725045588,592.0146858849799
161,-84.02893131348038,-265.5566398414989,-29.01187369377007,348.20504584006756,462.39876602774996,130.00888457406026,281.04535305738335,597.5693322596484
162,-87.16262857552519,-267.53570674965493,-26.74851345577039,365.48922937802445,457.3490241217647,123.9384639191248,283.3355936159253,601.7139451371615
163,-90.41359656382903,-269.5757710386147,-24.57487154735846,380.98348122661025,450.70405274441094,117.95072073455086,285.7032264322126,604.3132444650337
164,-93.76022934806761,-271.6763819082279,-22.534574329176824,394.4288534403017,442.3600217671497,112.1700845738904,288.14926699474734,605.2472408402083
165,-97.17575702583888,-273.83677874916566,-20.67172057333399,405.593874698362,432.22813011874996,106.71835337442687,290.67413584611023,604.4153438202219
166,-100.62816494764706,-276.0555612411684,-19.03022937450171,414.2809818887649,420.2389580965795,101.71175481895452,293.2773423102722,601.7403241140942
167,-104.08025838257613,-278.33030484144604,-17.653169688288216,420.3322463220384,406.34679696435626,97.25823905417832,295.95713566036403,597.1719774674951
168,-107.4898801126254,-280.65713298183795,-16.58207524044198,423.6342034036429,390.5338273938373,93.45508055416222,298.71013230846324,590.6903436569396
169,-110.81028510259434,-283.03026127910454,-15.856248455434558,424.1216251108135,372.81401088490406,90.38685263989811,301.53093056908597,582.3083480544889
170,-113.99067303613423,-285.441532307622,-15.512057996027231,421.7801119652732,353.23655472671317,88.12382172693434,304.4117270416327,572.0737549509589
171,-116.97687594922537,-287.879961858327,-15.582236572944321,416.6474221176858,331.8888125431554,86.7207905317409,307.341950509485,560.0703493205522
172,-119.71219431660228,-290.3313190783879,-16.095188700961717,408.8134959990218,308.89848972094666,86.21640099642526,310.30793038892756,546.4182942262213
173,-122.13837081909541,-292.7777634317936,-17.074321547609582,398.41917253303365,284.43503613685806,86.6328893433823,313.2926171397488,531.2736417023466
174,-124.19668684462783,-295.1975611654235,-18.53741537253296,385.6536250673891,258.7101270400065,87.97626812468575,316.2753718016933,514.8270032731532
175,-125.82916281078471,-297.5649032097402,-20.496052962634923,370.7505713112131,231.97715560030446,90.2368940006561,319.23184127982285,497.30141059928366
176,-126.97983991272368,-299.84984546858453,-22.955129800808987,353.983332229941,204.52968601394474,93.39036591291347,322.1339354987083,478.94941617280915
177,-127.59611813110669,-302.0183913134681,-25.912468196603754,335.65883133857693,176.69884264131736,97.39868705466253,324.9499221748954,460.0494982208432
178,-127.6301233954821,-304.0327345541158,-29.358558741402632,316.1106397468163,148.8496373062418,102.21161639993191,327.64465447424453,440.90184336870414
179,-127.0400755632713,-305.8516786678617,-33.27645074710755,295.6911854105362,121.37626305425505,107.76813232283853,330.17994560746837,421.82358619280075
180,-125.79162792001782,-307.4312439574707,-37.64180952195902,274.76325929695696,94.69640822886225,113.99793267249933,332.515101621631,403.14358825739515
181,-123.85914781717334,-308.7254682885645,-42.42315215963191,253.69096866381867,69.24466962304136,120.82290293882873,334.60761878086606,385.1968426442945
182,-121.22690691670664,-309.6873996732539,-47.58226457772782,232.83031039016856,45.465167403523544,128.15849670750782,336.41404544235104,368.31859535694855
183,-117.89014874416935,-310.2702710794086,-53.07479092032909,212.51956689165542,23.803486863159858,135.91498959345594,337.8910011088112,352.83828382718275
184,-113.85600095233427,-310.4288396580005,-58.850973555667146,193.06976424959396,4.69809193949166,143.9985875194188,338.99633757862614,339.07340548768104
185,-109.14419942396668,-310.12086346606856,-64.85651057168744,174.7554753263506,-11.42862828018486,152.31238974128732,339.6904182040987,327.32344416599636
186,-103.78759078758168,-309.30867811660147,-71.0334909150316,157.80629497163864,-24.179507425977764,160.75722255758234,339.93748083587894,317.8639936991979
187,-97.83237951740175,-307.9608240000095,-77.32136668556558,142.39935152028872,-33.19176579228757,169.23236759948807,339.70703890229794,310.9412188874454
188,-91.33808652332894,-306.0536633724785,-83.65792706145024,128.6532385314144,-38.14601183617964,177.63620812629733,338.9752651600547,306.76677747919763
189,-84.37718891106525,-303.5729175316695,-89.98024722153708,116.62374390134478,-38.77490530008918,185.86681088219737,337.7262958513762,305.5132941222091
190,-77.0344159609797,-300.51504844118995,-96.2255967198544,106.30171282247505,-34.871306362841494,193.82245463154206,335.9533901029701,307.31043828009365
191,-69.40568467820854,-296.8884066797187,-102.3323030921095,97.61330147782513,-26.29572728918415,201.40211257278014,333.65988015801446,312.24162867932944
192,-61.59666956130561,-292.7140690096662,-108.24057533368686,90.4227595338158,-12.982884041816902,208.50589446892332,330.8598521327,320.34137941588347
193,-53.72101499758543,-288.02629545420206,-113.89329560609725,84.5377304249924,5.052880643425863,215.03545410049847,327.5785046171435,331.59331840913313
194,-45.89821378225397,-282.87254852024586,-119.23678517611664,79.71689866253335,27.71355384750633,220.89436762131047,323.85214386471966,345.92893553397926
195,-38.251190270945294,-277.3130357220693,-124.2215437468241,75.67966714171749,54.81504786970582,225.98848854561328,319.727789200254,363.2271385422819
196,-30.903640454688567,-271.41975914233745,-128.80295301404874,72.11743397408519,86.08667974203489,230.22628573895327,315.2623795658906,383.31469901527987
197,-23.97719327391402,-265.27508026888086,-132.94192814910906,68.70596614717476,121.17274254786597,233.51917234424715,310.5215904850392,405.9676585769092
198,-17.5884678118728,-258.9698329014671,-136.60549634257944,65.11833479720988,159.63631673491108,235.78183656048597,305.57828898900306,430.91374520325905
199,-11.846109746752067,-252.6010400671951,-139.76727976433105,61.037877648285445,200.96539190449872,236.9325898748146,300.5106712188951,457.8358280042029
200,-6.847897402810883,-246.26931138512606,-142.40786092818283,56.17068120949502,244.5812780964226,236.89375424458893,295.40014252235443,486.3764186669368
201,-2.6780124257858486,-240.07601416660603,-144.5150109398348,50.25712241932461,289.8491854112768,235.59211553182593,290.32901206560535,516.143206388397
202,0.5954282349582478,-234.12032398493028,-146.08376503636464,43.08207074777511,336.0907477405142,232.95947465216656,285.37808279166705,546.7155858930337
203,2.922484746578857,-228.49626798635663,-147.11633512039631,34.483421397676935,382.5981671354086,228.93332925808232,280.62422293728304,577.652100922902
204,4.273064312481955,-223.2898766060328,-147.6218556441523,24.35870251305494,428.6495673590591,223.45771674190163,276.138007534984,608.498677361765
205,4.638074324015731,-218.5765567342251,-147.61596675715967,12.669569701167791,473.5250758872355,216.48424358270367,271.98151768904825,638.7974646301603
206,4.030001687170904,-214.4187921013403,-147.1202462662685,-0.555932604061256,516.5231095204384,207.97331622965936,268.2063820978494,668.096049503001
207,2.48288179245942,-210.864264970913,-146.16150899153456,-15.223401107951204,556.9763241779162,197.89557466292396,264.8521392561331,695.9567635495504
208,0.05164305904527565,-207.94447730219375,-144.77099821595155,-31.174392662974967,594.2667056468468,186.23351198905846,261.9449898337335,721.9657828056961
209,-3.1891637649038986,-205.6739296979764,-142.98349890817641,-48.19096898270057,627.839322797681,172.98324317726014,259.4969967386206,745.741720085655
210,-7.1472191657446205,-204.0498933696278,-140.83640591419723,-66.00234049760547,657.2143324241431,158.15636501506393,257.5057752738619,766.9434348236755
211,-11.71481654095148,-203.05278499644956,-138.36878195923563,-84.29341709098284,681.9969074974695,141.78182916501572,255.95469762357504,785.2768264289122
212,-16.771696715015274,-202.6471278885966,-135.62043978749313,-102.71500623611445,701.8848498003837,123.90773217077691,254.81361486169013,800.5004269346188
213,-22.188242556153444,-202.7830566641109,-132.63108011225017,-120.89533241473292,716.6737364762587,104.60291167952465,254.0400764314611,812.4296599569791
214,-27.828927517741175,-203.3982983296089,-129.43951269332487,-138.45248904882905,726.2595332696825,83.95822857341085,253.58100298959107,820.9396806293571
215,-33.55590300971133,-204.42054182473686,-126.08298254902947,-155.0073805168825,730.6386831064807,62.087411979496416,253.37474564345547,825.966753127371
216,-39.23260534112145,-205.7700920468025,-122.596617662078,-170.19667336336548,729.9057472160109,39.12735000006336,253.35344492344524,827.5081592147586
217,-44.72726376056044,-207.36269394781195,-119.0130087475654,-183.68525858500792,724.2487381486541,15.237724490109809,253.44558782776966,825.6206651182874
218,-49.91619687109883,-209.11240795489542,-115.36192568105847,-195.17773488617618,713.942340239501,-9.400086923162252,253.57865198235598,820.4176072419075
219,-54.68679501895027,-210.93441986528757,-111.67016908423253,-204.42845684479516,699.339262577852,-34.58488564453861,253.68172302493366,812.0646907474674
220,-58.94010036931415,-212.74767626043885,-107.96154957555565,-211.2497499566348,680.8600105802976,-60.09830954377984,253.68797490262676,800.7746282290589
221,-62.592913361080676,-214.47724959952123,-104.25698174641767,-215.51797290623145,658.9813928083421,-85.70823766899122,253.5369124168463,786.8007769816961
222,-65.57937322561348,-216.056354285836,-100.57467551487795,-217.17720198391564,634.2240984530737,-111.17286537483874,253.1762901105841,770.4299610922138
223,-67.8519805419368,-217.42795482507708,-96.93040442271275,-216.24041876937554,607.1396880893254,-136.24533343947505,252.56364026042078,751.974687651311
224,-69.3820506902091,-218.54592850467935,-93.33782862081775,-212.78819486773,578.2973373754733,-160.67875934238694,251.667364011617,731.7649840330719
225,-70.15960779248715,-219.37576667695885,-89.80884956789885,-206.9649808539745,548.2706624150068,-184.23148982683884,250.46736222591954,710.140094467155
226,-70.19274846129856,-219.89481960101168,-86.35397382114886,-198.97321453655798,517.6249383333824,-206.67237330858774,248.95520505285705,687.440277629667
227,-69.50652261024709,-220.09210896705713,-82.98266472938315,-189.06556001251948,486.90500044069125,-227.7858404928212,247.13386042753783,663.9989410844191
228,-68.14139398134752,-219.96774905622996,-79.70366315786622,-177.5356677553877,456.62409062990423,-247.37658314603095,245.0170206963042,640.1353319025461
229,-66.15135521050236,-219.53203143822904,-76.52526126934967,-164.70790154697207,427.2538803110251,-265.27363512004234,242.62808250508843,616.1479755321202
230,-63.601780582417355,-218.8042386394295,-73.45551666528476,-150.92650583478368,399.21586488931285,-281.3336863146215,239.99884718706488,592.3090185631471
231,-60.567103764943745,-217.8112589255397,-70.50239780589729,-136.54468475442565,372.8742835313506,-295.44349806791354,237.16801667723877,568.8595891176719
232,-57.128407777054235,-216.58607701008972,-67.67385553144086,-121.9140328262052,348.5306723268472,-307.52133527651637,234.1795632759845,546.0062463867189
233,-53.371010651067394,-215.16621399554322,-64.97781960426335,-107.37470199248973,326.4201102751204,-317.5173833410003,231.0810503867785,523.9185532731199
234,-49.38212338559826,-213.59218432751936,-62.42212336783897,-93.24661707741194,306.70916786159825,-325.41317279824557,227.92197597975635,502.7277758217214
235,-45.24864758915822,-211.90602871179635,-60.01436370854195,-79.82196912689815,289.4955199239531,-331.22008633667616,224.75220178560403,482.52668968093104
236,-41.05516935114221,-210.1499709951871,-57.76170723212839,-67.35913001504606,274.80914058655947,-334.9770670373577,221.6205202543125,463.3704547366282
237,-36.88219391540625,-208.3652351874025,-55.67065657950571,-56.078047999023156,262.61496021713646,-336.747679872472,218.57339926762725,445.2785015183871
238,-32.80465314617135,-206.5910471055631,-53.74679279503949,-46.15710766703231,252.8168338482238,-336.6166993777313,215.65393240401482,428.23735512616867
239,-28.890705039927624,-204.86383423851092,-51.994510424084304,-37.731373317273864,245.2626479015367,-334.68640512160806,212.90101088928887,412.2043035368976
240,-25.200832216115046,-203.21662774328973,-50.41676148024878,-30.89208560153075,239.75037731337358,-331.0727642132629,210.34872265720077,397.1117975178632
241,-21.787234965802302,-201.6786622098596,-49.01482269877934,-25.687249059210007,236.03489760781275,-325.9016683391345,208.02597449224592,382.8724500904241
242,-18.693504415331567,-200.27516209034522,-47.78809790492793,-22.123132676398647,233.83535508266112,-319.3053735739286,205.9563252812714,369.3844860163757
243,-15.954552890338741,-199.02729851506436,-46.73396426889945,-20.16650463418875,232.8429020752278,-311.4192661709851,204.15801210651796,356.53747745558275
244,-13.596771890103655,-197.95229649513252,-45.84766801686527,-19.74743266248634,232.72861242237954,-302.3790483635012,202.64414624306667,344.2181917672862
245,-11.638383431641092,-197.0636700404814,-45.12227213330847,-20.762499416383633,233.1514039774193,-292.31840684331974,201.42305294572148,332.31637216218843
246,-10.08994786244814,-196.37156132986343,-44.54865603369939,-23.07830495692753,233.76580976230264,-281.3671951813438,200.49872709442806,320.73027218727384
247,-8.954990223511949,-195.88315965156727,-44.115565248542296,-26.53515313540023,234.22945651731433,-269.65013198699495,199.87137619819623,309.371771254349
248,-8.230707485151997,-195.60317629253535,-43.8097077924774,-30.95084312730674,234.21012853362956,-257.2859905482059,199.5380227896183,298.17091058925865
249,-7.908720271025567,-195.534352740904,-43.61589306499311,-36.124509411558485,233.3923148894745,-244.38723401843163,199.49313969772425,287.07970650727077
250,-7.975834951926791,-195.67798133025738,-43.51720890523093,-41.84047144584948,231.4831583630031,-231.06003362112625,199.72929391323228,276.075119866498
251,-8.414785199603427,-196.03441968194022,-43.49523280756358,-47.872067298205216,228.21774316352125,-217.4045964043041,200.23777763882302,265.1610860401671
252,-9.204926278930856,-196.6035828491176,-43.53027413358641,-53.9854537195132,223.3636755926971,-203.51572407818162,201.00920847140176,254.3695382879362
253,-10.322860582186117,-197.38539971993768,-43.601645164582116,-59.9433594770576,216.7249270568591,-189.48352499894852,202.034084234857,243.7603887312567
254,-11.742979069467662,-198.38022281589437,-43.68795979682995,-65.50878028030269,208.14492317055357,-175.394206201527,203.3032815336291,233.4204647016218
255,-13.437910020788037,-199.5891829834606,-43.767459472118325,-70.4486030784233,197.50887636896456,-161.3308799623604,204.8084904258566,223.4614328888511
256,-15.378873344966735,-201.01448243467277,-43.81836649957448,-74.53714523134529,184.74537214914938,-147.37432845926455,206.54258046972194,214.0167779206116
257,-17.535945147834358,-202.65962098877276,-43.81926515481605,-77.55959018295303,169.8272300334896,-133.60368002784247,208.49989554699178,205.23793418755565
258,-19.878242885707902,-204.5295512100226,-43.74951067399983,-79.31529601519998,152.77166890494988,-120.09696085637448,210.67647623382086,197.2896984857404
259,-22.374045875214918,-206.63075853371978,-43.58966535780629,-79.62094707707249,133.6398121793243,-106.93149621146512,213.0702091090151,190.34507519688094
260,-24.99086906532737,-208.97126251935734,-43.32195941109758,-78.31351235905153,112.53557142288575,-94.18414502571868,215.68090233901418,184.5797244308112
261,-27.695509809167216,-211.56053519095758,-42.93077193798638,-75.25296804936639,89.60394782927294,-81.9313607704783,218.51028630263346,180.16619636961386
262,-30.454087908832026,-214.40933221719357,-42.40312489950251,-70.32473642214755,65.02878990952655,-70.2490799939029,221.56193715959108,177.26814179210186
263,-33.232098481339534,-217.5294326767414,-41.72918007898479,-63.44178961734575,39.03004337533718,-59.212447649027474,224.8411204070067,176.03468934608057
264,-35.994495374426805,-220.93328357754663,-40.90272639785468,-54.54636573466482,11.860526160519758,-48.89539519292759,228.35455089371254,176.5951746228624
265,-38.70582022803738,-224.63354637605883,-39.92164253166904,-43.6112465856369,-16.197741371412288,-39.37009327795127,232.11006577089702,179.0543947356109
266,-41.330389121362906,-228.64254466431808,-38.78831808207179,-30.640551821035096,-44.837622887490454,-30.70630563970157,236.1162077395801,183.4885453626852
267,-43.83254532261704,-232.97161505530295,-37.51001583018109,-15.670013122196494,-73.73134130390477,-22.97067446405653,240.38171788621642,189.94197554375236
268,-46.17698321672792,-237.63036700054965,-36.0991575896709,1.2332954938701535,-102.53531310226398,-16.225969922517262,244.9149402749357,198.4248692004433
269,-48.329145231090024,-242.62586152024386,-34.57351636704018,19.97178012980876,-130.89530827275277,-10.53033743948576,249.72314393886361,208.91193159659858
270,-50.255690582355506,-247.96172333103289,-32.956297826246214,40.41869441707318,-158.45189654224112,-5.936575354207605,254.81177170677728,221.34212418454447
271,-51.925031838538764,-253.6372055493367,-31.27609497312482,62.420027115722206,-184.8461326278038,-2.4914728395244636,260.1836294321407,235.6194535161429
272,-53.3079324393723,-259.64623106954366,-29.566702080519647,85.79686914120494,-209.72542339024557,-0.23523326061571806,265.83803377579017,251.61478086626323
273,-54.378155236211484,-265.97643975482896,-27.866777236983154,110.34820509567837,-232.74950820268356,0.7989982093811611,271.7699416088927,269.1685811429968
274,-55.11314866881703,-272.6082753934021,-26.21934722603053,135.85406255668497,-253.59647108693423,0.5854915010633424,277.9690889524565,288.09454478236484
275,-55.49475338303763,-279.51415059301246,-24.671153440452482,162.0789431156082,-271.9686900295287,-0.8938300981978997,284.41917174405177,308.1838865516858
276,-55.50990805142016,-286.6577311483673,-23.271843002888357,188.77545256008935,-287.5986165613752,-3.649266149423726,291.0971043542879,329.2102020030742
277,-55.151329219412176,-293.99338364099145,-22.073014942844008,215.68804360724172,-300.2542686809047,-7.683319822666603,297.9723944053799,350.9346968614262
278,-54.418136648362655,-301.4658307066004,-21.127136813390447,242.55678300550017,-309.74431424376195,-12.990769939161344,305.00667369578713,373.11160777894366
279,-53.316393375430614,-309.01005711629824,-20.486352140899204,269.1210555144856,-315.9226217045913,-19.55881993513373,312.15342454307796,395.49363530070883
280,-51.85952901214087,-316.5515062829972,-20.201203351972175,295.12312054512796,-318.69216173947996,-27.367309870487034,319.3579384059902,417.83722185990484
281,-50.068615935934304,-324.00660078093034,-20.319298424282476,320.3114436702298,-318.00815693223615,-36.388978719517766,326.55753906809514,439.9075286621289
282,-47.97247093396956,-331.2836116735167,-20.88395295004595,344.44373498179255,-313.8803958989092,-46.589764887838705,333.68209572030423,461.4829934070103
283,-45.60755919781326,-338.28388976102906,-21.932843050807413,367.2896386637159,-306.37464957822664,-57.92913144851486,340.6548418107469,482.3593819624072
284,-43.01768303531266,-344.90345757150374,-23.49670857496284,388.6330318839667,-295.61314664825653,-70.36039670295676,347.3935037163952,502.3532764886604
285,-40.25344416849127,-351.03494471961227,-25.598149669247107,408.273905241088,-281.7740792128929,-83.83103970097964,353.81172968531234,521.3049667182836
286,-37.371475969582015,-356.56983210599054,-28.250562559607,426.0298113454176,-265.090118992078,-98.28293727106889,359.82079491676996,539.0807296554578
287,-34.433450142141275,-361.4009535221602,-31.45726180186434,441.7368826707653,-245.84593035387726,-113.65247941686232,365.331544116157,555.5744973111064
288,-31.50487060193312,-365.4251880212908,-35.21083581674633,455.2504337673845,-224.3746720191138,-129.8705082184633,370.25651962462524,570.7089233851087
289,-28.653675137944585,-368.54626441280516,-39.492779353114415,466.4451742718322,-201.05348585911315,-146.86203302595865,374.5122125879029,584.4358677093428
290,-25.948672670975704,-370.6775915333718,-44.27343980699849,475.2150653194982,-176.29798026170357,-164.5456905643614,378.0213676045775,596.7363205189154
291,-23.457850671984858,-371.7450248886415,-49.51230362051347,481.4728512444261,-150.55572838333137,-182.83294079509318,380.71526824736424,607.6197864656132
292,-21.246593640092886,-371.68948145588803,-55.158634231801756,485.1492912751192,-124.29881919118854,-201.6270165865079,382.53593142442395,617.1231414194666
293,-19.375859419311123,-370.46931890979374,-61.15245454589424,486.1921055170382,-98.0155218492288,-220.82167593887166,383.4381417604276,625.3089658561689
294,-17.90036542382971,-368.0624018501351,-67.42584562719915,484.5646419651506,-72.20115166743378,-240.29983723060883,383.391261545331,632.2633509973466
295,-16.866841383412,-364.46778419250603,-73.90451123670653,480.2442752774409,-47.34825849468777,-259.9322067705131,382.38075568555695,638.0931734855106
296,-16.31240869893581,-359.7069426673807,-80.50953767101095,473.2205731645873,-23.936296168205207,-279.5760285704953,380.40937346776565,642.9228476066612
297,-16.263148236950425,-353.8245013472411,-87.15926309390369,463.49331955828654,-2.4209744189883615,-299.07409339095886,377.4979300932859,646.890595612282
298,-16.73291733277716,-346.8883920934183,-93.77116314017088,451.0705648989674,16.776457865681035,-318.25413516781276,373.685632397049,650.1443257747671
299,-17.722471742989608,-338.98940174095884,-100.26366252730584,435.96697084028386,33.27969809411736,-336.92872033644227,369.0298970104258,652.8372643267203
300,-19.218938470457545,-330.2400647967151,-106.55779675169005,418.2028040223166,46.767292945036274,-354.89570597176623,363.6056175580917,655.1235313733517
301,-21.19567097248426,-320.77287226933726,-112.5786718356659,397.8039768448202,56.98156312856301,-371.9393131771235,357.5038521689161,657.15386031104
302,-23.61250102771879,-310.7377855983244,-118.25669826361445,374.8035000407648,63.73612756695874,-387.83183695571887,350.8299246516085,659.0716273871817
303,-26.416384464558586,-300.29907133672924,-123.5286003347126,349.244587569058,66.92160950537301,-402.3359935609881,343.7009613044875,661.0092988929541
304,-29.542423743165354,-289.63150648052857,-128.3382179999343,321.1854530769191,66.50915442035719,-415.2078897565249,336.2429175610883,663.085346985481
305,-32.915240007140305,-278.9160425774247,-132.63712298889072,290.7055997267715,62.551481686701855,-426.2005838638887,328.58718058602085,665.4016497258339
306,-36.45065978384436,-268.33505437277887,-136.3850673915088,257.91318233182284,55.18132000009886,-435.06819457629354,320.86686210927974,668.0413750544759
307,-40.05767538627687,-258.0673317785969,-139.55027561241494,222.9528531623819,44.607224585305886,-441.57049918906034,313.21291798012146,671.0673417836143
308,-43.640632197798745,-248.28299946873133,-142.1095839046583,186.0134100349637,31.106925721253905,-445.4779472026579,305.7502458038419,674.520847572573
309,-47.10159035383166,-239.13856425183099,-144.0484279627956,147.33454714480334,15.018500067585151,-446.5769974651603,298.59391879511725,678.4209546112934
310,-50.34280333577752,-230.77229502598564,-145.36067917425464,107.21205325297372,-3.270220768897327,-444.67566702988495,291.84571229908187,682.7642288410701
311,-53.26925199714072,-223.30013286456847,-146.04833370518364,66.00089155035135,-23.333493960971722,-439.60915869222305,285.59106947101367,687.524935189587
312,-55.791169607211565,-216.81230990659213,-146.12106441972864,24.115714564351848,-44.720189775718886,-431.24541378340007,279.8966350755727,692.6556951301576
313,-57.826491640132225,-211.37082648218933,-145.59565225843872,-17.971497329850596,-66.96640527999898,-419.4904195260314,274.80846248849826,698.0886114757944
314,-59.303163372345345,-207.007898249911,-144.49531995086036,-59.73684305431996,-89.6076016588355,-404.29308756602506,270.3509703122069,703.7368597296439
315,-60.16123899742627,-203.72544134119386,-142.84899596881593,-100.61297874163634,-112.18976637494075,-385.6495125981755,266.52669306214796,709.4967385719274
316,-60.35470804570342,-201.49561602886786,-140.6905397553698,-140.0005468289609,-134.2792000235787,-363.6064175700999,263.31683637464465,715.2501664735313
317,-59.85298880579586,-200.2624009451785,-138.05795987700307,-177.28229118769912,-155.47064415920016,-338.26359601623574,260.6826123105633,720.8676067014438
318,-58.642035019241234,-199.9441233503773,-134.99265448349647,-211.8394476141669,-175.3935868698533,-309.7751748265454,258.56729615018565,726.2113960510759
319,-56.72501222884749,-200.43682926701257,-131.5386984870649,-243.06985792940088,-193.71669693135686,-278.3495442236367,256.89891459010545,731.1394389824156
320,-54.12251396263161,-201.61834265788275,-127.74219490037841,-270.4071277132923,-210.15043906133823,-244.24783696813984,255.5934483869312,735.5092050664199
321,-50.87230446673863,-203.3528366948816,-123.65069972879647,-293.3400433352865,-224.4480104166526,-207.7808860678716,254.5584115942973,739.1819342715305
322,-47.0285922687251,-205.4957235181383,-119.31272152276378,-311.431394592178,-236.40481251607116,-169.3046489685934,253.69665538915885,742.0269168266973
323,-42.660855811973406,-207.89866227042413,-114.77728892572301,-324.3353236063665,-245.85673311750043,-129.21415414604957,252.91023759968252,743.9256799896328
324,-37.852257604902526,-210.41448854324486,-110.09357316260872,-331.8123433140732,-252.67755689196065,-87.93609865159783,252.10419979154005,744.7758903996664
325,-32.69769611954763,-212.90188097843037,-105.31054825513705,-333.74124054436754,-256.7758478558117,-45.92029625235591,251.19010219468663,744.4947732044802
326,-27.30155477785356,-215.22960146872714,-100.47667034221747,-330.12719703420436,-258.0916462592308,-3.630238998006026,250.08918245434958,743.0218613869127
327,-21.775214765477426,-217.28017266235952,-95.63955881291193,-321.1056221100674,-256.593295650663,38.466914877224404,248.73502619367315,740.3209225693184
328,-16.234403192807846,-218.95288836517545,-90.84566551472639,-306.94138606547943,-252.2746629293896,79.91058037666492,247.07566407261172,736.3809653526478
329,-10.79645037424902,-220.16608676224757,-86.13992324348341,-288.02336317441114,-245.15293969898272,120.25685105209823,245.07503937444977,731.2162982386071
330,-5.577529868347374,-220.85865106950706,-81.56537011092958,-264.85442400472925,-235.26712462486773,159.0881120020285,242.71382010811791,724.8656918906981
331,-0.6899526842184448,-220.99073554086044,-77.16275141617838,-238.03724184185404,-222.67719327878746,196.02182262544704,239.98955846849773,717.3907668013491
332,3.7604169029136796,-220.54374530183603,-72.97010481564513,-208.25648099526344,-207.46387414805173,230.71816645421652,236.91622691795476,708.8737799870587
333,7.676561819230291,-219.51962516564848,-69.02233773274419,-176.25810162595837,-189.7288761736121,262.88631322888875,233.52318317248893,699.4150068514066
334,10.972473377651836,-217.93953468294276,-65.35080814689086,-142.82663725957755,-169.59536111296023,292.28909630302905,229.8536354149912,689.1299057973126
335,13.57502532652114,-215.84200382192907,-61.98292128916349,-108.76137323426286,-147.20842658090095,318.7459739444493,225.96269387376856,678.1462192486401
336,15.425521625189752,-213.28067571077898,-58.94175546421466,-74.852377342857,-122.73536275363703,342.1342135537785,221.91510539176818,666.6011166797409
337,16.48088815702918,-210.3217496796144,-56.24573028564389,-41.85731135825572,-96.36546506556658,362.38831037376764,217.78277363946154,654.638435866132
338,16.714488146097683,-207.0412394165394,-53.90833002457974,-10.479888943556368,-68.30922331365774,379.4977236440667,213.64216911032076,642.4060384657348
339,16.116550554743473,-203.52215771537226,-51.93789344678642,18.64925325703521,-38.7967602064138,393.50307970169905,209.57173017040552,630.0532714526196
340,14.694210130107408,-199.85173167425782,-50.337479558990196,44.98863389526583,-8.075454568701117,404.4910494397594,205.6493497460323,617.7285185925527
341,12.471166939749214,-196.11874104936047,-49.104816468138274,68.09847165236108,23.593249365881537,412.5881535195686,201.9500324012619,605.5768343668874
342,9.486981882972243,-192.41105848658643,-48.23233841281433,87.64938605000029,55.93778037617544,417.9537806549138,198.54379415122142,593.7376723418902
343,5.796032395670898,-188.8134543106445,-47.707313987012235,103.427125034076,88.68100180238802,420.7727213311848,195.49386289568773,582.3427448109569
344,1.4661592220030744,-185.40571139309893,-47.512066442191795,115.33336871333942,121.54522346041492,421.2475216790024,192.8552215276225,571.5140732826234
345,-3.4229592338260715,-182.26107837121654,-47.624284510883456,123.38282419517813,154.2574557304582,419.59095083288315,190.67351940691415,561.3623030744501
346,-8.781663851009123,-179.4450730147172,-48.017419355915635,127.69696996583514,186.55467646303939,416.01885155400174,188.98436174665147,551.9853551066929
347,-14.51235843302595,-177.01463247837196,-48.661160074411136,128.4949232561039,218.1888752964148,410.74361034939795,187.81297113726737,543.4674726542708
348,-20.511693062455862,-175.01759399991695,-49.521976842472654,126.08198597458588,248.93164941325492,403.9684425090245,187.17420144020247,535.8786929521149
349,-26.67283870439915,-173.49247866939103,-50.563717512463306,120.836471419695,278.57814942716976,395.88264251514533,187.07287210632856,529.2747392320275
350,-32.887804025365256,-172.46854252721272,-51.74824060563792,113.19542449742262,306.95021242170424,386.65790399089235,187.50438112868687,523.6972955489143
351,-39.04974596616068,-171.96605366132877,-53.036065647630025,103.63982495189008,333.89856751519403,376.44576754528725,188.45554778893745,519.1746007278954
352,-45.05522738489468,-171.99675115742133,-54.38702117500212,92.67981179340549,359.3040523032243,365.37621028174914,189.90563234056685,515.7222816206229
353,-50.80637776779395,-172.56444143011478,-55.760871790908574,80.84039547206346,383.07783072853584,353.55734793847967,191.8274786738836,513.344339312319
354,-56.21291612586577,-173.66568913574,-57.11790830183059,68.64804048925073,405.16065060006173,341.0761809595273,194.18872737884604,512.0342035801032
355,-61.19399843180545,-175.2905629581008,-58.41948889817125,56.61841206003764,425.5212203133101,328.0002813480736,196.95304985256692,511.775779490565
356,-65.67985521506787,-177.42340058142486,-59.62852410305652,45.24549156853525,444.1538184617665,314.3802897007002,200.08135864449596,512.5444240959658
357,-69.6131882387031,-180.04356186813507,-60.7099032702229,34.99218104606882,461.07527618771144,300.2530716841562,203.53295472696533,514.3078084375547
358,-72.95029853796501,-183.1261446036098,-61.63086523503202,26.282440108746545,476.3214896529228,285.64536929414305,207.26657862787889,517.0266376259035
359,-75.66192159630742,-186.6426431666322,-62.36131996331351,19.49493239073515,489.9436289643303,270.5777731195723,211.2413392973657,520.655217375842
360,-77.73374934090941,-190.56153703302536,-62.874131450960185,14.958104194502983,502.004211084635,255.0688368290891,215.41750213174544,525.1418680850077
361,-79.16662328848388,-194.84880285217622,-63.14537430422503,12.946576529768812,512.5731988150734,239.1391544708151,219.75712550686745,530.4291975380326
362,-79.9763887408702,-199.4683505860829,-63.15457692078555,13.678703225198374,521.7242768812683,222.8152258637942,224.22454308282232,536.4542513300987
363,-80.19340641780477,-204.38239053658856,-62.88496287858949,17.315133153529676,529.5314402545289,206.13294646038597,228.78669669501264,543.1485670038239
364,-79.86172522259803,-209.55174370632443,-62.32369936607525,23.958215346210697,536.0660095737354,189.14057646699425,233.41333160919976,550.4381645092695
365,-79.03792774704019,-214.9361123660225,-61.46215777455347,33.65210307830382,541.394164214807,171.90107016059173,238.07707188335542,558.2435126012948
366,-77.7896683091738,-220.4943302175525,-60.29618735721958,46.383445334809764,545.5750557286243,154.49367959696002,242.75339784247365,566.4795181491761
367,-76.1939315420945,-226.1846115594862,-58.826398444661756,62.082595267856384,548.6595341214118,137.01478467794635,247.42054963734236,575.055591448122
368,-74.33504772136303,-231.96481638745428,-57.05844731105942,80.62530577837104,550.6894883530704,119.57793938085413,252.05938049360964,583.8758424785304
369,-72.30250891682502,-237.79274401642692,-55.00331058917176,101.83491363611573,551.6977722547399,102.31315751299964,256.65318102135893,592.839458161522
370,-70.18863716102699,-243.62646245098009,-52.67753334869636,125.48503181554543,551.7086596711821,85.36548878784033,261.1874924149076,601.8412991070346
371,-68.0861615288236,-249.42467508600194,-50.103431872311404,151.30277610251224,550.7387498738207,68.8929583458948,265.64992200999194,610.7727388223755
372,-66.08576489443107,-255.14712085043232,-47.30923012224818,178.9725498218998,548.7982277387401,53.063961981926404,270.02996985487977,619.5227521484245
373,-64.27366298283918,-260.75499879111715,-44.329108161486744,208.1404026498456,545.8923737866121,38.054225963915364,274.3188699395666,627.9792449938471
374,-62.729278148490344,-266.21140338621484,-41.20314147155338,238.41896753136925,542.0232171610355,24.04345352743821,278.5094446871576,636.0306050199149
375,-61.52306820380448,-271.4817527306179,-37.97711210962428,269.39296447852394,537.1912295964823,11.211788514329019,282.5959665120776,643.5674428075687
376,-60.71456678218,-276.5341885160885,-34.70217586645416,300.62524204178453,531.396969578157,-0.26377070769146216,286.5740161655399,650.4844850457109
377,-60.35068645703707,-281.339924905547,-31.434373958933744,331.6633072362337,524.6426021107924,-10.212877289616108,290.44032479865393,656.6825752332776
378,-60.46432953701043,-285.8735233527502,-28.233983117968375,362.0462733880168,516.9332394773352,-18.475141626265117,294.19258563608537,662.0707330172716
379,-61.07334446520233,-290.113072404405,-25.164703759425915,391.31213328203546,508.27807060749996,-24.903131891378692,297.82922213932403,666.5682201550354
380,-62.1798582682189,-294.04025578151425,-22.292691694228733,419.0052427803408,498.6912695564133,-29.36498543098653,301.34910274867144,670.1065587014059
381,-63.77000761350812,-297.6402987151404,-19.68544412540245,444.68387931389685,488.1926952634897,-31.74657260654798,304.7511978353367,672.6314451794348
382,-65.81408276127081,-300.9017913523571,-17.41055533443223,467.92772326762724,476.80841320251966,-31.95318341705817,308.0341821105778,674.1045036137989
383,-68.2670898988787,-303.81639819043465,-15.534361530812232,488.3451015789208,464.57108310436973,-29.910737203374612,311.1959945768127,674.504821407346
384,-71.06972772353625,-306.3784726446414,-14.120497977585522,505.57983334564966,451.52026520251513,-25.566544712405967,314.23337686567555,673.8302161176855
385,-74.14976364753961,-308.58460473559023,-13.228394894776883,519.3175252902035,437.7027010176767,-18.889677749124875,317.14141822907476,672.0981881443131
386,-77.42378411779039,-310.43313660662693,-12.911742089905855,529.2911772967423,423.1726233919242,-9.871023180507462,319.91314069979745,669.3465224960283
387,-80.79928280435988,-311.92368454853755,-13.21695627307374,535.2859730171804,407.9921420492601,1.4768855550623317,322.53916047990043,665.6335100054043
388,-84.17703995694453,-313.056706835966,-14.181689983389846,537.1431482308969,392.2317327000781,15.120155497787911,325.00746088043104,661.0377637152252
389,-87.45373610572254,-313.83315355330774,-15.83342680549221,534.7628511684367,375.9708298423168,31.003831481496945,327.3033076915707,655.6576106028638
390,-90.52473391042791,-314.25422789766486,-18.18821328383302,528.1059333863224,359.2984904986324,49.0520990192095,329.4093298966293,649.6100439211795
391,-93.28695405626506,-314.32127909118316,-21.249582570875877,517.1946339754684,342.3140652924031,69.16830131068275,331.3057781059857,643.0292282567933
392,-95.64176546780011,-314.0358363444239,-25.00772723231812,502.11214036595993,325.1277912060899,91.23470242154633,332.97096143025163,636.0645581612366
393,-97.49780748664514,-313.39978276442935,-29.438977588679524,483.0010233265846,307.861211199785,115.11196128862447,334.3818523728856,628.8782816400106
394,-98.77366237009693,-312.4156590321758,-34.50563649602927,460.06055158522264,290.6473304165395,140.6383203938879,335.51484013502323,621.6427115009709
395,-99.40030031118451,-311.08707985481,-40.156211181719186,433.54289485697956,273.6304348788099,167.6285555998452,336.34660623716763,614.537060264153
396,-99.3232256707619,-309.41924158005685,-46.326068057255405,403.7482272200014,256.9655222728856,195.87277660563677,336.8550924226338,607.7439479534794
397,-98.50426179477795,-307.41949629816776,-52.9385181912741,371.01875155426865,240.81732042333067,225.13520780152956,337.02052863852606,601.4456469157162
398,-96.92292228695891,-305.09796542916837,-59.90632022533701,335.7316865014146,225.35889200293582,255.15311416282782,336.82648751057144,595.8201445252541
399,-94.57732858695958,-302.46816335477337,-67.13356480738581,298.2912955458607,210.76983931885252,285.63606359121513,336.2609301320955,591.037124056773
400,-91.4846468486686,-299.54759821657024,-74.51788138289176,259.1200959707915,197.2341278636027,316.26573333830004,335.31720517018437,587.253986036998
401,-87.68103087148039,-296.358311966264,-81.95288671573331,218.64946110662356,184.93754146975166,346.696471236554,333.9949585670882,584.6120537886002
402,-83.22107126910106,-292.9273155004163,-89.33077807605821,177.30991356844714,174.06476779484075,376.5568093342504,332.300904836955,583.2331195594433
403,-78.17676333248941,-289.286868873377,-96.54496578245445,135.52148648788886,164.7960953199498,405.4520959859411,330.24940502192226,583.2164808045668
404,-72.63601699458788,-285.47455342658606,-103.4926413379753,93.68458957097742,157.3036892286356,432.9683641536474,327.86279367807214,584.6365832569362
405,-66.70074213817088,-281.53308420119254,-110.07718814366919,52.171843756670114,151.74741276455458,458.67749473671273,325.1714003227323,587.5413328021841
406,-60.48455120974689,-277.50981860280035,-116.21035886310264,11.321330108925006,148.27018248314457,482.1436705888121,322.2132206411494,591.951078047622
407,-54.110128724593245,-273.45593188097246,-121.81416226039043,-28.568372780858063,146.99289534404096,502.9310519965325,319.0332090143629,597.8582203739912
408,-47.70632423953584,-269.4252518084621,-126.82241773609562,-67.24111019636304,148.00903862313572,520.6125372870475,315.682185295419,605.2273906428137
409,-41.405032414012716,-265.47277268292913,-131.18194520072103,-104.48393192113487,151.37917581244804,534.7794033170064,312.2153733523994,613.9961370519846
410,-35.3379310714819,-261.6528990256183,-134.85336283797778,-140.1257876631621,157.12557365587122,545.0515527676656,308.6906143148285,624.0760784806185
411,-29.63315507789291,-258.0174975015748,-137.81147018605947,-174.03432342595343,165.2272806068797,551.0880326633518,305.16632118510586,635.3544740050611
412,-24.41198924391625,-254.61385762620375,-140.04520311763764,-206.11105940929644,175.61597710866596,552.5974362022386,301.6992616249695,647.6961378042797
413,-19.78566635384705,-251.48267554426633,-141.55716249534038,-236.28529379702104,188.1728948513569,549.3477637473735,298.3422713921694,660.9456005263955
414,-15.852356445279927,-248.65617996143223,-142.36273847340686,-264.50712392362766,202.7270544313712,541.1753050408095,295.14201164285714,674.9294005323533
415,-12.69443090267919,-246.15651532680226,-142.48887477027984,-290.7400183169674,219.0550100597739,527.9921178677804,292.1368883771133,689.4583933366451
416,-10.376080457125564,-243.99448513186653,-141.97253825535384,-314.9534123319171,236.8822260959493,509.7917191216897,289.3552504992234,704.3299968497054
417,-8.94136034257266,-242.16873884846783,-140.8589756135621,-337.1158291309687,255.88614965682268,486.65266957221246,286.81397332475336,719.3303371248378
418,-8.412728743919553,-240.66546151623768,-139.19984830408788,-357.18903324564945,275.7009887752436,458.7398191376567,284.51751688200414,734.2363144096125
419,-8.790136056127544,-239.45859764630214,-137.05133845357366,-375.1236922036195,295.9241551260202,426.3030804946719,282.45752415343765,748.8176635952279
420,-10.050711938724168,-238.51061300026217,-134.47231209269881,-390.856944509871,316.1242799408822,389.67371043206026,280.61299545375897,762.8391300243492
421,-12.149083937246983,-237.77377045354288,-131.522613849377,-404.31215061672896,335.8506565072268,349.25819397166384,278.9510438980654,776.0629149533673
422,-15.018344479107405,-237.1918707193288,-128.26155115485065,-415.4009479766448,354.6438999841472,305.5299374711402,277.4282059880925,788.2515571177004
423,-18.571661611592926,-236.7023862031825,-124.74660851823458,-424.02755903673994,372.04754691670894,259.0190744261542,275.99225305291986,799.171399110791
424,-22.704503397339735,-236.23889760680004,-121.03241516138905,-430.09513104174306,387.6202487994305,210.3007637187202,274.58442517236375,808.5967337586947
425,-27.297418303043276,-235.73372893097167,-117.16997314339278,-433.513734532081,400.9481544975977,159.98241024895495,273.1419899606764,816.3146380648807
426,-32.21928700214366,-235.1206678548845,-113.20613850620379,-434.2095231097804,411.65703298285825,108.69026185472377,271.60101431191134,822.1303918598053
427,-37.330937623595766,-234.33765535094662,-109.1833355036302,-432.1344643079422,419.42366643235613,57.05583689928474,269.89922792453336,825.873263034498
428,-42.48899888245044,-233.32933071896247,-105.13947431730956,-427.275991483963,423.98604798276716,5.7026181520242245,267.9788532952793,827.4023405033544
429,-47.54985510618683,-232.04932555551045,-101.10803623548416,-419.6659013594952,425.15195020393026,-44.766585072690276,265.78927809540454,826.6120258883302
430,-52.37356440754086,-230.46221185520255,-97.11828700683655,-409.3878344873112,422.8054893412405,-93.7812496171513,263.2894524396143,823.4367658828033
431,-56.82760585483072,-228.54502476189467,-93.19557865904214,-396.58272988283034,416.9113932741154,-140.8134230939894,260.44990538594647,817.8546236458485
432,-60.79033261137075,-226.28829876604883,-89.36170221110339,-381.45174128507267,407.5167814860698,-185.38643842835393,257.25429178159186,809.8893475585882
433,-64.15402450836268,-223.69657665484505,-85.63525808744764,-364.25623817092264,394.7503745358573,-227.08188230315136,253.70040172449006,799.6106922952338
434,-66.82745403217517,-220.78837254230817,-82.03201698361056,-345.31468297831134,378.8191596976924,-265.54471034631706,249.80058949835484,787.1328701281578
435,-68.73790274715668,-217.59559322107418,-78.56525040739956,-324.9963666079143,360.00264120162336,-300.4864716144475,245.58160566836855,772.6111474796388
436,-69.83258924990797,-214.16244519719723,-75.24601616765318,-303.7121834561377,338.64489269004844,-331.68667344572833,241.08384375012588,756.236739387153
437,-70.07949355497772,-210.5438770086903,-72.08338925501829,-281.9028190428607,315.1447031449071,-358.99238265220635,236.36003993965042,738.2302785116336
438,-69.4675852384193,-206.8036263560987,-69.08463297346015,-260.0248918705685,289.9441645707726,-382.3162171850345,231.47348916310958,718.8342322953777
439,-68.00648275676984,-203.01195786720226,-66.25530922848438,-238.53572334036386,263.51609061923483,-401.63293019076065,226.4958617141506,698.3047017361899
440,-65.72558831493055,-199.2431890960116,-63.599330847869375,-217.87749671762273,236.35068149860754,-416.97482235357177,221.5047209331461,676.9030528191086
441,-62.67275591740118,-195.57310916117112,-61.118962693337075,-198.4616045582219,208.9418634454086,-428.4262364774671,216.58085305132423,654.887807720973
442,-58.912559680627155,-192.07639611278526,-58.814781858698,-180.6539739688416,181.77373176540922,-436.11739046480545,211.8055251395864,632.507164327479
443,-54.524235544609525,-188.8241358077961,-56.68561010755402,-164.76210342454203,155.30751520727617,-440.2177935635366,207.25778616426513,609.9924313962724
444,-49.59937289145881,-185.88153722387898,-54.72843361676258,-151.02444798993614,129.96945566456446,-440.9294700254495,203.01191996867337,587.5525778370138
445,-44.23943367138179,-183.30592754227297,-52.93832594204046,-139.6026576412431,106.13996011986538,-438.48018862714514,199.13514834402827,565.3700123506027
446,-38.553175420818775,-181.1450959164378,-51.30838995250931,-130.57701419757834,84.14433134554805,-433.116869490593,195.6856680530138,543.5976435930097
447,-32.65405090895076,-179.43603842383928,-49.829733433941314,-123.94523710649644,64.24532192522996,-425.0993134336792,192.71108848245004,522.3572234089738
448,-26.657651226293137,-178.20413898153453,-48.491491241127825,-119.6246498816234,46.63768627937066,-414.6943744262579,190.24731733804308,501.73894230131555
449,-20.679251361660466,-177.46280280570502,-47.28090426275026,-117.45752990647625,31.444832111995247,-402.1706724874021,188.3179214506272,481.8022197485022
450,-14.831508228846404,-177.2135411727111,-46.18346202162598,-117.21931439130232,18.717600377261657,-387.7939222325573,186.93396940216857,462.5776055789663
451,-9.222351296462781,-177.44648945590035,-45.18311171470132,-118.629210812537,8.435134992277804,-371.8229313867633,186.09434321193805,444.0696788571962
452,-3.953096069025288,-178.14132506109308,-44.262532426916174,-121.36266521653434,0.5077426226925261,-354.5063043601315,185.78648843190726,426.2607975972688
453,0.8831988319901868,-179.26853825202838,-43.40346960024964,-125.06507949893094,-5.2184094743687695,-336.0798685816703,185.98755619380984,409.1155187646347
454,5.2031190598507076,-180.7909972805286,-42.587121800258345,-129.36614141476815,-8.954952634194148,-316.76482531445725,186.66587745317133,392.5854780973157
455,8.934022551782029,-182.66574008152006,-41.79456943471754,-133.89413868996843,-10.96356184165585,-296.766611511861,187.7826992641948,376.6144987980656
456,12.014911590550824,-184.84591836807323,-41.00723332315922,-138.28966824199327,-11.54704030047037,-276.27444447015876,189.29410567243897,361.14369173219455
457,14.397058706005838,-187.28281650362698,-40.207349814732524,-142.218217651011,-11.039513456873838,-255.461506460576,191.15304189694024,346.11631948496745
458,16.044401372945494,-189.92786719104626,-39.37844849766613,-145.38118162614373,-9.796010861211192,-234.48571229750692,193.31135997084587,331.4822214829221
459,16.933724232819145,-192.7345887699335,-38.505818602747574,-147.52497372013045,-8.181715658299716,-213.49098906660657,195.72180685952537,317.20163382958486
460,17.054649787616725,-195.66037451664738,-37.576951099959054,-148.44799577237816,-6.56115683781994,-192.60898412832663,198.33988201441,303.24828077737084
461,16.40945914902535,-198.66807241492668,-36.581945047867464,-148.00532867847858,-5.2876096252356355,-171.9611053854508,201.1254998911779,289.61166042145703
462,15.01276364650572,-201.7273038557304,-35.51386864246879,-146.1111041855086,-4.692955414102207,-151.66078743329604,204.0444035137012,276.29849217880803
463,12.891046185175757,-204.81548093615442,-34.36906744435288,-142.73860619157202,-5.078235066574526,-131.81586961843604,207.0692869539982,263.33333609279174
464,10.082088440384286,-207.9184938352137,-33.14741441487047,-137.91822991932602,-6.705108601731031,-112.53096810029795,210.18059698353218,250.75843265574446
465,6.63429655730087,-211.03105171074188,-31.85249851652109,-131.73349684376723,-9.788410403441908,-93.90972423152938,213.36699665629993,238.63284522127032
466,2.6059343945604776,-214.15667234053547,-30.49175038101407,-124.31538087956137,-14.489962149211832,-76.05681598362867,216.62548579253996,227.03101358235202
467,-1.935730069937539,-217.3073269784077,-29.076504656543097,-115.83524582159212,-20.913775681530105,-59.07962743231182,219.9611848436885,216.04084550539096
468,-6.9153624708635215,-220.50275723517618,-27.621999186951403,-106.49672462206598,-29.102745080025702,-43.08948309521611,223.38679905361735,205.7614820625945
469,-12.25058348201638,-223.7694898421263,-26.1473113892405,-96.52688762574638,-39.03689161793874,-28.2023689839165,226.9217888285968,196.30087234555495
470,-17.853074998207827,-227.13958267543254,-24.675232171868277,-86.16704988319323,-50.63318800880142,-14.53908062620357,230.5912795591944,187.77328411829023
471,-23.62977275863489,-230.64914147124617,-23.232077417027558,-75.66355821928528,-63.746950845949854,-2.224760125656567,234.42474984238567,180.29686026941857
472,-29.484146706684903,-234.33665148085726,-21.847436443061486,-65.25887829586861,-78.17475420435578,8.612190572577283,238.45454136479242,173.9913080386778
473,-35.31756896941039,-238.24117204974837,-20.553856124703646,-55.18327202884598,-93.65878469691019,17.841805253967394,242.71423679699996,168.9757807903674
474,-41.03076705164472,-242.40044473510764,-19.386458709183955,-45.64731802123936,-109.89253005401162,25.33481357290573,247.23695393453,165.36698291626274
475,-46.525356788653724,-246.84896708683036,-18.382491016412754,-36.83548387493136,-126.52767008458369,30.96539221232053,252.05360502235706,163.2775000053924
476,-51.705445850099544,-251.61608466064976,-17.58080274604286,-28.900911034269573,-143.1820205922198,34.61430615407353,257.19116980356563,162.81433145469916
477,-56.479294305493625,-256.7241532585235,-17.021252081836916,-21.961521605590747,-159.44836671719145,36.172315788970984,262.67102943449686,164.0775833991464
478,-60.76101416440073,-262.18682188115054,-16.74403778328743,-16.09750350576152,-174.90401089159258,35.54370838660347,268.5074061405983,167.15926745528634
479,-64.47228488506708,-268.0074846502021,-16.788958641513506,-11.350176566016298,-189.1208503982629,32.64980324479087,274.7059505900632,172.14214542717906
480,-67.54405630327379,-274.1779473553121,-17.19460366437536,-7.722189893708903,-201.67578873701245,27.432279868893126,281.2625157481794,179.0985607830502
481,-69.9182039739465,-280.6773516429959,-17.997479659124767,-5.178953091265901,-212.16127250284245,19.856188060258788,288.16215273662715,188.08920240442436
482,-71.54909462976927,-287.47139740461284,-19.2310869376788,-3.6511648956200577,-220.1957312039242,9.91251690574426,295.3783611685095,199.16175273673434
483,-72.40501195998208,-294.5119016018983,-20.924958455816913,-3.0382763198198686,-225.43368274154554,-2.3797755720095783,302.87262359126424,212.3493800265894
484,-72.46938619504003,-301.73672916707204,-23.103682264529063,-3.2127139430726177,-227.57525499327062,-16.972341305600192,310.5942507377007,227.66904375970097
485,-71.74176619460205,-309.0701278752044,-25.785930981226898,-4.024692431177619,-226.37486818067148,-33.786667950035174,318.48056057792576,245.11959633336195
486,-70.23847107805702,-316.4234931483024,-28.98352471959182,-5.307459958125712,-221.64882803625977,-52.71395968608264,326.45740891638974,264.6796853259962
487,-67.99286115155017,-323.6965797515867,-32.70055585774034,-6.8828391718725985,-213.28159993793486,-73.61565428259905,334.44008208793394,286.30549110811546
488,-65.05517603084766,-330.77916490476827,-36.93260590429322,-8.566942315688705,-201.2305705985849,-96.32453596010531,342.334553303936,309.9283734391995
489,-61.49190176874493,-337.553151657125,-41.66608719707305,-10.175947565464227,-185.52915472417877,-120.64638794373485,350.03909383366266,335.45254496087705
490,-57.384647655504274,-343.8950833167763,-46.87774539854917,-11.531825285864509,-166.28816372686066,-146.36211808961815,357.44621901032207,362.75293287298655
491,-52.828535348448916,-349.67902077582215,-52.53436213555179,-12.46790301148975,-143.69541350386717,-173.23028341703346,364.4449375946869,391.67342356025875
492,-47.930125795992005,-354.7797165704777,-58.5926993397951,-12.834162968796562,-118.01359916881877,-200.98993266742815,370.9232618899177,422.0256994966996
493,-42.80493079170622,-359.0760041315614,-64.9997261701864,-12.502179901616847,-89.57649987691731,-229.36368007064968,376.7709256759273,453.58886875781195
494,-37.574574204682555,-362.45430903167465,-71.69316422915392,-11.369629834295433,-58.78359521511217,-258.06092119102414,381.8822479025613,486.11005748671477
495,-32.363682166518274,-364.8121815092183,-78.60237602031408,-9.364328556260606,-26.09318007422828,-286.78110757283173,386.1590723943402,519.3060929794705
496,-27.29659182106442,-366.06174581609133,-85.64960482988836,-6.447785919249618,7.985935263070228,-315.2170141590743,389.5137075580659,552.8663586475029
497,-22.493975333967327,-366.1329611432812,-92.75155191311548,-2.6182807276441813,42.904051144844196,-343.05796127901374,391.8717848758858,586.4568568259073
498,-18.069480661725542,-364.97658991995826,-99.82125076305007,2.086537932615695,78.08143160116072,-369.992985534708,393.17495015462487,619.7254708894047
499,-14.126493784913833,-362.56677109225114,-106.77017153180725,7.587542838301426,112.9202626565238,-395.7139818621515,393.3832964251705,652.3083715556269
500,-10.755128596885655,-358.90309804094886,-113.51046530529166,13.762593284650464,146.8175586218328,-419.9188531296924,392.4774419757058,683.8374614444041
501,-8.029549476072775,-354.0121035689142,-119.9572413075436,20.445743273528024,179.17881284786452,-442.3146988539649,390.46015238904556,713.9486961706757
502,-6.00572646730096,-347.9480591747318,-126.03076244617141,27.427477492949755,209.43213468929554,-462.62105308583176,387.35740388289315,742.2910582088069
503,-4.719712636673486,-340.7930040574085,-131.65844731707602,34.45636954269043,237.04255118534266,-480.57315177423845,383.21878942392505,768.5358891446547
504,-4.186516600159422,-332.6559322941826,-136.77658088432165,41.24262900041746,261.5260790088757,-495.9251824810026,378.11718165249147,792.3862086767869
505,-4.399620689568327,-323.67108605433015,-141.3316612096289,47.463999264934664,282.46309242789386,-508.45345150954296,372.147589740225,813.5855792854871
506,-5.331168567719201,-313.99533048778727,-145.28134223821576,52.77435764264016,299.5104393983208,-517.9593968824939,365.42518139066925,831.9260401648653
507,-6.932818231697858,-303.8046229746635,-148.59496578848803,56.81514996429848,312.4117140029168,-524.2723772660382,358.08248398777073,847.2546555414457
508,-9.13723012185468,-293.2896342905279,-151.25370235793412,59.229495221058954,321.0051037247329,-527.2521729405788,350.2658257746317,859.4783023571883
509,-11.86013754576954,-282.65062828291246,-153.25033661741014,59.678476260919346,325.22830659160707,-526.7911427786321,342.13112395419904,868.5664391934566
510,-15.00292869665542,-272.09175531878236,-154.58874067922315,57.85884709983844,325.12015068540205,-522.8159901058388,333.839168014916,874.5517238279731
511,-18.455655906483063,-261.81495857790316,-155.28308015439725,53.521176024542356,320.81872994854695,-515.2890999507022,325.5505808074243,877.5284617944105
512,-22.100377484919502,-252.01372714364499,-155.35679828163984,46.48732514358429,312.5560754889297,-504.20941995166726,317.4206647171871,877.648967362647
513,-25.81472967858912,-242.86695232008813,-154.84142401316677,36.66614310734126,300.6495907621352,-489.6128667745635,309.5943536306012,875.118003957621
514,-29.475620592910317,-234.53315132448037,-153.7752512087696,24.06630955574891,285.49067207945853,-471.5722498740444,302.2014918276507,870.1855458651647
515,-32.96293451374274,-227.14531467665654,-152.2019374077795,8.805403416359999,267.5310932981651,-450.1967156218604,295.3526482745161,863.1381666284473
516,-36.16313432064164,-220.80661098255905,-150.16907133274233,-8.885543105954774,247.26783971059217,-425.63072671197784,289.1356504080804,854.2894095376583
517,-38.972651911697874,-215.58714705604933,-147.72675797848007,-28.66251207763019,225.22712387383513,-398.05260197082015,283.61298784506664,843.9695309533162
518,-41.300961933857565,-211.52193444990593,-144.92626860943605,-50.07423751784407,201.94830839000318,-367.6726475543759,278.82019614887037,832.515029040576
519,-43.07324272024164,-208.61015781262785,-141.81879976729078,-72.57318772187612,177.96840819056703,-334.7309109733727,274.7652861487235,820.2583804510422
520,-44.23254024941418,-206.81577898994541,-138.45438000142153,-95.53148933342459,153.80776136986438,-299.4945854336152,271.4292373657479,807.5184044724335
521,-44.741366213348286,-206.06944703625226,-134.88095544523404,-118.2612230850803,129.95735529198245,-262.25508558907103,268.7675269133631,794.5916525044079
522,-44.58267980829588,-206.27162226494485,-131.1436760658237,-140.03827962451038,106.8681820789654,-223.32480918478896,266.71261989326615,781.7451716935266
523,-43.760224161374225,-207.29676606841463,-127.28439408675756,-160.12876391715636,84.94287944489487,-183.0335944170263,265.177305714229,769.2109084275445
524,-42.29821143931833,-208.9984009229147,-123.34137531466334,-177.8167916429066,64.5297917200382,-141.72488210818844,264.0587286451656,757.1819016524697
525,-40.24037441422962,-211.21480944149982,-119.34921336253835,-192.43243889364817,45.91946413546187,-99.75159636271107,263.24293197668374,745.8102806399743
526,-37.648425164829916,-213.77511929942102,-115.33892641357717,-203.3785896656292,29.343464583930288,-57.47176785857672,262.6097149979848,735.2069481001737
527,-34.59998221316689,-216.50551307054354,-111.33820657408755,-210.15547176740924,14.975316491843671,-15.243940046231131,262.0375918210242,725.442718454901
528,-31.18604461402329,-219.23530816215168,-107.3717836797023,-212.38177546343366,2.9332310273148274,26.57758117743324,261.4086415829758,716.5506063902534
529,-27.50810484464881,-221.8026706978818,-103.46185966191284,-209.81140366266234,-6.7157456349099025,67.64755196110752,260.6130506708974,708.5289275034381
530,-23.67500173979636,-224.05975604997536,-99.6285673094641,-202.3451005492956,-13.950596525568008,107.63458693465813,259.5531683847069,701.3448801668699
531,-19.79962016590754,-225.87710514363803,-95.89040916359252,-190.036439549978,-18.790642995652306,146.22581055514527,258.1469262971291,694.9383218785465
532,-15.995545604964407,-227.1471673105906,-92.26463837167414,-173.09191210987015,-21.2897027661502,183.13123839404844,256.33050669598555,689.2255277923813
533,-12.373779506578853,-227.7868653042056,-88.76755269871782,-151.865133479923,-21.53043960128317,218.08776253054904,254.06018495820777,684.1028129368461
534,-9.039615564750203,-227.73916395129385,-85.41468394093123,-126.84545454103147,-19.619163020254216,250.86262052286193,251.31331215421142,679.449996866531
535,-6.08976839498155,-226.97364837710776,-82.22087598110701,-98.64152142981614,-15.681240922767316,281.25623786699924,248.0884449206064,675.133771216695
536,-3.6098347377770774,-225.48615836735203,-79.20025446559039,-67.96054046577595,-9.857193001923708,309.1043489309338,244.40466709925133,671.0110798229761
537,-1.6721535708444781,-223.29756022629383,-76.36609899933839,-35.58417256309814,-2.299448358940827,334.2793212282341,240.30017983974852,666.9326280968278
538,-0.3341157860459548,-220.45176519977048,-73.73063464192248,-2.342093661169307,6.830316066006227,356.6906329222399,235.8302625886524,662.746604396775
539,0.3630429322577913,-217.0131237308045,-71.30476324534062,30.915683682114874,17.36338489541976,376.28448350849857,231.06472616731259,658.3026327009551
540,0.3949497789231436,-213.0633377119151,-69.09775682610787,63.346623996686944,29.12591292969783,393.04255159874674,226.08499104420116,653.4559004880504
541,-0.24569639862466497,-208.6980389227969,-67.11693497501734,94.14255250062159,41.94068565509921,406.979949430938,220.98092923309903,648.0713362709461
542,-1.549399285311019,-204.02318138495272,-65.3673467984877,122.55462479119124,55.628866753294986,418.142458266186,215.8476073100633,642.0276616887234
543,-3.4905929372059084,-199.1513888652671,-63.85147569398305,147.91552034057574,70.0118352126908,426.6031593970403,210.78206125654177,635.221121538059
544,-6.0287829255809005,-194.19838687824392,-62.56898292948218,169.65815310164837,84.9131725039767,432.4586001900934,205.8802218582452,627.5687034748149
545,-9.11005158408883,-189.2796321941804,-61.516503743689974,187.33037313663513,100.16081467544062,435.8246526428125,201.23409309597034,619.0106935591415
546,-12.668871047119264,-184.50723323325923,-60.687507348391335,200.60532732212656,115.58934100900267,436.8322329794197,196.92926639782365,609.5124663738959
547,-16.63016204155421,-179.98723317284234,-60.0722295069185,209.28734302518538,131.04233450012086,435.623054083647,193.04283197131488,599.0654692182565
548,-20.91153213704278,-175.81730548722115,-59.65768321840671,213.31338589023883,146.3747224361822,432.34557703108425,189.64172598546185,587.6874194379295
549,-25.425624804147443,-172.0848902077617,-59.427749666714845,212.75031338905637,161.45498865192766,427.15131321293273,186.7815304216281,575.4217848453485
550,-30.082510558234798,-168.865779473058,-59.36334821726296,207.7882930982639,176.1671424873115,420.19160532959984,184.50572213887696,562.3366541765032
551,-34.79205376932359,-166.2231437068234,-59.44268092214789,198.73087340556626,190.4123322811648,411.6149855910625,182.84535002306959,548.5231242383899
552,-39.46619318720694,-164.20697544995429,-59.641543787630276,185.98228056256406,204.11000207169573,401.5651747498667,181.81910458079244,534.0933314007356
553,-44.02108043148099,-162.85391660456503,-59.93369429886481,170.032568236532,217.19850732394428,390.1797481957343,181.43373328232204,519.1782388331554
554,-48.37902808084208,-162.1874265420202,-60.29126287222501,151.44126546617645,229.63512735588895,377.58945784502305,181.68474741200902,503.92526225100147
555,-52.4702270750265,-162.2182429879657,-60.685195262756686,130.8201598472599,241.3954375834656,363.9181640342139,182.55736198159616,488.49578317433316
556,-56.23420153926175,-162.94508458370873,-61.08571336795061,108.81581920823444,252.47203296045882,349.2833028996894,184.02760905457316,473.06256726453034
557,-59.62097751356176,-164.35554332099161,-61.46278309854862,86.09240101925018,262.87262408969855,333.7967936355776,186.0635662307966,457.8070818523085
558,-62.59195015037177,-166.42711646559863,-61.78657989936249,63.315227967573485,272.61755815591016,317.5662772947229,188.62664572586147,442.9166945737553
559,-65.1204416749678,-169.12833089699004,-62.02794503609053,41.13552437709176,281.7368466278864,300.6965741483843,191.67289517954833,428.5817350253314
560,-67.19194981765553,-172.41991772199424,-62.1588287859508,20.17661605991916,290.26680885745236,283.2912485688931,195.1542687335072,414.9924119846751
561,-68.80409340255903,-176.2560012740241,-62.15271986114175,1.021801225831364,298.24646321445675,265.45417650745554,199.01983558071709,402.33559626580154
562,-69.96626807976149,-180.58527384096442,-61.98506321225427,-15.795991946849472,305.7138134795031,247.29101872696523,203.21690250756583,390.7914993080943
563,-70.69903069533923,-185.35213519762902,-61.633670232439194,-29.802729181863345,312.70218703267835,228.91051221043475,207.6920362451649,380.53029685645623
564,-71.03323554997186,-190.49778359539587,-61.079126053167975,-40.59001464622285,319.2367829524421,210.4255030293271,212.39198004461622,371.7087637860478
565,-71.0089499140742,-195.9612515551932,-60.30519820298602,-47.82015115669802,325.33158286729065,191.95365715137416,217.26446619814257,364.4669993837197
566,-70.67417974639633,-201.68038505058172,-59.299249573894365,-51.2296501491412,330.9867656978941,173.61780149425894,222.25893180972986,358.92533168793074
567,-70.08343961601376,-207.59276817089528,-58.05265642846428,-50.631347780627564,336.18674967131193,155.5458657007592,227.32714871881925,355.1814944006104
568,-69.29620324962046,-213.63659704459602,-56.56122902589816,-45.91528965813205,340.8989616305349,137.87041493752312,232.42377996698568,353.3081701555688
569,-68.37527276802633,-219.7515067154146,-54.82562842536369,-37.048538270969175,345.0734052834637,120.72778458857194,237.50687456179563,353.3509894548992
570,-67.38510542857439,-225.8793529789708,-52.85176854094264,-24.074036959669844,348.6430673663157,104.25684784974497,242.5383097523553,355.32706528140875
571,-66.39013651006958,-231.964948240071,-50.65118825220957,-7.108635927795458,351.52516475119336,88.59746552492552,247.48418603676936,359.22412916805894
572,-65.45313589974461,-237.95674663667398,-48.24137493515133,13.659646189665192,353.6231978269705,73.88868252138752,252.31517519947104,365.0003155991941
573,-64.63363405874419,-243.80746947432036,-45.64601843798357,37.97508293121417,354.82973808436964,60.26674698938115,257.0068163841944,372.5846190314508
574,-63.986450416477716,-249.47465808688605,-42.89517324060987,65.51840738634765,355.0298431006965,47.863035716008426,261.53975021111296,381.878023343142
575,-63.56035389505984,-254.92113828188513,-40.02530618066408,95.91169101221269,354.1049624116842,36.80197341340346,265.899876913616,392.75527935623313
576,-63.396881223810055,-260.11537894587036,-37.079207676761094,128.72395044312805,351.9371751327026,27.199033880842762,270.0784218182515,405.06728430138645
577,-63.52933401326664,-265.03172723500603,-34.1057458997578,163.4775019577381,348.4135860388105,19.158907373841334,274.07189033149336,418.64399915683936
578,-63.98197029260097,-269.6505040541419,-31.159445949089786,199.65507765301203,343.4307016428379,12.773910525679009,277.88189499020183,433.29782624040246
579,-64.7694005786337,-273.9579464040708,-28.29987999976955,236.70770350006916,336.8986113885823,8.122702606411925,281.51483933469405,448.8273600232941
580,-65.89619290220179,-277.9459878734776,-25.59085987161518,274.0633177708066,328.74481086932536,5.26935482050215,284.9814477073641,465.02141815819016
581,-67.35668603578287,-281.6118750070149,-23.099430555705634,311.1360788678708,318.91752368509134,4.262798237270698,288.2961365885545,481.6632564222337
582,-69.13500603304415,-284.9576250092511,-20.894671463200247,347.33627414654427,307.3884062656685,5.136651836619477,291.4762313086012,498.534870090268
583,-71.20527876552,-287.98933861928475,-19.04632080512,382.0806964696987,294.15455552521956,7.909406420694895,294.5410413141409,515.4212845135582
584,-73.5320307885534,-290.71639058785496,-17.62324687911215,414.80330599743445,279.23978075746504,12.584914323474907,297.51081717396033,532.114738241562
585,-76.07077223643036,-293.1505286990942,-16.691797641637336,444.96594726675613,262.6951446500551,19.153110593319056,300.40562274946814,548.418661675953
586,-78.76875754056204,-295.30492015059167,-16.314066484784124,472.06885386717175,244.59881848712968,27.590870545394274,303.2441656477792,564.1513530640538
587,-81.56592149646389,-297.1931904617571,-16.54611745852888,495.6606515746174,225.05532907754224,37.862893513845385,306.04263711581854,579.149253772191
588,-84.39598881658459,-298.82850397427023,-17.436217279927128,515.34756863365,204.19429693948956,49.92249548021015,308.8136178207586,593.2697294264567
589,-87.1877543446268,-300.22273565166665,-19.023124583352214,530.8015779690284,182.1687754735443,63.7121955409509,311.56510762214833,606.3932749605174
590,-89.86652825508416,-301.38578078843267,-21.33448940377962,541.7672266327446,159.1532989923522,79.16399328801121,314.29973492254567,618.4250800565102
591,-92.35573566501817,-302.3250424262553,-24.38541812921315,548.0669476043886,135.34173441506616,96.19925541928394,317.0141944475945,629.295915144147
592,-94.57865332439333,-303.0451264323126,-28.177260911375402,549.6046930465708,110.94500952165471,114.7281588918959,319.6989519866986,638.9623243072748
593,-96.4602579913179,-303.5477624406185,-32.69667912846323,546.3677722329321,86.18876377294045,134.6486729137588,322.33824182633015,647.4061374906773
594,-97.92915254647231,-303.8319562902012,-37.915049168130125,538.4268191387009,61.31094074751222,155.84510097766193,324.91036847273887,654.6333382956009
595,-98.91952771577516,-303.894367081669,-43.788254795430326,525.9338530689199,36.5593191035137,178.18624470549994,327.3883097530346,660.6723440159176
596,-99.3731102286911,-303.7298902448323,-50.256912891562855,509.11843075168184,12.188965131628898,201.52329116952103,329.7406043429048,665.5717704564482
597,-99.24104296037092,-303.3324177258828,-57.24706564366278,488.2819211530283,-11.540414473822752,225.6875623559005,331.9324939565803,669.3977650782986
598,-98.48563952062351,-302.69573807907614,-64.67135593029656,463.78996727071325,-34.36723743034616,250.48829741598192,333.9272794406606,672.230998610251
599,-97.08195513028647,-301.8145330957201,-72.43068175123803,436.063236135688,-56.03093768603417,275.7106633361448,335.6878410946639,674.1634091580627
600,-95.01911764548655,-300.6854233772049,-80.41630062230497,405.56660415662714,-76.27498447036581,301.1142058397023,337.17826647984765,675.2947970383891
601,-92.30136734983155,-299.30801220178665,-88.51232717247214,372.7969851109709,-94.8500229132475,326.4319580309379,338.36552304470734,675.7293768669509
602,-88.948761311902,-297.6858740679665,-96.59853934464687,338.27008637635726,-111.51713167883133,351.37041767602483,339.2211070190401,675.5724088062847
603,-84.99750648677805,-295.82743065683957,-104.5533845796244,302.50647476708656,-126.05120375802359,375.61058271922485,339.72259340370243,674.927052350648
604,-80.49989367415469,-293.7466530828461,-112.25706122586541,266.0174386859128,-138.24447655745547,398.81019636271606,339.8550050358269,673.8916057187656
605,-75.52381128518583,-291.4635271023894,-119.59454469429727,229.29123302941588,-147.91026145337455,420.607298234241,339.61191414330546,672.5572976265978
606,-70.15182449048152,-289.0042198637928,-126.45843326919594,192.78036764522702,-154.88694041189964,440.6251124341717,338.996191159338,671.006771448856
607,-64.4798129136766,-286.40089459412013,-132.7515044593366,156.89062766836486,-159.04229423780458,458.4782353614418,338.02032571922587,669.3133397121028
608,-58.615169060741266,-283.69113429610104,-138.38889702317948,121.97247454190699,-160.27819069240343,473.7800222527659,336.70626447937434,667.5410022589873
609,-52.67457027568058,-280.91695764177825,-143.29986132616094,88.3153576208305,-158.53558593851017,486.1510114269048,335.08473834457055,665.7451415579907
610,-46.78134975659669,-278.1234394608819,-147.42904521059447,56.14527322703242,-153.79968851246798,495.22816621535935,333.19408503825224,663.973757677105
611,-41.062507811607176,-275.356982077003,-150.73730011106775,25.625667958112626,-146.1050245669781,500.6746551601188,331.07860803613113,662.2690862875851
612,-35.645423080318245,-272.66331766310606,-153.20200336829078,-3.138463858388625,-135.5400547154562,502.1898337381101,328.78654599554244,660.6694386179057
613,-30.654343577246962,-270.085350759115,-154.8169016225313,-30.09365675431231,-122.25094704552158,499.5190411415562,326.36775505781054,659.2110950834086
614,-26.206756804612446,-267.66097039383544,-155.5914909975094,-55.22876422304,-106.44411392862149,492.4627910167756,323.87122802403815,657.93007239204
615,-22.409754335903372,-265.42097086082225,-155.5499644788924,-78.5641257564038,-88.38716566536611,480.8849237588658,321.34258840830074,656.8635785148447
616,-19.35651741873203,-263.3872183992362,-154.7297748254407,-100.13985765074409,-68.40800905210457,464.7193063372429,318.8217030262371,656.0509828390257
617,-17.123055684694965,-261.5711881745879,-153.17988014030115,-120.00406148725905,-46.891910408894475,443.97471557497937,316.3405534832783,655.5341640027001
618,-15.765331155302265,-259.97297350134596,-150.9587557109641,-138.2017528777728,-24.27643961871894,418.73761916845257,313.9214943872794,655.3571517375715
619,-15.316894480390431,-258.5808396710511,-148.13226685007461,-154.76527712407218,-1.0443067886128692,389.17266887154756,311.57600464739375,655.5650451938284
620,-15.78714931924445,-257.37136101729465,-144.7715011167172,-169.7068919255514,22.285807358782858,355.5208341300462,309.30400908637137,656.2022634674031
621,-17.160343435067382,-256.3101447962387,-140.95065385870876,-183.0140589096445,45.17024205889381,318.0952237730795,307.0938130553835,657.3102605890181
622,-19.395361279868617,-255.35311147598807,-136.74504950341057,-194.64780186629937,67.05290127448214,277.27475956308115,304.9226558875031,658.9249116164144
623,-22.42636284853577,-254.44827013858875,-132.22936456393793,-204.54427464877395,87.37900542104417,233.49596916479635,302.75785331378574,661.0738380095928
624,-26.164277990375616,-253.53790173426822,-127.47609923021099,-212.6194557409836,105.60962553222801,187.2432484685041,300.5584674946872,663.773973412094
625,-30.499125764941216,-252.5610434437552,-122.55432454856597,-218.77666934938483,121.23650812788786,139.03799815122863,298.2774180713771,667.0296600136853
626,-35.30308781858847,-251.45615531710524,-117.52871311341373,-222.91643916700963,133.79665096747223,89.42706549360665,295.8639291813399,670.831503781075
627,-40.434226908559296,-250.163845594394,-112.45884446269925,-224.9480191930753,142.8860686137448,38.97092245214419,293.26619522054244,675.1561105104084
628,-45.74071001003468,-248.62953270529638,-107.39876331136537,-224.8018219113829,148.17219657160973,-11.768010489441837,290.4341413785504,679.9666938105672
629,-51.06537230577982,-246.80592854882295,-102.3967598818073,-222.4418840055203,149.40442471678904,-62.23652303349856,287.32215283503643,685.2144182829264
630,-56.250445014792774,-244.6552380971177,-97.49533653071735,-217.87748043668572,146.42232311590504,-111.90093419849838,283.8916485819415,690.840242220725
631,-61.14226657431045,-242.15098391489144,-92.73132291202515,-211.17302409580446,139.16122164359092,-160.25630674363742,280.1133822086211,696.7769706231729
632,-65.59580243249191,-239.2793805371984,-88.13610234042638,-202.45547136344547,127.65492139170381,-206.8343531649563,275.9693630593723,702.9512258291664
633,-69.47881251036695,-236.04020269786622,-83.73591411628419,-191.91859007928267,112.03544075229885,-251.20989323210435,271.45430726036227,709.2850846893309
634,-72.67552592607382,-232.44711290003568,-79.55219979543082,-179.82362757078621,92.52982181531458,-293.0057875297954,266.5765491113265,715.6972073431976
635,-75.08970836997955,-228.52743712472585,-75.60196557646863,-166.4961310453519,69.4541347029294,-331.8963351567617,261.35836858627124,722.1033802963469
636,-76.64703697305968,-224.32140152427849,-71.89813810722498,-152.31890712354223,43.20491328687866,-367.6091844305411,255.83571893158623,728.4165018275426
637,-77.29672888446461,-219.88086643731933,-68.44989678858724,-137.72134654800388,14.248333592131901,-399.9258603207827,250.05736780838885,734.546136888018
638,-77.01240126115916,-215.26761562483276,-65.2629715786522,-123.16556846852872,-16.892492996458213,-428.68105815374463,244.0834940505341,740.3978477912713
639,-75.79217028727501,-210.55127701396023,-62.33990096566109,-109.13004096705386,-49.65169363144338,-453.76088676888156,237.98380794406825,745.8725534865207
640,-73.65802382982179,-205.80696548073016,-59.68024993122128,-96.09149725434662,-83.43582365050752,-475.10026351410784,231.83528439764825,750.8661747990315
641,-70.65452550896624,-201.112747705349,-57.280792122177125,-84.50607974003023,-117.63959889393469,-492.67966759759713,225.71961438048166,755.2697829343049
642,-66.84692687351058,-196.54703369115816,-55.13566378539493,-74.7906999540266,-151.66168751084612,-506.52144861996504,219.7204899860109,758.9703904233388
643,-62.318778899695715,-192.18599937461747,-53.236499056545554,-67.30559786337965,-184.92008092415432,-516.6858665004987,213.9208423988851,761.8524241212805
644,-57.16914422442352,-188.10114040066935,-51.572556915926256,-62.33902016234663,-216.86658147609964,-523.2670115161397,208.40015028510192,763.7998213896536
645,-51.509517535956455,-184.35704914618097,-50.1308497155473,-60.09481833288724,-246.99997887274,-526.3887231767189,203.23192922771747,764.6986139652764
646,-45.4605635898382,-181.00949585106554,-48.89628192550254,-60.68360241223873,-274.8775391380348,-526.2005979695125,198.4815013147949,764.4398212786608
647,-39.14878064322171,-178.10388066217806,-47.85180599235709,-64.11788754859631,-300.12449649656827,-522.8741511002839,194.20412847062755,762.9224672126268
648,-32.70319199391437,-175.6741071259387,-46.978600310525884,-70.31145160136364,-322.44131666485606,-516.5991771913949,190.4435745188203,760.0565541865474
649,-26.252160092444004,-173.74191000903414,-46.256272523197566,-79.08289761539969,-341.60858462912694,-507.5803392804455,187.2311404376296,755.7658646888269
650,-19.920406734538567,-172.31665207892507,-45.66308973565405,-90.16319844052607,-357.48945623626685,-496.0340037795415,184.58519593794824,749.9905013576118
651,-13.826309613935601,-171.3955862933555,-45.17623570226662,-103.20680391725405,-370.0296966844409,-482.1853308209957,182.51120933636992,742.6891129912283
652,-8.079530621046336,-170.9645623697895,-44.77209369576254,-117.80572393313562,-379.25540717516327,-466.2656242120398,181.00225765456688,733.8407793056168
653,-2.7790154539622867,-170.99914055097818,-44.42655271854659,-133.50587169809694,-385.2686112189181,-448.5099423032944,180.03998078398627,723.4465391571091
654,1.9886116844696444,-171.46606100396767,-44.11533403159139,-149.8248672844006,-388.2409323323959,-429.15496939058767,179.59592789328582,711.5305461163127
655,6.150249346376575,-172.32500504417823,-43.814334499162335,-166.27046500259897,-388.4056433914077,-408.43714590877363,179.6332312379155,698.1408258942686
656,9.647120409130476,-173.53057472905408,-43.499982576990796,-182.35877823563038,-386.04840358692775,-386.5910541084248,180.1085323969833,683.3495985624885
657,12.43518996213864,-175.0344108456578,-43.149601601361375,-197.63152660714357,-381.49702151893734,-363.84805381751454,180.97407905395403,667.2531210896635
658,14.485225312512043,-176.78736625185255,-42.741773599737506,-211.67161516506778,-375.1105929804593,-340.43516005298926,182.17990702753707,649.9710067300293
659,15.782531573571076,-178.74165187270188,-42.25669577476081,-224.116465256412,-367.2683602970098,-316.57415058248887,183.6760223599159,631.6449887718695
660,16.32640173930613,-180.8528760388881,-41.67652158400358,-234.66864381780567,-358.35862749077916,-292.48088708654666,185.414501591284,612.4371161420278
661,16.129323524611266,-183.08190380519662,-40.98567902118076,-243.10347442159116,-348.76804278737046,-268.36482831976036,187.35143442941137,592.5273947419677
662,15.215986873332836,-185.39647093767942,-40.17116014799478,-249.27345300804748,-338.87152812623026,-244.4287075476928,189.44864136036773,572.1109178659833
663,13.622136235303316,-187.77249694819167,-39.22277790754854,-253.10942826186113,-329.0230959670578,-220.86833976719825,191.67510883019614,551.3945585201645
664,11.393310641933569,-190.19505243493404,-38.13338849031377,-254.61863658103442,-319.5477488900848,-197.8725176214406,194.0080959364007,530.5933234576738
665,8.58351220958449,-192.65894768079116,-36.89907967561892,-253.87980098678702,-310.7346095749336,-175.62294975044296,196.43387863264968,509.92649139305917
666,5.253839978989639,-195.1689217218896,-35.5193272748248,-251.03560924441982,-302.83137993563975,-154.2941927079654,198.9481099367536,489.6136745191932
667,1.4711212204962043,-197.7394238032072,-33.99712275283504,-246.28297638509952,-296.04018045037895,-134.05352812725994,201.55578736462576,469.87095145233025
668,-2.693433101712933,-200.39399220623108,-32.33907513347698,-239.86156844037174,-290.5147756792448,-115.06074062201131,204.27083169861018,450.9072194271232
669,-7.165527709206437,-203.16424873887513,-30.55548946964012,-232.0411156634763,-286.3591508940027,-97.46775876994941,207.11529413331766,432.9209027846245
670,-11.869021818967738,-206.0885404636604,-28.660422733059434,-223.10807385051356,-283.62736864892526,-81.41813110836578,210.1182216162946,416.0971334656869
671,-16.727097155070698,-209.21027305498666,-26.67171613459446,-213.35220175024267,-282.3246037575037,-67.0463209453226,213.31422240424945,400.6054886890125
672,-21.663349555911612,-212.5759919173565,-24.611000685353073,-203.05361181094634,-282.4092309867171,-54.47681744044738,216.74178490942447,386.5983338010624
673,-26.602802495247374,-216.23327722440555,-22.503670443650567,-192.4708213921499,-283.795822081489,-43.82307516193126,220.44141220607924,374.2097776948759
674,-31.472843914349287,-220.2285266945766,-20.37881573580988,-181.83028236377723,-286.3588976399184,-35.18630930186908,224.45364149270185,363.5552079482581
675,-36.204089868425136,-224.6047045301126,-18.269106952199518,-171.31779904793493,-289.93727500592655,-28.654187904562253,228.81702172786117,354.7313370276574
676,-40.73117952539784,-229.39913601760327,-16.21061828670806,-161.07215881419137,-294.3388557580391,-24.299474802194474,233.5661230937331,347.8166635120982
677,-44.993506005295764,-234.64142472443257,-14.242579887362027,-151.1811985931737,-299.3457053743346,-22.178686580240374,238.72964880383827,342.872236299675
678,-48.93588661842458,-240.35156330927126,-12.407046361539106,-141.68041769776954,-304.7192927906831,-22.33083317982748,244.3287133953407,339.94260638643004
679,-52.509174617400355,-246.5383002186261,-10.748469737742456,-132.55412754053765,-310.20577802826216,-24.776314290142924,250.37534264750343,339.05685913414084
680,-55.670812885572396,-253.19781367909297,-9.313166242384687,-123.73900829714475,-315.54126060598514,-29.5160422711571,256.87123944158907,340.2296371047959
681,-58.3853281283061,-260.3127322785695,-8.14866885489424,-115.12982841172531,-320.4569283875787,-36.53085689238618,263.8068481206714,343.4620854455003
682,-60.62476220876915,-267.8515289307374,-7.302961506886159,-106.58698245542367,-324.68407370744677,-45.78128764603511,271.160738096304,348.7426741645459
683,-62.36903545997072,-275.7683028835995,-6.823595726537037,-97.94542307698183,-327.95896858030824,-57.20770568648129,278.8993163212935,356.0478710477256
684,-63.60623525346103,-284.0029531893337,-6.7566961967319115,-89.02450916409379,-330.0276110069295,-70.73088937689332,286.9768682995968,365.3426538791122
685,-64.33282181752735,-292.4817369141051,-7.145867852986545,-79.63826841057569,-330.6503677836006,-86.25300491973944,295.33591869875113,376.5808617200105
686,-64.55374221889063,-301.11819629909706,-8.03102358339287,-69.60557922635023,-329.6065445302039,-103.65897698753973,303.9078952739782,389.70539441282216
687,-64.28244257930616,-309.81443101551594,-9.447158107110518,-58.75981249381689,-326.69891037373174,-122.81819484851066,312.614073589774,404.64827926356105
688,-63.540768096129,-318.46268462508334,-11.423100042832143,-46.957533789391455,-321.7581929641515,-143.58646949039678,321.3667749424953,421.33063458691396
689,-62.35874030849043,-326.94720852946904,-13.980280363734542,-34.08594556677835,-314.6475398423722,-165.8081300239769,330.07078605942496,439.66257031422776
690,-60.77420124567631,-335.1463622946923,-17.131561062021817,-20.06884015669991,-305.26691570410173,-189.3181270837235,338.6249667170013,459.5430741274749
691,-58.832314680590166,-342.9349064407552,-20.880172464825904,-4.870932127307918,-293.55737344382686,-213.94400068072375,346.92401048383005,480.85993577742494
692,-56.58491607053454,-350.18644262402825,-25.21881074406024,11.49946324776586,-279.5051023016884,-239.5075726869831,354.86032438125505,503.48976153500917
693,-54.08970549715742,-356.77595649744825,-30.12894816647058,28.989345340054424,-263.14512196070103,-265.82624120115935,362.3259952998253,527.2981255554266
694,-51.40928244734696,-362.5824201640752,-35.58040689391125,47.501393596432834,-244.5644604962386,-292.7137854019537,369.2148142830179,552.1398968511937
695,-48.61002749935702,-367.49141367267265,-41.531242192023285,66.89556943802128,-223.9046298133205,-319.98063356461233,375.4243338329394,577.8597714224015
696,-45.76084320131764,-371.3977279688855,-47.92797266853213,86.99168866182019,-201.36319659716253,-347.4336004352843,380.857937540772,604.2930299163698
697,-42.93177367843874,-374.2079145153764,-54.70618381348264,107.57266725927091,-177.19424040731198,-374.87515814453974,385.42690476152745,631.2665317309144
698,-40.19252893499378,-375.8427486426292,-61.791516679971494,128.38813771911995,-151.70749327514875,-402.1023611946237,389.05245475102225,658.5999461584386
699,-37.610944963618614,-376.2395735887359,-69.10103589443867,149.1581565330192,-125.26596754851536,-428.9055948431269,391.66775354427983,686.1072109770029
700,-35.25141456177344,-375.35448896663274,-76.54495056115942,169.57678023561127,-98.28190264879085,-455.0673527061525,393.21986167232313,713.598202253645
701,-33.17332632608167,-373.16433996582884,-84.02863928006025,189.31537790112213,-71.21089959010155,-480.3612698447917,393.6715905101599,740.8806001460486
702,-31.429550774033327,-369.6684515282746,-91.45490873465639,208.02566918353406,-44.54416657680454,-504.55163808309504,393.00321927492234,767.7619452074185
703,-30.065012909380677,-364.89003613731296,-98.7263965833676,225.34261934298058,-18.79886981600366,-527.3936069752499,391.21400470951255,794.0518931736954
704,-29.115389794263766,-358.8771877565473,-105.74801542894971,240.8874705359054,5.493330350327914,-548.6342255793052,388.3233946292616,819.5646833002725
705,-28.605970049667352,-351.7033619943685,-112.42932686244372,254.27132076730578,27.799377067942526,-568.0144120567518,384.37183953143074,844.1218252250101
706,-28.550710052203904,-343.4672374592483,-118.68673519027396,265.09975258376886,47.59925031242923,-585.2718614509199,379.4210881550893,867.5549765111634
707,-28.95151920949079,-334.29185813509423,-124.44540218780845,272.97903405828555,64.40130442119916,-600.1448296640621,373.5538571479407,889.7089318303172
708,-29.797804291116236,-324.32297350058826,-129.64080792144026,277.5243385605356,77.75793606488274,-612.3766719404817,366.872784454623,910.4445899840479
709,-31.066300492753044,-313.7265234159608,-134.21991471791935,278.37024511836483,87.28087887597886,-621.7209687402728,359.4986108291934,929.6417250756916
710,-32.721214365299495,-302.6852577452902,-138.14192402941026,275.18350265703947,92.65533493990779,-627.9470389936167,351.56758041954396,947.2013738951109
711,-34.71469998995249,-291.3945326141166,-141.37864145059092,267.67771275347854,93.65214110110371,-630.845619601218,343.2281033244206,963.0476604868695
712,-36.987683832053634,-280.05738086048297,-143.91447987552982,255.62926559759813,90.13724214073625,-630.23448212224,334.63677417918456,977.1289011240924
713,-39.47104510671444,-268.87900836406743,-145.74613627030973,238.89360635299025,82.07789443200845,-625.9637640138724,325.9538868741721,989.4178617609424
714,-42.08714720395895,-258.06091549711624,-146.88197813774232,217.42074913709484,69.54523006171512,-617.9208107059544,317.3386233065274,999.9110762759481
715,-44.75170176832744,-247.79487912223874,-147.3411756126298,191.2689064385284,52.71304650966195,-606.0343516926043,308.944120694553,1008.6271822964001
716,-47.375930688674806,-238.2570518161445,-147.15261648906284,160.6151569447785,31.852926262010538,-590.2778646753255,300.9126353038813,1015.6042947939195
717,-49.86897376508125,-229.60243992578475,-146.35364463119672,125.76221575191994,7.326011778181066,-570.6720155394,293.37101994298257,1020.8965126720526
718,-52.140473484417434,-221.9600110059502,-144.9886663968934,87.14057412695227,-20.428056155856655,-547.2860995430492,286.42671928584383,1024.5697314968666
719,-54.10325552201943,-215.42865541781467,-143.10767393627347,45.305519071348094,-50.90439999182911,-520.2384504181498,280.16446283959687,1026.6970058088912
720,-55.67601549495294,-210.0741884011091,-140.76473749262254,0.9288076839019461,-83.54766242783285,-489.6958259852794,274.6438024032801,1027.3537582936297
721,-56.785918921488246,-205.92753052758025,-138.0165199632501,-45.214956201501124,-117.76754407859295,-455.871816120042,269.89760132815957,1026.6131646249205
722,-57.371021561465845,-202.98414918296172,-134.92086496084463,-92.26692600140346,-152.95444299190245,-419.02434685503687,265.93153877978034,1024.5420484629944
723,-57.38242104728576,-201.20478458783847,-131.53550414258885,-139.30702197522308,-188.4945855914255,-379.452371281665,262.7246455755784,1021.1975984092553
724,-56.786058318101794,-200.51742385793676,-127.9169211843671,-185.38053483466467,-223.7841272540598,-337.49184469790293,260.2308414271795,1016.6251654907927
725,-55.564099178580626,-200.8204291050191,-124.11939945909195,-229.52730886385825,-258.24180114096526,-293.51108039414703,258.3813991085867,1010.8573151879494
726,-53.71584194008509,-201.98667425088442,-120.19426920876516,-270.8123348898737,-291.319801480247,-247.90557641199365,257.0882214586306,1003.9141966807479
727,-51.258115406676986,-203.86850333991507,-116.18935860284164,-308.3564881702742,-322.5126998810609,-201.092396147729,256.2477839794516,995.8051670911967
728,-48.22515094765013,-206.3032928743489,-112.1486422223267,-341.3661172600579,-351.36430788183657,-153.5041808101862,255.74557045267665,986.5314897119156
729,-44.66793161115546,-209.11938293663422,-108.11207068927509,-369.16022682377604,-377.4725112933357,-105.58287256692672,255.4608123371768,976.089831297927
730,-40.6530390080921,-212.14213640497212,-104.11555677024155,-391.1940946699942,-400.49220543099847,-57.77323466609326,255.27133510490094,964.4762257401808
731,-36.26103439245424,-215.19989151009815,-100.19108678839622,-407.07831277676314,-420.13654754149354,-10.516267527846125,255.0583161088019,951.6901523088891
732,-31.584424005851496,-218.12958898812718,-96.36692214793136,-416.5924346114489,-436.1768066693319,35.75736515963346,254.71076877602357,937.7383926454117
733,-26.725270699482707,-220.78187944578596,-92.66785474323035,-419.6926374706086,-448.4411268394534,80.6337723091085,254.1295861487182,922.6383757807403
734,-21.79252423130211,-223.0255472355109,-89.11548224093991,-416.5130598505684,-456.81252455609024,123.72199526345537,253.23100168750545,906.4207881151801
735,-16.899151117283587,-224.75112206611558,-85.72847430363834,-407.36074059518364,-461.22641738696177,164.65974968168584,251.9493549663885,889.1313085574874
736,-12.159150906929213,-225.8735869460013,-82.52280774068409,-392.7043579122558,-461.66793147222927,203.1186106320525,250.23908250406768,870.8314195514818
737,-7.684548802595463,-226.33412934893468,-79.51195613547641,-373.1572293619956,-458.16916997303383,238.80851175805037,248.0758877906651,851.598332092669
738,-3.5824544788245203,-226.100920342998,-76.70702685094767,-349.45527442987475,-450.80655143570795,271.48144470608815,245.45707817648363,831.5241355863876
739,0.04772619822781206,-225.16894259573314,-74.11684496555625,-322.4308462748459,-439.6982563229842,300.93426480635986,242.40108854672448,810.7143317669768
740,3.116845959805952,-223.55892158353214,-71.74798929479492,-292.98349916839993,-425.00175903856723,327.0105326022434,238.9462416461122,789.2859307406469
741,5.54826563338553,-221.3154440513801,-69.60478990026351,-262.0488677777905,-406.911376286183,349.6013479519322,235.14882168215587,767.3652773315877
742,7.279737705061506,-218.50437291851657,-67.689299133684,-230.56689172298496,-385.65573274361014,368.6451637094509,231.08056061903667,745.085743428823
743,8.264876505287218,-215.2096875665446,-66.00124923415552,-199.4506228617875,-361.4950323332218,384.12659853947406,226.82565460833368,722.5853767240402
744,8.474182373069825,-211.52989208505252,-64.5380090553312,-169.55680287628192,-334.71802711222927,396.07430188369364,222.47744066326032,700.00454968351
745,7.895602651644505,-207.57414123822167,-63.294551190847095,-141.6592957272105,-305.6385939334816,404.5579570779453,218.13487061745855,677.4836161520221
746,6.534627387497877,-203.45823475530136,-62.263439096543124,-116.42630793841847,-274.5918583064995,409.68453965629493,213.89892057676366,655.1605650265278
747,4.413931196178501,-199.30062552707508,-61.43484202167813,-94.40213869904916,-241.9298416687732,411.5939747891616,209.86906973441413,633.1686638686091
748,1.5725845843670885,-195.21857711289465,-60.7965837130041,-75.99398386404903,-208.01664923775172,410.4543575363819,206.1399730878663,611.6341070759794
749,-1.9351318213607798,-191.324591380567,-60.33422896634983,-61.46408625613603,-173.2232577827045,406.45690943038716,202.79843890691802,590.6737161189228
750,-6.04126809865624,-187.72320891549862,-60.031210257479366,-50.92729151656983,-137.9220030320935,399.8108439179839,199.9208044849287,570.3927746256402
751,-10.666051897990396,-184.5082640542073,-59.86899506075358,-44.35384518364756,-102.48090191419075,390.73830255675875,197.57078370149014,550.8831101524363
752,-15.719986957711194,-181.76065426116241,-59.82729321927508,-41.577062721668135,-67.25797249851321,379.4695060620083,195.79783842099286,532.2215496133546
753,-21.10614481331625,-179.54666125566976,-59.88430283210536,-42.305328827327045,-32.59573187279345,366.2382421803911,194.63610386412782,514.4688706871611
754,-26.722588364675204,-177.9168396428926,-60.01699225739977,-46.13774271045446,1.1839426424194965,351.2777884952442,194.1038765626114,497.66934448185333
755,-32.46486438463267,-176.90546841110705,-60.20141452449551,-52.58262665625268,33.78441140146811,334.8173444253084,194.20365284218317,481.8509175020561
756,-38.22850198782782,-176.5305421309492,-60.41304845514848,-61.07805726264476,64.93817196117132,317.0790235600988,194.9226865738312,467.0260206775674
757,-43.91145551382185,-176.79426260482188,-60.62715844694956,-71.01356069496507,94.40993256390914,298.275435048174,196.2340179655737,453.19293038887855
758,-49.41643307050194,-177.68397842282388,-60.819162957710816,-81.75213162320516,121.99876875011577,278.60786114077746,198.09791118544672,440.33755223984804
759,-54.65305611279581,-179.17350948238672,-60.96500091638486,-92.65178581975326,147.53931375832514,258.2650179724772,200.4636280847973,428.4354618429746
760,-59.5398009214191,-181.22478597673296,-61.04148574915155,-103.08593395924156,170.90197743780976,237.42236930481127,203.27145835312342,417.4540231747523
761,-64.00567957519151,-183.78972658793936,-61.02663824897857,-112.46196383424557,191.99223265202104,216.2419489405368,206.4549229763226,407.3544146391702
762,-67.99162577058527,-186.81227853103036,-60.899991805783486,-120.2375340462402,210.7490496702866,194.87263677504734,209.94306766183732,398.09342235070636
763,-71.45155937670468,-190.2305424807683,-60.642866223470065,-125.93420747090235,227.1425948356986,173.45082533024424,213.6627655740355,389.62490315244617
764,-74.35311248701271,-193.978908070616,-60.23860921677427,-129.1481805902652,241.17133750035342,152.10140724672232,217.5409538581782,381.9008695364408
765,-76.67800840758797,-197.99013052269208,-59.67280748571915,-129.55798942085397,252.85872762847646,130.93900900350832,221.50673567928072,374.87219889892754
766,-78.42209319136893,-202.19728600919078,-58.93347170263705,-126.92919017941881,262.249615507576,110.06939211803541,225.4932886012124,368.48901610743314
767,-79.59502699929324,-206.53555229866188,-58.011201425955264,-121.11611996263028,269.4065851586272,89.59094078737336,229.43953072830908,362.7008378801727
768,-80.21964988137292,-210.9437715806408,-56.899336640896074,-112.06093660500473,274.4063647443928,69.59615500093052,233.29150763328641,357.4565966750577
769,-80.33104357808013,-215.36576344417284,-55.59410238723337,-99.7902145881993,277.3364609332123,50.173071057940554,237.00347514833334,352.7046773560269
770,-79.97531753188775,-219.7513671729429,-54.094751965160086,-84.40943337554042,278.29214056308894,31.4065374690455,240.5386650254138,348.3930996523685
