time,ax,ay,az,gx,gy,gz,accmagnitude,gccmagnitude
0,27.316264501522625,-254.99471685061215,-37.242594925378604,-26.22703691589969,97.9323856249005,-0.23525145582006315,259.088250943859,96.38489982005362
1,27.28703336224624,-254.5544462408369,-37.16791017228881,-25.889975273935228,96.46113447868413,0.9045988271916899,258.63903460485284,93.15221501194787
2,27.21995829742294,-254.08012926872132,-37.07175447389076,-25.502260469741945,94.90268428907972,2.0256700194522606,258.15052218695973,89.78064241494243
3,27.10951752713525,-253.57196688842956,-36.95338613963107,-25.069749614736963,93.2297355064541,3.111850285009102,257.62246204042737,86.29313374336445
4,26.950448572376196,-253.03076347450886,-36.812617493350594,-24.600344302691305,91.4121939172959,4.1469915971993805,257.055304468385,82.71748614158531
5,26.73789621573398,-252.45800669168392,-36.64988224281135,-24.104041955276536,89.41762808178008,5.115192329682537,256.4503003519903,79.08641870594829
6,26.46756343173216,-251.8559434815112,-36.466283496473,-23.592943231377653,87.21181806821211,6.001078710617497,255.8095928884309,75.43752891386102
7,26.13586126428949,-251.22764901949657,-36.263619124270996,-23.081209661703166,84.75938873045556,6.790078537639301,255.13629853689147,71.81311399634329
8,25.740053396681876,-250.5770852565526,-36.04438256851992,-22.584965885112837,82.02451919212494,7.468680498973908,254.43457324579245,68.2598453409888
9,25.278391142936908,-249.9091456545118,-35.81173882558048,-22.12214140320014,78.97171848551534,8.02467282357744,253.70966029805086,64.82828764130235
10,24.750234749927436,-249.2296826952511,-35.56947672228951,-21.71224760449114,75.56665530759808,8.44735572122534,252.9679163327668,61.5722585209608
11,24.156157126889646,-248.5455145241637,-35.32193943200907,-21.37608698281903,71.77702756938511,8.72772308300808,252.21681205241498,58.5480286551666
12,23.498026271134705,-247.86440687915135,-35.073935409196004,-21.135393067809392,67.5734549289563,8.858610109715103,251.46490398364236,55.8133669885928
13,22.779062711178664,-247.19502660366987,-34.83063187371082,-21.012401650549123,62.930375030426745,8.83480483032881,250.72177381237034,53.426440579326425
14,22.003868395508903,-246.54686367720612,-34.59743297832173,-21.029356381912486,57.826922042942186,8.653122757411701,249.99793245247477,51.44458397326398
15,21.178423823606067,-245.9301196804871,-34.37984501168285,-21.207954559065772,52.24776466412814,8.312445087165935,249.30468703963496,49.922958868549145
16,20.31005093845581,-245.35556175877596,-34.1833314377642,-21.568741618354437,46.183880275909885,7.813721788949417,248.65397029403422,48.913131037066734
17,19.40734031365168,-244.83434236911592,-34.01316120821359,-22.13046532414449,39.633242475133486,7.159941565634611,248.05813306976341,48.46159773071522
18,18.480042339434622,-244.3777863777833,-33.874254523111695,-22.909402923453268,32.601400640159916,6.3560709566066675,247.52970236128056,48.60830474464482
19,17.53892329569072,-243.99714839456826,-33.77103089321159,-23.918676851912103,25.10193235384512,5.408964796732039,247.08110851381144,49.38519757439201
20,16.59558824541697,-243.70334457036395,-33.70726477382189,-25.167577102648423,17.156752180394335,4.327249894603873,246.72438682439218,50.814855301873905
21,15.662273509242633,-243.5066644266992,-33.68595409889003,-26.660911020972314,8.796263290788259,3.121183260986432,246.47086008658547,52.90925849935284
22,14.751612146247727,-243.41646957504778,-33.70920680262652,-28.398403742255827,0.05934161215216068,1.8024856316065285,246.33080988424487,55.668743032982206
23,13.876376472063098,-243.44088730467723,-33.778149988560564,-30.37417440664321,-9.00685444530237,0.38415051270515427,246.31314548988203,59.0811898037274
24,13.049202266262654,-243.58650788057074,-33.892865830641774,-32.57631445881019,-18.347251896879758,-1.1197713402849798,246.42507999464547,63.121496050636694
25,12.282300053534426,-243.85809502020328,-34.05235750660897,-34.986594643960665,-27.899407707924578,-2.6944120774781495,246.6718238115778,67.7513668632301
26,11.587159774129564,-244.25831947304414,-34.25454737737105,-37.58032655262066,-37.594224214414616,-4.324351102949565,247.0563060098348,72.91945605976682
27,10.97425620321951,-244.78752588759284,-34.49630821781641,-40.32640251478596,-47.3568247915454,-5.993902138685581,247.57893402729965,78.56187382530075
28,10.452763366401367,-245.44354312986658,-34.7735266957982,-43.18753414795959,-57.107574307007894,-7.687420078021287,248.237402085395,84.60306508122676
29,10.030286701176781,-246.2215478546113,-35.08119668987407,-46.12070490054624,-66.76322450324365,-9.389623074760557,249.0265580452147,90.95704843450709
30,9.712621808075527,-247.1139903888162,-35.41353856861766,-49.07784555885708,-76.23816072906993,-11.08592369189571,249.93833747786692,97.52899178814661
31,9.503548408924646,-248.11059080545886,-35.76413927076835,-52.006734002063304,-85.44572361068387,-12.762761394829456,250.96177232879748,104.21708818737835
32,9.404667614483802,-249.1984113749273,-36.12610703675665,-54.85211165524187,-94.29957749909019,-14.407927257653744,252.0830796916879,110.91468482784745
33,9.415289762644926,-250.36200933731283,-36.492234154888166,-57.55699936498348,-102.71509690099707,-16.010870553912373,253.2858338600499,117.51260962090473
34,9.532378938821022,-251.58367115161874,-36.855161184829136,-60.064185177129154,-110.61074246296573,-17.562976111190178,254.5512220172354,123.90163328258417
35,9.75055892880665,-252.8437261656602,-37.207536676673726,-62.31784622807873,-117.9093992050024,-19.057801161215888,255.85838075840397,129.97500045290556
36,10.0621838186251,-254.1209342253928,-37.542167285039646,-64.2652573229987,-124.53965135303807,-20.4912611165961,257.18480730647514,135.63096074631096
37,10.457474622873894,-255.39293830945996,-37.852154394601456,-65.85853057422906,-130.43697009000297,-21.861755297910115,258.50683599517913,140.77522983935816
38,10.924721019655253,-256.6367699967213,-38.13101489652337,-67.05632454469954,-135.54479267050303,-23.170225955048473,259.8001675010089,145.32331173745672
39,11.450544503242892,-257.82939267450377,-38.37278533662261,-67.82545831286679,-139.81547354404836,-24.4201466742046,261.0404355906138,149.20261627406796
40,12.02021631575818,-258.94826518518545,-38.57210996088048,-68.14236599950787,-143.21109041573146,-25.617439135210947,262.2037940653658,152.3543106979113
41,12.618020770571867,-259.9719073158574,-38.724314021077,-67.99433046961096,-145.70409060832438,-26.77031995697758,263.2675053285676,154.73485083759275
42,13.22765229343734,-260.8804481679107,-38.825464072616235,-67.38044086370887,-147.27776574638023,-27.889081903633812,264.2105115875959,156.31714566884014
43,13.83263280222885,-261.6561389062352,-38.8724169986227,-66.312227025423,-147.92654567261746,-28.985815957843975,265.0139700649603,157.09131895328036
44,14.416735022727154,-262.2838126674731,-38.86285921698618,-64.81393449903614,-147.65610556395433,-30.074082681372897,265.6617347408439,157.0650427097089
45,14.964397072625546,-262.751276524007,-38.795336995049276,-62.9224162547179,-146.48328337768646,-31.168542851062682,266.14076912045437,156.26342932761366
46,15.461114068194396,-263.04962320484003,-38.6692780849415,-60.68663121376379,-144.43580807384703,-32.284558513653955,266.44147717653385,154.72848185306546
47,15.893793423740728,-263.1734534238217,-38.48500422439627,-58.16675437823245,-141.55184265273658,-33.437776260365226,266.5579426477933,152.51811505214894
48,16.251061823303328,-263.12100288032605,-38.24373363997298,-55.4329182002666,-137.87934998095926,-34.64370466547946,266.4880700320204,149.70477287851682
49,16.523513644168013,-262.8941712498114,-37.947572579647336,-52.56361905201573,-133.47529358622492,-35.91729756134129,266.23362388814076,146.37368046181152
50,16.703893012699734,-262.49845383555754,-37.5994950363835,-49.64383566263353,-128.4046899088418,-37.272554284404876,265.80016652159543,142.62078020673187
51,16.787204589238673,-261.94277989460113,-37.20331017217405,-46.76291766680992,-122.73953264960849,-38.72214733885004,265.1968976508739,138.55041156636935
52,16.77075135400575,-261.2392647025756,-36.76361742387955,-44.01231154708784,-116.55761352085547,-40.27708715593314,264.43640293405736,134.27280205348168
53,16.654100814813635,-260.4028849582134,-36.285749674953806,-41.483197899562015,-109.94126657798856,-41.94643281092206,263.5343210000463,129.90144267477174
54,16.438983964985354,-259.45108906679616,-35.7757050799208,-39.26411781187559,-102.97606519738662,-43.737056663434075,262.508940761813,125.55042396363281
55,16.1291338850785,-258.4033551889403,-35.24006822858739,-37.43866699076344,-95.74950163423104,-45.6534698071451,261.38074229817533,121.33180907605237
56,15.730073056177284,-257.2807107484681,-34.68592154778339,-36.083333974952524,-88.34967899839972,-47.69771383125014,260.1718955519172,117.35311809045709
57,15.248860131294334,-256.1052274452093,-34.120748207906054,-35.2655532811758,-80.86404452417932,-49.86932264729805,258.90573158697595,113.71499292408096
58,14.693807964851626,-254.8995057890422,-33.55232815762924,-35.042035784267945,-73.37819125797468,-52.16535604104614,257.60620121551074,110.5091054220857
59,14.074185079414988,-253.68616277380684,-32.988629079760834,-35.45742738597329,-65.97475276765984,-54.58050424547006,256.29733543622075,107.8163624659101
60,13.399912494238684,-252.4873355261151,-32.4376940232557,-36.54333368312096,-58.73241219142266,-57.107260308281255,255.00272130622076,105.70545164420415
61,12.681267045511555,-251.32421262749202,-31.9075273234737,-38.317733672681655,-51.725042978913976,-59.7361544924678,253.7450056571557,104.23175943841264
62,11.92860112250714,-250.21660341253414,-31.405980333558997,-40.78479033097515,-45.02099423457763,-62.4560425747948,252.5454375859124,103.43668137594356
63,11.152087236580021,-249.18255398074047,-30.940638590857336,-43.93505093017035,-38.68252890081373,-65.25443785099048,251.42345901597375,103.34733060918084
64,10.361494088372305,-248.23801698059788,-30.51871232584371,-47.74601592224899,-32.765418343747854,-68.11787502925729,250.39635089567267,103.97663831773521
65,9.565998859126081,-247.3965804773165,-30.146932473271917,-52.18304282240802,-27.31869240972114,-71.03229308450476,249.47894079647617,105.32382670953946
66,8.77403840522907,-246.66925946247858,-29.831454294972865,-57.20054137442062,-22.384539816414133,-73.98342363532389,248.68337582990574,107.37522381102193
67,7.993199972609874,-246.06435188971003,-29.577770314733538,-62.743408789546535,-17.998349834742744,-76.95717153564638,248.01896299732502,110.10537927129592
68,7.230150136775846,-245.5873596131584,-29.39063374232725,-68.7486491122902,-14.188882560461687,-79.93997510719655,247.4920774447022,113.4784324858687
69,6.490599179266434,-245.2409732934109,-29.273993231172415,-75.14711856797547,-10.978551702101614,-82.91913465803125,247.1061376859792,117.44967866727202
70,5.77929721357404,-245.02511914414004,-29.230939724899947,-81.8653387234421,-8.383800912130521,-85.88309947117347,246.8616456199624,121.96727505601721
71,5.1000580281014996,-244.9370642006137,-29.263666086484022,-88.82732109803494,-6.41555253102287,-88.82170517027762,246.75628794790666,126.9740281924113
72,4.455806661057508,-244.9715755378451,-29.37343997549773,-95.95635022250553,-5.079706424401741,-91.72635521970084,246.7850943141784,132.40920395264732
73,3.8486470405070996,-245.12112762116604,-29.56059007859895,-103.1766768059621,-4.3776664807195464,-94.59014227316197,246.94064621001584,138.21030473315454
74,3.279946512014018,-245.37615090649797,-29.82450547684615,-110.41507838800527,-4.306873274302557,-97.40790708879885,247.21332958779735,144.3147625056662
75,2.7504345878011125,-245.72531404803829,-30.16364777722878,-117.60225141535622,-4.8613232430818645,-100.17623467746414,247.59162336725473,150.6615021849507
76,2.2603135882518934,-246.15583158538823,-30.575575654462025,-124.67400591300026,-6.032057310133833,-102.89338917380209,248.06241554102456,157.192336598157
77,1.809378840632743,-246.65378869242306,-31.0569815696809,-131.57224161306135,-7.807605091345722,-105.55919062782561,248.61133831593543,163.8531620904165
78,1.3971457309906186,-247.20447453303376,-31.603740569193135,-138.24569229298334,-10.174374646145596,-108.17483855449534,249.22311370405953,170.5949321898125
79,1.0229803515230254,-247.79271611270124,-32.210971139391056,-144.65043287673447,-13.116982067308387,-110.74268862698155,249.8819013237357,177.37439546760578
80,0.6862300122930916,-248.4032052183059,-32.87310800258411,-150.75015134790704,-16.618519817502303,-113.26599025092978,250.5716408543289,184.15459242545663
81,0.38634966524143904,-249.02081188663902,-33.58398637901356,-156.51619457588933,-20.660767156602322,-115.74859383090188,251.2763823844341,190.9051146373657
82,0.12302032905169029,-249.6308786413928,-34.33693656917216,-161.92740366813987,-25.22434975134747,-118.19463736646719,251.98059860419824,197.60213727430985
83,-0.10374418384443775,-250.2194905204946,-35.124886802389405,-166.9697603194555,-30.28885824082627,-120.60822270752602,252.6694734581543,204.22824339721896
84,-0.29350564854636235,-250.77371683839257,-35.94047136602191,-171.63587070074092,-35.832937028692584,-122.99309244062678,253.32916267759185,210.77206486846768
85,-0.4453280160661023,-251.2818216972694,-36.77614036101163,-175.92431756431944,-41.83435497554715,-125.35231892516963,253.94702259305421,217.22777018927968
86,-0.5577249792444026,-251.7334412839619,-37.62426724972892,-179.83891421805347,-48.270069144492425,-127.68801728028,254.5118046276845,223.59443369369836
87,-0.628630931853862,-252.11972678933168,-38.47725070639727,-183.38789550933646,-55.11629151261069,-130.00109395638597,255.01381372360888,229.87532291817035
88,-0.6553973238658416,-252.43345233526176,-39.32760794289835,-186.58308062354192,-62.348566841613746,-132.2910418108227,255.44502960123322,236.0771412821574
89,-0.6348158464514716,-252.66908766708914,-40.16805736588149,-189.43904019751264,-69.94186794374501,-134.555791324696,255.79919023023024,242.20926134964944
90,-0.563169005841013,-252.82283568251356,-40.99158902153109,-191.97229620760675,-77.87071256376593,-136.79162577279956,256.07183730556517,248.2829801196999
91,-0.4363074138233431,-252.892635209151,-41.791521962113684,-194.20057790343955,-86.10930411148603,-138.9931658604606,256.26032398600705,254.31082255263667
92,-0.24975172494952985,-252.878129825386,-42.56154859518698,-196.14215147911875,-94.6316965296211,-141.15342668900647,256.3637857048353,260.30591356211653
93,0.0011840761612109602,-252.78060395118948,-43.295767207166726,-197.81523592224124,-103.41198166244824,-143.26394704914085,256.38307549990384,266.28143265940633
94,0.32125220096110296,-252.6028879664516,-43.98870494826157,-199.23751311989773,-112.42449566384904,-145.3149881437884,256.32066604058355,272.25015990610575
95,0.7151181391358808,-252.34923473832356,-44.63533433703446,-200.42573715706604,-121.64403940158985,-147.29579611965687,256.18052129948535,278.22411726007016
96,1.1872004624574706,-252.02517055917383,-45.23108661274732,-201.39544585492678,-131.04610665372857,-149.1949204326042,255.9679415029255,284.21430600969927
97,1.7415087941921932,-251.63732406425947,-45.77186509851349,-202.16077676295103,-140.60711323663216,-151.00057819635563,255.68938555847419,290.2305387473853
98,2.381485455475476,-251.1932372839923,-46.25406137576108,-202.73438971002835,-150.3046199866376,-152.70105329145147,255.35227570869395,296.28136300135617
99,3.1098561174704664,-250.70116365319956,-46.674576629436864,-203.1274982290333,-160.11754259880132,-154.28511811819394,254.9647897770759,302.37407288921463
100,3.92849435845762,-250.16985849273945,-47.03084987702943,-203.35001220047326,-170.0263416049545,-155.74246542405368,254.53564697546707,308.51480459157574
101,4.838304377832035,-249.60836806195155,-47.32089380001393,-203.41079339859715,-180.01318621264548,-157.06413757672559,254.07389367240938,314.70871070539374
102,5.839125326806784,-249.02582361567116,-47.543337622698594,-203.31802388553626,-190.0620863422744,-158.24294095464637,253.58869565309698,320.9602073961068
103,6.929659905880476,-248.43124688852282,-47.697475162731955,-203.0796842245655,-200.1589880654866,-159.27383379549096,253.08914317599573,327.27328671390234
104,8.107429175666443,-247.8333730512803,-47.7833150456484,-202.7041342826214,-210.29182884615363,-160.15427691394973,252.58407456871635,333.651884596977
105,9.368754958362532,-247.24049648443216,-47.80162927084698,-202.20078406423727,-220.45055051095434,-160.88453815129023,252.08192327485907,340.10029305105076
106,10.708770696883217,-246.6603437374938,-47.75399585175925,-201.58083574856232,-230.62706960842513,-161.4679431242835,251.59059220996818,346.6236027814119
107,12.121461092297674,-246.09997680694153,-47.64283108790122,-200.85807121069564,-240.81520655497758,-161.91106661785162,251.1173580182518,353.2281601555029
108,13.599730191442852,-245.5657283973385,-47.47140716291953,-200.0496522954659,-251.0105764728199,-162.22386065206882,250.66880636857215,359.92201984035484
109,15.13549679670644,-245.06316921886497,-47.243851239021545,-199.17689463138308,-261.21044566227954,-162.41971671843973,250.2507978829392,366.7153719230238
110,16.719815111857407,-244.59710578623736,-46.96512300587078,-198.26597054039087,-271.4135580709881,-162.5154607928207,249.8684628103321,373.6209199910745
111,18.34301750190841,-244.17160577216006,-46.64096858665358,-197.34849324148385,-281.61993593589784,-162.53128038999114,249.5262212642785,380.65418479390394
112,19.99487525564233,-243.79004677348294,-46.277849645454076,-196.46193353844782,-291.83065818534646,-162.49058314610377,249.22782474492956,387.83370709872935
113,21.664772387145412,-243.4551833378722,-45.88284749326429,-195.64982191875384,-302.04761953659516,-162.41978639590184,248.97641374105064,395.18112370469777
114,23.34188687805287,-243.16922627723082,-45.46354310194777,-194.96169381109712,-312.2732727903448,-162.34803725161848,248.77458549656765,402.72109276756163
115,25.01537346325697,-242.93392772872505,-45.027875279050996,-194.45274381394822,-322.5103566457926,-162.30686304545225,248.6244656244918,410.4810488068368
116,26.67454220959428,-242.75066520031976,-44.583980756183045,-194.1831658807147,-332.76161127545373,-162.32975279064314,248.52777724166057,418.4907738429178
117,28.309027759595374,-242.62051801729191,-44.14002143201987,-194.21717029218158,-343.0294837570191,-162.45167157103012,248.48590171929953,426.7817786689946
118,29.908945110892226,-242.5443301922323,-43.70400525694302,-194.62168406590177,-353.31582523743896,-162.70851148943612,248.4999259736628,435.3864968722373
119,31.465028945088008,-242.52275474725684,-43.283607993991616,-195.46475832946075,-363.62158144941554,-163.13648499818808,248.5706723675457,444.3373033954681
120,32.96875459229343,-242.55627584369125,-42.88600317990267,-196.8137230613463,-373.9464779470753,-163.77146907143313,248.69870863395755,453.66537861228943
121,34.41243967084154,-242.645206623431,-42.51770709213697,-198.73314535737862,-384.28870122713664,-164.64831164446485,248.88433668223348,463.39944749853925
122,35.78932628575976,-242.78966235544127,-42.18444461496189,-201.2826608920231,-394.6445769185164,-165.80011480361495,249.12756066478855,473.56443103690395
123,37.09364430878065,-242.98951020603494,-41.89104073579383,-204.51475847170022,-405.0082467254107,-167.25751200855763,249.42803618164353,484.1800531408765
124,38.32065659720385,-243.2442985683241,-41.64134093517641,-208.47260367392607,-415.3713469944049,-169.0479587686318,249.78500381947762,495.2594508537307
125,39.46668709343896,-243.55317029282588,-41.438161877114496,-213.18798904344214,-425.72269360396365,-171.19505732059775,250.19721125907674,506.807838113187
126,40.52913273736096,-243.91476533973545,-41.283271732118514,-218.67949519284866,-436.0479800857624,-173.7179357128314,250.66282896978376,518.8212738001525
127,41.50646013643844,-244.32711931782615,-41.17739758101465,-224.95093992024474,-446.32949816330165,-176.63070017930352,251.179365113184,531.2855831075999
128,42.39818798943445,-244.78756503384494,-41.12025599934311,-231.99018183283908,-456.5458919689581,-179.94197687075803,251.74358570384143,544.1754776281381
129,43.20485628718539,-245.29264446615625,-41.110602226802364,-239.76833167822065,-466.67195886825334,-183.654555213554,252.35144625031708,557.453914194928
130,43.9279832583729,-245.83803842609848,-41.1462932629522,-248.23940931406338,-476.678510889105,-187.76514088187213,252.99804094582424,571.0717256655586
131,44.57001089302824,-246.41852057443597,-41.224360706104626,-257.34046771574174,-486.5323110227225,-192.26422215215916,253.6775749763,584.9675487623343
132,45.13423972894621,-247.02794149479374,-41.34108996355087,-266.9921884298982,-496.19609792209474,-197.1360497623942,254.38336471538804,599.0680650267137
133,45.624753507961636,-247.65924730113232,-41.49210334168897,-277.0999361931202,-505.6287106046249,-202.35872768334085,255.10786955575597,613.2885611507107
134,46.04633433276197,-248.30453585297943,-41.67244527935698,-287.55524464452634,-514.7853216256337,-207.90441058143938,255.84275793422776,627.5338046598335
135,46.40436904899016,-248.95515210450566,-41.87666857750427,-298.2376906488768,-523.6177829912652,-213.7396031605958,256.5790087640936,641.6992204769678
136,46.70474770756329,-249.60182243017533,-42.09892095810762,-309.01710223814524,-532.0750841902233,-219.8255567834339,257.3070480026498,655.6723437905715
137,46.95375513677478,-250.23482595005157,-42.33303162459728,-319.7560351332746,-540.1039166178373,-226.11875940845638,258.01691845164936,669.3345154473126
138,47.15795688536005,-250.8441989375013,-42.57259755902393,-330.3124455715373,-547.6493338002259,-232.57151543278115,258.6984791069437,682.5627782134623
139,47.32408104528182,-251.41996640726197,-42.811069096891586,-340.54248269631773,-554.655492611014,-239.132611963771,259.34162850854045,695.2319259055354
140,47.45889762888527,-251.9523930867155,-43.0418341861436,-350.3033217767747,-561.0664575050114,-245.74806691247016,259.93654475639767,707.2166526887943
141,47.56909717108929,-252.43224430547727,-43.25830099637246,-359.45595982709597,-566.8270479905528,-252.36195188358911,260.4739333225767,718.3937469430119
142,47.66117007612813,-252.85104602617193,-43.453979169434376,-367.86789788193335,-571.8837092116391,-258.9172792648463,260.9452726294409,728.6442732149745
143,47.741288090085256,-253.20133242316143,-43.62256061103364,-375.41563943021004,-576.1853864243092,-265.356938727025,261.3430466763144,737.8556870716856
144,47.81518931261224,-253.4768692210757,-43.75800096561561,-381.9869422375063,-579.6843859699269,-271.62466428664817,261.6609538740567,745.9238310941837
145,47.88806833488133,-253.67284150525597,-43.85460276851101,-387.4827706268136,-582.3372076636978,-277.6660098190426,261.89408175116824,752.7547655470659
146,47.964473217170195,-253.78599595488984,-43.90710092292951,-391.81890681667244,-584.1053359861401,-283.4293088205288,262.0390383672766,758.2663940885143
147,48.048210979551015,-253.8147294299771,-43.910750753574966,-394.92719279512573,-584.9559799241997,-288.8665933772411,262.0940331171686,762.3898529859429
148,48.14226313437435,-253.7591184604778,-43.86141844392944,-396.7563880395669,-584.8627537534098,-293.93444754060766,262.05890204130026,765.0706414081089
149,48.248712652092536,-253.62088722219056,-43.7556730555741,-397.27264257673795,-583.8062934584453,-298.5947713638696,261.9350755691568,766.269480036594
150,48.36868366997862,-253.40331480915142,-43.590878395078015,-396.4595986643617,-581.7748057300633,-302.81543350418,261.7254895727492,765.9628948904257
151,48.50229523578676,-253.11108588413927,-43.36528171689763,-394.31814696700013,-578.7645484520245,-306.57079248235834,261.434443560849,764.1435323451407
152,48.64863040857139,-252.75009203094342,-43.078094936106346,-390.86587366803246,-574.7802432945512,-309.84206948091503,261.0674127700225,760.8202194129589
153,48.80572203441478,-252.32719420126176,-42.72956316310373,-386.1362426985878,-569.8354223988817,-312.61755903559435,260.6308237270843,756.0177899833618
154,48.970556379728954,-251.849959253961,-42.321015257952844,-380.17756155012074,-563.9527119373093,-314.8926682083894,260.13180531627455,749.7767024349847
155,49.13909553582012,-251.32638537876292,-41.854891673314846,-373.0517798005544,-557.1640552621249,-316.66977989344616,259.57792914106903,742.1524765502896
156,49.30631917177957,-250.76463195260928,-41.33474586702836,-364.83316700072817,-549.5108772357224,-317.9579418031522,258.97695378086456,733.2149781204415
157,49.46628583868799,-250.17276904447016,-40.7652168260339,-355.6069119438944,-541.0441892165813,-318.7723892055843,258.33658733490955,723.0475784916866
158,49.61221362141365,-249.5585604173612,-40.15197167173641,-345.46767968035635,-531.8246313293934,-319.133916205586,257.66428146164833,711.7462141441417
159,49.73657954691006,-248.92929159672187,-39.501618822449345,-334.5181567186332,-521.9224454365441,-319.06811674105796,256.967068072983,699.4183686216801
160,49.831236848116966,-248.29165160403582,-38.821593588101706,-322.86760899902924,-511.41736899524113,-318.6045219627983,256.25144712220913,686.181995906694
161,49.88754893867174,-247.65167358475222,-38.120019128032474,-310.63047145509177,-500.39843703125314,-317.7756647783119,255.52333077067442,672.1644006459233
162,49.89653872969475,-247.0147360710872,-37.405546189177315,-297.92498221465826,-488.9636771062945,-316.6161046460617,254.7880458606038,657.5010864768658
163,49.84905171986592,-246.38562327514686,-36.687174897878876,-284.87186874349015,-477.2196807420588,-315.1614459452392,254.05039330875772,642.3345792056173
164,49.735931178223396,-245.76863985079575,-35.97406138714658,-271.5930877542167,-465.2810345222775,-313.44738140857083,253.3147600648804,626.8132270257129
165,49.54820375960178,-245.16777313622447,-35.2753116946279,-258.21061598778067,-453.26959502386967,-311.50878848040907,252.58527687427994,611.0899756984082
166,49.277273974971195,-244.5868939555099,-34.59976543597219,-244.8452854966325,-441.31359366480285,-309.37890156366103,251.86601323553873,595.3211129674039
167,48.915125917488496,-244.02998544899793,-33.95577211702793,-231.61565492405563,-429.5465604027508,-307.0885775291198,251.16119943617724,579.6649737116754
168,48.45453038405547,-243.50138800127132,-33.35096334570633,-218.6369071477577,-418.10605908833844,-304.6656660999749,250.4754642023592,564.2805956546541
169,47.889254949171466,-243.00604726382159,-32.79202454674416,-206.0197631155503,-407.13223241110694,-302.13449120169497,249.81407540636732,549.3263150710548
170,47.214273534174005,-242.54975184355612,-32.284470096773994,-193.86940173213154,-396.7661609438179,-299.51544437685214,249.18317073680288,534.9582931589543
171,46.42597058404717,-242.13934762423656,-31.832426087633436,-182.28437673575192,-387.14804870244046,-296.82468709541376,248.58996543082696,521.3289668313137
172,45.522333544085996,-241.78291673305446,-31.438425198912455,-171.3555241439729,-378.41525644881733,-294.07395535371154,248.04292500079032,508.58542259040036
173,44.50312660056456,-241.48991056924945,-31.10321849076443,-161.16485824141623,-370.70021293950106,-291.27045743906854,247.55189220042203,496.86769848774753
174,43.37003896012707,-241.271227984319,-30.825609363856955,-151.7844602664414,-364.12824269287773,-288.4168542973112,247.1281592428079,486.30702648983674
175,42.12680204404083,-241.13923169096944,-30.602315384044363,-143.2753719034245,-358.8153559852267,-285.5113118221518,246.78447849277018,477.02403556532136
176,40.77927133300533,-241.1076982155107,-30.42786395326777,-135.68651483942517,-354.8660522041191,-282.54761581022495,246.53500732646194,469.12694409154665
177,39.335469825993364,-241.1916989830704,-30.294527777324284,-129.05366649361554,-352.3711909006984,-279.51534331204294,246.39518528248553,462.7097779322157
178,37.80559107051105,-241.4074122360339,-30.19230569396661,-123.39852858108759,-351.40598542249,-276.4000883422701,246.381543802198,457.85065662623697
179,36.20196052682839,-241.77186735911138,-30.10895376026768,-118.727927931237,-352.02817163203133,-273.18374471016415,246.5114507192306,454.61019355049774
180,34.5389547042438,-242.30262486642127,-30.030070737455375,-115.0331876000943,-354.2763991569472,-269.8448531404204,246.8027932888855,453.03005622968016
181,32.832878168250176,-243.01739688843963,-29.93924146210138,-112.28970163154938,-358.16888563751127,-266.35902288772024,247.27360507932028,453.1317303942813
182,31.101799333559573,-243.93361453121307,-29.818241099681313,-110.4567404262317,-363.7023665536302,-262.69943896640984,247.94164356166638,454.91552664895
183,29.36534696517333,-245.06794995772864,-29.647302683584286,-109.47750722312635,-370.8513652215674,-258.8374646339821,248.82392670562152,458.35986250777665
184,27.644470316282895,-246.43580241967794,-29.405449277791146,-109.27946072290564,-379.5677997473441,-254.74334505724931,249.93623820086873,463.42084561687676
185,25.961166629597795,-248.0507586895868,-29.070890421176358,-109.77491454473027,-389.78093603434223,-250.38701260842703,251.29261198065018,470.0321764303308
186,24.33818031036901,-249.9240393710683,-28.621480383678183,-110.86192059189801,-401.3976882590897,-245.73898752930347,252.9048075043662,478.1053805307108
187,22.79867856271791,-252.06394342011836,-28.035233491291102,-112.42544002849176,-414.30326062392817,-240.77136031880391,254.7817878355025,487.53037240923
188,21.36590872734068,-254.47530392482912,-27.29088960576434,-114.33880219751728,-428.3621169692412,-235.45883468349047,256.929213000859,498.1763442860508
189,20.06284294644019,-257.15896874602356,-26.368520844951888,-116.46544832035812,-443.41925849710975,-229.77980274667703,259.34896142850823,509.89296608566735
190,18.91181607470988,-260.1113199959434,-25.25016868225369,-118.66095298676038,-459.30178504850255,-223.71741790538871,262.0386924035984,522.5118766609517
191,17.934162939535177,-263.3238465551395,-23.92049855347403,-120.77531204138202,-475.82071256479395,-217.2606256986102,264.9914624728857,535.8484423130624
192,17.14986113038693,-266.78278390578384,-22.36745712992196,-122.6554804603229,-492.7730185982171,-210.40510972662102,268.19540858948216,549.7037567680122
193,16.577185450408116,-270.46883539181215,-20.58291573065277,-124.14813817484276,-509.9438885423229,-203.1541084115177,271.63351044309917,563.8668567522225
194,16.23237994730137,-274.3569884634654,-18.563282008424405,-125.10265512133357,-527.1091368183723,-195.51905948802815,275.28344373768977,578.1171284340638
195,16.129353020431328,-278.41643849021494,-16.310060874030295,-125.37421811323438,-544.0377787609207,-187.5200326751339,279.11753510741573,592.2268813653872
196,16.27940048088338,-282.61063138077094,-13.830344634212052,-124.82707031892222,-560.494729858495,-179.18591686912723,283.1028279500321,605.9640673938741
197,16.69096064953846,-286.89743448820354,-11.137212052635014,-123.33779889309604,-576.2436090839448,-170.55433598063178,287.2012667003065,619.095121843909
198,17.369404668402133,-291.22944290892576,-8.250017157717984,-120.79858945565081,-591.0496222012766,-161.67127660852975,291.370004822289,631.3879030023787
199,18.316864304597733,-295.5544251821942,-5.194551171931608,-117.12035171939027,-604.68249918749,-152.5904206698512,295.56183894817735,642.6147040561208
200,19.532098866765114,-299.8159087398538,-2.0030643276115914,-112.2356129317369,-616.9194574917768,-143.37218678283446,299.725768266603,652.5553099578714
201,21.010402600592993,-303.95390161906624,1.2858621450148848,-106.10107668095598,-627.5481601175971,-134.08249557468548,303.807674789557,661.0000708559165
202,22.743554019832214,-307.9057432010933,4.6276003477978325,-98.69975248621682,-636.3696346487075,-124.79128578135999,307.7511167420472,667.7529635064274
203,24.719808790550243,-311.60707316055476,7.971920004138518,-90.04257312704841,-643.2011162928869,-115.57081930265142,311.4982240920398,672.6346115922026
204,26.923937781638703,-314.99290443160453,11.263593665380151,-80.16942893164178,-647.8787746656992,-106.49382341062152,314.9906822017915,675.4852341507695
205,29.33731168916003,-317.9987828249966,14.443160949077663,-69.14956018594093,-650.2602803992667,-97.6315262738401,318.1707867554775,676.1674879870133
206,31.9380333326552,-320.5620129160683,17.44784671415453,-57.08126143448369,-650.2271639666016,-89.0516472620307,320.9825504701261,674.5691653521066
207,34.70111834579062,-322.6229269568879,20.21262440570986,-44.09086636086993,-647.6869158133026,-80.81640585851237,323.3728396157146,670.605703109398
208,37.598724440918566,-324.126170963402,22.671411496297804,-30.330999841790952,-642.5747746505201,-72.98061239398625,325.2925161552154,664.2224549584986
209,40.600428576352094,-325.0219800123458,24.75837881736107,-15.978104085585338,-634.8551503348086,-65.58990031295454,326.6975595638301,655.3966747901451
210,43.67355017554719,-325.2674134128067,26.409349760368233,-1.229267432019462,-624.522629719585,-58.67915353785979,327.5501413434916,644.1391574010726
211,46.78351722758236,-324.8275200372282,27.56325939975017,13.701593572322198,-611.6025184239201,-52.2711741484252,327.81962516472294,630.4954828191263
212,49.89427099042966,-323.67640485547,28.163638120428182,28.588126633635998,-596.1508785257272,-46.375625592308104,327.4834666209717,614.5468123308084
213,52.968704460945375,-321.79816959381617,28.160079589099812,43.196417985736375,-578.2540315402852,-40.98827558090491,326.5279887847544,596.4101878561879
214,55.969129886312736,-319.18770325523667,27.509649058022873,57.290236402591546,-558.0275075267288,-36.090551419534975,324.94901294578057,576.2382915586758
215,58.85777119560995,-315.85130167445215,26.17818541708168,70.63651656294559,-535.6144346386543,-31.649409648029717,322.75232777380967,554.2186295482531
216,61.59727798734266,-311.80709891388403,24.141449668091955,83.010934326545,-511.1833786594819,-27.617512412544535,319.953984241788,530.5721121682312
217,64.15125829601065,-307.0852967184385,21.386074012487057,94.20341153910616,-484.9256585331808,-23.933695671271398,316.58040752779283,505.5510133224036
218,66.4848275175024,-301.72818125214724,17.910269714557053,104.02337647043373,-457.05218081919566,-20.523709591823586,312.66832056164543,479.4363020520408
219,68.56517035868316,-295.78991903928204,13.724258443303777,112.30459935851019,-427.78985251660384,-17.3012093613428,308.264476941791,452.53435064614825
220,70.36211129657394,-289.3361267065153,8.850401012394553,118.90942228938609,-397.37764725563244,-14.168974595142778,303.4252038365773,425.1730349849336
221,71.84868672682062,-282.4432121528176,3.3230092178322392,123.73221037297375,-366.06241425282224,-11.020336548291555,298.2157584896771,397.6972552121132
222,73.0017088687926,-275.1974885760431,-2.8121597551881785,126.70186841678056,-334.0945325995227,-7.740793111651354,292.70950533779916,370.4639192398898
223,73.80230783784508,-267.694067677287,-9.49871211804931,127.78329522141193,-301.7235252011066,-4.209791040612071,286.9869246468606,343.83644909367734
224,74.23643444246483,-260.03554445094966,-16.67070065683646,126.97768648687047,-269.19375659618436,-0.3026525210623619,281.13446792263164,318.17889141523784
225,74.29530269428066,-252.33049307324455,-24.253940478027857,124.3216459107051,-236.7403462683297,4.107380851571155,275.2432799339033,293.8497383184529
226,73.97574843182156,-244.69180103462648,-32.16750546879659,119.88511948022244,-204.58543273737004,9.14701865864813,269.4078116704329,271.1955914587761
227,73.28047960362754,-237.23487610412113,-40.325347841604405,113.76822603436644,-172.9349218572803,14.940743791682786,263.7243525992047,250.54482723722796
228,72.21819499564495,-230.07576718894046,-48.63798212550742,106.09711321168791,-141.97584314823064,21.608626809956814,258.2895138694559,232.20144012013745
229,70.80355130634086,-223.32924491454966,-57.01417824288498,97.01901748941134,-111.87441898775201,29.26417456775955,253.19869627621793,216.4392499269478
230,69.05696297519374,-217.10689013525294,-65.3626145274081,86.69674663888877,-82.77492306657994,38.01225382861714,248.5445773322139,203.4966548769757
231,67.00422467886185,-211.515238240581,-73.59344900482466,75.30283040307401,-54.799368585548585,47.94712701310555,244.41565035892663,193.57209456820607
232,64.67595278228342,-206.65402426478943,-81.61977460491569,63.01359978482467,-28.048026194188495,59.150632550931455,240.89484523261913,186.82035738428118
233,62.10684922616458,-202.614569074687,-89.35893061313567,50.003457345001834,-2.6007296358579595,71.69053797429919,238.05825593793574,183.3498285037062
234,59.334799248584666,-199.47834087603982,-96.7336488214437,36.43959125026283,21.481113818828334,85.61909117135853,235.97399510964257,183.22073267826116
235,56.39982281217436,-197.31571919449493,-103.67301923761724,22.47736550854944,44.15192810709263,100.97179476829861,234.70119086611587,186.4443857234383
236,53.342908419461295,-196.18498047277595,-110.11326758697062,8.256588609214774,65.37893864848752,117.76643017150721,234.2891368996639,192.98343474946128
237,50.20476670427866,-196.13151574106513,-115.9983451547751,-6.101177266684382,85.13887978193186,136.0023601684911,234.77660309760407,202.75304234744425
238,47.024549004166566,-197.18728197509319,-121.28033954231253,-20.494154341587596,103.41462127811886,155.66014024563475,236.19131048437058,215.6229552237329
239,43.838582172386396,-199.37048046128973,-125.91972082903015,-34.840681343463054,120.19189436060209,176.70146683482494,238.5495703431184,231.42039195683282
240,40.67917451070551,-202.6854484397206,-129.88544036117497,-49.078349783208616,135.4562846132226,199.06948388117976,241.85608280290134,249.93368371026259
241,37.573548376202595,-207.12274496097282,-133.1548992268675,-63.16201635554579,149.19063570462936,222.68945668996014,246.1038854364432,270.9166002333618
242,34.54295224757307,-212.6594084206248,-135.71380157285498,-77.06081792205617,161.37297619083964,247.4698044270295,251.2744382329662,294.0932867890904
243,31.601998588109144,-219.2593615610319,-137.55590538536703,-90.75436006242327,171.97504473376628,273.30346161623396,257.33782829842113,319.16372456214236
244,28.758264019085516,-226.87393969999167,-138.68268095652536,-104.22828434971416,180.96145034300721,300.0695171966322,264.25307619117876,345.8096096518085
245,26.01217599408591,-235.4425192652417,-139.10288551722218,-117.46944350878387,188.28946730114885,327.63506036185294,271.96852606548737,373.70052768474426
246,23.357196586285326,-244.89322588800445,-138.83206186390842,-130.460927363393,193.90943253675576,355.85714845689984,280.4223035946735,402.50028638013134
247,20.780300444194374,-255.14370384191088,-137.89196948838182,-143.17718604840462,197.76568852087848,384.5848054602756,289.54282862187443,431.8732600541211
248,18.26273134048558,-266.1019313382769,-136.30995862202235,-155.5794911767294,199.797997609698,413.6609599435826,299.24937332589246,461.4905989445347
249,15.781010328747799,-277.66706928392244,-134.11830018903106,-167.61196185114557,199.94334282237605,442.9242370573813,309.45266116175196,491.03616097308395
250,13.308158152297707,-289.7303347499253,-131.35348715039922,-179.19836184261246,198.138023699556,472.2105277728575,320.05550661523273,520.2120318527332
251,10.815084998874092,-302.1758944648592,-128.0555244638019,-190.23984759596485,194.31995357000125,501.3542690746595,330.9535004124977,548.7435100071297
252,8.272092210957053,-314.8817776956516,-124.2672256224874,-200.6138136996365,188.43106680018636,530.1893813644879,342.03574870619826,576.3834459479441
253,5.6504240218672095,-327.72081132544446,-120.03353352002237,-210.17394174626273,180.41975187086774,558.5498252220086,353.18567741792475,602.9158426124795
254,2.9238039573501458,-340.56158227924664,-115.40088233494944,-218.75150871277458,170.24323782840105,586.2697599104778,364.28191399690024,628.1586442282243
255,0.06989115911059182,-353.269433487061,-110.41661527647118,-226.1579524823481,157.86987623109798,613.1833106689724,375.1992582848072,651.9656660265642
256,-2.9284030451811076,-365.7074994926065,-105.12847033647168,-232.18862820131366,143.28127625567657,639.1239798298342,385.80975223040457,674.2276441858195
257,-6.081788844329466,-377.7377870479281,-99.58414261571882,-236.62762527101432,126.47426559167899,663.9237662305579,395.98385535481106,694.8724129726762
258,-9.393700561399369,-389.22230493833496,-93.83092746526742,-239.25345667489938,107.46266320746798,687.412085887125,405.591729491004,713.8642424406754
259,-12.859654362219741,-400.0242457398613,-87.91544410673798,-239.84538459006694,86.27886116934275,709.4146117400987,414.5046323271439,731.2023935190565
260,-16.466876129509664,-410.0092195698172,-81.88343530438776,-238.19011206522313,62.97521983435499,729.7521683574244,422.59641415141255,746.9189660365452
261,-20.194205809872056,-419.04653555295505,-75.77963545318501,-234.08855269076386,37.62528189604834,748.2398257713625,429.7451054722237,761.0761278259138
262,-24.012278006578747,-427.01052090830706,-69.64769688882606,-227.36239077849686,10.324804936230892,764.6863334953024,435.8345751328053,773.7628197936206
263,-27.88397346974974,-433.781861392469,-63.53016199657651,-217.86016352417013,-18.807399696192242,778.8940218534367,440.7562302839023,785.0910345355041
264,-31.765131295265935,-439.2489417184872,-57.46846693886324,-205.4626305905412,-49.628848946472026,790.6592755567815,444.410722599339,795.1917667411735
265,-35.60550622692198,-443.3091615054112,-51.50296195419795,-190.08724032054567,-81.9730330559632,799.7736569624126,446.70962053582775,804.2107333111579
266,-39.34994935066421,-445.87020167166634,-45.67293346645271,-171.69155089039634,-115.64937662470783,806.0257261790954,447.57700571143886,812.3039600712541
267,-42.93978409777344,-446.85121780869144,-40.016614683138606,-150.27551655434823,-150.44357452452448,809.2035741373128,446.9509524945916,819.6333304177421
268,-46.314343168357524,-446.18394040428257,-34.57117367447634,-125.88260208394318,-186.11836142524135,809.098054749325,444.78485310356535,826.3621895457047
269,-49.412625767645004,-443.8136660602307,-29.37267059454406,-98.5997401261412,-222.41476846879272,805.5066750296409,441.04855511226526,832.6510961487348
270,-52.17502846160352,-439.70012839918087,-24.45597837631584,-68.55619291349105,-259.0539106138363,798.238078658272,435.7292835574399,838.6538108860248
271,-54.54509743672228,-433.8182417900565,-19.85466406852941,-35.92141908436287,-295.7393337992733,787.1170389590122,428.832325517274,844.5136062260881
272,-56.471245770300115,-426.1587151272006,-15.600831265618098,-0.9020793897643343,-332.1599333071725,771.9898604107457,420.3814609788494,850.3599743725144
273,-57.908377282042046,-416.7285365052663,-11.724927513752457,36.26165466841618,-367.993434982014,752.7300718782844,410.41912993651897,856.305798135316
274,-58.819359184166096,-405.55133255203185,-8.255523376549734,75.30029567424933,-402.91041054925614,729.2442785396942,399.0063318006598,862.4450333907023
275,-59.1762892304,-392.66760812132304,-5.219071412168253,115.91951862039961,-436.5787781049431,701.4780228120983,386.2222590638308,868.8509312450379
276,-58.961509123677146,-378.13487253403525,-2.6396534395232103,157.80468648765714,-468.6687198416977,669.4214881037084,372.1636722839417,875.5748046356563
277,-58.16832399982077,-362.0276570658728,-0.5387233152821098,200.62519031054455,-498.85793191658723,633.1148641627983,356.94402720328776,882.6453213575099
278,-56.80139724678439,-344.4374247185202,1.0651491713897665,244.0384018801501,-526.837105941543,592.6531806336178,340.6923668914366,890.0682881193698
279,-54.87680040350247,-325.4723678997408,2.156528468043435,287.6930961004324,-552.3155273736161,548.1904076696924,323.5519924512826,897.8268818311617
280,-52.421709359912235,-305.2570834602834,2.7233519672777216,331.2322781987641,-575.0266632683582,499.9426206310983,305.6789258905768,905.8822856312588
281,-49.47375051372739,-283.9321088937044,2.7571499304981906,374.295435340743,-594.7336015702015,448.19003155853005,287.24017932965387,914.1746963321074
282,-46.080013713697596,-261.65329982315114,2.2532371135412985,416.52031073294523,-611.234197741307,393.277704304635,268.4118469288875,922.6246837666757
283,-42.29576237269548,-238.591028368695,1.210864597784996,457.5443608751016,-624.3657831376737,335.6147927436226,249.37704064446748,931.1348965184609
284,-38.18288448588183,-214.92918501911288,-0.3666803998137725,497.006093137013,-634.0092937787263,275.672171310386,230.32369821108276,939.5921172440138
285,-33.80814042495865,-190.86397258750517,-2.472037038434389,534.5464836630077,-640.0926880480091,213.97836359232812,211.44230054471808,947.8696698115411
286,-29.241272946545,-166.60248833972503,-5.093800827663423,569.810645589325,-642.593536294922,151.11371839751985,192.92354420940194,955.8301688903194
287,-24.553050696007674,-142.36109792064474,-8.216618712309234,602.449865979678,-641.5406819806306,87.70283477699563,174.95602073480777,963.3285832181338
288,-19.81331820861303,-118.36361109471339,-11.82133886513462,632.1240732548846,-637.0148904776271,24.40529811508919,157.72395694550553,970.2155610666542
289,-15.089123443726445,-94.83927407023768,-15.885197936706744,658.5047492420409,-629.1484170393452,-38.09514294018042,141.40506847771212,976.3409450343659
290,-10.442989012010468,-72.02059646045058,-20.382024159325915,681.278268368307,-618.1234417173489,-99.10275761547938,126.16857260383168,981.5573873420276
291,-5.931386021080255,-50.14103320643237,-25.282433617990037,700.1496313680481,-604.1693401865597,-157.92310071504943,112.17339723252836,985.7239695173009
292,-1.6034601469447298,-29.43254336845364,-30.553999586750432,714.8465585846872,-587.558789342678,-213.87703080936262,99.56661163985396,988.709733244029
293,2.499951528851354,-10.123048699678895,-36.16138106938922,725.1239129698373,-568.6027458677128,-266.31508887549643,88.48209232000667,990.3970407449278
294,6.346986672793395,7.566184444357428,-42.066405756294465,730.7684281038318,-547.6443811229486,-314.6318086993653,79.03942546397454,990.6846983294023
295,9.915093552152737,23.423215585147883,-48.228112799196765,731.6037139517376,-525.0521004239343,-358.2795114298342,71.34303688790135,989.490788820987
296,13.191036342337318,37.24812745454014,-54.60277013492961,727.4954956574863,-501.21181338652246,-396.7811405138923,65.48153126336659,986.7551624065026
297,16.17058225791842,48.85572264439872,-61.1438880363062,718.3570049351772,-476.51865216961306,-429.74171994182416,61.52721546599356,982.4415302123464
298,18.857894634826327,58.07818933843452,-67.80225438267107,704.1543908899432,-451.3683566298425,-456.8580652248034,59.53577598514813,976.5390937383744
299,21.26466666914391,64.76770266930014,-74.52601793213256,684.9119537132904,-426.14856138408953,-477.92643796370254,59.546078087794896,969.0636313439903
300,23.40903955112215,68.79892462828738,-81.26084442228706,660.7169406294566,-401.230230757468,-492.8479064128308,61.580055329410634,960.0579557949374
301,25.314355675063684,70.07136152004767,-87.95016755969657,631.7235898596084,-376.9594933834303,-501.6312522456414,65.64266223791935,949.5916590648992
302,27.007801745509788,68.5115338397596,-94.5355535187655,598.1560747906285,-353.6501272144932,-504.39334473980546,71.72187020493074,937.760074927431
303,28.518997397811667,64.07490942104859,-100.95719369772635,560.3099932023126,-331.57693545362497,-501.3569847544511,79.78869603492922,924.6824167123674
304,29.878582555113034,56.74754711912773,-107.15453603295978,518.5520679082665,-310.97023195785664,-492.8462985671102,89.79726323149812,910.4990849377748
305,31.116852180242834,46.54739565751135,-113.06705959516727,473.31777545991196,-292.01161937579326,-479.2798319861225,101.68490675712104,895.368184049427
306,32.26248179042314,33.52519131666485,-118.63518963998895,425.10669738374975,-274.83119456043863,-461.16155475963456,115.37234138701602,879.4613359467626
307,33.3413821762771,17.764899795579883,-123.80134013610558,374.47549189907664,-259.50625533900796,-439.07003187124195,130.76392072637776,862.9589276660885
308,34.375717566300075,-0.616347313946538,-128.5110581507724,322.0285100469543,-246.06151401337343,-413.6460507841985,147.74801769970156,846.0449785928046
309,35.38311786163584,-21.46886202628942,-132.714230271722,268.4062230534661,-234.47075115141632,-385.57901219546005,166.19755741069056,828.9018544288157
310,36.376112257566724,-44.61158351165084,-136.36629700978915,214.27177879150884,-224.65977462250513,-355.5923980896001,185.97072940066482,811.7050843885739
311,37.36180813929677,-69.83384847354267,-139.42940862191847,160.29615255065244,-216.5104901271278,-324.42862879923064,206.91189837337,794.6185470787592
312,38.34183467862116,-96.89774339884728,-141.8734469089184,107.14248732338069,-209.8658470469581,-292.8336161214791,228.85272099499875,777.790272587211
313,39.31256358742418,-125.54101350228994,-143.67683461563186,55.450318117154424,-204.5354027985708,-261.5413174520195,251.6134633450126,761.3490609354151
314,40.265608464116525,-155.4804809745013,-144.82705976218017,5.820431705491597,-200.30125365975292,-231.25859849214586,275.0045018876915,745.4020443593267
315,41.188588411630406,-186.41590252796794,-145.3208582383332,-41.19888171573966,-196.92411031299258,-202.65071812617833,298.8279827573851,730.0332342146695
316,42.066122136001404,-218.0341752444424,-145.16402367526268,-85.12348118801867,-194.14934700195454,-176.32775528474025,322.8796100874642,715.303008947239
317,42.880998487186666,-250.01378200489583,-144.37084613174167,-125.54233958094389,-191.71291370781964,-152.8322999113956,346.9505327067789,701.2484340271199
318,43.615452301942824,-282.02935446588845,-142.96321624281222,-162.12339411994316,-189.34705673831076,-132.62872436610357,370.82929775820475,687.8842699571954
319,44.25246375882326,-313.7562237371968,-140.96946399373422,-194.61607044369714,-186.7858298017311,-116.09433418794474,394.3038380962648,675.2045252939233
320,44.77699681356881,-344.874828225399,-138.4230256493234,-222.8505152772024,-183.77038504855406,-103.51266577041353,417.1634576169829,663.1844447128958
321,45.177097403819495,-375.0748565437735,-135.36104405810778,-246.73383285991932,-180.0540113203898,-95.0691520522109,439.20077690845756,651.782874585415
322,45.44478347236217,-404.05902235393773,-131.8230048512629,-266.24386280136247,-175.40684524705463,-90.84931521257678,460.2136040133442,640.9449981746092
323,45.57667423322602,-431.54639715712,-127.84949598560172,-281.42122642076276,-169.62013733089762,-90.839566938778,480.0067043098459,630.605454945745
324,45.5743233842032,-457.2752638278783,-123.48115550188842,-292.36047097243267,-162.509928047828,-94.93060186446114,498.39345989819674,620.6918410869486
325,45.44423904721799,-481.0054936160484,-118.75784765438351,-299.2011340664746,-153.91999089680442,-102.9232601569196,515.1974300311687,611.128542155727
326,45.19759201601582,-502.52048674211386,-113.71808429968414,-302.1194313359966,-143.7239328872986,-114.53661713031202,530.2538454782459,601.8408020074513
327,44.84963328456238,-521.6287451159264,-108.39868787466244,-301.32105879059077,-131.8264006865095,-129.4179426545478,543.411085181639,592.7589065647273
328,44.41886056842099,-538.1651587053295,-102.83467475261504,-297.0353367961745,-118.16340902208901,-147.1540762042673,554.532186668664,583.8223534062561
329,43.925989300726016,-551.9920807687579,-97.05932398721006,-289.51065633678473,-102.70187310181018,-167.28369932514195,563.4964282757245,574.9838670273297
330,43.39279425852815,-563.0002431732408,-91.104387444316,-279.0109701965929,-85.43847875472053,-189.30996561802644,570.2009926196279,566.2130900481143
331,42.84089287442454,-571.109528682861,-85.00039342973038,-265.8129370889633,-66.39805770509113,-212.71297100376995,574.5626838966186,557.4997427004495
332,42.29054118030367,-576.2695819197573,-78.77699670765132,-250.20328729912157,-45.63164971887318,-236.96160860805523,576.5196356559194,548.8560247300458
333,41.75950935489847,-578.4602122833531,-72.46333258526909,-232.47602322089608,-23.214429261561005,-261.5244420593883,576.0329180225568,540.3180574343825
334,41.262096744069375,-577.6915246704901,-66.08834077904191,-212.9291718209268,0.7563460377754909,-285.8793344450735,573.0879378896062,531.9462287435773
335,40.808336573916314,-574.00370882456,-59.68103508216048,-191.86093896381237,26.163240639163924,-309.52167435582675,567.6955235309704,523.8243929023183
336,40.40342925216154,-567.4664251512005,-53.27070598634534,-169.56525213517475,52.87031541639231,-331.97113557087425,559.8925956745647,516.0579663764524
337,40.04743106962517,-558.1777419530171,-46.88705357311908,-146.3268002716936,80.72452750262319,-352.77698772896105,549.7423480766569,508.7710367756662
338,39.73521271769577,-546.2626031267498,-40.560255513417104,-122.41577552408498,109.55685054930352,-371.52204048799524,537.3338886546612,502.10265353076767
339,39.45668930598493,-531.8708327606811,-34.32097913624757,-98.08258506071044,139.1831449830065,-387.8253543956722,522.7813234633514,496.2024964588046
340,39.197310458261924,-515.1747103431582,-28.20034767197871,-73.55282965209098,169.40483931379805,-401.34389011979636,506.22229681888217,491.2261253007118
341,38.93878593574947,-496.3661747653452,-22.22987004771044,-49.02284361206767,200.00951152859045,-411.773295773769,487.8160290632798,487.33000686577424
342,38.66000989598544,-475.6537351241105,-16.441342119883775,-24.656065914296065,230.77148144800674,-418.8480509684719,467.74091700162586,484.666502950985
343,38.33813638112338,-453.25918041995686,-10.866725774207028,-0.5804740646832539,261.45253633976074,-422.34119597875366,446.19177985054085,483.37898481753376
344,37.94975095005216,-429.4141882217234,-5.5380113077384445,23.112732828328433,291.8029097539094,-422.0638739977431,423.37684523130514,483.5972187719482
345,37.47207935492145,-404.35693436180816,-0.48706794799973163,46.36906492887299,321.56261766591774,-417.86490224902377,399.51457547309116,485.43314187957986
346,36.884174267346104,-378.32880214650964,4.254512940313218,69.16920437082271,350.4632306740163,-409.63056245025524,374.8304347121669,488.9771183033402
347,36.1680251019463,-351.5712811518251,8.655577761972474,91.5259785307125,378.23013218195405,-397.28476261925016,349.55369273617856,494.29473826975897
348,35.30954312137212,-324.3231334746027,12.685570364108868,113.47988883929081,404.5852852867743,-380.78967171761735,323.91435323992533,501.42419664774576
349,34.29938301795649,-296.81789030332874,16.314689882502048,135.09330965315175,429.2505079318776,-360.1468686316982,298.1402830053658,510.37426924202543
350,33.13357183020907,-269.28172446918035,19.51404763376433,156.4435426416839,451.95123638755035,-335.3989811832771,272.45460493480954,521.1228933503157
351,31.813925423798086,-241.931725688734,22.25582618391946,177.61498108814928,472.42073878516004,-306.63172410461215,247.07340210921944,533.6163535649082
352,30.348241368458407,-214.97458520211418,24.513444891124394,198.69069872121662,490.40471998887807,-273.9761828838255,222.20376265213034,547.7690700225977
353,28.75026487069734,-188.6056764595015,26.26173627379323,219.74382119008357,505.66623436266553,-237.611138844542,198.04217712976362,563.4639798531961
354,27.039431691234082,-163.0084996720737,27.477137133577763,240.82906109483463,517.9907945512439,-197.7651947705804,174.77328278530229,580.5534926517122
355,25.24039886371544,-138.35444181592885,28.137897900955522,261.97480149017946,527.1915357095996,-154.71844331281386,152.5689334617637,598.8609910734906
356,23.382380681472874,-114.80279132705006,28.224313065925315,283.17610161607934,533.1142702988682,-108.80342371226703,131.58756180645312,618.1828426684332
357,21.49831392675846,-92.5009390591326,27.718974607301057,304.3889729521948,535.6422522442275,-60.40513512695058,111.97379199768758,638.2908904293179
358,19.62388251654066,-71.58469435685517,26.607049217883535,325.5262318481251,534.700462769619,-9.959914094002452,93.85825696843948,658.9353954987512
359,17.79643717490256,-52.17864720518924,24.876579277207583,346.45517695677694,530.2592339605584,42.0469650309667,77.35757368091471,679.8484128567312
360,16.053849961262014,-34.39651401474404,22.51880709791874,366.9972690302748,522.3370392572904,95.08504958166299,62.574432923224066,700.747586190591
361,14.433346232824539,-18.341415100790968,19.52852160232104,386.9299118907996,511.00230098790513,148.58385094343672,49.597765566619984,721.3403482629933
362,12.97035770770721,-4.106045192573597,15.90442584032784,405.9903490542484,496.37409214829756,201.93933539815785,38.50295399439569,741.3285055825983
363,11.697439386210853,8.227287321142894,11.649522572009085,423.88160152505424,478.62164244850743,254.5216780433086,29.35206381578592,760.4131708829491
364,10.643289802670157,18.58676296228028,6.771513614136423,440.28028119383714,457.96259756080593,305.6841519565428,22.19407545179311,778.2999861068242
365,9.831908382673912,26.911294102996397,1.28320673453244,454.8460260132358,434.6600253792743,354.7729921772328,17.06509701265536,794.7045554876775
366,9.281915985884027,33.15089706377575,-4.797078488017615,467.2322227010837,409.01821233128726,401.1380512594903,13.988539636029282,809.3579852394904
367,9.006055509379058,37.26717476318347,-11.445116977565661,477.09761300733675,381.37734369315785,444.1440488983165,12.975235870914688,822.0124042631855
368,9.010879171373904,39.23388607495523,-18.630410040944593,484.11832248839585,352.1072113680629,483.1822103433238,14.023482831928384,832.4463196791265
369,9.296618731165854,39.0375744778039,-26.31585772456636,487.99981049246264,321.6001371639384,517.6820843859671,17.11899582000627,840.4696435747485
370,9.85722596277121,36.678226339840904,-34.45748726853337,488.4882247184411,290.26333520102435,547.1233288405145,22.23476493643855,845.9282170050801
371,10.680564656458737,32.16992822523683,-43.004253792423896,485.3806618716381,258.5109599022473,571.0472471310982,29.330816801235187,848.7076592122337
372,11.748733086362426,25.54149268664847,-51.89793085024881,478.53389059561835,226.7560941043677,589.067852494391,38.353895841266144,848.7363877482986
373,13.03849720010593,16.83702240400201,-61.073111825943485,467.8711780135884,195.40292587421283,600.8822269720202,49.237094216399605,845.9876878202075
374,14.521818754335207,6.116382714343931,-70.45734781377412,453.38696455487695,164.8393453242201,606.279932986362,61.89947481298282,840.4807516898215
375,16.16646751496301,-6.544447403707715,-79.97145173722396,435.1492405781496,135.43016722508824,605.1512282359705,76.2457454859408,832.2806548296201
376,17.936710694575783,-21.053175770959633,-89.52999966942667,413.29958370806173,107.51115374324566,597.4938311578926,92.16605220116341,821.4972792910746
377,19.79407482770095,-37.30117869773669,-99.04205704093383,388.0509129805493,81.38397507798955,583.4179845929528,109.53596193956194,808.2832329758446
378,21.698174840785843,-55.163693771255886,-108.41214921230714,359.68310220140506,57.312204269552666,563.1495703339517,128.21670253039363,792.8308446772978
379,23.607602255811535,-74.50025346059304,-117.54148322561863,328.5366679556006,35.51839668653492,537.031039166128,148.05571658009245,775.3683387002935
380,25.48085967560681,-95.15538837006342,-126.32941171686103,295.00480479334044,16.18225706817892,505.5199430413092,168.8875718355162,756.1553102012169
381,27.277322460867513,-116.95962654188651,-134.67511282956414,259.52407912471523,-0.5601484850350452,469.1848910964597,190.53525249897658,735.4776342234193
382,28.958201429000585,-139.7308104344744,-142.47944324682106,222.5641138587615,-14.616217116163444,428.69880113789566,212.81183658176025,713.6419492556295
383,30.4874733496328,-163.2757452364403,-149.6469062835138,184.61660013996763,-25.935780871796993,384.8293835183021,235.5225439067803,690.9698619171347
384,31.83274038665313,-187.39218026339165,-156.08766408642018,146.1839660685717,-34.50935262200106,338.426874427448,258.4671180647106,667.7920249629052
385,32.96597736014165,-211.8711090422159,-161.71951310090864,107.76802228132345,-40.36577695865932,290.40912867032864,281.4424840806835,644.4422471288501
386,33.864128560177875,-236.49935385055693,-166.46973611331023,69.85889669120172,-43.569406989263456,241.74428492544942,304.2456031311999,621.2517992758653
387,34.509524438689574,-261.0623785139057,-170.27674397007522,32.9245667728964,-44.21690627669807,193.43132514020465,326.676428558221,598.5440832750486
388,34.89010155613386,-285.34725175587187,-173.0914273499438,-2.5987074402803025,-42.43374587596702,146.4789593776679,348.5408561830646,576.6298229417174
389,34.9994239012639,-309.14566534147093,-174.87815465185753,-36.314761850680604,-38.370437324660436,101.8833728203091,369.6535582932639,555.8029151423399
390,34.8365172258247,-332.25689902442605,-175.61537518758638,-67.874462959169,-32.198523490292004,60.605466585048966,389.8405948235194,536.3370409712165
391,34.405538584736874,-354.4906192679858,-175.2958148101229,-96.98099288963837,-24.106348214025388,23.548300739900707,408.9417061365755,518.4830811461234
392,33.71531056264165,-375.66940169802086,-173.92628053537072,-123.39333873688271,-14.294644107481895,-8.464503111485321,426.8122083268274,502.4673090357522
393,32.778754282544035,-395.63087880090615,-171.52711779656562,-146.9279024740687,-2.97200896515049,-34.70863129833186,443.3244331395482,488.49025670804326
394,31.61225786518911,-414.2294341220043,-168.13138404683627,-167.4582092982352,9.649627275376247,-54.57648657386142,458.36867876860543,476.7260789066008
395,30.235017646835203,-431.33739069683446,-163.78381107964395,-184.91275528013978,23.359422920641066,-67.59148821393852,471.8536628252335,467.3221959890919
396,28.66838766828595,-446.845672850604,-158.53962441453803,-199.27110315714484,37.95180529846903,-73.41875008123756,483.7064935057873,460.3989948723758
397,26.935268294294264,-460.6639549198287,-152.4632752211964,-210.5584101595744,53.23029026945603,-71.87179670746707,493.8721996503067,456.04941108637905
398,25.05955785898092,-472.72034500380653,-145.6271255035567,-218.83865301215977,69.01082622319652,-62.915177175089156,502.3128848048282,454.338296292061
399,23.065683446900657,-482.9606821485153,-138.11011613251168,-224.20689765643837,85.12455496282396,-46.66304358329126,509.00659213817664,455.30157473737177
400,20.978219657733227,-491.34754649936434,-129.996440701194,-226.78103453983658,101.41989206909058,-23.373953633612544,513.9459817199898,458.9452840435533
401,18.8215977410446,-497.8590905717673,-121.37424341868876,-226.69345053909942,117.76384965024567,6.557684617327876,517.1369252850005,465.2446569273483
402,16.61990122615614,-502.4877955037001,-112.33435385804435,-224.08312246203238,134.04255778141032,42.61299687306682,518.5971151120457,474.1434180299507
403,14.396737653421068,-505.2392412928975,-102.96906583013028,-219.0885863281984,150.16098471807663,84.16226726524047,518.3547653459087,485.5534473051053
404,12.175169677212121,-506.13095810314536,-93.37096499642703,-211.84216015432202,166.0419042435206,130.48020316768685,516.4474601477083,499.3549155938713
405,9.977683880492386,-505.19140023085436,-83.6318125832823,-202.4656827663646,181.6242059271517,180.76226580128608,512.9211774780956,515.3969498459418
406,7.8261733768685104,-502.45905835695737,-73.84150009720611,-191.06789237589777,196.86068711373423,234.14154591949966,507.8294928972059,533.498848116586
407,5.741911134253599,-497.9817020513014,-64.08709852126131,-177.74342707032758,211.715500740104,289.7057350864442,501.2329462227424,553.4518394129796
408,3.74549426460284,-491.81572556875585,-54.45203046128707,-162.57330589754002,226.16145548746331,346.513823068285,493.19853653386394,575.0213650696206
409,1.8567440737792735,-484.0255576360865,-45.015392021887344,-145.6266592531312,240.17736849331806,403.61223335295955,483.79929921265125,597.9498417497365
410,0.09455159987263197,-474.68309120592403,-35.8514425414647,-126.96342807648986,253.7456527849715,460.05018624044266,473.11391373443763,621.9598513953774
411,-1.5233365336079077,-463.86709217033825,-27.029267059165583,-106.63774296240149,266.85028429885995,514.8941486292724,461.2262934351286,646.7576939365056
412,-2.980591802859613,-451.6625561784745,-18.612602131335812,-84.70172128754702,279.4752446798694,567.2412896041105,448.2251183671942,672.037237434573
413,-4.2626313285204995,-438.15999876269393,-10.659803247952057,-61.20947273044106,291.60348594898375,616.231910457529,434.20328859321967,697.4840075088448
414,-5.356988018465538,-423.4546838123943,-3.223922716312748,-36.22116664109626,303.21641964054254,661.060856526945,419.2572957314613,722.77946950603
415,-6.253706698266406,-407.645815634748,3.6471395805097333,-9.80707186518411,314.29389983299313,700.9879456122391,403.4865317702223,747.6054670377708
416,-6.9457448641761825,-390.83573609445057,9.910453652022019,17.948483846042414,324.8146460479249,735.3474628827308,386.99257170396186,771.6487846062762
417,-7.429352801212457,-373.12917695064573,15.527886142201774,46.943280615210966,334.75703565658364,763.5567744265102,369.8784766673971,794.6057991004953
418,-7.704404807636167,-354.632617073229,20.46597299285343,77.05356847089952,344.1001840889334,785.1241010051614,352.2481654676809,816.1871771216948
419,-7.7746511375063445,-335.45378569375185,24.695865832478106,108.13073998022932,352.82522424061017,799.6554710032748,334.205895635634,836.1225649378725
420,-7.647859363221475,-315.7013385208702,28.19336762924466,139.9984843566793,360.9166945838532,806.8608385416201,315.85588251232656,854.1652062683663
421,-7.33581504056362,-295.48471611001634,30.939059093596963,172.45064288490468,368.3639491128809,806.5593117345063,297.3020690332848,870.0964095734739
422,-6.854155907761662,-274.91417604749586,32.918502968944885,205.25001342950864,375.162510555979,798.6833909799531,278.6480424617511,883.7297706964185
423,-6.222022046633986,-254.10097468146617,34.12250001788331,238.12834675645342,381.3152984403156,783.282073222633,259.9970797787991,894.9150393968592
424,-5.461516219538823,-233.15766179081834,34.54735965107096,270.7877319098205,386.8336716520763,760.5226413509123,241.4522922832893,903.541501873106
425,-4.596982712863635,-212.19844311144246,34.195141406528066,302.9034819827071,391.7382282478198,730.690934110603,223.1168326238519,909.5407392512036
426,-3.654127734516405,-191.33956072322025,33.07382259492922,334.12851477800143,396.0593037096823,694.1898855833882,205.09412387189636,912.8886175009239
427,-2.6590181658785004,-170.69963946314695,31.19735376078635,364.09909424716926,399.8371061903358,651.5361365058536,187.48807025048174,913.6063694704308
428,-1.6370069778510938,-150.39994848894065,28.58557694502954,392.44168483136775,403.1214288549604,603.3545522167406,170.40321256230467,911.7606466587791
429,-0.6116415322753159,-130.5645309359788,25.263999103243073,418.78059755050964,405.97089009782314,550.3705317764211,153.94479749758102,907.4624500701242
430,0.3963860412219524,-111.32016149552726,21.263429707090225,442.746085739786,408.45167546660144,493.4000567560904,138.2187376629271,900.864898873695
431,1.370189580950884,-92.79610168115823,16.619503802781935,463.9825714838047,410.63579184104486,433.33750306186795,123.33144729995827,892.1598615812927
432,2.297490518978767,-75.12363512381272,11.37211869811961,482.1567296318962,412.5988933725674,371.1413218258158,109.38954670740384,881.5735499859144
433,3.171229165800846,-58.43537943512123,5.564815434291288,496.9652032170754,414.4177944216731,307.81778203706125,96.49943585165437,869.3612491225173
434,3.9899546387286233,-42.86438523426621,-0.7558625608190668,508.1417594609191,416.1678375294557,244.40305237112565,84.76674344441304,855.8014133579359
435,4.757973467754077,-28.543044723546203,-7.5410002688071565,515.4637180039397,417.920323307856,181.94397558091234,74.29566031132745,841.1893893433577
436,5.485248530247727,-15.601840134712992,-14.739897127576777,518.7574998613665,419.7402258771125,121.4779505738529,65.18816411331663,825.8310290335453
437,6.187051719862353,-4.167965958942888,-22.300574473522254,517.9031665925744,421.68440884339054,64.01238317091112,57.54313677391663,810.0364361540659
438,6.883385092946588,5.636141360738794,-30.170173372992757,512.837850292105,423.80052377317423,10.504197031846521,51.455368200600994,794.1140560432247
439,7.598195465185685,13.694335611673834,-38.29521790804999,503.55801628236117,426.1267196473713,-38.16008815807276,47.01443282394795,778.3652784980123
440,8.358415851601745,19.89832907523069,-46.62172820001639,490.12054765247507,428.69222386917573,-81.18320372322285,44.30342191453449,763.079679986456
441,9.192873366370572,24.14927730862365,-55.0951794413689,472.6426883018764,431.5187801669119,-117.87441199625687,43.397516764895464,748.5309873410304
442,10.131107140376962,26.359368045771387,-63.66031749129143,451.30092243729075,434.62285347002364,-147.66475790277028,44.36239661481376,734.9738005576646
443,11.202141314362061,26.453408868420848,-72.2608573951337,426.32889633570676,438.0184433481973,-170.11987663896807,47.25249004160115,722.6410675863308
444,12.433256969130662,24.370413353131436,-80.83910732176147,398.0144959924314,441.72029180521196,-184.95000184671113,52.109097516539684,711.7422597302807
445,13.84880321889373,20.065186363846355,-89.3355751805688,366.69617867457566,445.7472328035251,-192.01689087129455,58.958433276720086,702.4621553870984
446,15.469082815422718,13.509904762302813,-97.68862625735821,332.75861981536127,450.1254129266361,-191.3374652484643,67.80965358319222,694.9601073718187
447,17.309343131092568,4.695680282114406,-105.83426511422506,296.6276879397236,454.8911161960379,-183.0840518098144,78.65295309914795,689.3696504714015
448,19.37890039693357,-6.365921667588904,-113.7061121730511,258.76471269460694,460.09295049236096,-167.58119903352215,91.45781979442614,685.798305325328
449,21.6804235819399,-19.641447477854786,-121.23563482678043,219.65997849542,465.793195964877,-145.29913121364942,106.17154095186768,684.3274537553226
450,24.20940350383931,-35.07425801972974,-128.352675703145,179.82536933502996,472.06817380941993,-116.84398689204635,122.71804879166484,685.0121979844237
451,26.95383148061264,-52.58343167355506,-134.98629827801886,139.7861133895498,479.00756269644734,-82.94506584095174,140.99718452854407,687.8811679148091
452,29.89410874596109,-72.06293828577228,-141.06594382726746,100.07162731652977,486.7126651532412,-44.439379741838266,160.88444504080837,692.9363005617322
453,33.00320179997756,-93.38115913943071,-146.52286541982073,61.205533481586535,495.2937017199915,-2.2538648364981095,182.23125769422307,700.1526755768864
454,36.247049499161506,-116.38082912533116,-151.29177681466916,23.695010856914337,504.86628022147136,42.61433142453533,204.8658077608572,709.4785406908695
455,39.585216142101366,-140.8794741901895,-155.31263016686452,-11.980266869764124,515.5472442565151,89.11903588789143,228.59442157174982,720.8356905340903
456,42.97177379387725,-166.67040880091741,-158.53241998048048,-45.37926397112236,527.4501430848429,136.18722567030184,253.20348954174875,734.1203628867277
457,46.356389818621125,-193.52434364161397,-160.90690451273136,-76.11036932643523,540.6805806572048,182.74169922559247,278.46189848539365,749.2047835152973
458,49.685593386460106,-221.19163272383977,-162.40214078358505,-103.84136727402196,555.3316935009943,227.72374548770227,304.12393278768155,765.9394264330535
459,52.90419500987594,-249.40516232189054,-162.9957437905588,-128.30809946180696,571.4799768377596,270.1153208757397,329.93259720091106,784.1559696672897
460,55.95683024433102,-277.8838535608171,-162.6778003562868,-149.32133822379328,589.1816289451905,308.9602557704488,355.6233064947057,803.6708322816705
461,58.78958764611254,-306.3367186778725,-161.45138891777802,-166.77144940081803,608.4695216268944,343.3840273124739,380.9278756381874,824.2890951414867
462,61.35166192941217,-334.46738046805126,-159.3326764980458,-180.6305259003227,629.3508406951868,372.61165518871934,405.57872838553226,845.8085546045475
463,63.59695205317053,-361.97893713618157,-156.3505838316813,-190.95181713346867,651.8053893473787,395.98330518842886,429.31322479521606,868.0236483571348
464,65.48551017085019,-388.57903209463774,-152.5460310006336,-197.86644765274724,675.7845217404381,412.96722657553784,451.8779934694462,890.729027846464
465,66.98474914802244,-413.9849715079749,-147.97079985551989,-201.57758568847615,701.2106768338365,423.1697075440109,473.03314613735336,913.7226207307741
466,68.07033604421382,-437.9287234476404,-142.68607443989237,-202.35236211853143,727.977504461939,426.3418093374933,492.55625312417277,936.808109752505
467,68.72673167659119,-460.1616336897697,-136.7607426671529,-200.51193367969705,755.9505991478538,422.382732333401,510.24596842592933,959.7968316446479
468,68.94737292636309,-480.45870592979185,-130.26955699286202,-196.4201250975637,784.9688638743121,411.3397727350967,525.9252106092852,982.5091569756792
469,68.73452605151085,-498.62231733927706,-123.29125583219643,-190.4710807887864,814.8465048725724,393.40494089870225,539.4438273758616,1004.7754429782212
470,68.09886037333337,-514.4852699973183,-115.90674078819225,-183.07632516494354,845.375613082036,368.9084239515044,550.6806938319672,1026.4366585923485
471,67.05880005673275,-527.9131099408658,-108.19738915110551,-174.6515919220718,876.3292363355913,338.30917654886315,559.5452143694288,1047.3447736575595
472,65.6397078561407,-538.8056744918463,-100.24355924156733,-165.60375303744516,907.4648108034143,302.18300499857463,565.9782137839355,1067.3629946607489
473,63.87294209446011,-547.0978528145635,-92.12332130331264,-156.31816396662313,938.5278132487906,261.2085657818985,569.9522142087993,1086.3659257263096
474,61.79481286653931,-552.7595641135204,-83.91142282902652,-147.14674056673488,969.2555132336048,216.15172936284023,571.471101722802,1104.2397345655097
475,59.445452399566584,-555.794974497773,-75.67847832782576,-138.39708890451075,999.3807319298829,167.84876810321146,570.5691931490599,1120.8824008091676
476,56.867612475643746,-556.2409899024567,-67.49036197767047,-130.32301273796597,1028.6355385142404,117.18881882305594,567.309722898955,1136.2041112125373
477,54.105409553407036,-554.165079693982,-59.407777516062914,-123.1167149098201,1056.7548321019422,65.09605139823805,561.7827830103513,1150.1278422537684
478,51.20305237729243,-549.6625031769732,-51.48598167339416,-116.90297777012889,1083.47976969255,12.51194856259624,554.1027657438057,1162.5901413443667
479,48.20360179871383,-542.8530281247839,-43.77464332806557,-111.73554788454659,1108.5610117546616,-39.62192960059558,544.4053751885073,1173.5420892867332
480,45.14782274398884,-533.877245669182,-36.317827790886476,-107.59586504436803,1131.761766271208,-90.38036074868273,532.8442902500901,1182.9504008948984
481,42.07319029946575,-522.892598429101,-29.154101207601492,-104.3941787193102,1152.8606168618905,-138.86976473532883,519.5875744954133,1190.7985970374841
482,39.01310504165847,-510.06924776917054,-22.316751483244833,-101.97300410203663,1171.6541207255714,-184.2421610733033,504.81393761885676,1197.0881599677336
483,35.99635845941677,-495.58591095447696,-15.83411873205736,-100.11279655156136,1187.9591603972938,-225.707603316285,488.70895845688244,1201.8395675976271
484,33.046870020794536,-479.62579937935794,-9.730021630448446,-98.53966953337277,1201.6150327219636,-262.5449771403512,471.4613805869666,1205.0930946885037
485,30.183695782906867,-462.3727849184926,-4.024258896356102,-96.93494298261098,1212.4852595019217,-294.1111102829603,453.25958878045,1206.9092704685613
486,27.42128715671886,-444.0079129275145,1.2668403974672453,-94.94628140483601,1220.4591051049604,-319.8481987476,434.2883681155759,1207.36889067972
487,24.769960162602107,-424.7063677621709,6.129847074468643,-92.20015896084762,1225.4527850083612,-339.28960141128385,414.7260375499923,1206.572494426581
488,22.236522347009075,-404.6349800116299,10.553672914940737,-88.31536540578747,1227.4103458503803,-352.0640913358755,394.7420362325452,1204.639230845196
489,19.824997688675616,-383.9503437949026,14.529051442648537,-82.91723455378943,1226.3041942881116,-357.8986748513972,374.49502364959136,1201.7050581520348
490,17.537389588804153,-362.7975873524832,18.04808370212544,-75.65223308526801,1222.1352518645888,-356.62009901053625,354.13153382057277,1197.9202399558776
491,15.374427741720247,-341.30981145656676,21.10386858191393,-66.2024979433176,1214.9327183023004,-348.155166356494,333.78519985303524,1193.4461322146246
492,13.336254721375322,-319.6081795488176,23.69023038583679,-54.299867648027195,1204.7534364770772,-332.52996610038446,313.5765397395007,1188.451288713339
493,11.423020434607253,-297.8026130506555,25.801549456097362,-39.738928428222685,1191.6808675992847,-309.8681156900993,293.61326905302997,1183.1069519106156
494,9.63536537180506,-275.9930167051799,27.43269546893805,-22.388595838421757,1175.8237032103473,-280.3880889007453,273.9910825506188,1177.5820375447186
495,7.974785558214902,-254.2709335427844,28.57905767259632,-2.2017753607810806,1157.3141601606003,-244.39968851228303,254.79482576570373,1172.0377637298577
496,6.443882278199247,-232.7215086723307,29.2366613606608,20.777312704278092,1136.3060243920233,-202.29970592855707,236.0999607726544,1166.6221163644234
497,5.046507046091362,-211.42562726752556,29.402354942646742,46.408499575247674,1112.9725267622257,-154.5667985118137,217.9742189303752,1161.4643796127816
498,3.7878162768324266,-190.46208623208082,29.074047640788343,74.45400202657024,1087.504145937408,-101.75560828355871,200.4793288817922,1156.669989279362
499,2.6742507485804543,-169.90966176324383,28.25097530570232,104.57990025051214,1060.1064364028502,-44.49014243890447,183.67271114799908,1152.3159839739292
500,1.713452968412728,-149.8489461969097,26.93397187778578,136.36082002801436,1030.9979722584103,16.543563475117992,167.60904120664088,1148.447329864245
501,0.9141319173829613,-130.3638461971416,25.125726328143166,169.28776123485991,1000.4084796892922,80.60547495116614,152.34160003724944,1145.0743756914792
502,0.28588050056230147,-111.54265911042076,22.831008530063055,202.77890400614027,968.5772039603074,146.91024914663817,137.92335314258622,1142.171653581556
503,-0.16105232498820848,-93.47867311548892,20.05685166721869,236.19312339927905,935.751522693984,214.63654796235582,124.40772380349223,1139.678179400491
504,-0.41603429191828245,-76.27026705551717,16.81268327468865,268.84585008468224,902.1857797581101,282.9369278153464,111.84905108205153,1137.49932880533
505,-0.4683664544470578,-60.020514878731504,13.110401861889246,300.0268268637998,868.1402784768879,350.9482533257127,100.30274513599869,1135.5102787076407
506,-0.30764070943843475,-44.836325459525774,8.964401073515784,329.0192317616734,833.8803448554247,417.8025728802661,89.825169674098,1133.5609162001203
507,0.07586747319878831,-30.82717016900979,4.391548059813833,355.1195736810688,799.6753558442356,482.6383801271573,80.47329266670455,1131.482035057975
508,0.6907795146248549,-18.103467459733398,-0.588873235136789,377.6577210709056,765.7976265087906,544.6121658761678,72.30415117034023,1129.0925689550843
509,1.544178560244839,-6.7747057129895945,-5.955240005533888,396.0164011888219,732.5210621969455,602.910140888839,65.37417424019505,1126.207553848863
510,2.6411730899699846,3.052607510065653,-11.683673737366144,409.6495102713677,700.1195042113487,656.7599847270432,59.738399979309605,1122.646472078042
511,3.984477299810297,11.277080142569586,-17.74811167489115,418.0986061516885,668.8647267316651,705.4424522643434,55.44961059210835,1118.241610247163
512,5.574029028395924,17.80456858124456,-24.120350319639773,421.0070160842296,639.0240760150251,748.3026490013702,52.55739613115345,1112.8460639267844
513,7.4066665238942715,22.550232590903647,-30.77004706445643,418.131081810349,610.8577774906012,784.7607687766432,51.107147423392554,1106.3410440324137
514,9.475882991880477,25.44044913593913,-37.66467032054597,409.34817515555557,584.615969265592,814.3220727691754,51.1389745008567,1098.6421789355243
515,11.771673131483649,26.41453789384501,-44.769394930411146,394.661242012131,560.5355489411832,836.585878016629,52.68654980631249,1089.7045578021284
516,14.280479891490975,25.426267621885327,-52.046948628293585,374.1997616544794,538.8369421503445,851.2533191516102,55.775884669127706,1079.5263193682017
517,16.98524362668644,22.445127979085385,-59.45742634942254,348.21713485556955,519.7209141436432,858.1336511237718,60.42406084949367,1068.150652623424
518,19.865550452777054,17.457364364753303,-66.95810045412658,317.08463322481754,503.3655491310133,857.1488756885236,66.63795317938646,1055.6661396234917
519,22.89787201224695,10.466782524787366,-74.50326386136804,281.28215010349476,489.92351579224027,848.3365020679422,74.41299112979351,1042.205434778938
520,26.0558847471428,1.4953342272696992,-82.0441476656154,241.38608748802284,479.519721695982,831.8502923745978,83.73201402608471,1027.9423378572847
521,29.310852747923594,-9.4165048779932,-89.5289540884121,198.05479155903305,472.249434810475,807.9588930956673,94.56427560513733,1013.087376832494
522,32.632054218627076,-22.20955825218264,-96.90303940852475,152.0120101822696,468.17691783592164,777.0423122280673,106.86464891153449,997.882068718694
523,35.98722793832542,-36.80597203711691,-104.10927035113005,104.02888923256037,467.33458291325763,739.5862648908993,120.5730733402366,982.592069814852
524,39.34301360703835,-53.109446335769775,-111.08856280559851,54.90505155597786,469.7226342637326,696.1744759660672,135.61427379538526,967.4994606053583
525,42.66535956482323,-71.00568751445476,-117.78059597192824,5.449313077919162,475.30913010478076,647.4790933057467,151.89776945480747,952.89443437958
526,45.919873727190065,-90.36309809248165,-124.12468050247891,-43.53941595571659,484.0303694265749,594.2494247801203,169.31817812641253,939.0666719199763
527,49.07209894085177,-111.03372017483042,-130.06074785043322,-91.29052130387238,495.791500222584,537.2992616999447,187.75581275306638,926.2966875737676
528,52.08770221929036,-132.85444395727512,-135.5304210065532,-137.07888517743288,510.4672576871286,477.4930856414228,207.07755985697187,914.8474264685441
529,54.932578000604735,-155.64848548877052,-140.47812418464318,-180.2404710621249,527.9027737900327,415.7314739918799,227.13802553792834,904.9563817034904
530,57.57287785986646,-179.2271289788472,-144.8521897864714,-220.1859326632738,547.9144482561263,352.93602379840513,247.78093224011565,896.8284867544968
531,59.97499182453688,-203.39171979479292,-148.60592350791833,-256.4119588764268,570.2909252914067,290.03410822943613,268.84074759787023,890.6300223339989
532,62.10551787247971,-227.93588549777243,-151.69859141758624,-288.5101434275894,594.7942685203407,227.9437696256899,290.1445238994043,886.4837560775718
533,63.93126403371801,-252.64795341083718,-154.0962958166874,-316.1732468942242,621.1614584710218,167.55904034509138,311.51392189062125,884.4655038754529
534,65.41932949867811,-277.3135235512072,-155.77270985074148,-339.19879651370917,649.1063463959381,109.73596749382887,332.7673851382327,884.6022595378456
535,66.53730614290048,-301.7181453795705,-156.70964457845946,-357.4900403641361,678.3221829621731,55.279598358120055,353.7224215207419,886.8719816057309
536,67.253630622682,-325.6500371057366,-156.8974273214381,-371.0543322177426,708.4848017796687,4.932157771996583,374.19793872340983,891.2050516985761
537,67.53810187674884,-348.90277935745917,-156.33507777093308,-379.9990690364877,739.2564817380255,-40.63738413274752,394.0165738759117,897.4873319506049
538,67.36256219750072,-371.2779127235254,-155.03027878523096,-384.5253355565726,770.2904492053209,-80.8421946715222,413.0069559465654,905.5646597826366
539,66.7017243924022,-392.58737176383136,-152.9991503113773,-384.9194335424096,801.2359235070886,-115.18479705767902,431.0058433625062,915.2485394190448
540,65.53411465420082,-412.6556958958788,-150.2658443416816,-381.54249280731943,831.7435655415094,-143.26255747347193,447.86008686830604,926.3227319458978
541,63.843091526607886,-431.3219687307131,-146.8619841399263,-374.81838356095864,861.4711620430718,-164.77142304654046,463.4283769672503,938.5504142869966
542,61.617895716316525,-448.44145077461945,-142.82597243293318,-365.2201812274219,890.0893634017009,-179.50794204569723,477.5827456678466,951.6815714448106
543,58.854682421033814,-463.88688532596916,-138.20219293382135,-353.2554794156801,917.2872859911822,-187.36964390648134,490.2098039545472,965.4603015920995
544,55.557486048530905,-477.54947330842157,-133.0401294557802,-339.4509035170383,942.7777881269011,-188.3538974883904,501.2117095245862,979.631745362925
545,51.739066102592865,-489.3395283290133,-127.3934275383955,-324.336240134412,966.3022340240325,-182.55539814925257,510.50687272127306,993.9483952816694
546,47.421582909890596,-499.18683604735844,-121.31892399801416,-308.4286547597636,987.634577443203,-170.16245482025363,518.0304197080094,1008.1755961024008
547,42.637053659063504,-507.0407495172792,-114.87566890936671,-292.2175070151139,1006.5846298042003,-151.45225526051217,523.7344381198359,1022.0961089019619
548,37.42754410526828,-512.8700533571213,-108.12396208453274,-276.1502749702868,1023.0004248562101,-126.78528080054926,527.5880306427579,1035.5136761942033
549,31.84506021985453,-516.6626251415912,-101.1244233152045,-260.62005925373063,1036.7696464738856,-96.5990230166364,529.5771972630977,1048.255586100615
550,25.95111710523617,-518.4249142605229,-93.93711407611312,-245.9550562614099,1047.8201389667088,-61.40112762860463,529.7045595261321,1060.1742858533541
551,19.815978574993014,-518.1812489080756,-86.62072895380413,-232.4102806428831,1056.1195637889994,-21.762060231968814,527.9889321915454,1071.1481360325042
552,13.51757799836714,-515.972972959345,-79.2318774107817,-220.16169884727324,1061.6742996576004,21.692640869443675,524.4647407885145,1081.081426114068
553,7.140147130679226,-511.85740831005614,-71.82447912874932,-209.30282539846212,1064.5277044106058,68.29048328422994,519.1812791102191,1089.9037892267786
554,0.7725929136312804,-505.9066366140306,-64.44929712012448,-199.84374435254534,1064.7578669163438,117.32048466329671,512.2017998847164,1097.569159982759
555,-5.493328189605834,-498.20609822565876,-57.1536303962188,-191.71245712349685,1062.4749761105886,168.04196265133658,503.6024354812874,1104.0544144845676
556,-11.56498271123422,-488.8530152078166,-49.98118145221486,-184.75842628641357,1057.8184221463796,219.6936288759789,493.47095339610075,1109.3578172092825
557,-17.350920789897827,-477.9546579680749,-42.9721034390748,-178.75817836333613,1050.9537237568447,271.5029568346006,481.90536224598566,1113.4973775653016
558,-22.76296521878591,-465.6264892686819,-36.163218833922,-173.4228350119789,1042.0693505701918,322.69578134557446,469.0123962887458,1116.5091924907035
559,-27.718270036493976,-451.990232793104,-29.58838753538026,-168.4074453364928,1031.373484436317,372.5060732643399,454.9059181376207,1118.445823534033
560,-32.141291715423485,-437.1719242061212,-23.278989701194597,-163.32197839344875,1019.0907439416577,420.1858188524214,439.70528859507124,1119.3747302066195
561,-35.96561889971252,-421.30000933717974,-17.26447924038412,-157.74379818983647,1005.4588834717398,465.01491940523226,423.53375815313035,1119.3767587249113
562,-39.1356104979422,-404.5035561450702,-11.572959005449022,-151.23138596216523,990.725472875347,506.3110140098848,406.5169362010331,1118.5446686643468
563,-41.60779683357382,-386.9106445371846,-6.231728750180917,-143.3390049053226,975.1445646237465,543.4391168311791,388.7813914695379,1116.9816698074967
564,-43.352004571751785,-368.6469912880243,-1.2677610593519666,-133.63193217784465,958.9733595064715,575.8209500407443,370.45343110367793,1114.7999358203729
565,-44.35217326082137,-349.83485677615397,3.2919326716832753,-121.70182249548083,942.4688862720913,602.9438442948625,351.6580964773102,1112.1190579409747
566,-44.6068391950806,-330.5922668296411,7.4200756533356875,-107.18172397180597,925.8847132922945,624.3690706387862,332.5184021085593,1109.064399373593
567,-44.12927009804657,-311.0325676814448,11.089058299832763,-89.76024361661153,909.4677111535269,639.739461034983,313.1548306616861,1105.7653100591788
568,-42.947241053617006,-291.2643159296718,14.271039101592871,-69.19435950446109,893.4548852665679,648.786169144671,293.6850828836439,1102.3531635902089
569,-41.10244822859884,-271.39148917735156,16.938211667594114,-45.32040185542352,878.0702988311288,651.334417877448,274.22406705643755,1098.9591850918662
570,-38.64956327494113,-251.5139871521453,19.06322495917687,-18.062777594983704,863.5221102556641,647.3080751812911,254.88409870976628,1095.7120520918916
571,-35.65493915385546,-231.728378280847,20.61973379101291,12.559909491132878,849.9997560593234,636.7328953496706,235.77526882256092,1092.7352698288669
572,-32.19498816803696,-212.12883401987955,21.58304815918904,46.43159234349479,837.6713197637281,619.7382620994123,217.00592877364983,1090.1443471577497
573,-28.35426502426801,-192.80818382778548,21.93084383407537,83.33846218719474,826.6811373965631,596.557275365785,198.68323395668827,1088.0438275543527
574,-24.22330083730973,-173.85901817429772,21.64389419641433,122.9716859853266,817.1476983078044,567.5250398617924,180.91368573679338,1086.5242591483166
575,-19.896246708471832,-155.37476544250424,20.70678525705468,164.93299908527771,809.161903658053,533.0750422781653,163.8036130589576,1085.6592144130486
576,-15.468396330574876,-137.45067046705103,19.10858196502206,208.74293415230116,802.7857432252131,493.73354550462744,147.45953970563934,1085.5024899620996
577,-11.033664716366646,-120.18460712444656,16.843423034045628,253.85135304434914,798.0514450782431,450.1119803736169,131.9883899717724,1086.08562750493
578,-6.682103844713604,-103.67766465071296,13.911031459013886,299.6498864071656,794.9611442265854,402.8973753106955,117.49749375445195,1087.4158988177528
579,-2.4975355191788626,-88.03445741666346,10.317136365720915,345.4858563849396,793.4871069696474,352.84092895610075,104.09436159399822,1089.4748920023012
580,1.444622727352941,-73.36312073306956,6.073807598815293,390.67725202635876,793.5725372974864,300.74489704879045,91.88621102396739,1092.2178232617189
581,5.07927066450424,-59.77497024921215,1.1997076016921797,434.52833283815494,795.1329796624212,247.448028913332,80.97923739454987,1095.573676259229
582,8.353219776690624,-47.38381855635041,-4.279733672309578,476.3454460483809,798.058318633509,193.8098468908604,71.47763452390926,1099.446238932987
583,11.226424020351585,-36.30495833924286,-10.33221533792433,515.4526571759766,802.2153608232973,140.69411045726656,63.48238222159233,1103.716067098211
584,13.672815845182203,-26.653835180238282,-16.91852957734194,551.2068154041325,807.4509683021525,88.95184271918549,57.08982771013991,1108.2433592101618
585,15.680730788710678,-18.544443428106675,-23.992591397892976,583.0117085662404,813.5956954028179,39.40431894514511,52.39009509016292,1112.8716820051502
586,17.252917528492418,-12.087484872560234,-31.501535711859038,610.3310073693541,820.4678625792509,-7.173574885563262,49.465360890209595,1117.432446448132
587,18.40614210707193,-7.388332911495214,-39.38588699511195,632.6997511529006,827.8779827034747,-50.06920919202458,48.38803513772779,1121.7499998855606
588,19.170404978058635,-4.54484561958216,-47.57981050462303,649.7341824807254,835.633438150053,-88.6469132514457,49.218887721516765,1125.6471741177606
589,19.587798145335203,-3.645070885610385,-56.01145754561825,661.1397898580612,843.543292594856,-122.36114635786787,52.00516071130841,1128.9511098322275
590,19.71103777490421,-4.764886815913794,-64.6034204688894,666.7174624407418,851.4231109055206,-150.7678044470977,56.778709949180254,1131.4991647110337
591,19.601715572377227,-7.96562190011142,-73.27331561708898,666.3676941436385,859.0996547042481,-173.53337248316961,63.55422378927637,1133.1447045175978
592,19.32831958023082,-13.291702502943453,-81.93451364172249,660.0927948435842,866.4153203735891,-190.441686296753,72.32757241600267,1133.7625725223313
593,18.964081157235764,-20.768380069700903,-90.49703569336262,647.9970743108487,873.2321901889221,-201.39812937572944,83.07434632923125,1133.2540325833618
594,18.584709086808935,-30.3995966044911,-98.86863032553457,630.2849652362432,879.4355756145993,-206.4311575797654,95.74864606804287,1131.5509865917543
595,18.266073556013172,-42.166053696121146,-106.95603908429308,607.2570534400114,884.9369445590003,-205.69111430494678,110.28218593589173,1128.6192805542478
596,18.081902037437178,-56.02355643320793,-114.66644822160153,579.303994471382,889.6761415505215,-199.44636658259836,126.58377126691987,1124.460937775215
597,18.101546171332338,-71.90170765956012,-121.90910940594617,546.8983228039722,893.6228310815932,-188.076855819388,144.53920063751113,1119.1151935388107
598,18.387874116268826,-89.70302914461014,-128.59709397917484,510.58420671504956,896.777119137384,-172.0652132828294,164.01163105014805,1112.658253222275
599,18.99533729917455,-109.30258368950317,-134.64912484579588,470.96527055761,899.1693353476387,-151.9856392933936,184.8424263918673,1105.2017538883592
600,19.968255349147075,-130.54816529114098,-139.99141069887534,428.6906960930495,900.858987240155,-128.49078692689616,206.85248962926525,1096.8899760961706
601,21.33936000199487,-153.26111251780267,-144.5593931370534,384.4399220598661,901.9329273494569,-102.2969270889398,229.84406035530745,1087.895923887209
602,23.128639242978217,-177.23778282476337,-148.29931199646978,338.90637692641764,902.5028017077009,-74.16770371181357,253.6029443950029,1078.4164593283028
603,25.34252635489364,-202.25170298273775,-151.16949960794182,292.78078771752655,902.7018724350916,-44.89681761501307,277.9011325161219,1068.6667328922922
604,27.97348151686601,-228.05638408674056,-153.1413295607414,246.7346875789296,902.6813249838679,-15.29000748034193,302.49975959103165,1058.8741805249776
605,31.00001093564374,-254.38876021036646,-154.19976660463078,201.40477846738605,902.606178679611,13.853272533696007,327.1523508372454,1049.2723545180265
606,34.387155639747405,-280.9731795461203,-154.343488014392,157.3787833633867,902.6509156217821,41.758048442231946,351.60829568981865,1040.094819446556
607,38.087457724643,-307.5258479921947,-153.58457087597264,115.18334383590914,902.9949307964553,67.69143985428576,375.6164821133139,1031.5692889450056
608,42.042379065357686,-333.7595998557253,-151.94776349680953,75.27438967105687,903.8178941975104,90.97922177585947,398.9290158498395,1023.9121240103945
609,46.184112970624035,-359.388850879454,-149.46938207445223,38.03024089096707,905.2951133985067,111.02086905846504,421.30494164001493,1017.3232765279685
610,50.43770066687696,-384.13457716101755,-146.19589496881062,3.747520946111929,907.5929953894049,127.30264341060804,442.51387817701055,1011.9817482687945
611,54.72334730193841,-407.72916103610527,-142.18227464626773,-27.360208532322496,910.8647234721051,139.4083333344422,462.3394767384502,1008.0416376632144
612,58.958827499731555,-429.92095215548034,-137.49020928150392,-55.161310467181124,915.2462777257986,147.02733380533934,480.58261635642856,1005.6288511782341
613,63.061876229900925,-450.4784086218785,-132.1862701073293,-79.60272846749959,920.8529269770787,149.9598536729476,497.06425708438496,1004.8385544144014
614,66.95247378528421,-469.1937078536033,-126.34012604981734,-100.70475890993835,927.776302623011,148.11915905709085,511.627887451349,1005.7334276350713
615,70.55495096167884,-485.8857468437995,-120.02288455661724,-118.55425194052681,936.0821318125016,141.53088985380742,524.1415208067542,1008.3427716477615
616,73.79985893616296,-500.4024826535017,-113.30561850937207,-133.29652591444497,945.808665870266,130.3296098311072,534.4992147491098,1012.6624837758415
617,76.62556491824155,-512.6225924951166,-106.25811624691148,-145.12624645668848,956.9657991207674,114.75285491129796,542.6221048816926,1018.6558929575157
618,78.97954774244698,-522.4564558164857,-98.94786844884027,-154.27749154973807,969.5348426940585,95.13301963901266,548.4589564132261,1026.25541297845
619,80.81937720261881,-529.8464770116861,-91.4392858450781,-161.01320265440907,983.4689018710463,71.88746560075656,551.9862438892661,1035.3649484429116
620,82.11336849751248,-534.7667773447614,-83.79312838830081,-165.61421306514939,998.6938017642809,45.50725092480888,553.2077718362473,1045.8629710556872
621,82.84091074737523,-537.2222906873221,-76.0661202817371,-168.36805253383585,1015.1095079878922,16.544873974969452,552.1538500112591,1057.606172386179
622,82.99247774750755,-537.2473025145349,-68.31072455484585,-169.55775256935263,1032.5919899214987,-14.398595243428685,548.8800389764277,1070.433590424142
623,82.56934001958086,-534.9034773658494,-60.575053609957784,-169.4509144083825,1050.995471074571,-46.68664935520003,543.4654865003563,1084.171098479119
624,81.5830084165181,-530.2774277246303,-52.90289685983678,-168.28934050622556,1070.155004419306,-79.66042731293018,536.0108833088178,1098.6361351908454
625,80.0544491365752,-523.4778870613534,-45.33385221012461,-166.2795583617471,1089.889302641263,-112.65146347318927,526.6360774595491,1113.6425436424158
626,78.01311647717782,-514.63256073543,-37.90355331844883,-163.58457397977358,1110.0037461323925,-144.9938522560143,515.4773987549189,1129.0053768853477
627,75.49585225034934,-503.8847390598184,-30.6439874923852,-160.31717832514403,1130.2934865278016,-176.03561623662827,502.68475632377846,1144.5455186893955
628,72.54569959632862,-491.3897655602158,-23.583898536275907,-156.53509575890502,1150.546561757253,-205.14910805177152,488.4185821894108,1160.093964922059
629,69.21067480131843,-477.3114592788198,-16.749265026129105,-152.2382139883996,1170.5469413465996,-231.74032447603062,472.8467004289096,1175.4956157377803
630,65.54253483760695,-461.8185925203927,-10.163838785767242,-147.36807702834093,1190.0774293308366,-255.25706327423305,456.1412053228825,1190.6124438099891
631,61.59557186714312,-445.08152474063814,-3.8497223752914573,-141.8097610791446,1208.922366529053,-275.19590697322,438.4754329259283,1205.3259288918136
632,57.42545983172014,-427.2690894560037,2.1720406500166893,-135.3961893820047,1226.8700919295904,-291.1080682533277,420.02110897359677,1219.5386810085545
633,53.0881731235579,-408.54582422777656,7.880892560483002,-127.91487346769972,1243.7151413368435,-302.6041746313438,400.9457520961077,1233.1752092612637
634,48.63899340067235,-389.0696239015687,13.256237240166255,-119.11699019295729,1259.2601779608376,-309.3581014444227,381.4104048167255,1246.1818273782226
635,44.131617675940205,-368.98988405375246,18.276996973219493,-108.72861295017927,1273.317663863767,-311.10997899012426,361.5677553262899,1258.5257197696753
636,39.61737840068461,-348.4461847034857,22.92127981615551,-96.46381287755955,1285.7112936618482,-307.66850080341936,341.56070007111094,1270.1932228702203
637,35.14458385299139,-327.56754397932724,27.166181796208228,-82.03924078538073,1296.277222779823,-298.912646068586,321.52138077761657,1281.1874052531896
638,30.757984305443458,-306.4722484189345,30.987740571136072,-65.18970683827952,1304.8651311308302,-284.79290230835954,301.57071032796307,1291.5250546652514
639,26.49836604006958,-285.2682421579255,34.36104852166639,-45.6842052786522,1311.339167924251,-265.332038214625,281.818380983131,1301.233198942869
640,22.402271487735838,-264.0540327653016,37.26052441573742,-23.341791484457307,1315.5788228485828,-240.6254352891299,262.3633270631355,1310.3452996585402
641,18.50183996924714,-242.92004827146582,39.6603339787761,1.9532928974504262,1317.4797623986708,-210.84094623656335,243.29459363868,1318.8972624398257
642,14.8247600754219,-221.95035938714332,41.53494082136854,30.237839359362628,1316.954658630354,-176.21821321491618,224.69254439340764,1326.9234077955973
643,11.394321950342105,-201.22466426409304,42.85976053557357,61.45779932159602,1313.9340240675185,-137.0673542070109,206.63032679852995,1334.4525438299859
644,8.229555912952602,-180.8204212648648,43.61188341052418,95.45883596246983,1308.36705472458,-93.76691292894573,189.1755020167187,1341.5042806327187
645,5.34544317625332,-160.81500847621,43.770826490735935,131.97975964080135,1300.2224764346072,-46.76096707823832,172.3917410412528,1348.0857275138183
646,2.753184862139008,-141.28778718244587,43.31927454016776,170.6492350875472,1289.489389172371,3.4446992338017863,156.34048767135243,1354.1887184652678
647,0.4605166821915462,-122.32195031724709,42.24377183050275,210.98607082641658,1276.1781088523967,56.28743142434025,141.0824930878608,1359.7877157370663
648,-1.5279419120263038,-104.0060464364277,40.53533161603652,252.40331779215336,1260.3210132677561,111.15359137909431,126.67913616149949,1364.8385419952021
649,-3.2103138555516684,-86.43508535119578,38.18993670388555,294.2163106913097,1241.9734043426236,167.3855032447545,113.19345824872396,1369.2780834218643
650,-4.587074257200876,-69.71115274926977,35.20891227411339,335.65467448056444,1221.214398554606,224.28942981850807,100.69086047884228,1373.0250851042126
651,-5.660651220634044,-53.94348628805442,31.599160919701138,375.878184780912,1198.1478483144845,281.14451572260754,89.23943372330382,1375.9821232562483
652,-6.43502481203808,-39.24799252665277,27.373259223487054,413.99621835088044,1172.9032784276844,337.212598957523,78.90991413970954,1378.038785100932
653,-6.915331974837743,-25.746210529562386,22.549424072842736,449.0903672581224,1145.6367949039882,391.74875932584854,69.77527792888196,1379.0760176358735
654,-7.107486630131192,-13.563752416266787,17.151364376667402,480.23962866294914,1116.5318918783764,444.0124423002583,61.91000577563722,1378.9715248992375
655,-7.017825906513657,-2.828272599018152,11.208039336180512,506.5474303097572,1085.800051661467,493.2789724860298,55.38905914289371,1377.6060067955045
656,-6.652794879274382,6.332964488096684,4.753347832803675,527.1696182317236,1053.6810090386723,538.8512537464536,50.28661656673176,1374.869950233818
657,-6.01868295903345,13.795833873507993,-2.1742248494077283,541.3424268547524,1020.442538626281,580.0714441818538,46.674618240979406,1370.6706147062137
658,-5.121424944211266,19.442321558266805,-9.53197634990512,548.4093833207003,986.3796252917002,616.3323933087285,44.62116201416129,1364.938807838585
659,-3.966478646259017,23.163615616299843,-17.273346722167435,547.846078713482,951.8128917407711,647.0886346311701,44.18878520385869,1357.6350288485667
660,-2.558788778159761,24.863211119749632,-25.348244802583803,539.2817772147237,917.0861827807009,671.8667367515908,45.432657748524946,1348.7545742939906
661,-0.902843322517525,24.459924211137462,-33.70332388500414,522.5169312447998,882.5632411016411,690.2748269675172,48.39870740246794,1338.3312525900494
662,0.9971760483394775,21.890716395373392,-42.28219863802046,497.53581943751004,848.6234534830741,702.0111102093641,53.12169997172495,1326.4394382175471
663,3.1371532246412643,17.11324000568262,-51.02560779834586,464.51371220647326,815.6566974937556,706.8712120761978,59.62330712792049,1313.1943053524128
664,5.512715316278558,10.108028612638734,-59.87154087455412,423.8181821638662,784.057374342971,704.7541782137005,67.91020859442779,1298.750202862705
665,8.118841154302403,0.8802706932219589,-68.75535937526352,376.0044006708974,754.2177692185548,695.6669648385836,77.9722908471453,1283.2972563125593
666,10.949415068325608,-10.538879787481243,-77.60995159054326,321.8044874801843,726.5209299831488,679.7272586042632,89.78101743498307,1267.05639645012
667,13.996741211248988,-24.091487158785316,-86.36596304104944,262.1112008843412,701.3332912923515,657.1644704314732,103.28805368771597,1250.2731080311553
668,17.251034432533533,-39.69253003286964,-94.95214170443596,197.9564651573387,678.9972881481914,628.3187605366637,118.4242289221714,1233.210260620838
669,20.699904877671344,-57.23011680950456,-103.29582855681633,130.48542349117056,659.8241987805241,593.6379746431038,135.09891184491187,1216.140420183323
670,24.327854771548438,-76.56622086352294,-111.32361145644548,60.92686980808228,644.0874351705467,553.6724078162752,153.19986117607348,1199.3380461924976
671,28.115806396968413,-97.53793109191226,-118.96214614149297,-9.438956399236107,632.0164681804624,509.0673637618475,172.5935961988093,1183.0719560445773
672,32.04067948658685,-119.95920981542494,-126.1391340284492,-79.31413754230073,623.7915415696078,460.55354149466353,193.12631312882593,1167.5983909544746
673,36.07503427318688,-143.6231448604276,-132.78443366602406,-147.4172847836982,619.5393010239318,408.9353530318724,214.62535370185813,1153.1549502958298
674,40.18679444807738,-168.3046741017596,-138.8312715406137,-212.51705319949582,619.329442225228,355.0773494390363,236.90121211868657,1139.9555796202071
675,44.33906385896688,-193.7637479143151,-144.21750872372414,-273.4638622290877,623.1724637444865,299.88900299697764,259.7500454756991,1128.1867064747973
676,48.49005286727134,-219.74887809865322,-148.88691292089368,-329.2187800804582,631.0185927101174,244.30815598033328,282.9566314714531,1118.0045239414478
677,52.59313443027791,-246.0010021939557,-152.7903809717284,-378.87862799176685,642.7579313575129,189.28349789961854,306.2976961136251,1109.5333342360739
678,56.59705452505738,-272.2575716708183,-155.88705478964985,-421.6964984382047,658.2218499051477,135.75647114659682,329.54551409722313,1102.864797148435
679,60.44632420688519,-298.2567536732378,-158.14527462507084,-457.0970646790174,677.1856258209883,84.64303028568601,352.4716668729198,1098.057893850783
680,64.08181897623062,-323.74162128133355,-159.54331863908715,-484.6862850580922,699.3723016775848,36.81569500510282,374.85083052999147,1095.139422720906
681,67.4416034435954,-348.4641992600903,-160.0698881387744,-504.2553628761736,724.4577034673175,-6.913656703563982,396.46446019694963,1094.1048869507579
682,70.46198556219568,-372.18923327277776,-159.72431287018648,-515.7790915189652,752.0765281101848,-45.809809867415396,417.1042416470546,1094.9196994816793
683,73.07878712969767,-394.69756206707626,-158.5164680848246,-519.4089681663294,781.8293721364461,-79.22861516288367,436.575194647492,1097.5206966916915
684,75.22879911013857,-415.78899409959985,-156.46641192042506,-515.4616686578994,813.2905324587773,-106.62936799500432,454.69833535253747,1101.8179943500197
685,76.8513745925617,-435.2846203587941,-153.60376637689257,-504.40361637018117,846.0163662637241,-127.58480883948754,471.31283461495013,1107.6972225059856
686,77.89010085019478,-453.02853005662746,-149.96687747365007,-486.8324367804625,879.5539567220858,-141.78846232860386,486.2776424327965,1115.022142161462
687,78.29448564532686,-468.8889311657161,-145.6017999148252,-463.45607156206864,913.4498049124737,-149.05912553373585,499.4725823016109,1123.6375941116794
688,78.02159135166264,-482.7587098425228,-140.56115825895108,-435.0702544022023,947.2582650549169,-149.3424233821725,510.7989496629258,1133.3726831785982
689,77.03755328745267,-494.5554887873113,-134.9029396556507,-402.53495981757635,980.5494622135251,-142.7094638859979,520.1796732541019,1144.044076686257
690,75.31892563354617,-504.2212623270046,-128.68927256453634,-366.7503593851744,1012.9164750664937,-129.35273969172974,527.5591149147605,1155.4593005044612
691,72.85380846374736,-511.7216939959823,-121.98524171255877,-328.6327760147663,1043.981624463026,-109.57952611026658,532.9025908247208,1167.4199456737495
692,69.64272056514568,-517.0451604368486,-114.85778203214578,-289.0911159705277,1073.4017742432777,-83.80310966530988,536.1956946848389,1179.7247436536654
693,65.69919258084157,-520.2016148634016,-107.37468368628754,-249.004266232981,1100.8726172266424,-52.53223788162462,537.4434918345868,1192.172516086085
694,61.050062717606,-521.2213265817004,-99.60372752535585,-209.1999533836292,1126.131979586091,-16.359207853931654,536.6696350698699,1204.565044156705
695,55.73546375370684,-520.1535330511708,-91.61195769035378,-170.4355544358133,1148.9622247641928,24.05298932153493,533.9154313327853,1216.7099252697255
696,49.80849694949142,-517.0650204603089,-83.46508849305388,-133.38132020780156,1169.1918688092587,67.98407295908245,529.2388669681297,1228.4234873822552
697,43.33459664016724,-512.0386303261456,-75.22703815071645,-98.6064140970066,1186.6965306680686,114.67006726744468,522.7135808172806,1239.533815302498
698,36.390598542925034,-505.17167569829263,-66.95958220197384,-66.56808618233782,1201.399335779799,163.3167731392166,514.4277613331137,1249.8839142379304
699,29.06353407944755,-496.57424360914297,-58.72212212727286,-37.60420311385029,1213.2708745641419,213.11285671196086,504.4829379195082,1259.3350017185353
700,21.449181126319075,-486.3673622237782,-50.57156665558214,-11.929249890251295,1222.32879479867,263.24235062224096,492.9926388765649,1267.7698863264256
701,13.650407834436455,-474.68102175257144,-42.56232203305875,10.366178969827953,1228.6370822786007,312.89642231961324,480.0808983695715,1275.0963636546362
702,5.775350358150265,-461.65205549587944,-34.74638253365881,29.312467723579747,1232.30505902568,361.28432086090766,465.8806107488126,1281.25053666014
703,-2.064532210618895,-447.42190788199434,-27.17350484837833,45.05478933292853,1233.4861030590919,407.643465119673,450.531749193994,1286.1999480313036
704,-9.756481136753218,-432.1343363757238,-19.89144173215611,57.84384339403691,1232.3760695588228,451.24867857831265,434.17948377001574,1289.9463964916945
705,-17.188494296607676,-415.93311070678817,-12.946203435522929,68.02378913774331,1229.211372931989,491.420606394289,416.9722488704004,1292.5282991439447
706,-24.251369692962374,-398.95978405846955,-6.382311472369989,76.01770097017635,1224.2666759934202,527.5333683357532,399.0598199220702,1294.0224604052294
707,-30.840690542427144,-381.35161591241,-0.24300878551683394,82.31093311458159,1217.8521276958033,559.0215068161648,380.5914634683505,1294.5451153745369
708,-36.85870714475236,-363.23972540459005,5.429606858588546,87.4328350129202,1210.3100939504473,585.3862838970717,361.7142236388071,1294.252130200306
709,-42.21607293923536,-344.74754794095924,10.594553978642573,91.93730953656129,1202.0113356751858,606.201366635594,342.5714022595141,1293.3382625747884
710,-46.833395855552624,-325.9896569769449,15.212063187967198,96.38275256046241,1193.3506033132296,621.117918637121,323.3012800766995,1292.035411013422
711,-50.64257125802168,-307.0709978292991,19.243808856586657,101.31195331162783,1184.7416367352191,629.8690892830756,304.0361133928003,1290.609811050712
712,-53.587869334155194,-288.0865622357612,22.65327788506513,107.23256358053925,1176.6115818800622,632.2738630448058,284.90142497791373,1289.3581677601828
713,-55.626757523499904,-269.1215128145854,25.40626667973476,114.59875151397854,1169.3948581099614,628.240201905017,266.0155921487315,1288.602744428081
714,-56.730447248245916,-250.2517472483224,27.471487469739284,123.79463536260396,1163.5265304738682,617.767386595786,247.4897200141182,1288.685454904915
715,-56.88416332156619,-231.54487376725848,28.821255987510934,135.12004194513673,1159.4352571963846,600.9474395578203,229.42777479956578,1289.9610317447791
716,-56.08714334873079,-213.06155252644663,29.43222496372623,148.77905600731918,1157.535894376106,577.9654967932292,211.92694088750724,1292.7893647358046
717,-54.352382586767156,-194.8571420188698,29.286122709287373,164.87172508265883,1158.2218480527504,549.098989795048,195.0781558387994,1297.5271266864024
718,-51.70614659456126,-176.98357635779598,28.370454408423925,183.38916622350948,1161.8572704194326,514.71550478987,178.96677072940386,1304.518827237736
719,-48.18727920946782,-159.49138870178757,26.67912674435817,204.21219433289772,1168.7692044240475,475.2692057616857,163.6732792469548,1314.08746202889
720,-43.8463367048314,-142.43178857769666,24.21296425435594,227.1134674798288,1179.239791633337,431.29573947449694,149.27405831355102,1326.5249533916772
721,-38.74458039277027,-125.85869649727489,20.980096866514526,251.7630331484352,1193.4986735639159,383.4055825918074,135.84206517702802,1342.0826083934062
722,-32.95285954873096,-109.8306383894753,16.9962097692672,277.73706692748686,1211.7157369244678,332.27583974737576,123.44744042303809,1360.9618484019236
723,-26.550414509720223,-94.41240565165006,12.284656667119213,304.5295205053243,1233.9943770550458,278.64055370565677,112.15797299094491,1383.305488920267
724,-19.623626380684083,-79.67639465267182,6.876444421995841,331.5663320841395,1260.3654785837068,223.27964116349838,102.03939213061865,1409.1898658924224
725,-12.264735301935836,-65.703552191044,0.8101011944106947,358.22179174256104,1290.7823340728141,167.0066168261527,93.15546218572676,1438.6181107303057
726,-4.5705439814007685,-52.58386971734446,-5.86855778703642,383.8365932295873,1325.116735642715,110.65531124661476,85.56786832377352,1471.5148666231837
727,3.358882579098509,-40.41638755973389,-13.106751957858686,407.7370444646936,1363.1564769717372,55.065822916567676,79.33589352775157,1507.7227104894612
728,11.42151614606197,-29.308689436850877,-20.845129689739586,429.25485847132086,1404.6044908084962,1.0699718618911143,74.51589796457036,1547.0004983641102
729,19.514663414692755,-19.375885999267382,-29.01822064149197,447.74691323143156,1449.0798190870585,-50.52345918665416,71.16062024721059,1589.0237903516654
730,27.53626737900736,-10.739103207090947,-37.55493333678638,462.6143607551204,1496.120568974466,-98.94339874793988,69.31832566782907,1633.3874397062682
731,35.38621750703298,-3.523506596156574,-46.379088332890746,473.3204869837087,1545.188949496824,-143.47077456369607,69.0318293860785,1679.6103546476736
732,42.967673134850294,2.144094312501721,-55.40998213254986,479.4067750441054,1595.6784118345645,-183.45211800517484,70.33742348593144,1727.142366240434
733,50.188400775814834,6.138006181380929,-64.56298282528779,480.5067008420493,1646.9228360039735,-218.31219774364897,73.26373664976339,1775.373065437653
734,56.962120286736315,8.336712405586395,-73.7501646127619,476.3568847468836,1698.2076233079392,-247.5654116656752,77.8305548350313,1823.6424104100424
735,63.209847906733955,8.626162497047249,-82.88099412256612,466.805326408186,1748.7824741547727,-270.8256861652679,84.04763157928691,1871.2528529275553
736,68.86121732264304,6.903212054487467,-91.8630859469567,451.816551140396,1797.8755604065389,-287.8146545690269,91.91351796619973,1917.4826897161947
737,73.85575433862532,3.0791282248146894,-100.60304733395124,431.47358784292965,1844.708744366421,-298.36791100554746,101.41444495746582,1961.6003109286319
738,78.1440769648036,-2.9169314732405183,-109.00743160288107,405.97677678240353,1888.5134547833168,-302.43916309267735,112.52329414791309,2002.878993277883
739,81.68899032290713,-11.134565582678146,-116.98381585242252,375.6394718033719,1928.546804213672,-300.1021375169735,125.19869570153449,2040.6118707744797
740,84.46644356588175,-21.599003980204905,-124.44201016153573,340.8807592162188,1964.1075215764274,-291.5501278087591,139.38429246778833,2074.1267125034024
741,86.46631283437726,-34.308318294182506,-131.29539251855346,302.2153694086657,1994.5512786933634,-277.09311352735057,155.00820542977084,2102.800145621235
742,87.69296968247296,-49.231073871588066,-137.46234707910546,260.24101237586723,2019.3050096247748,-257.1524240856954,171.98272730105313,2126.070983280673
743,88.16558973582839,-66.30452674880057,-142.86776568428192,215.62342974751465,2037.879855033282,-232.25296758030078,190.20426025278525,2143.4523504576837
744,87.91815495196373,-85.43346232036181,-147.44455765466822,169.07952605164192,2049.8824076612686,-203.01309443905498,209.55350458752903,2154.542342754532
745,86.99910839128901,-106.4897606430866,-151.13510374650113,121.35901912337249,2055.0239863164725,-170.13221755555605,229.89590149217668,2159.03300051112
746,85.47063425382244,-129.3127554315414,-153.89258755953597,73.22512756349911,2053.127722692061,-134.37636626796834,251.08233539601335,2156.7174299213657
747,83.40755601678751,-153.71042943681215,-155.68214051528045,25.434883633490173,2044.1333063559582,-96.5619133074505,272.95010693016195,2147.4949516814045
748,80.89586702068645,-179.4614586794025,-156.48174323020467,-21.280284880099636,2028.0992950173559,-57.53778316890608,295.3241911780318,2131.374202292019
749,78.03092506663836,-206.31808324762744,-156.28283550670565,-66.23302748835125,2005.2029541702386,-18.166525757439924,318.0187932160314,2108.4741484010938
750,74.91535141363438,-234.00974497176148,-155.0905986910051,-108.79692024286351,1975.7376373302595,20.69528525853141,340.83920148630153,2079.0229967618193
751,71.65667487142031,-262.24739481035795,-152.92388797772372,-148.42105314840495,1940.107755053025,58.216803479674994,363.5839204500847,2043.3549939335364
752,68.36475764351194,-290.72833833428524,-149.81480893346588,-184.641808636301,1898.821414356003,93.61223641757341,386.0470413917664,2001.905121563992
753,65.14903789657498,-319.14145953921724,-145.8079520577322,-217.091426423151,1852.4808498321493,126.15915175271661,408.0207894538542,1955.2017191418367
754,62.1156311888173,-347.17264440376385,-140.9593201193548,-245.5031316071176,1801.7708191744198,155.21517445529338,429.29817049225846,1903.8571144286996
755,59.36435185737518,-374.5102184382205,-135.33500215957895,-269.71280176915997,1747.4451965638527,180.2325235921744,449.6756355958783,1848.5564089546097
756,56.985743303035065,-400.8502181815806,-129.0096615164442,-289.65733985643755,1690.312060200778,200.76990429744887,468.9556841572763,1790.0446411588714
757,55.05823458682159,-425.9013354921414,-122.06491018196886,-305.37007962096993,1631.2176277826538,216.50136405727002,486.9493369432567,1729.1126215717263
758,53.645560108331836,-449.3894046333031,-114.58763813595658,-316.97366309792386,1571.0294388291488,227.22184113272658,503.4784274786794,1666.5817936724684
759,52.794582427533086,-471.0613424674353,-106.66835617374255,-324.67088815818653,1510.6192082791724,232.8492736304319,518.3776817586794,1603.2885140610736
760,52.53364372683278,-490.68849579540233,-98.39959681027833,-328.73403037021956,1450.8457778100974,233.4232940528114,531.4965798270765,1540.068163599617
761,52.87154187087562,-508.0693900902705,-89.87440241962415,-329.4931053573326,1392.5385722654264,229.10069429018046,542.7010136076315,1477.7394988011106
762,53.79718791611642,-523.0319046182682,-81.18491539822553,-327.32346882010705,1336.481935074949,220.14799292295837,551.8747690811743,1417.0896329266616
763,55.27995932357914,-535.434916380646,-72.42107470664051,-322.63306932747383,1283.4006745398872,206.93155203035104,558.9208642314308,1358.8600005451983
764,57.27072289132964,-545.1694582582313,-63.669418683747736,-315.84959365867894,1233.9471053320158,189.9057611471372,563.7627659309078,1303.7336092400521
765,59.70346830036236,-552.159427378377,-55.01199533070243,-307.4076931749987,1188.6898181718393,169.59982819142843,566.3454908595968,1252.3238227194959
766,62.49746946596608,-556.3618633978576,-46.52538588659405,-297.73646292591764,1148.1043579160844,146.60369789460427,566.6365723745752,1205.1648597144024
767,65.55987590565901,-557.7667996903423,-38.27985246551449,-287.24736281452147,1112.5659397664313,121.55357072361835,564.6268530432634,1162.7041412912286
768,68.78862761528157,-556.3966788728753,-30.338623995487,-276.32281000041877,1082.344287823156,95.1174339024995,560.3310466128991,1125.2965785251351
769,72.07558226953121,-552.3053208155994,-22.75733636411859,-265.30571402486095,1057.600639893987,67.98095182697708,553.7880066447946,1093.2008588242243
770,75.30974191150185,-545.5764365047552,-15.583642738332252,-254.49025201638733,1038.386924860893,40.83400107069394,545.0606422559787,1066.577755260656
771,78.38046760527939,-536.3216926790158,-8.857008347857292,-244.1141799236747,1024.6470811631584,14.358075747430567,534.2354323022764,1045.4904439872942
772,81.18057521725072,-524.678346767983,-2.608700067104914,-234.3529465211559,1016.2204462562888,-10.785269028137225,521.4215047603283,1029.90677040273
773,83.60921405833726,-510.8064866577518,3.138025367480481,-225.31582713550878,1012.8471088697696,-33.964824864741935,506.749265474469,1019.7033594897675
774,85.5744426969222,-494.8859240586336,8.36753910297542,-217.04423316398984,1014.1750809422001,-54.58893285516815,490.368578753678,1014.6714245542196
775,86.99543240803018,-477.1128039282513,13.071277586417592,-209.51228886744389,1019.769115593823,-72.11347412474849,472.44652163003104,1014.5240939560508
776,87.80424757033292,-457.6960059415267,17.247021953704664,-202.6297023121616,1029.1209709300635,-86.04868029491809,453.16475413731837,1018.9050469993119
