time,ax,ay,az,gx,gy,gz,accmagnitude,gccmagnitude
0,16.50852466336166,-256.3785869745404,-50.30940621266727,-67.18101342581792,42.255215306381444,-16.495084801671343,261.80016640755747,80.78285526047075
1,16.942799444525438,-255.9130866450979,-49.95511997830862,-63.6278125405574,41.32382677889664,-15.583407307559918,261.3111773332165,77.15629766118789
2,17.3590231066527,-255.44517121117306,-49.584922167566845,-60.04171236894028,40.45788569641055,-14.687842731998224,260.81563165669274,73.54449097653601
3,17.752900793947422,-254.97632273011368,-49.19971847377641,-56.45748994297179,39.66230197984495,-13.824059498846395,260.31482833577655,69.98331069852003
4,18.12048543704656,-254.50781552020837,-48.80039536983312,-52.91097472768735,38.9386223136881,-13.00769045750269,259.8098839901995,66.50776716172739
5,18.458285316244723,-254.0407065236296,-48.387800914027366,-49.43861099055834,38.284761317067854,-12.254032067227868,259.3017285063287,63.151413015685335
6,18.763366879087023,-253.57583015028055,-47.96272985779653,-46.07703596346652,37.69485459344595,-11.57775881591272,258.79110569825906,59.94582814760848
7,19.033450066093803,-253.11379758051203,-47.52591289431921,-42.86268246924246,37.159249869883574,-10.99266070832275,258.2785787774097,56.920199907428795
8,19.266993608458485,-252.6550009310253,-47.07800945782181,-39.83141252667228,36.664648831009245,-10.511410250316214,257.76454072624324,54.1010126600761
9,19.463268025015488,-252.19962319464747,-46.61960317867509,-37.0181856135797,36.19440786379849,-10.14536363231266,257.24923012059804,51.51185583083186
10,19.622414337895204,-251.74765525306617,-46.15119888086478,-34.45676195974621,35.72900089773675,-9.90439894579157,256.7327532971551,49.17335398691523
11,19.745486851146985,-251.29892127347438,-45.67322000431579,-32.17943778452428,35.246642011343525,-9.796792402342785,256.21511378819565,47.103216487419175
12,19.834478713570906,-250.8531133577182,-45.186005693286,-30.216806174187532,34.72405962366471,-9.829131771377993,255.69624959737462,45.316398242380984
13,19.892329394446783,-250.4098355604696,-44.68980745284531,-28.597534655009532,34.137408057871994,-10.006264695241486,255.17607829593373,43.82535752836527
14,19.92291353026659,-249.96865653746212,-44.184785997785575,-27.348148680421676,33.46329629393953,-10.331278259178209,254.65454922748515,42.64039193306773
15,19.93101074303913,-249.529169266075,-43.671009489439435,-26.492809327269747,32.67990813599491,-10.80550525361623,254.13170141088978,41.77002961953642
16,19.922256017865813,-249.09105556662306,-43.14845471162681,-26.053073562133896,31.768183121511925,-11.428552016978417,253.6077250830948,41.221450454414004
17,19.903070232575278,-248.6541525927242,-42.61701293517654,-26.047626564030626,30.713023531406776,-12.198342617280998,253.08302430083862,41.00091032823051
18,19.88057060501682,-248.21851811407902,-42.07650230723034,-26.49197781125222,29.50448995181497,-13.111174397422355,252.55827770390124,41.114142302659644
19,19.86246114433616,-247.7844913195698,-41.52668848890344,-27.398115923460978,28.138946015278137,-14.161780476997382,252.03449445213548,41.56671000599206
20,19.85690352300395,-247.35274599275172,-40.96731482813522,-28.774121475255065,26.6201121845298,-15.343395537766115,251.51306242235023,42.36429180939459
21,19.872369040423866,-246.92433321823515,-40.398142648606395,-30.62374193558614,24.9599887263282,-16.64782202319393,250.99578595414835,43.512878534600716
22,19.917472555608704,-246.5007112861615,-39.819001469923826,-32.94593818797083,23.179609365643238,-18.06549473236472,250.48491082286606,45.018872490563716
23,20.00078949892235,-246.08376118842475,-39.22984829075162,-35.73441734431618,21.309589462396392,-19.585542683743284,249.98313473827483,46.889081164073104
24,20.130657392633076,-245.67578696399866,-38.63083445554288,-38.977171431281285,19.39043574187102,-21.195848012959846,249.49360244553003,49.130604503501274
25,20.31496375466514,-245.2795010163489,-38.02237799793822,-42.6560457227378,17.4725883883989,-22.883102444901585,249.01988529761303,51.75062003390906
26,20.560922824207594,-244.8979953061106,-37.40523864574472,-46.74636373447831,15.616170487693463,-24.63286243403739,248.56594588074785,54.756074658389025
27,20.87484420418727,-244.5346999966575,-36.78059195068251,-51.21663790833148,13.890424335678217,-26.429604337889632,248.13608889272228,58.153295678400795
28,21.261897281993182,-244.1933316924046,-36.15009845838521,-56.028395593974615,12.372819128390914,-28.256780981609058,247.73490002046546,61.94753621991951
29,21.725876210757097,-243.87783380949625,-35.5159636272733,-61.136149002640245,11.14782020755298,-30.096880712598697,247.36717501676932,66.14247194042927
30,22.268971258094297,-243.59231176487216,-34.88098439793439,-66.48753534935554,10.305316602498047,-31.931489536418802,247.03784145196866,70.73966674439937
31,22.891553283651177,-243.34096552322367,-34.24857887927732,-72.02364946864783,9.938711329327079,-33.741356204456814,246.75187565605168,75.73802544139656
32,23.59197883305531,-243.12802166288662,-33.62279650593593,-77.67958593051456,10.142687991345866,-35.506459373248624,246.5142172076283,81.13325114058215
33,24.36642379964848,-242.9576666015412,-33.00830722255751,-83.38520139616229,11.010677795765547,-37.20607550006121,246.3296830523608,86.91732510171074
34,25.208753845281752,-242.83398203180022,-32.41036970151771,-89.06610106236118,12.632063159149427,-38.818846267322115,246.20288300952123,93.07802716767331
35,26.110439803896753,-242.76088300723833,-31.83477999537316,-94.64484598818952,15.089167456072332,-40.32284512733023,246.13813805925338,99.59851602930088
36,27.060526083677615,-242.74205851643592,-31.287802874075492,-100.04237114287386,18.454094810246197,-41.695643917483245,246.13940234595785,106.45699034640622
37,28.045659589073356,-242.780913857009,-30.776088122853004,-105.17959704996056,22.785498505093827,-42.9143821823456,246.21018931187666,113.62645364424016
38,29.050185903297642,-242.88051385308395,-30.30657351319967,-109.97921043381234,28.125370653458855,-43.955843548132464,246.35350199963474,121.07460693438966
39,30.056318443900086,-243.04352608382644,-29.886375560258664,-114.36758075415186,34.49595806675424,-44.79654493171386,246.57176754467426,128.76389207868687
40,31.04438499366392,-243.2721637238067,-29.52266894625255,-118.27676983029482,41.896918751506384,-45.41284535150449,246.86677618344555,136.65170538685143
41,31.993154250994642,-243.56812812081859,-29.222555643425885,-121.64658138744451,50.302839377685004,-45.7810815820314,247.23962550201395,144.69079487317097
42,32.8802426652855,-243.93255168628093,-28.99292512305093,-124.4265871764847,59.661235843016584,-45.877737808180626,247.6906709365692,152.8298465440083
43,33.682598797078256,-244.36594199732045,-28.840307419197,-126.57805740914739,69.8911561102669,-45.67965569555085,248.21948363802272,161.0142558556504
44,34.37705888206938,-244.86812827184295,-28.770721141157626,-128.0757168143172,80.88249614552997,-45.164289824110796,248.82481678854174,169.18707106195617
45,34.94096331806693,-245.43821167683083,-28.789518790449684,-128.9092448001434,92.49612542198821,-44.31001127094507,249.50458141466854,177.29008660560348
46,35.352819564341004,-246.0745212313639,-28.90123198873206,-129.08443982630646,104.56489774775008,-43.096459473616065,250.2558326602093,185.26505783218582
47,35.59299264907415,-246.77457718769867,-29.109419519854388,-128.6239744742867,116.89559625815745,-41.50493968575426,251.0747672060373,193.05500348896038
48,35.6444004753053,-247.53506362132956,-29.416521458906477,-127.56767862204589,129.27182893063713,-39.51886070267424,251.9567319966114,200.60555946825102
49,35.49318787593994,-248.3518116635493,-29.82372309562432,-125.97230291334945,141.45785405646558,-37.124205355618564,252.89624383405453,207.86634531133143
50,35.129351373091794,-249.21979453578967,-30.330832841836294,-123.91073249446993,153.2032752489755,-34.31002468486952,253.8870189557241,214.79230314302126
51,34.54728617195473,-250.13313529527437,-30.936178818647004,-121.47064098091504,164.2485046330753,-31.068945716536163,254.9220114710758,221.34496622140412
52,33.74622818748305,-251.0851278802081,-31.636529242777193,-118.75259621690765,174.33085305020475,-27.3976822857419,255.99345942418282,227.49361096542174
53,32.730566835260134,-252.068271621623,-32.427041850247406,-115.86765204118532,183.19106994641834,-23.29753815208598,257.09293722706985,233.21624257917796
54,31.510008738426002,-253.07431893006995,-33.301247214828365,-112.93448319803215,190.58012573575098,-18.774891436190266,258.2114132923936,238.50036115041888
55,30.099578071350418,-254.09433548868577,-34.25106994316261,-110.07614270294341,196.266008288229,-13.841648898397002,259.33931193853937,243.34345371681565
56,28.519445596304642,-255.11877215803403,-35.26689050256423,-107.41654125830534,200.04029463729148,-8.51565765854907,260.4665791500854,247.7531598768963
57,26.79458525083825,-256.1375480317399,-36.33764894855469,-105.07676553816633,201.72425999060155,-2.821060597914725,261.58275260373193,251.74706547800986
58,24.954264141713114,-257.1401445889413,-37.4509900686392,-103.17136506154483,201.17429861161992,3.2114201273171954,262.6770373719521,255.3520914321356
59,23.03137866830557,-258.1157114735757,-38.59344748645825,-101.80474475359526,198.2864542220139,9.544289241609441,263.73838964249785,258.6034626265314
60,21.06165586525577,-259.05318500909874,-39.75066220059277,-101.06780130530701,192.99988982752916,16.13319427839014,264.7556115144144,261.54326440916435
61,19.08274458370909,-259.94142117536285,-40.90762904638853,-101.03493569341201,185.29916657941388,22.926973360552058,265.71746047466814,264.21862000521696
62,17.133225627942494,-260.7693453897244,-42.04896290619973,-101.76156169865158,175.215246546464,29.867858155782226,266.6127775038549,266.6795498170276
63,15.251573443367002,-261.52612177023923,-43.15917544453126,-103.28221138566545,162.82518302799488,36.891855613098684,267.43063770591016,268.97660083447084
64,13.475104398872695,-262.20134417903455,-44.22295301787439,-105.60931444132319,148.25051210063037,43.929331145092554,268.160526583209,271.1583589793805
65,11.838947785819046,-262.7852499065232,-45.22542739027458,-108.73270107031112,131.6544081012386,50.90581329693408,268.7925433314731,273.2689764667658
66,10.375075169709362,-263.26895438027196,-46.15243270258531,-112.6198502323555,113.23771121335785,57.743035021357365,269.3176298189346,275.3458572990198
67,9.11142241454725,-263.6447021268071,-46.99074392595306,-117.21687775864612,93.23397522282903,64.36021850944063,269.72782049606997,277.4176442435741
68,8.071137586769062,-263.90612569647067,-47.72829294051249,-122.45023145398852,71.90371704778377,70.6755975583372,270.01650458840123,279.5026385154168
69,7.27198662464632,-264.0485003764353,-48.35435853558467,-128.22903038394745,49.52807687710756,76.60815228731133,270.1786876313699,281.60775819694595
70,6.72594518567618,-264.06897830688695,-48.859727030337936,-134.44795257970202,26.40211804706521,82.07950642446103,270.2112349746125,283.72810293724183
71,6.438997817509433,-263.9667818621807,-49.2368216387057,-140.99054325953512,2.828007179205397,87.0159116520711,270.11307627013156,285.84714249685544
72,6.41115438753425,-263.74333448867344,-49.47980097634494,-147.73279189421743,-20.891684686960605,91.35022310971738,269.8853487762575,287.9374922438378
73,6.636679836899372,-263.40230924949753,-49.58462941978491,-154.54681814030423,-44.46033156855095,95.02376080033567,269.5314599865943,289.9621917252538
74,7.104519279172558,-262.94958166084325,-49.54912348740794,-161.30451654638986,-67.59304925149685,97.9879556332129,269.0570568461881,291.87637393073055
75,7.7988890152823815,-262.39308295584675,-49.372978425937255,-167.8810348720594,-90.02177254133015,100.20569439161655,268.4698983146943,293.62920637738637
76,8.699996564217042,-261.7425605017857,-49.05777780895472,-174.15799336735947,-111.49949225024685,101.65230065856908,267.7796380669378,295.1659960638375
77,9.784848903209292,-261.00926147719304,-48.60698679483748,-180.02638416376672,-131.80358237077076,102.31611420581663,266.99753264869366,296.4303703741808
78,11.028107059674664,-260.20556260859115,-48.02592727650687,-185.38911518191455,-150.7381992865396,102.19865641865806,266.13609621797787,297.3664674342907
79,12.402946832234687,-259.344572258293,-47.32173077378125,-190.16317914211243,-168.1357805661551,101.31439207211072,265.20872577284075,297.9210864600083
80,13.881889246505187,-258.4397315727127,-46.503263170148394,-194.28143554216533,-183.8577062583574,99.6901171234757,264.2293207513898,298.04575805891847
81,15.437569293425959,-257.5044390538303,-45.581015159958056,-197.69399429912716,-197.79420924693812,97.36401774246363,263.2119185184661,297.698696511063
82,17.043417114882732,-256.55171815934676,-44.5669539024688,-200.36918821728565,-209.86363479123074,94.38445726640275,262.1703629788919,296.8465939223042
83,18.67423260615969,-255.5939410917157,-43.47433441675919,-202.29412149687371,-220.01115554292414,90.80855475635826,261.11801810365614,295.4662135194654
84,20.30664248615777,-254.64261504821187,-42.31747296888739,-203.47478525405384,-228.20704945123174,86.70062161041224,260.0675325987154,293.54573888884767
85,21.91943724367829,-253.7082309683973,-41.11148850697246,-203.93573847531727,-234.44464633920086,82.13052214908231,259.0306570853036,291.08583921738466
86,23.4937928957509,-252.80016943287123,-39.87202149522342,-203.7193629305995,-238.73804642219827,77.17202026030476,258.01811093281293,288.10041799265707
87,25.013388700593907,-251.92665372398488,-38.61494153052337,-202.88471271312784,-241.1197104519683,71.90116623246229,257.0394920110202,284.6170231708369
88,26.46443649868236,-251.09473690680895,-37.35605528745494,-201.50599341897927,-241.63801424051783,66.3947664432401,256.1032197437224,280.676908861514
89,27.83563967100282,-250.31030943107206,-36.11082471417917,-199.6707218701452,-240.3548485122931,60.728966689285485,255.21650121581652,276.3347507047707
90,29.11809967025837,-249.57811650194452,-34.89410285563049,-197.4776317751021,-237.34332959149668,54.97797084371886,254.38531214653915,271.658028071678
91,30.305186383533776,-248.90177905722567,-33.71989226376307,-195.03439976048602,-232.6856700700552,49.212911087968656,253.6143882778037,266.7260945388881
92,31.39238615384367,-248.28381673175156,-32.60112926841208,-192.45526764589488,-226.47124319814847,43.50088279092066,252.90722645390898,261.628962833104
93,32.37713855996562,-247.72567439456623,-31.54949645859776,-189.8586319001499,-218.7948608751662,37.90415425658054,252.266097166319,256.4658322115997
94,33.25866997180653,-247.22775553825508,-30.57526531834401,-187.36466293820328,-209.7552731449415,32.479557950367216,251.6920714242027,251.34338694374293
95,34.03782840467797,-246.7894664538024,-29.687170866342555,-185.09300732942347,-199.45388790790028,27.278065341661428,251.18506498312132,246.37389603212645
96,34.71692072457381,-246.40927482131497,-28.892320235723975,-183.16061529588117,-187.99370402148273,22.344542192294988,250.74390240270498,241.67314725183797
97,35.29955072449526,-246.0847846276581,-28.196137138529043,-181.67972445738465,-175.4784485466552,17.71767479897502,250.36640171094044,237.3582526473046
98,35.79045547595723,-245.8128263805194,-27.602343710309505,-180.7560207829711,-162.01190763032432,13.430050791125025,250.04947768960417,233.54536731159544
99,36.1953370460171,-245.58955877580456,-27.112980247621536,-180.48699110538288,-147.69743896855434,9.508371969666136,249.7892590732605,230.34736824158884
100,36.520686409722984,-245.41057641071836,-26.72846222734817,-180.96047729826182,-132.63765245857914,5.973772346217007,249.581213322285,227.8715444921418
101,36.77359637419623,-245.27101762547971,-26.447673104440607,-182.25343744709136,-116.93424542547139,2.8422115630889384,249.42027204871803,226.21735227905486
102,36.9615611321352,-245.1656664234255,-26.26809064905259,-184.43091318477153,-100.68797921128781,0.12491143960301876,249.30095009713284,225.47428818580164
103,37.09226164523751,-245.08904258967019,-26.185943692645182,-187.54519676556444,-83.99878366185015,-2.1711981033213434,249.21745160701434,225.71993080893267
104,37.173337955604524,-245.0354750378687,-26.196394960551856,-191.6351884492045,-66.9659746195009,-4.043056702385028,249.16375745196174,227.01819729658462
105,37.21215145660946,-244.9991553441035,-26.293744302007138,-196.72593430907114,-49.68856731040185,-5.4911038362777225,249.13369051679055,229.41785672439087
106,37.21554208950603,-244.97417114144147,-26.47164535623964,-202.82833516140363,-32.26566594698633,-6.5189840904085194,249.120958129532,232.9513365221914
107,37.18958733683548,-244.95452192228728,-26.72332774647992,-209.93901762306805,-14.796907036192417,-7.1333415388716555,249.11917401301295,237.63385054407777
108,37.13937163301453,-244.93412224857187,-27.041816372008366,-218.0403578749409,2.617069266727548,-7.343708958649018,249.12186477969735,243.46286779811592
109,37.06877616489768,-244.90679916157052,-27.420139320121518,-227.10064764754804,19.87414873087738,-7.162489857117872,249.1224679958742,250.4179298564085
110,36.98029966717586,-244.86629167860255,-27.851516409135193,-237.0743906094115,36.870305481420445,-6.605024624424039,249.11433011197568,258.46081342567004
111,36.87492050512732,-244.8062605815576,-28.329521359300465,-247.90271617040028,53.49923117925655,-5.6897265909589025,249.09071297981455,267.5360234318743
112,36.75200913422305,-244.7203161276392,-28.84821187634618,-259.5138971170042,69.65206537982259,-4.438269376569747,249.04481713322735,277.57159208202995
113,36.60929821731573,-244.60206988240117,-29.402223373083398,-271.8239577241096,85.21726067530996,-2.8758037188866497,248.96982856105765,288.4801512811894
114,36.442915552569914,-244.4452148428242,-29.98682368245213,-284.73736014831053,100.0806143780499,-1.0311801009266808,248.85899364885807,300.1602398659827
115,36.247482664244934,-244.2436357415163,-30.597927998182406,-298.14775907244046,114.12549593339868,1.0628469108222351,248.70572469002641,312.497803621681
116,36.016279495595676,-243.9915492106752,-31.232075296833,-311.93881779831645,127.23329598987881,3.3694556806355846,248.5037361639403,325.3678451242128
117,35.741473176609325,-243.68367152645726,-31.88636935416287,-325.98508325262765,139.28411895408294,5.847656687320797,248.24721000252296,338.6361820657718
118,35.41440636973924,-243.31541000948226,-32.558388957642286,-340.15292253862765,150.15773578438117,8.452271542735074,247.9309863523316,352.16127668152564
119,35.025938284245356,-242.88307274642048,-33.246073072305606,-354.30152946197165,159.7348076763502,11.134005724421922,247.5507748212569,365.796104833137
120,34.56682919198999,-242.3840899823037,-33.94758765677702,-368.2840153923687,167.8983841275553,13.839624653723854,247.10337976887848,379.3900406189196
121,34.02815725606481,-241.8172392782029,-34.661181484993605,-381.9486041102847,174.5356705966593,16.5122382085449,246.5869318236487,392.79074016352445
122,33.40175473449794,-241.18286548174555,-35.38503849844721,-395.13995399613077,179.5400515904955,19.091694246926902,246.00111660876817,405.8460154389046
123,32.68064921772185,-240.48308594102866,-36.11713382586176,-407.700632259966,182.81334460997684,21.51507768601271,245.34739084915202,418.4056946827448
124,31.859494637359795,-239.72197131137838,-36.855099877656805,-419.4727643907811,184.26824917901473,23.717308483770577,244.62917576254966,430.3234696248987
125,30.934976457331278,-238.90569268400952,-37.59610818827,-430.29987736138236,183.83094357199872,25.631829627673895,243.85201789289403,441.4587309908589
126,29.906175776555244,-238.04262647765202,-38.3367721147288,-440.02894726895977,181.44377043042599,27.191374913791286,243.02370822619375,451.6783925247081
127,28.774878047169473,-237.1434095289554,-39.07307501790094,-448.5126511941459,177.0679418778987,28.32880581092351,242.15435147828086,460.85870021197115
128,27.54581368739536,-236.22093809814635,-39.800327991136626,-455.61180959300293,170.6861855863923,28.97800687970958,241.25637883041765,468.88701785628876
129,26.22681989361134,-235.2903060164267,-40.513160512975844,-461.19799016223544,162.30524594120536,29.07482978935225,240.3444990274209,475.6635731370922
130,24.82891524346983,-234.36867879583286,-41.20554661603156,-465.15622763080665,151.9581493113445,28.55807663397264,239.4355844760168,481.10314026370736
131,23.366281087482623,-233.4751020486648,-41.87086827171975,-467.38779730058604,139.70613975300964,27.37051372841092,238.54849061484498,485.1366270031071
132,21.856146193360008,-232.6302439270447,-42.50201663939134,-467.8129645558239,125.64019158660578,25.45990717626479,237.70380826083857,487.71252605103496
133,20.318573665275512,-231.85607247684723,-43.091530606643026,-466.373619309165,109.88200854423457,22.780071124003864,236.92354985360708,488.79818445501076
134,18.7761518671346,-231.17546989721367,-43.631770702805575,-463.0356948659429,92.58442591484037,19.291918639698352,236.2307716253959,488.38084119478657
135,17.25359390217575,-230.61178688287157,-44.11512503523006,-457.7912663598192,73.93114257582192,14.96450352945175,235.6491348933925,486.46838317356685
136,15.777252981044219,-230.1883416637397,-44.534242367467876,-450.66022584231604,54.13572414834121,9.776039173996665,235.2024110424785,483.089774591756
137,14.374563603176671,-229.92787015324149,-44.88228584993656,-441.69143976918053,33.439836791902934,3.7148777838605063,234.9139364338497,478.29512419084546
138,13.073420860878567,-229.85193585570838,-45.153199306078875,-430.9633096724938,12.110693232889167,-3.2195694218582007,234.80602553267832,472.155368603259
139,11.90151234524562,-229.9803109158611,-45.34197643143288,-418.5836771600991,-9.562281942176517,-11.015993393536585,234.8993530632856,464.7615667132842
140,10.885618998140044,-230.3303428728826,-45.44492183435322,-404.68903849721727,-31.271532769865658,-19.650454417392645,235.2123189366053,456.22381771177925
141,10.050902723571717,-230.91632508664424,-45.45989170756194,-389.44306015481635,-52.69613402574049,-29.085781583419926,235.76041286495666,446.6698324080671
142,9.42019961570475,-231.748892025354,-45.38650135550881,-373.0344131287715,-73.50714183746078,-39.27113176501172,236.55559863996828,436.24320145272605
143,9.0133382500934,-232.83446316878133,-45.2262870531509,-355.6739690513542,-93.37341240339359,-50.14173533899331,237.6057405901911,425.1014139535926
144,8.846502552639063,-234.17476086404602,-44.98281089287877,-337.5914240561183,-111.9677444614719,-61.618854850014166,238.9140964694695,413.41368475277636
145,8.931658232397648,-235.76642793268627,-44.661699410111865,-319.03143636027914,-128.97318197158373,-73.60998056003713,240.47890183544118,401.3586483703857
146,9.276060559592793,-237.60077000341357,-44.27060975289147,-300.2493801522016,-144.08930038479528,-86.00928322712028,242.29307068410293,389.12197294278144
147,9.881859295722196,-239.66364513497902,-43.81912068623647,-281.50683114886556,-157.03829385865708,-98.6983396177915,244.34403535991189,376.8939394076071
148,10.745813833515127,-241.93551901837574,-43.318549416572544,-263.06690752462305,-167.57068235633372,-111.54714041432713,246.61374520338856,364.8670209111197
149,11.859128324580254,-244.39169782476145,-42.78169872953643,-245.18959315983997,-175.47046674944096,-124.41538360416428,249.0788378643219,353.23348620334303
150,13.207413223941684,-247.00274279849808,-42.22254200483427,-228.1271678499537,-180.55957643272927,-137.15404937003981,251.7109898328333,342.1830399792559
151,14.77077667020086,-249.73506149116344,-41.655856216318945,-212.11986127487265,-182.70147688721875,-149.60724519348472,254.47744399303127,331.90050416437447
152,16.524046579254442,-252.5516607720078,-41.09681504432566,-197.39183477857762,-181.80383327008678,-161.6143026702934,257.34170254990556,322.5635384749232
153,18.43712213556417,-255.4130370866474,-40.560555677873346,-184.14757834266177,-177.8201595259412,-173.01210072690589,260.26436415326367,314.34039729087243
154,20.475451270996246,-258.27817048758703,-40.06173375851887,-172.56879065993294,-170.7504196291168,-183.63758365656503,263.20407504672056,307.3877233201519
155,22.600628483303453,-261.10558148077445,-39.61408135648882,-162.81178920410593,-160.64058706484244,-193.330436531587,266.1185563724516,301.84838621470806
156,24.771104843179447,-263.8544046477062,-39.22998299839965,-155.00547631004886,-147.5812088289261,-201.9358747101535,268.9656643094189,297.84938495436546
157,26.942999297285805,-266.4854311897517,-38.920084521547594,-149.24986850855078,-131.70505880316784,-209.30749783628576,271.70443738727045,295.49984449506974
158,29.070997456426383,-268.9620745304459,-38.69294880002781,-145.61518162549478,-113.18399944646784,-215.31015158714143,274.2960866222561,294.889147527806
159,31.10932095217229,-271.2512188811805,-38.55477116876951,-144.1414548568042,-92.22519699122982,-219.82273267228553,276.70488905733606,296.0852491001074
160,33.01274711933136,-273.3239196147303,-38.50916564406629,-144.8386936135091,-69.06685055328322,-222.7408652569524,278.89895326676174,299.1332243034907
161,34.737655326095215,-275.15593534183,-38.55703063191276,-147.6875125723811,-43.97359750675636,-223.97937168605515,280.85083536471507,304.0540977954835
162,36.24307304987294,-276.7280834792868,-38.69649957007263,-152.6402649306893,-17.231745586913835,-223.47445877907688,282.53799479904285,310.84400038828676
163,37.49169219511132,-278.0264226136091,-38.922977952963734,-159.62264828639442,10.85554196830365,-221.1855441698549,283.94308955748403,319.47369425713725
164,38.45082451441017,-279.042275171944,-39.229263756590726,-168.53577862514067,39.97301462496288,-217.09665547739664,285.05411952212035,329.8885055282196
165,39.093264577696885,-279.77211220927694,-39.605743912517696,-179.2587190410497,69.79799838214915,-211.2173480146049,285.86443408386117,342.00870064477107
166,39.398029746985195,-280.2173280366402,-40.040655890938105,-191.65143777811295,100.00493068403254,-203.58310328853042,286.37262544613435,355.73033934894937
167,39.35094922052223,-280.383935516424,-40.52040131943103,-205.5581513704381,130.26976730097363,-194.25518961673592,286.58233202142696,370.92663043555524
168,38.94507845660839,-280.2822129273107,-41.02989803933172,-220.8109853499237,160.2742764740076,-183.3199866216294,286.501976821259,387.44980519377816
169,38.18092107764039,-279.9263305603557,-41.55295764212914,-237.23386079190604,189.71023776126967,-170.88779574895665,286.1444639354726,405.1335069091602
170,37.066447482499655,-279.33398020816173,-42.072676726793766,-254.64649358699782,218.28355330660958,-157.09117758759135,285.52685254995043,423.7956727908239
171,35.61690752210781,-278.52602411657614,-42.57183148376699,-272.8683773401776,245.7182592987188,-142.08287203537762,284.6700230005903,443.24185767866726
172,33.854443163843854,-277.5261724006281,-43.03326658599748,-291.72261134908666,271.7603979487537,-126.0333681552521,283.59834355890496,463.26891822527404
173,31.80751535820277,-276.3606900254875,-43.44027069994778,-311.0394324902674,296.18167940089404,-109.12819638729464,282.33934043416565,483.668944521499
174,29.510166688007033,-275.05812705175117,-43.77693220510576,-330.6593142621227,318.7828337804481,-91.56501657592406,280.9233675163708,504.2332972890549
175,27.001147461678258,-273.649059968927,-44.02846988542918,-350.4355081985109,339.3965315782359,-73.55057146059082,279.38326759592445,524.7565876915379
176,24.32293746100575,-272.16582852545446,-44.1815342603908,-370.23592287951413,357.889740217496,-55.297568037164496,277.7540140530117,545.0404281802118
177,21.520698244352342,-270.6422519036406,-44.22447566072048,-389.9442636656094,374.1653881664524,-37.02154056574277,276.0723216734,564.8967894485354
178,18.64119146441734,-269.11331001784527,-44.14757520657586,-409.46039077181325,388.163225051334,-18.937741307529397,274.3762169982117,584.1508205792306
179,15.731697158005879,-267.6147792934048,-43.943234897032866,-428.69989206600246,399.85979480697176,-1.2580999260386272,272.70456175660297,602.643024373287
180,12.838962887438113,-266.182816715278,-43.60612333114099,-447.5929072148806,409.26747609716523,15.811709718847915,271.0965268165662,620.2307237653969
181,10.008210613289556,-264.8534906967634,-43.133274028256324,-466.08227860426956,416.4325869484915,32.07505638374713,269.5910182732016,636.7888037440815
182,7.282223778081106,-263.66226205246494,-42.52413368573306,-484.1211388709211,421.4325956646108,47.34695096691943,268.226061444812,652.2097617728413
183,4.7005325700117755,-262.6434227232039,-41.78055806574041,-501.6700719337685,424.37252464142983,61.45641557010967,267.03815236205986,666.4031439270667
184,2.2987109019138656,-261.82950352285195,-40.906753774578135,-518.6940014415899,425.3806749127369,74.24857791847619,266.06158949409894,679.2944798454195
185,0.10779454198893845,-261.2506647046757,-39.909165120060266,-535.1589658271507,424.6038346825043,85.58644902395719,265.3278006320139,690.823854192299
186,-1.846173644897885,-260.9340843583492,-38.79630650867698,-551.0289328317402,422.2021629472093,95.35234865420992,264.86468082879446,700.944264644756
187,-3.5424682964253,-260.9033596370893,-37.57854239310962,-566.2627912871585,418.34395847749187,103.44895533683543,264.69595715482416,709.6199179879112
188,-4.965875878496243,-261.17793503243837,-36.267818403221106,-580.8116388351499,413.2005336530898,109.79997443723018,264.84059518900125,716.8246094394494
189,-6.106762180529047,-261.7725709016116,-34.87734880613007,-594.6164649224289,406.9414096137823,114.35043585739939,265.31226112244417,722.5403169106319
190,-6.961020456186115,-262.696864442755,-33.42126690675211,-607.6063095018981,399.73003154683005,117.06664747194601,266.1188523168626,726.7561202133809
191,-7.529911355438052,-263.9548342110654,-31.91424670841369,-619.6969579193644,391.7201707444523,117.9358387128277,267.26210804479143,729.4675241653242
192,-7.819808285070236,-265.54457793226635,-30.371106369454807,-630.7902107192132,383.0531367353863,116.9655309725066,268.7373108127056,730.6762260944707
193,-7.8418628260988505,-267.45801178819454,-28.80640671934681,-640.7737449655037,373.8558734286438,114.18266957850771,270.53308710477586,730.390327129596
194,-7.611604435538949,-269.68069760470183,-27.23406096534746,-649.5215637564227,364.23996258174157,109.63254772066207,272.63131461397853,728.6249480946027
195,-7.14848713407741,-272.19176258553546,-25.66697406722621,-656.8950151026539,354.30150973425475,103.3775470580371,275.0071410901983,725.4031787749536
196,-6.47539354720576,-274.9639145922555,-24.11673139326453,-662.7443511328614,344.12184491074214,95.49571397466832,277.62911795043027,720.7572660671715
197,-5.618103968963973,-277.9635546929429,-22.593355762367302,-666.9107931692305,333.76893517868433,86.07918625247878,280.45944996934327,714.7299328114192
198,-4.60473564131658,-281.15098789958574,-21.105149792640955,-669.2290659984366,323.29938003668053,75.23248410259698,283.454360844937,707.3757143835289
199,-3.4651557531432875,-284.48073257640294,-19.658636898781168,-669.5303635814442,312.76084399476997,63.07068308542142,286.56457317590275,698.7622028015869
200,-2.23037111709557,-287.90192867988236,-18.258609688931266,-667.6457067527011,302.19477311860265,49.71749421071066,289.73590021829904,688.9710963128178
201,-0.9318981766428438,-291.3588445641835,-16.908289219174268,-663.4096504482644,291.63924301107477,35.3032871224909,292.90994554249943,678.0989649296523
202,0.3988811683582962,-294.79148146063727,-15.609592768390424,-656.6642938556847,281.13179372770924,19.96310352511742,296.024905329517,666.257658480477
203,1.7313697000087587,-298.13627389961164,-14.36350167117472,-647.2635414935685,270.7121206598433,3.834716894438842,299.01646652951774,653.574302021825
204,3.0363996137860663,-301.32688325730686,-13.170514648785186,-635.0775554777045,260.42450680394006,-12.94320185895804,301.8187924351163,640.1908412859084
205,4.286857639148336,-304.2950802863689,-12.03116664588972,-619.9973278491198,250.319898523312,-30.23275620701743,304.3655854169144,626.2631157127979
206,5.458274631149368,-306.9717110057478,-10.946589069208104,-601.939286850009,240.4575425522403,-47.8982860808462,306.59121472522486,611.9594478666066
207,6.529363533263828,-309.28773869403665,-9.919084770936797,-580.8498340119779,230.90611670137483,-65.80758671282996,308.4318954154112,597.4587469518397
208,7.482490813265253,-311.17535278961725,-8.952689893116883,-556.7096921395549,221.74430157855326,-83.83286643966986,309.8269024683022,582.9481328542608
209,8.304068606013642,-312.5691330356662,-8.053694450495557,-529.5379298094032,213.06075699649512,-101.85144101327326,310.71980186075746,568.6200974661508
210,8.984857386075042,-313.40725419135845,-7.231094069460431,-499.3955174688864,204.95348554995775,-119.74617521516308,311.0596776808111,554.6692330821766
211,9.520171606120291,-313.6327133111905,-6.496946558872233,-466.38826493762593,197.52858688012776,-137.4056928983908,310.80233162650546,541.2885736327529
212,9.909983026921548,-313.1945583123196,-5.866609117845493,-430.6689911936925,190.89842758071813,-154.7243845290661,309.91142871917083,528.6656129492169
213,10.158918285138082,-312.04909354730506,-5.358835286083981,-392.43878528231505,185.1792709512192,-171.60224830016156,308.35956105399276,516.9780839006114
214,10.27614868263032,-310.1610355871381,-4.995715413959023,-351.9472318517865,180.48842612891895,-187.94460778402598,306.1292001299403,506.3896015199176
215,10.275171486070715,-307.50459066675216,-4.802450467009179,-309.4914958798545,176.94098747490486,-203.66175519667095,303.21350803009125,497.0452908196967
216,10.173483539707638,-304.0644244893301,-4.806956157108351,-265.4141886161315,174.6462436684101,-218.66857308827394,299.6169786953154,489.06753512413945
217,9.9921500851242,-299.8364954531476,-5.039302193249414,-220.0999707312623,173.7038434249544,-232.88418741334021,295.35588284165823,482.55199294234956
218,9.755274621455742,-294.8287239108742,-5.530999183101973,-173.97088872087,174.19981253971184,-246.23170116711577,290.45849371315273,477.56403996212566
219,9.489379372220004,-289.06147283158793,-6.314152794402783,-127.4804855699066,176.20252611168536,-258.6380503889729,284.96507580398674,474.1357964380254
220,9.222709905896359,-282.567819230492,-7.420510747769388,-81.10677461643381,179.75875084437445,-270.0340136520521,278.9276248593742,472.2638973695868
221,8.984480956051872,-275.39360089513525,-8.880432728984026,-35.34421380807564,184.88988451653665,-280.35439280774926,272.4093547098215,471.90815129394844
222,8.80408316551229,-267.5972290203151,-10.72181627682712,9.305137103057127,191.58853040132405,-289.5383684634948,265.4839344887526,472.99121122762426
223,8.710272429062595,-259.24926393138077,-12.969013275938897,52.341054561947146,199.8155498372656,-297.5300210007316,258.23448805707665,475.3993474668773
224,8.730364768635447,-250.43175760295526,-15.641772136163702,93.27493165849421,209.49773363078722,-304.2789986262442,250.752375449279,478.9843678151971
225,8.889460103600719,-241.23737265203354,-18.75424032372304,131.6396274234546,220.52622208383423,-309.74130780300186,243.13578329354786,483.5666794373414
226,9.209717831502692,-231.76829249649342,-22.314060761152927,166.99910148156127,232.75578542185988,-313.8801970467786,235.48815697394087,488.9394322158911
227,9.709705892650671,-222.13494127993076,-26.32159373117592,198.9575517112386,246.00505285777996,-316.66710141398625,227.91651158524044,494.873630957172
228,10.403842966250386,-212.45453516201442,-30.76929331851272,227.1677838737317,260.05775078456725,-318.08261180373376,220.5296616021745,501.12405735921317
229,11.301950576157337,-202.84948900476192,-35.64126423861503,251.3385622329071,274.66497958581294,-318.1174306378687,213.43641092038405,507.43580527402287
230,12.408928211541113,-193.44570458510356,-40.913021198664914,271.2407176747488,289.54852500467814,-316.7732737678609,206.74374569055098,513.5512059508459
231,13.724560314085881,-184.37076833339833,-46.551468518753175,286.7118239892255,304.4051646999314,-314.0636778234939,200.5550721799846,519.2169042362692
232,15.243459535131555,-175.7520883638443,-52.51511233679131,297.6592934219107,318.91189473040293,-310.01467303559605,194.96854081284278,524.1908423586468
233,16.955146503261854,-167.7150024038274,-58.754511325843346,304.0617887811655,332.7319659821957,-304.6652842789348,190.0754957050408,528.248914794739
234,18.844262831512005,-160.38089019676383,-65.21296484227517,305.96890011519895,345.52158915825197,-298.0678280907982,185.95908650342454,531.1910751262429
235,20.890911289377552,-153.8653258568444,-71.8274302982247,303.4990874674474,356.93714121866054,-290.28798089845816,182.69307605259888,532.8467025411614
236,23.071114756580208,-148.27630711707567,-78.52965452694043,296.8359454943167,366.64268815750364,-281.40460334848376,180.3408730529481,533.0790701345613
237,25.35738340671924,-143.7125989618406,-85.24749676114976,286.22289906950516,374.31762992993197,-271.5093166271822,178.95481301099187,531.7887975256962
238,27.719377115205987,-140.26222827955183,-91.90641320413246,271.9564902268618,379.66427296561073,-260.70583768152903,178.5757029688585,528.9162142575302
239,30.124647077457244,-138.00116350121746,-98.43106493664054,254.37846513037138,382.4151421903593,-249.10908975471833,179.23263547954025,524.4426051286117
240,32.53943721726057,-136.99220850251808,-104.74700240951043,233.86691423440283,382.3398548694619,-236.84411132738558,180.94306524321902,518.390350538635
241,34.92952274375255,-137.28413342310247,-110.78237178655705,210.82675769020204,379.2513897103773,-224.04478979522654,183.7131284913946,510.8220103184823
242,37.26106096918974,-138.9110568520445,-116.46958200736825,185.67989901924565,373.01159415903555,-210.85244619373975,187.53817190950238,501.8384251028824
243,39.50142898997614,-141.89208454009554,-121.74686783325448,158.855390860773,363.5357800274049,-197.414294714287,192.4034462376246,491.5759234861799
244,41.62002447631461,-146.23119992210928,-126.5596844327864,130.77996551712863,350.7962639083545,-183.88179675654357,198.28491122713785,480.20272686567296
245,43.58900934235396,-151.9173917285399,-130.8618740578702,101.8692785371551,334.82471732258205,-170.40892538927275,205.15009445361727,467.91464036485667
246,45.38398050394928,-158.92499439556664,-134.61655515085909,72.52019366276595,315.71320588440005,-157.15035413566048,212.95894690975354,454.93011252762807
247,46.98455601054067,-167.2142087046349,-137.79669791598417,43.10439974580447,293.61382023008395,-144.2595852473867,221.66464285163488,441.4847441286978
248,48.37486753009054,-176.73176422023275,-140.38536646805358,13.963593134627015,268.7368360575991,-131.88703703390698,231.21427923329333,427.82533235674344
249,49.54395100849081,-187.41168270029348,-142.37562470926736,-14.593617103158275,241.34738652860466,-120.17811587546637,241.54944059079327,414.20355370278935
250,50.48602655952338,-199.17610332037611,-143.77012000764392,-42.2930161045858,211.76068534787532,-109.27130416896952,252.60660800584006,400.86941695349856
251,51.20065714795576,-211.93613623854927,-144.58037460200663,-68.89434076593362,180.3358988655513,-99.2962990654217,264.317405270716,388.0646533102569
252,51.69277461889594,-225.5927200317699,-144.82582843916276,-94.18923428904903,147.46882517768432,-90.3722380553168,276.60869072737484,376.0162478727027
253,51.97256224671135,-240.0374696222927,-144.53268793119554,-117.9978483477055,113.58359202047322,-82.60604685179221,289.4025183081391,364.9303480853418
254,52.05518596810904,-255.15351300530838,-143.73264224714237,-140.16443536404955,79.1236287128548,-76.09094353037608,302.616004848072,354.9868021629852
255,51.96037194981881,-270.81632598201173,-142.46151198906858,-160.55234397930306,44.54219728652741,-70.90513105206351,316.1611517252202,346.33457630421253
256,51.71183564134367,-286.89458306357477,-140.75789462557208,-179.03887256276073,10.292782446097625,-67.11070804536921,329.9446765465761,339.08826836167526
257,51.336576118005105,-303.25104888353417,-138.6618672847951,-195.510443708895,-23.180361358288216,-64.75282458938223,343.8679143669988,333.3258777225799
258,50.86405828739127,-319.7435371899465,-136.21380096028017,-209.85853578829978,-55.45122379632586,-63.859105260853916,357.82684734776825,329.0879144401631
259,50.325313277634784,-336.2259634778255,-133.4533313464499,-221.9767476985423,-86.12036044707109,-64.43935558931173,371.7123166104133,326.3778490946925
260,49.75199299118766,-352.5495128599777,-130.4185206998052,-231.75928457057077,-114.82230750999568,-66.48556008891659,385.41046059290886,325.1638319099303
261,49.17541773619668,-368.5639377465296,-127.14523249134506,-239.10104186976045,-141.23191776437795,-69.97217002868179,398.80341134027697,325.3815522567394
262,48.62565596930086,-384.1189914261152,-123.66672658629787,-243.89934114054762,-165.06949171052898,-74.85666718106754,411.77026515314174,326.9380674944528
263,48.13067277361578,-399.0659946042782,-120.01346821627331,-246.05724158273054,-186.1046236562743,-81.08037671999955,424.1883281910963,329.71639894201803
264,47.715578949497996,-413.25952276193493,-116.21313052966855,-245.48822696463247,-204.15872717195606,-88.56948967310068,435.93462193897926,333.5806683686454
265,47.40200560340009,-426.55919287984386,-112.29075954743965,-242.12195601668358,-219.10624672355507,-97.23624458348921,446.88761844658734,338.38152866027156
266,47.20762027128651,-438.8315186651138,-108.26906312929145,-235.91067480056526,-230.87460139657244,-106.98021079234022,456.9291613814901,343.96162828904204
267,47.14579082716191,-449.95179423198203,-104.168782710859,-226.8358291619419,-239.44294146761558,-117.68961311994013,465.9465167445073,350.1608449401995
268,47.22539388828734,-459.8059578298722,-100.00910802652973,-214.9143901039611,-244.83982831646892,-129.24264047678398,473.8344872007947,356.82103487005804
269,47.45075618756577,-468.2923803630759,-95.80809994891031,-200.2044174713671,-247.1399721818373,-141.50868939788907,480.4975168392388,363.7900761213301
270,47.821711185986636,-475.3235187349595,-91.58309355176313,-182.80943594626586,-246.46018009518758,-154.34950723923427,485.8517090266696,370.92503671883424
271,48.33374943722003,-480.8273720394099,-87.35106100557772,-162.88127568993136,-242.9546776298213,-167.62021757815035,489.8266790231074,378.09436949678513
272,48.97823991738902,-484.7486798710723,-83.12892073611873,-140.6211286009664,-236.80997288407292,-181.1702304419831,492.36716542298205,385.17911542754064
273,49.74270046585495,-487.0498070291869,-78.9337847786393,-116.27867985487818,-228.23943007020497,-194.8440602619925,493.4343306401046,392.0731778714787
274,50.61109831463446,-487.7112678441154,-74.78314036778592,-90.14928401826506,-217.47771444691273,-208.48209258308052,493.0066907600795,398.6828022688976
275,51.56416601437775,-486.7318559529615,-70.6949648155442,-62.56925867160466,-204.77526130726807,-221.9213541795574,491.0806289096398,404.92545239946287
276,52.57972340659272,-484.1283608663503,-66.68777505816448,-33.909461497189525,-190.3929099288687,-234.99634850579167,487.6704631838607,410.72831051650223
277,53.633002074195666,-479.93487021511703,-62.780615134830825,-4.56739611913108,-174.59682872142227,-247.54001874972087,482.80805925131017,416.02664157349386
278,54.696974317941574,-474.20167515444615,-58.99298620977799,25.04184481669302,-157.65383972422444,-259.38489486188274,476.5419979713274,420.7622505942381
279,55.74269358531995,-466.9938147879276,-55.34472437409114,54.495446042313866,-139.8272285587604,-270.364470095937,468.93632837474377,424.88222860401913
280,56.7396569024998,-458.3893121175005,-51.85583143586753,83.37316777711004,-121.3730997734381,-280.3148377423938,460.06895459230697,428.33813092593505
281,57.656201796018145,-448.4771674347347,-48.54626357408417,111.26769427199649,-102.5373077385523,-289.0765999671521,450.02972026129623,431.0856691548121
282,58.45995025919669,-437.3551843559554,-45.4356824107955,137.79466767150697,-83.55296148267675,-296.49703790927606,438.91826471359127,433.08493320992176
283,59.118310641005394,-425.12770887160144,-42.5431728722366,162.6020746708074,-64.63847132577932,-302.43250672553387,426.8417318461546,434.30110079674205
284,59.5990451121142,-411.9033633937605,-39.88693216382153,185.37869838710583,-45.996080187105335,-306.7509944489223,413.9124155411772,434.7055450776507
285,59.87090567331993,-397.7928563138446,-37.4839342918736,205.8614013891652,-27.81080670391482,-309.3347633472648,400.24542527262537,434.2772213373694
286,59.904335504990144,-382.90694303817827,-35.34957490893997,223.84106493189378,-10.249722203126979,-310.0829791147426,385.9564520889521,433.00420046623077
287,59.67222483488709,-367.3546065818975,-33.497301930103674,239.16707131822312,6.538511657961232,-308.91422629791174,371.1597082059688,430.88521859141053
288,59.15070172630125,-351.24151443507304,-31.938238479371115,251.75027731580394,22.423904556009454,-305.7688067919873,355.96610287462624,427.9311241035553
289,58.31992936573929,-334.6687938782148,-30.680806602641074,261.5644819380925,37.29523793239411,-300.6107228035716,340.4817034840615,424.16612209874603
290,57.16487455447884,-317.7321510620419,-29.73036325928663,268.6464372336034,51.0600181572701,-293.4292578829479,324.80651513537094,419.6287389795747
291,55.676008766559434,-300.5213412450614,-29.088864309385706,273.09448414085455,63.644271429896506,-284.2400876489017,309.0335955425286,414.37245278300054
292,53.84990317570827,-283.11997987626575,-28.75457670859966,275.0659177872964,74.99215168242085,-273.08587048221426,293.24850612659526,408.46595339260216
293,51.68968137572343,-265.6056675154582,-28.721862881078465,274.7731986535458,85.06532529469975,-260.03628529365,277.52908506764686,401.9930095499186
294,49.20529774853428,-248.05038638555556,-28.981063552054096,272.4791268928754,93.84209804549985,-245.18750120182298,261.9455142753703,395.05192835129884
295,46.41361583191605,-230.52111358394458,-29.518505582274457,268.49108643292635,101.31625912324864,-228.66108491888951,246.5606406475994,387.7545997021426
296,43.33826939516451,-213.08058718949957,-30.316658860434305,263.15444635055985,107.49563435348641,-210.6023740877795,231.43050393286472,380.2251234751283
297,40.00929858624423,-195.78815807225428,-31.35446056773311,256.845185235938,112.40036516818073,-191.1783664452861,216.60502008800466,372.59802174273153
298,36.46256399735869,-178.7006627029261,-32.60781614576817,249.96178578739068,116.06095835618395,-170.57519541414982,202.12877061890887,365.0160445460213
299,32.738952508695014,-161.87326033158976,-34.05027472976233,242.91643638939445,118.51618122385027,-148.99528233563336,188.04185458711126,357.62758686321484
300,28.883399875120553,-145.36019039916656,-35.653863838709064,236.12557732428488,119.81090510713162,-126.6542715835851,174.3807694780693,350.5837468173725
301,24.943765529686,-129.21542111737307,-37.39005513686914,229.9998436284627,119.99402472484573,-103.77786367739199,161.17929794705347,344.0350699664582
302,20.969604040786518,-113.4931756680896,-39.23082136064619,224.93348514784577,119.1165981315011,-80.59866066419335,148.4693872702187,338.1280413076672
303,17.01088408949622,-98.24833651193246,-41.149735037619166,221.29338674020318,117.23035751458782,-57.35312720779455,136.28201513797487,333.0014058596326
304,13.116709076461985,-83.53673948283519,-43.12305320211963,219.4078664837708,114.3867304715676,-34.27875196087141,124.64803810125889,328.782421505545
305,9.334093286988237,-69.41537688681768,-45.13072960969135,219.55549421481746,110.63648238650772,-11.611469740617702,113.59901743957246,325.58317466877793
306,5.706843964665731,-55.94253236659376,-47.157297447683376,221.95424131334593,106.03004417440148,10.416621784385471,103.16801231110311,323.497118355536
307,2.274592931948874,-43.1778698297383,-49.19257123892795,226.75133750504614,100.61853060953526,31.579244828892243,93.3903232488027,322.5960177813172
308,-0.9279878269242317,-31.182494567366593,-51.23212591017925,234.01426216649503,94.45538982405844,51.65764405960371,84.30416207141408,322.92750316463525
309,-3.87176293515826,-20.018997381660682,-53.277522817964,243.72332657000007,87.59856200667429,70.4420524531951,75.9512186054147,324.5134236965002
310,-6.53349014312684,-9.751482932537607,-55.33626589942567,255.76630098810338,80.11297107950273,87.73298142379468,68.37709142505298,327.34916555229677
311,-8.895954517326656,-0.4455727578030694,-57.42148517080458,269.9355004450289,72.07313093616945,103.34240694677675,61.631549732120874,331.404041773794
312,-10.947887699343452,7.831637093737849,-59.55135855022501,285.9276636561614,63.56561916563439,117.09492704705062,55.76859639089755,336.6227929928846
313,-12.683687909740463,15.011692776303095,-61.748295346749345,303.346846087122,54.69115652457429,128.82896277020652,50.84630724637283,342.92816837360334
314,-14.102963307983185,21.025008829225225,-64.03791481747345,321.71041084278977,45.566030687272956,138.39806498983398,46.92642819069025,350.22449398062145
315,-15.209926738383812,25.80124154966352,-66.4478604556256,340.4580546305759,36.32261990474224,145.67237351738976,44.07371819364615,358.402082019054
316,-16.012673755406727,29.26984580672096,-69.00649516390229,358.9636649055908,27.108808068192527,150.54025340904374,42.35503334658981,367.34228748362995
317,-16.522378470426588,31.360845930695458,-71.74152462140015,376.5496804697517,18.086137681684598,152.9101068235497,41.83815405305704,376.9229797142011
318,-16.752443752342568,32.00584202701032,-74.6785965564208,392.50352921177546,9.426619266410418,152.71232873200697,42.590365211153824,387.0241692777927
319,-16.71764386117042,31.13926097075727,-77.83992286961296,406.0956470028519,1.3082000101565865,149.9013437295295,44.67680782317823,397.53351976303503
320,-16.43329829223153,28.699847327568033,-81.24297007617339,416.5985408474732,-6.091015678964762,144.457632457499,48.15862989235283,408.35148118777846
321,-15.914514798620223,24.6323742589456,-84.89926158083753,423.30634421486184,-12.59961329967702,136.38963305126723,53.09097440243645,419.39580531006936
322,-15.175536825058565,18.8895388020688,-88.81333292277694,425.5543183382012,-18.060524251998505,125.73538822857692,59.52085222991438,430.60523968094856
323,-14.22922583675548,11.433990601223059,-92.98187841582285,422.73777488535643,-22.33916856701363,112.5638037128101,67.48495774019241,441.94224276129876
324,-13.08670232565891,2.240429121626611,-97.3931246253947,414.32992785592734,-25.33171762177738,96.97538909408873,77.00749429912152,453.3946133075671
325,-11.757160847582734,-8.702307594329486,-102.02646262859507,399.8982219287228,-26.973085877507362,79.10236740839161,88.09808539718996,464.9759807517375
326,-10.24786483421564,-21.38924868734696,-106.85236637110837,379.1187280826158,-27.244257201480114,59.10806334321481,100.74985349413897,476.72515730214246
327,-8.564317045817571,-35.79748219888842,-111.8326178660454,351.788243588978,-26.178567908956616,37.185510340802004,114.93775175136408,488.7044051359295
328,-6.7105926105989875,-51.88462508544477,-116.92085085178238,317.8337819801629,-23.86660377260135,13.555252098287426,130.61723237689867,500.9967217608104
329,-4.689815034168934,-69.58766002023015,-122.06341269596614,277.3191902609134,-20.459419800518248,-11.537648151112046,147.72332874937345,513.7022923200099
330,-2.504752284981541,-88.8222188163498,-127.20053025732764,230.44868776100066,-16.169857153808014,-37.82733949777531,166.17021682949107,526.9342987695285
331,-0.1585095615494675,-109.48237847423,-132.26775002090798,177.56718624043117,-11.271807967558393,-65.03157056034725,185.85130500072648,540.814311511125
332,2.3447043998105053,-131.44101654192025,-137.19760727912706,119.15732528213263,-6.097361159559119,-92.85661593742107,206.63988098423596,555.467516278227
333,4.998761911085334,-154.55074828287837,-141.9214646501615,55.83323962078348,-1.0318441233537912,-121.0026005603855,228.3903206997328,571.0180427682458
334,7.7947802946802645,-178.64544065193883,-146.37144781248392,-11.668836146656615,3.4931494583585407,-149.16906250651942,250.9398380235681,587.5846566331155
335,10.72030015433468,-203.5422692386771,-150.482396672581,-82.50292673304126,7.0085898346451785,-177.0605876009046,274.1107275736555,605.2770503434316
336,13.7585201887668,-229.04425622178917,-154.19374379500917,-155.728344374837,9.01848742365288,-204.39235489167302,297.7130263811181,624.1929210274847
337,16.88763703647166,-254.94320231408133,-157.45122945259118,-230.3269954009965,9.011752897057914,-230.8954486014704,321.5474965729693,644.4159554618556
338,20.080342425483384,-281.0229059820686,-160.20836509827134,-305.2224840640543,6.475129729654386,-256.32181372564713,345.40881251584034,666.0147553014551
339,23.303530385028246,-307.06255045902805,-162.42756604040272,-379.3004544461379,0.9068358270100907,-280.44875318543717,369.0888248964216,689.0426335860068
340,26.51826375536086,-332.84013370654,-164.0808918583388,-451.4295542238618,-8.169502226494028,-303.08288110712977,392.3797732320878,713.5381070254756
341,29.680040888029787,-358.1358183910969,-165.15036137996964,-520.4823805376257,-21.191083470460303,-324.06345936956444,415.0773287415696,739.5258164948056
342,32.7393896905359,-382.7350879407242,-165.6278468532301,-585.3557947635426,-38.54281892173122,-343.265055007443,436.98337089183866,767.0175566078425
343,35.64279749408337,-406.431610629451,-165.51459378696268,-644.9900847222385,-60.5453426164747,-360.5994666910606,457.90843014579593,796.0131092692953
344,38.33396353692292,-429.0297360848394,-164.82044977011705,-698.3866110232286,-87.44457500995527,-376.0168809547673,477.6737616558387,826.5006651233284
345,40.75533892549071,-450.34657694123973,-163.56290839562973,-744.6237754179996,-119.40319610824515,-389.5062335029048,496.11304562229924,858.4567622267192
346,42.849899084116835,-470.21366097233124,-161.76607811516615,-782.8713471242877,-156.49430204811028,-401.09476660262885,513.0737373950176,891.8458289729667
347,44.56307708047807,-488.4781730435894,-159.45967096316525,-812.4033259553287,-198.69742970966848,-410.84678793504,528.4181131391381,926.6195374796853
348,45.844773147357756,-505.00383765593347,-156.6780778852336,-832.609570817005,-245.8970403354813,-418.8616472718901,542.0240740117184,962.7162190043173
349,46.651346619243014,-519.6715172525576,-153.4595637166213,-843.0063670044752,-297.8834520287777,-425.270955011385,553.7857815907904,1000.0605561534443
350,46.94749236428354,-532.379614691669,-149.84558381580803,-843.2459617238442,-354.3561016277101,-430.2350740242116,563.6141978272068,1038.5636640169607
351,46.70790586998392,-543.0443675093652,-145.88020227645018,-833.124902756619,-414.92890562766195,-433.938928865896,571.4375930047946,1078.1235352083158
352,45.91865013210364,-551.6001062627777,-141.60958128618105,-812.5908209891147,-479.1373928318937,-436.5871993371932,577.2020657238099,1118.6256893855998
353,44.57815297745663,-557.9995216841259,-137.0815113587468,-781.747153110457,-546.4472172036686,-438.39899977689714,580.8720921178037,1159.9437724779832
354,42.697783884720025,-562.2139506489855,-132.34495878249618,-740.8552402117587,-616.2636423775994,-439.6021865201513,582.4310910553972,1201.939821820795
355,40.301982563219696,-564.2336557425512,-127.44961493209392,-690.3332719707299,-687.9416220625983,-440.427474513493,581.8819624386604,1244.4639600128405
356,37.4279352627331,-564.0680439195667,-122.44543873255367,-630.7516636121187,-760.7961718604457,-441.10257076453513,579.2475314124548,1287.3533904106973
357,34.12481715253814,-561.7457508717854,-117.38218765421661,-562.8246302022434,-834.1128171606911,-441.84654086670207,574.5708159911915,1330.4307129770011
358,30.45263879304529,-557.3145110628009,-112.3089350772824,-487.397933451706,-907.157986664587,-442.86461332911557,567.9150312371338,1373.5017281846117
359,26.480750819828668,-550.8407384456838,-107.27357389095752,-405.4329965297451,-979.1892848962498,-444.34359655343985,559.3632496325056,1416.3530205736986
360,22.2860728221514,-542.408757703461,-102.32230828406121,-317.98779303545945,-1049.4656114949898,-446.44803910242905,549.017653097116,1458.7496924421148
361,17.951119699551953,-532.1196478912553,-97.49913781497087,-226.19509975273735,-1117.2571012373887,-449.3172112687374,536.9983348816235,1500.433641499485
362,13.561901619506587,-520.0896866830237,-92.84533994088657,-131.23884249546484,-1181.8548452169587,-453.062932144622,523.441636583101,1541.122743485984
363,9.205772395723336,-506.4484110007768,-88.398959074301,-34.32934800544509,-1242.5803317101715,-457.76821817331245,508.4980339225029,1580.5112212498082
364,4.969295961422861,-491.33633616754014,-84.19431156802577,63.321660165243586,-1298.794524512795,-463.4866906203282,492.3296123249615,1618.271373898007
365,0.936192140210707,-474.90239920002324,-80.26151663237721,160.5255105153516,-1349.906483523263,-470.24265225878116,475.1071981328059,1654.0567258451383
366,-2.8145877764401788,-457.30121108929694,-76.62606337630736,256.1397324652338,-1395.3814304417626,-478.03172873356215,457.0072321818719,1687.5065549670708
367,-6.210616487293189,-438.69021674159563,-73.3084245696004,349.089255241671,-1434.748170401474,-486.8219676874571,438.2084883930983,1718.2516811076325
368,-9.187548505500054,-419.22686896807596,-70.3237288803105,438.38511992874487,-1467.6057923330438,-496.5552972979427,418.8887502889028,1745.9213403702915
369,-11.690460182796148,-399.0659242922956,-67.68150535428798,523.1402917000966,-1493.6295793574984,-507.1492622996891,399.22156262515244,1770.150931025827
370,-13.674957756102954,-378.35696346547195,-65.38551625111651,602.5822878421294,-1512.5760595318275,-518.4989757489053,379.3731735218075,1790.5903868358293
371,-15.108042991422627,-357.24222884037266,-63.43369597330733,676.0624651869924,-1524.287114400597,-530.4792442314116,359.4997747058948,1806.9129082394074
372,-15.968728523201984,-335.854854814199,-61.81821365192132,743.0619322972417,-1528.6930404675861,-542.9468394321692,339.7451341494835,1818.8237595354005
373,-16.248397287699085,-314.31754715510914,-60.525674587145524,803.1941610938089,-1525.8144342261544,-555.7428990829682,320.23869708619327,1826.0688232290868
374,-15.950902838080097,-292.7417431418519,-59.53747159421999,856.2044642829903,-1515.7627541164588,-568.6954466275532,301.09420903579223,1828.4425955788229
375,-15.092409701195582,-271.2272586759304,-58.830291978960126,901.966575793739,-1498.7394100310535,-581.6220224716528,282.4088896190761,1825.7953135003033
376,-13.700975562637785,-249.86240316166644,-58.376779672498344,940.4766211914048,-1475.0332469010477,-594.3324196497251,264.2631608222008,1818.0389238563996
377,-11.815880705154528,-228.7245203497631,-58.146345216451785,971.8447955597655,-1445.0163259528892,-606.6315125435472,246.7209102721885,1805.1516429591804
378,-9.486715283041248,-207.88089521595595,-58.106109301005084,996.2850802090384,-1409.137966522275,-618.3221607737464,229.8302506858881,1787.180907892873
379,-6.772241265780874,-187.38995422716283,-58.22195895231419,1014.1033292969736,-1367.9170903408287,-629.2081647341893,213.62472175561763,1764.2445904623662
380,-3.739052032168891,-167.302679540203,-58.45968933326568,1025.684046323248,-1321.9330014865382,-639.0972458470225,198.1248705647486,1736.5304233734673
381,-0.4600575901697234,-147.66415705707982,-58.78619823698263,1031.4761536918468,-1271.8148280996238,-647.8040221846169,183.34014116405694,1704.2936686455803
382,2.9871729441926926,-128.51518356536454,-59.17069481360563,1031.9780430794854,-1218.2299361992705,-655.1529466179787,169.27100282845007,1667.8531336502447
383,6.522177149160876,-109.89386826342589,-59.58587957702981,1027.722186897716,-1161.8716934929014,-660.9811691923653,155.91124877084013,1627.5857068772639
384,10.063436350712859,-91.83717689344668,-60.00905029402702,1019.2595955520592,-1103.4470063077179,-665.141278233088,143.2504011786195,1583.9196415579029
385,13.530244190283444,-74.38238044800619,-60.42308885943893,1007.144420878708,-1043.6640719284135,-667.503866594374,131.27616283035093,1537.326858594654
386,16.844564042146214,-57.568383398224,-60.81728811452488,991.9190281378552,-983.2207797433548,-667.9598617716105,119.97685920459868,1488.3145682314857
387,19.932830041017393,-41.436917552157105,-61.18798436334625,974.0998796340266,-922.7941578069818,-666.4225529719508,109.34381728947905,1437.416519927235
388,22.727645421517867,-26.03359622503894,-61.53896989136521,954.1645845656057,-863.0311991570862,-662.8292465442039,99.37362778299584,1385.184180642853
389,25.169333294244275,-11.408828817706285,-61.88166863070377,932.5404664023955,-804.5413191894014,-657.1424851635529,90.07023585809281,1332.1781144260287
390,27.207299044229895,2.3814022099601826,-62.235066179599215,909.5949787846205,-747.8905979813702,-649.3507770251157,81.44680264065995,1278.9597947236741
391,28.801169724753823,15.274901801110508,-62.62539229289379,885.6282646798202,-693.5978567095084,-639.4687991230124,73.52727629754219,1226.0840308108984
392,29.92168340002858,27.20276545164057,-63.08555981911251,860.8681040713557,-642.1325121023059,-627.5370623287993,66.34760986410645,1174.0921365083623
393,30.551309691753385,38.08903874223854,-63.654369125700995,835.4674354808762,-593.9140540220689,-613.621053304045,59.9565642718812,1123.505917189167
394,30.684591286935593,47.85055735744131,-64.3754916635365,809.5045677768702,-549.3129059338767,-597.8098966903996,54.416040626710156,1074.822502908274
395,30.32820441863932,56.3970026420378,-65.29625081763022,782.9861216233703,-508.652363162651,-580.2146078254531,49.800895971791036,1028.5100132794944
396,29.500743810783337,63.63121741311195,-66.46622266666941,755.8526550539103,-472.21126461596396,-560.9660286909967,46.19821075364562,985.0040044885403
397,28.232243787642926,69.44983313520459,-67.93568356626598,727.9868363653951,-440.22704220262125,-540.2125551447851,43.7059924457924,944.7046207872972
398,26.56345203962921,73.74426092310185,-69.75393553546145,699.223932727524,-412.89880778396474,-518.1177693015734,42.431316913601606,907.9743519729178
399,24.544876136380044,76.4020939720214,-71.96754452713878,669.3642890804783,-390.390177376663,-494.85808581238,42.4879264685559,875.1362850424248
400,22.235625603667987,77.30895746848422,-74.61853111260024,638.1873844177117,-372.83159213076846,-470.6205049630233,43.993321021313214,846.4727330192064
401,19.702074484079002,76.35082417444258,-77.74255795518108,605.4669767521805,-360.32196955326447,-445.600540977765,47.06539631588447,822.2241272235201
402,17.01637100067166,73.41679076958745,-81.367163418637,570.9867886200494,-352.929599627962,-420.0003639214068,51.81870083919668,802.5880707026546
403,14.254822407687945,68.40228313555721,-85.51009532330916,534.5561456788495,-350.6922815494022,-394.02716165752923,58.36040036116254,787.7184691574324
404,11.49618442022568,61.21262970644696,-90.17780282881718,496.02496449436467,-353.61677077633385,-367.89169747696155,66.78605569450876,777.7246800294602
405,8.819885737567569,51.766912625948315,-95.36414740214337,455.29749320766405,-361.6776670941074,-341.8070117179081,77.17533460392471,772.6706486904097
406,6.304218993215786,40.00197877556196,-101.04939547464696,412.34424005829834,-374.8159179450004,-315.9871941449887,89.58779209160888,772.574031032959
407,4.024529907653516,25.876468776854697,-107.19955494155835,367.2115781530972,-392.93713496726554,-290.6461401576468,104.05886341250442,777.4053325059856
408,2.05143662887247,9.374703572718877,-113.76611388802844,320.0285884281281,-415.9099252771761,-265.99619993257795,120.59621972487996,787.087123501487
409,0.44911150662588534,-9.489743364189685,-120.68623163089687,271.0107946092287,-443.5644247453518,-242.2466365147596,139.17663607892203,801.4934191245452
410,-0.7263418631692949,-30.670963598722498,-127.88341878552296,220.46055249536633,-475.69119282375215,-219.60182658263037,159.74351494988983,820.4493369534434
411,-1.4283823131170903,-54.088291112407575,-135.26872488291826,168.7639793689632,-512.040593457422,-198.25916468819673,182.2051957853656,843.731168336643
412,-1.6213595007674046,-79.62469501083552,-142.74242995277723,116.38444559114372,-552.3227507869941,-178.40666576001504,206.43416233867973,871.0670155386914
413,-1.2816380243451801,-107.1261192529464,-150.19621174062448,63.8527960422648,-596.2081372094743,-160.22029866795611,232.26723518474128,902.1381563491673
414,-0.39847404901299704,-136.4018681776349,-157.5157344880613,11.75461830992538,-643.3288280677473,-143.86112278232144,259.50680694235905,936.581295952429
415,1.0254039556909682,-167.22609567216992,-164.58358013509772,-39.284980975928924,-693.2804418089326,-129.47233691684073,287.92314217913014,973.9918476875806
416,2.973563701717501,-199.34040907629688,-171.28241960758191,-88.618500108035,-745.6247739286798,-117.17638300759441,317.2577222518312,1013.9283442262453
417,5.416042435926534,-232.45754915866505,-177.49830137507107,-135.59436712085528,-799.8931226784653,-107.07227230013841,347.22756761308705,1055.9180152069016
418,8.309977437494812,-266.2660572945631,-183.12391775036286,-179.57568475385247,-855.5902898167041,-99.23331618727862,377.53041843536636,1099.4634774090105
419,11.600733628701551,-300.43579207007235,-188.06169821816673,-219.95856251816826,-912.1992183445324,-93.70544293703051,407.850602857704,1144.0503756353312
420,15.223544352526215,-334.62411118586635,-192.22657648208278,-256.1891840473346,-969.1862026129371,-90.50626055417445,437.86537629308793,1189.1556994635005
421,19.105645341809335,-368.482492621525,-195.54828846011256,-287.77878391978123,-1026.0065794315483,-89.62498093981165,467.2514812955044,1234.2564025405734
422,23.168836901948776,-401.6633353027639,-197.97308656035983,-314.31579752252924,-1082.1107880618426,-91.02325111308257,495.6916611587066,1278.8378916577867
423,27.332362072788673,-433.82665974989493,-199.46480165566675,-335.4746203662733,-1136.9506761271784,-94.63684981314482,522.8808648180675,1322.4019554270678
424,31.51594729454537,-464.6464297151296,-200.00524135308666,-351.0206771622584,-1189.9859271819025,-100.37811532942781,548.5319049912998,1364.4737768537307
425,35.64282387460998,-493.8162411845389,-199.5939685036146,-360.8118342290078,-1240.6904907546398,-108.1388894971858,572.3803722801204,1404.6078058489843
426,39.642537495352265,-521.0541758832777,-198.2475446953037,-364.796535256507,-1288.5589039168706,-117.79370864652108,594.1886614117394,1442.3924177279
427,43.45336075611463,-546.1066880319204,-195.9983432606557,-363.0093270612496,-1333.1124029366279,-129.2029549399166,613.7490288835555,1477.4534068642613
428,47.02415010670558,-568.7514762301042,-192.89303623743234,-355.5646098666128,-1373.9047334906963,-142.2157043973516,630.8856698715533,1509.4564353990809
429,50.3155313455369,-588.7993745643706,-188.99084590374926,-342.6494726679535,-1410.5275785382348,-156.67206738822824,645.455869380775,1538.1085806276262
430,53.30035271682923,-606.0953655556089,-184.36163215213085,-324.51637069346174,-1442.6155360635414,-172.40490263074946,657.350339215756,1563.1591257633804
431,55.963405261198275,-620.5188624007935,-179.08387017947555,-301.4762035810896,-1469.850596114424,-189.2408801127081,666.4928903708008,1584.3997385879052
432,58.30046920709389,-631.9834246182953,-173.24256469255127,-273.89210456554434,-1491.966086794647,-207.000953504778,672.8396056862739,1601.6641867011028
433,60.316795868321975,-640.4360616160673,-166.92714863116015,-242.17399942003132,-1508.7500775181625,-225.50036430895645,676.3776706982402,1614.8277391072231
434,62.02517149163144,-645.8562498938435,-160.22942263720512,-206.7737796972678,-1520.0482387421994,-244.5483325965725,677.1239958355817,1623.8063914707661
435,63.44373034008821,-648.2547507246109,-153.2415990859917,-168.1807851456566,-1525.7661555161233,-263.9475968518946,675.1237266344649,1628.5560221191683
436,64.59368931924122,-647.6722748254156,-146.05451472283727,-126.91721586246206,-1525.8710753196483,-283.4939581074934,670.4486971597497,1629.0715407143077
437,65.49716773839671,-644.1780053785219,-138.75606569415822,-83.53309223403873,-1520.3930405074807,-302.9759705535753,663.1958419932537,1625.3860387387156
438,66.17523621069493,-637.8679650685211,-131.42989937406784,-38.60043664487773,-1509.425318367132,-322.1749063339518,653.4855496252314,1617.5698988368458
439,66.64631128639557,-628.8631982708291,-124.15437328902811,7.293552517962366,-1493.1240071364136,-340.8651056317752,641.4599183140906,1605.729776281915
440,66.92498007093624,-617.3077356143691,-117.00176805776408,53.554444168404196,-1471.7066751205148,-358.8148020998243,627.2808652553193,1590.0073367395273
441,67.02130431887129,-603.3663129732357,-110.03772328172582,99.58961528045894,-1445.4498907546554,-375.7874873011484,611.1280401406219,1570.5776243614957
442,66.94061844851979,-587.2218283646059,-103.32085551652742,144.81824055829983,-1414.6855280959114,-391.5438476699984,593.1965030763331,1547.646944630396
443,66.68380244304124,-569.0725363193349,-96.90251628854222,188.68196364575468,-1379.7957841135997,-405.84427685329547,573.6941424294822,1521.4501758828196
444,66.24798030691107,-549.1289982985194,-90.82665416725055,230.65588282144788,-1341.2069163650972,-418.4519384298332,552.8388284393976,1492.2474677873172
445,65.62756891564064,-527.6108279069624,-85.12975556001635,270.2594122602237,-1299.3817934381934,-429.1363307365918,530.8553211328586,1460.320337353628
446,64.81558170754596,-504.7432893089144,-79.84085098475833,307.06654200773295,-1254.8114343580078,-437.67728657549225,507.971973940866,1425.9672247710641
447,63.80507769235588,-480.753824882988,-74.98158399101901,340.71501827836306,-1208.0057850399594,-443.86932383949,484.41729545948095,1389.4986143929414
448,62.590639804463024,-455.86860239293367,-70.56634644845383,370.9139996572923,-1159.4840304380127,-447.526245834172,460.4164494851582,1351.231855191697
449,61.16976850583222,-430.3091814149585,-66.60248595891365,397.4498106120642,-1109.7647656226222,-448.485870626576,436.18778659763973,1311.485828975318
450,59.54408655663212,-404.28940219624786,-63.090589425381154,420.1895052153633,-1059.3563482833576,-446.61474801718833,411.9395082862877,1270.5756166674475
451,57.72026769355315,-378.0125967484065,-60.0248428335798,439.0820628538585,-1008.7477343268392,-441.81270435041,387.86656644037726,1228.8073087814475
452,55.7106236222596,-351.6692116660067,-57.39346289541947,454.1571545788233,-958.400065384697,-434.0170445840408,364.1478969169626,1186.4731023169868
453,53.533308273319236,-325.43491546589956,-55.17919307521307,465.52153473099236,-908.7392400733019,-423.20624208351506,340.94407632994273,1143.8468273022859
454,51.21212393161292,-299.4692415738029,-53.35985556606333,473.35322069765374,-860.1496641083487,-409.40295958914413,318.39547719848815,1101.1800523365948
455,48.77593894133595,-273.914793348554,-51.90895193183895,477.89371966190856,-812.9693377512574,-392.6762652761132,296.6209793751525,1058.6989254285247
456,46.25774973465992,-248.89701121611768,-50.79630795465087,479.438640894556,-767.486400864157,-373.1429310537063,275.7172760020557,1016.601908392255
457,43.693440124622384,-224.52447494181624,-49.98876224220807,478.32709005144676,-723.9372154337144,-350.96772481277264,255.7587904484825,975.0585554246128
458,41.1203079513418,-200.88968746090532,-49.450902423647484,474.930273037007,-682.5060222091204,-326.3626340849691,236.79819744701618,934.2094653057748
459,38.57544291226894,-178.07026262091983,-49.145855784207455,469.6397400133362,-643.3261602711065,-299.58498374472094,218.86751835196281,894.1674984870812
460,36.09404870902802,-156.1304203030737,-49.03614133815014,462.8556777185228,-606.482784347574,-270.9344334392548,201.97973884149366,855.0202942934104
461,33.70780630656155,-135.1226810819563,-49.084586603665294,454.97561418426585,-572.0169549222825,-240.74886298715833,186.13087928786268,816.8340523809361
462,31.44337262921571,-115.08965048797033,-49.25530484869946,446.3838376024817,-539.9309127665606,-209.39917955442877,171.30243517490268,779.6584612170877
463,29.321100847649603,-96.06579068636144,-49.51471845838127,437.44175468192554,-510.19428604549944,-177.28311156503565,157.46409866589923,743.5325702515936
464,27.354055363746856,-78.07909433092408,-49.83260286063741,428.47933012220363,-482.7509207635349,-144.8180924521565,144.5766729036778,708.4913194585583
465,25.547377425631197,-61.152599174143866,-50.183114720722315,419.78766738536115,-457.5259831486503,-112.43338361272453,132.5950962660288,674.5723712453887
466,23.8980368557224,-45.30570899120995,-50.54575952343746,411.61272255775657,-434.43296528967596,-80.561638911475,121.47150152730117,641.8228469974829
467,22.39498289443128,-30.555312626539823,-50.906248742554354,404.1500969114196,-413.3802393387453,-49.63016591203492,111.15824161959158,610.3055609560897
468,21.01968427444255,-16.916715576181357,-51.25719664533571,397.54083415874226,-394.27685212449967,-20.0521815907654,101.61081774833698,580.1043687845678
469,19.747027413566638,-4.404415485554539,-51.59861179979243,391.8681534795518,-377.0373270848289,7.781615152205175,92.79064679197093,551.3283035247845
470,18.546524302395095,6.967237134290414,-51.93814805817093,387.15507268923193,-361.5853345692557,33.510829777510246,84.66760395078894,524.1142503616348
471,17.383769582967066,17.183449363314097,-52.29109271438014,383.3629095309049,-347.85619130190867,56.81221650122897,77.2222748618854,498.62800344752253
472,16.22207905120231,26.228428694719,-52.68008356285984,380.3906859858926,-335.798242346718,77.40533014210448,70.44785055559187,475.06364290340076
473,15.024238073834008,34.08483007715903,-53.13455971927724,378.0754953008204,-325.3732564283647,95.05680509189952,64.35160032089617,453.6412609414876
474,13.754287501897737,40.733194065532054,-53.6899619990861,376.1939208048445,-316.55602453339515,109.58316085504237,58.95586296477872,434.6031486903659
475,12.379276774297235,46.151380786132506,-54.38670682276378,374.46461830033627,-309.33338982694727,120.85211302340879,54.29850658633781,418.2086268753579
476,10.870919105544663,50.31402333122055,-55.2689629382246,372.5521893778351,-303.70295059340134,128.78244227947164,50.43282048156945,404.7277613816703
477,9.20709109945239,53.192042444696824,-56.383262988964844,370.0724798506397,-299.67166447938024,133.34253984010755,47.42681897827894,394.4342462602742
478,7.373127357424763,54.75228012669779,-57.77698283642805,366.59943234037087,-297.2545431837118,134.54780372128624,45.361954268116136,387.5977595100763
479,5.362868413375438,54.95732124061939,-59.496721811912685,361.67360093891097,-296.4735687926338,132.45710363736396,44.33125226291398,384.4760994633311
480,3.179427127589924,53.76557766214373,-61.58661812818837,354.81239584112774,-297.35689696060444,127.168560870812,44.43690143173042,385.3073923273532
481,0.8356447503273751,51.13170759138157,-64.08663637957875,345.52206591643176,-299.93834954991087,118.81490222560237,45.78733940602521,390.3026282146906
482,-1.6457860261346553,47.00743258412993,-67.03086834666966,333.31134863968435,-304.25714961233217,107.55864495605952,48.493896291493975,399.63874117050534
483,-4.232546698449945,41.34279687162576,-70.44589347409625,317.7066228473697,-310.3578205234318,93.58735385403922,52.667067766044,413.4524072184234
484,-6.883274478419442,34.08788894959782,-74.34925038601767,298.2682951806221,-318.2901600827231,77.10918416730256,58.41250560081285,431.8347003837772
485,-9.548496902642727,25.195016234370897,-78.74807456134225,274.6080417956741,-328.1092065785573,58.34888652580092,65.82682799107366,454.82672242529884
486,-12.171905219219688,14.621291984541479,-83.63795890606876,246.4064198132092,-339.8751308838054,37.54440457001576,74.99336623302942,482.4163048691738
487,-14.69193954404311,2.3315618133211253,-89.00209286772764,213.4302653975438,-353.6530085688495,14.944144540254218,85.97797669824283,514.5358660268174
488,-17.043645486388566,-11.698432856257158,-94.81073164191571,175.54921482179753,-369.5124412394791,-9.195059387991671,98.82505631390725,551.0614853039932
489,-19.160748995045072,-27.47878281576058,-101.02103983219459,132.75062870030698,-387.52700187714936,-34.60931774105731,113.55390428137468,591.8132296035624
490,-20.977884527423868,-45.002178288099266,-107.57734385475194,85.15217438178983,-407.7734738066938,-61.02848696240882,130.1555713063213,636.5567333417729
491,-22.43290200631205,-64.24087402618933,-114.41181488429685,33.01133259953328,-430.33083975290975,-88.17654251500453,148.59032963537496,685.0059988012594
492,-23.46917083260355,-85.1440126578108,-121.44558957904856,-23.26885476013566,-455.2789613579884,-115.77171162924833,168.7858828071303,736.8273520695889
493,-24.03779480129212,-107.63545876219379,-128.5903193997034,-83.13838733040983,-482.69687603829436,-143.5265858722933,190.6364137753472,791.6444649653855
494,-24.099650677103558,-131.61227893038074,-135.7501213803563,-145.90371957432868,-512.6606316450084,-171.14845101594176,214.00254485837158,849.0443358943407
495,-23.627166335439075,-156.9439771896222,-142.8238841829993,-210.7362768365687,-545.240582989487,-198.34007131224303,238.71225385019827,908.5841107719169
496,-22.605762472122727,-183.4725622550061,-149.70786351638202,-276.68616608642077,-580.4980895452726,-224.8011451918347,264.5627583001966,969.7986156217795
497,-21.034894378718118,-211.01348574265987,-156.29848085364875,-342.70094665694796,-618.4815814255072,-250.23060894194353,291.32334463687977,1032.208461418953
498,-18.928645121231337,-239.35745194649658,-162.4952195057514,-407.6490791694604,-659.2220014394322,-274.329906239087,318.7390806670689,1095.3285657847298
499,-16.315836432933626,-268.27306276626723,-168.20349380279126,-470.34741013882496,-702.7276841978339,-296.80726933197803,346.5353100887529,1158.6769119978894
500,-13.239637933131029,-297.51022722880936,-173.337352912044,-529.5917851006901,-748.978796550811,-317.38297743153913,374.4227886300087,1221.783329512486
501,-9.75666980047214,-326.80423387002173,-177.8218749881368,-584.1896311294018,-797.9215319559062,-335.7954729429216,402.103287431149,1284.1980277900707
502,-5.935610488826712,-355.8803559627726,-181.59511546304975,-632.9931395921041,-849.4623173561583,-351.80812888675825,429.27546532214035,1345.4995485846057
503,-1.855341061184998,-384.45883495307766,-184.60950006143577,-674.9315544169531,-903.4623478285746,-365.21637507762705,455.64080225276604,1405.3017386544723
504,2.3973181313849734,-412.260068251139,-186.83259965683808,-709.0410749092279,-959.7328068365299,-375.8548135295156,480.9093934932,1463.2593219741684
505,6.730195698658333,-439.00981591859437,-188.24728523716504,-734.4910420477514,-1018.0311542767856,-383.6038949560091,504.80542625368923,1519.0717073759174
506,11.048573888197627,-464.44423901824734,-188.85132490887847,-750.6053832455773,-1078.0588641215675,-388.3956987041514,527.0721907338099,1572.4848179885812
507,15.258082481873172,-488.3145923881072,-188.65653508863187,-756.8786913422784,-1139.460958651337,-390.21836719256663,547.4765090848078,1623.290944172229
508,19.267547748857076,-510.3914175329276,-187.6876217436935,-752.9867306760692,-1201.8276083385927,-389.1187977816671,565.8124948451034,1671.3268408209974
509,22.991668427898272,-530.4681166439182,-185.98084095563175,-738.791517834105,-1264.6979447679273,-385.20328757358357,581.9045834139196,1716.4704491348011
510,26.353408050658167,-548.3638328355305,-183.58257836785307,-714.3413641281583,-1327.5660806181647,-378.63595045009896,595.6098033280396,1758.6366848391483
511,29.286017744990108,-563.9256073069099,-180.54790824783748,-679.8663780532738,-1389.8891676491598,-369.63486847147317,606.8192872202688,1797.7727010997628
512,31.734631918325462,-577.0298226096875,-176.93915880889548,-635.7699355265946,-1451.0971746790792,-358.4660903590759,615.459045642375,1833.8529383109053
513,33.65740760352818,-587.5829664963649,-172.8244894135014,-582.6165857172812,-1510.6039518957016,-345.43573711384875,621.4900423855046,1866.8741595323997
514,35.026204374396315,-595.5217623948151,-168.2764786539657,-521.1168260062325,-1567.819078340324,-330.8806051013994,624.9076163722978,1896.8505778543492
515,35.826823843370484,-600.812714784765,-163.37072614655654,-452.109186863157,-1622.1599729610136,-315.15775435194604,625.7402959500841,1923.809132325216
516,36.0588446927897,-603.4511169242563,-158.18447900978535,-376.5401204523795,-1673.0637862951246,-298.63362182246703,624.0480508393575,1947.7849658927312
517,35.73510062784385,-603.4595697446789,-152.7953009250989,-295.44226286565373,-1719.9986707758658,-281.67320196754406,619.9200285948806,1968.8171899793745
518,34.880854952907235,-600.8860671423123,-147.27980435210802,-209.91170645759226,-1762.4741354896507,-264.62979547242554,613.4718282505206,1986.9450648003217
519,33.53272741674544,-595.8017145477696,-141.71246452740547,-121.08495062781546,-1800.0503041852808,-247.83575233009424,604.8423741928166,2002.2047610374184
520,31.737427330971204,-588.2981623932175,-136.16452881541895,-30.11618633245521,-1832.3459932615062,-231.5945399978106,594.1904667405039,2014.626881876921
521,29.550342380526747,-578.4848502142412,-130.70302907005265,61.84448576507071,-1859.0455954630004,-216.17436309438892,581.6910994325881,2024.2349079551473
522,27.034025646209304,-566.4861667272223,-125.38990006174991,153.6713917838383,-1879.9047897221085,-201.80345876487957,567.5316433498975,2031.0446824926482
523,24.25661514359973,-552.4386335006468,-120.28120523780807,244.28177349217026,-1894.7551007036102,-188.66709971843088,551.9080034736216,2035.064986864866
524,21.290212240222395,-536.4882137238685,-115.42647257514913,332.65214638296425,-1903.5073114481788,-176.90625902572597,535.0208501297612,2036.2991782345262
525,18.209239500094274,-518.7878338679868,-110.86814711694838,417.83236067872036,-1906.1536998288384,-166.6178265350908,517.0720204567656,2034.7477809191691
526,15.088796230393003,-499.4951869139414,-106.64117090355114,498.95730203228305,-1902.769035422457,-157.85621395300797,498.26117208617774,2030.4118507067312
527,12.003031683605736,-478.77086381117743,-102.77270328904879,575.2562495917978,-1893.5102478552615,-150.63614349373714,478.78275563881573,2023.2968737609224
528,9.02356064915195,-456.7768369005782,-99.28199373800867,646.0599663510952,-1878.6146675008263,-144.93638443780364,458.8233556197014,2013.4169243944916
529,6.217951964202478,-433.67529653858855,-96.18041475570205,710.8056348403121,-1858.3967467003058,-140.70418342542996,438.55943180158204,2000.7987908284895
530,3.6483247825487584,-409.62782112272566,-93.47165534561174,769.0397764685897,-1833.243193488573,-137.86012779733807,418.1554760530403,1985.485784575631
531,1.3700887818494356,-384.79484197376695,-91.15206716052259,820.41931003405,-1803.606488779533,-136.3031875287237,397.76258369484776,1967.5409762004674
532,-0.569136935229625,-359.33534878916186,-89.21114856904926,864.7109169121569,-1769.9968100541635,-135.91570088434864,377.517424795786,1947.0496457737063
533,-2.130394719137356,-333.4067694060788,-87.63214773075651,901.7888878814974,-1732.9724456215572,-136.5681001655278,357.5415902383606,1924.1207953554451
534,-3.2840221636967866,-307.1649503480229,-86.3927647858131,931.6316275131661,-1693.1288485567848,-138.12321342792583,337.94128073463673,1898.8876365804385
535,-4.010028465793878,-280.7641631262525,-85.46593482786157,954.3169829049224,-1651.086545539628,-140.44002342450528,318.8073049900274,1871.5070335103403
536,-4.298201785934988,-254.35706614119755,-84.82067641506939,970.0165415450601,-1607.4781816797392,-143.376815560805,300.21535608561544,1842.1579459800435
537,-4.147946640210427,-228.09456277854704,-84.42299390196466,978.9890091503921,-1562.9350450076201,-146.79370089280246,282.226541906266,1811.0389781665829
538,-3.5678616153215095,-202.12551136325965,-84.23682496533948,981.5727378056658,-1518.073467252579,-150.55455367485092,264.8881540765508,1778.3651860684854
539,-2.5750783762473275,-176.59626031229564,-84.2250266285067,978.1774355397037,-1473.4815326875084,-154.5284487811719,248.2346682516697,1744.364330699715
540,-1.194392088322587,-151.65000095365468,-84.35039306718502,969.2750579633014,-1429.7065374183558,-158.59071573035436,232.28897517074876,1709.2727776070897
541,0.5427798386131393,-127.42595027893947,-84.5766958392432,955.3898658976082,-1387.2436243293705,-162.62373850954705,217.06384550595388,1673.331237745845
542,2.5995702209351004,-104.0583954544342,-84.86973190786647,937.0876331926061,-1346.5259747137966,-166.5176223775369,202.56363125705118,1636.780523283042
543,4.934925389335498,-81.67565001762942,-85.19835767168733,914.9640077803857,-1307.916870305434,-170.17082218102917,188.7862013247957,1599.8574602843291
544,7.504921799412233,-60.39898698367977,-85.53547935301594,889.6320663042605,-1271.703855237971,-173.4907874641027,175.72509824876042,1562.791064891783
545,10.264102316800999,-40.34162521705318,-85.85896298903931,861.7091569597263,-1238.0951342410076,-176.3946375610619,163.3718867990521,1525.799056807183
546,13.16680143362774,-21.607851070675917,-86.15242260477004,831.8031948418574,-1207.2182486598533,-178.80984503998667,151.71864414022897,1489.0847590562958
547,16.168429867842097,-4.292356358242043,-86.40584437609947,800.4986572450127,-1179.120980842082,-180.67488418440473,140.76051807759993,1452.8344191236106
548,19.226688826739185,11.520134492795071,-86.61600841063884,768.342618813195,-1153.7743532256852,-181.9397929622216,130.49825818141122,1417.2149830737117
549,22.302683296855214,25.7548910833271,-86.78667801684533,735.8312594967854,-1131.0775144793606,-182.5665992698808,120.94060853202502,1382.3723575489357
550,25.361902454770245,38.34682391993802,-86.92853818879969,703.3973587038819,-1110.8642459035796,-182.52957153822095,112.10644387787774,1348.4301991381487
551,28.375034248402965,49.23974855874963,-87.05887925167079,671.3993415324028,-1092.9107813479136,-181.8152661116218,104.02653492877253,1315.4892709323242
552,31.318581525153647,58.38530010494781,-87.20103658305604,640.1124537982196,-1076.9446150830668,-180.42235542164804,96.74484295594465,1283.6273980278124
553,34.17524999950987,65.7415694709586,-87.38361108212652,609.7226028727104,-1062.6539730652814,-178.36123008251758,90.31926621994276,1252.9000361876842
554,36.93408435447392,71.27156883295575,-87.63950538032738,580.3233091909541,-1049.6976398395575,-175.65337557419718,84.8217866169776,1223.341442771609
555,39.590337679318985,74.94166250265349,-88.00481584094548,551.9160744877197,-1037.7148606696032,-172.33053206806028,80.33798961396705,1194.9664100380073
556,42.14507087694029,76.7201166552325,-88.51761979694422,524.4143002598522,-1026.3350713187697,-168.4336548709452,76.96595089015462,1167.7724915897397
557,44.60449197781115,76.57592431031736,-89.21669267624449,497.65070123210813,-1015.1872423451564,-164.011701959756,74.81449860234981,1141.7426254841166
558,46.97905930779044,74.47804990883235,-90.140183113881,471.38797225528725,-1003.9086582875516,-159.12028262110329,74.00087256547624,1116.8480336021585
559,49.282385781058196,70.39521199425072,-91.32426819219707,445.3322991021763,-992.1529835077774,-153.82020620100423,74.64781363243686,1093.0512572988778
560,51.52999312880608,64.29628579923596,-92.80180720704472,419.1491656313963,-979.5974956616556,-148.17597206380785,76.88013054461572,1070.3091758636658
561,53.73797396270286,56.151363896938435,-94.60101153114839,392.480808567262,-965.9493953170661,-142.25424137480383,80.82080847019832,1048.5758492653024
562,55.92162582974163,45.933466640877754,-96.74415011475728,364.96460930931426,-950.9511264271765,-136.12232902552887,86.58674275663749,1027.8050320761633
563,58.09412466340174,33.62084867858102,-99.2463143605023,336.2516891366441,-934.3846667320646,-129.84675083846133,94.28420162120884,1007.952222085259
564,60.265305275300676,19.199806683015364,-102.1142717922556,306.0249870886272,-916.0747684724439,-123.49185790980397,104.00414091582802,988.9761339567299
565,62.44061387256806,2.667859266414051,-105.34544410024172,274.0161445307448,-895.8911465916453,-117.11858714040216,115.81751104551361,970.8395231192694
566,64.62029219207255,-15.962855448229266,-108.92705042927379,240.0205921660708,-873.7496229176611,-110.78335510710016,129.77070893910712,953.5093251382938
567,66.7988449057391,-36.662135113642364,-112.83545992416026,203.91032888160063,-849.6122407731018,-104.53712185407169,145.8813353888784,936.9561184765536
568,68.96483158107394,-59.3783980078833,-117.03579803313816,165.64399157062567,-823.4863664672741,-98.42465218928173,164.1344195396183,921.1529613322215
569,71.10101153526129,-84.03567048344131,-121.48184912272909,125.27393428331692,-795.4227948364882,-92.48400432384159,184.4792677568315,906.073693822577
570,73.18485405438578,-110.53103681555919,-126.1162940482241,82.95015620514656,-765.5128791686981,-86.7462778281162,206.8270834361611,891.6908331855151
571,75.18940746390743,-138.73268925439734,-130.87131576392537,38.921032859360785,-733.8847160062899,-81.23565250884286,231.04948711018685,877.9732207885603
572,77.08449879700797,-168.47868683170915,-135.6695986993203,-6.469095265789415,-700.6984369481771,-75.96974426541607,256.9780416934754,864.8836055776002
573,78.83821244858751,-199.57649739725554,-140.4257376927727,-52.78534682484184,-666.1406955553592,-70.96029157082147,284.40485516170816,852.3763699306446
574,80.41857299887138,-231.8033618879981,-145.04805863329904,-99.51056223285838,-630.4184871541357,-66.21416727580257,313.0842928462299,840.3956210248703
575,81.79533642906097,-264.9074868791319,-149.4408346664341,-146.05621811002445,-593.7524971671203,-61.73468731831402,342.7357865888789,828.8738816406892
576,82.9417774686791,-298.61004457219053,-153.506858268548,-191.77581617775056,-556.3702293502683,-57.5231638632095,373.047683079962,817.7316123085167
577,83.83635127885972,-332.60794091532887,-157.15030034871208,-235.98057868197247,-518.4992063175104,-53.58062795692167,403.68203409514905,806.8777715517317
578,84.4641076900059,-366.5773030621666,-160.27975343898675,-277.9572638541843,-480.36054960769167,-49.90962708677906,434.28020089861127,796.2115638297897
579,84.81774776926247,-400.1776350349916,-162.81132045956778,-316.98784263967406,-442.16322909157856,-46.51598629686793,464.46912516700536,785.625435674014
580,84.89823585019619,-433.0565910560099,-164.6715812783127,-352.37063952793363,-404.0992232756549,-43.41040829346296,493.8681086819901,775.0092697502096
581,84.71491328102012,-464.8553137410655,-165.80025699745852,-383.44234715444173,-366.33976211096063,-40.60978007865802,522.0959420277702,764.2556058785582
582,84.28509916521548,-495.2142735802087,-166.1524049448163,-409.60011585018134,-329.032745713107,-38.138053715102004,548.7782263999819,753.2655931516169
583,83.63320342243577,-523.7795239023167,-165.70001568324017,-430.3227529914167,-292.30135940460923,-36.026578804958156,573.5547389028944,741.9552567162244
584,82.7894136909226,-550.2092533884625,-164.43293713020032,-445.1899935861654,-256.2438478441802,-34.31378429882205,596.0866954346053,730.2615707377662
585,81.78804619783574,-574.1804817049828,-162.35910590019228,-453.8988428697483,-220.9343737050379,-33.044135960874215,616.0637623091734,718.1477969384231
586,80.66566992949342,-595.3957099093763,-159.50411154667506,-456.2761285759035,-186.42486797403947,-32.26633155351153,633.2106579598133,705.6075899520872
587,79.45912282506139,-613.5893116483386,-155.9101521835368,-452.2866022599375,-152.7477715143236,-32.03073739946886,647.2931736005775,692.6674747797712
588,78.20353851416152,-628.5334372879241,-151.634462344609,-442.03616627743423,-119.9195594302497,-32.386116281681474,658.1234326346935,679.3874451307695
589,76.93049338061597,-640.043202824804,-146.74730940550032,-425.7700576748454,-87.94492062108776,-33.375745442352915,665.5642081490952,665.8595958054107
590,75.66636878359603,-647.9809498043805,-141.32966494010188,-403.8660801573789,-56.821429884489554,-35.033071218795065,669.5321294324568,652.2048738271197
591,74.43100513584655,-652.2593917647715,-135.4706615484818,-376.8232265369218,-26.544501778687252,-37.37708996118999,669.9996334664315,638.5681967291814
592,73.2367056895172,-652.8435056209292,-129.26494351168546,-345.24625880907246,2.8876363229390924,-40.40768103530332,666.9955550959896,625.1123233577063
593,72.0876293434357,-649.7510797994797,-122.81001188937698,-309.82699356949297,31.469257211724464,-44.10114603553882,660.6042976071343,612.0109538447301
594,70.97959345889959,-643.0518905205963,-116.20365316034069,-271.3231651169617,59.18306001331991,-48.4062277148461,650.963579999766,599.4415685499528
595,69.90028941666355,-632.8655387185676,-109.54152713674318,-230.53580436551252,85.99703036495526,-53.24088960184943,638.2608140802365,587.5784892022591
596,68.82989602438883,-619.3580383679205,-102.91497598398365,-188.28608291892678,111.86251833654755,-58.49012800501692,622.7282195053289,576.5865691519077
597,67.74205991070609,-602.7372989221915,-96.40910221951172,-145.3925362529244,136.7137518685677,-64.00505739207829,604.6368346238495,566.6158123048452
598,66.60519853249112,-583.2476876500137,-90.10114959958034,-102.64950647536018,160.46891308928178,-69.60345610682177,584.2896228051192,557.7971038624249
599,65.38407056367761,-561.1638902209919,-84.05920706708046,-60.80754152954321,183.0327958048094,-75.07188494114958,562.0139061800132,550.2391282376562
600,64.0415497491017,-536.7843088752946,-78.34124296576023,-20.556360702736573,204.30094238713755,-80.1694036720522,538.1533801583125,544.0264591493432
601,62.540531006233124,-510.4242462049799,-72.99446520051819,17.489148984496197,224.16503769996407,-84.63281960087265,513.0599718865594,539.2187345761838
602,60.8458912268156,-482.4091188695018,-68.05499360337161,52.799600601026384,242.51922905638912,-88.18331500619881,487.08580374101626,535.8507731570025
603,58.92642229632284,-453.0679302413409,-63.54782388207795,84.93830405538026,259.2669562861269,-90.53422137229474,460.57550971658117,533.9334484924742
604,56.756651350981464,-422.727205579252,-59.487058169668586,113.5650289551274,274.3278234306726,-91.39963889463486,433.85912968103656,533.4551145346437
605,54.31846433835215,-391.70555971726856,-55.876374948842276,138.43653535351024,287.6440274933431,-90.50354223033723,407.2457757605784,534.3833683935235
606,51.602454492719936,-360.30902720762236,-52.709710388185584,159.40421773039088,299.18587925419814,-87.58897357928262,381.0182284415318,536.6669438895584
607,48.60892812722794,-328.82723992097823,-49.97212319264961,176.40931751982683,308.9560021331201,-82.42691066478126,355.4285790029556,540.2375476081097
608,45.34851615609605,-297.53048893022907,-47.64081530477742,189.47622784440708,316.991873035289,-74.82441522324352,330.69499120414713,545.011479573914
609,41.84235939175163,-266.66765835926697,-45.68628107258251,198.70443983914848,323.36647091059456,-64.63171427121614,306.999610342486,550.8909258710058
610,38.12185623395602,-236.4649718655609,-44.073558395210995,204.25966687446132,328.1869194023672,-51.74793505812258,284.48760378781094,557.7648717625307
611,34.22798108452042,-207.12545120220415,-42.76355747080692,206.36463471758597,331.5911403797128,-36.125300597990375,263.2672764862126,565.5096573963832
612,30.210200582870897,-178.8289548130963,-41.714445835489364,205.28994410817,333.74266589672527,-17.771689725527946,243.41117097855894,573.9892761224382
613,26.12503257532728,-151.7326464039379,-40.88307120424863,201.34530138422213,334.8238811496334,3.248439529778121,224.95803723628512,583.0555878175995
614,22.0343084011817,-125.97174128897025,-40.22640485202349,194.87128201376308,335.0280849991784,26.814686771375843,207.9155445623874,592.5486750799103
615,18.00321105932313,-101.66039189157517,-39.70298714114937,186.23165482560339,334.5508486678858,52.75277605002741,192.26360523145053,602.2975964058257
616,14.09816949345277,-78.89260041446067,-39.27435335914761,175.80616694604086,333.5812158561579,80.83788996860356,177.95818493299845,612.1217767480206
617,10.384692776896127,-57.743082446600965,-38.906412938197555,163.98358678281585,332.2933095969774,110.79909125825408,164.9354850625199,621.8332184180326
618,6.925227596555565,-38.26804617784439,-38.57074936026937,151.15473921681595,330.8388887432301,142.3246454689347,153.11639313675394,631.2396230794018
619,3.777118221540325,-20.505894125777047,-38.24580278896108,137.70525387240855,329.34133099193076,175.068057924285,142.4111069326738,640.148410003878
620,0.9907405163638809,-4.477893510984142,-37.91789394198898,124.00778817478941,327.8914146911384,208.6546381631601,132.72384196269243,648.3715216828275
621,-1.3921285135263242,9.811107052751975,-37.582046749840075,110.41357878842008,326.5451371603316,242.6884022924928,123.95752765229926,655.7308416210611
622,-3.339655529212596,22.37181693610521,-37.242569149727615,97.24330786881637,325.32365471112666,276.75912013749206,116.01838495372054,662.0640129536883
623,-4.83097151095186,33.229395400934656,-36.91335605488276,84.77742888449632,324.2152711301958,310.44931542308706,108.82026157546143,667.2304314631683
624,-5.85684043255429,42.422001999839814,-36.61788646113035,73.24626185154732,323.17924831276275,343.34103799220827,102.28858836130999,671.1171793164962
625,-6.4199569565364865,49.9989366492017,-36.38889779339183,62.82031948527519,322.1510773477796,375.02225006173256,96.36381909118175,673.6446557600439
626,-6.534861346195249,56.01833985354114,-36.26773397617374,53.60144418518285,321.04874483683983,405.09270521262084,91.00422975114591,674.7716449058685
627,-6.227467028417073,60.544472991389995,-36.303377707730725,45.61540398749372,319.7794695022829,433.1692463670477,86.18798096072203,674.49954344388
628,-5.534205547727194,63.64465244339251,-36.55119053792662,38.806602471915454,318.2463729135673,458.8904986467222,81.91438406738114,672.8754626138946
629,-4.500806114730332,65.385963073288,-37.07139560546662,33.0354997382344,316.3545824902151,481.9209744151144,78.20435102935886,669.9939303507608
630,-3.1807421789871104,65.83191955183187,-37.92734668718853,28.079223838602804,314.01633758096114,501.9546349928978,75.10004390213138,665.9969598836612
631,-1.6333938084914725,65.0392726148695,-39.18363324763977,23.63568638375414,311.15477164808567,518.7179662178852,72.66376597468798,661.0723227505748
632,0.07801002334869162,63.05516789896901,-40.90407445190678,19.331319114958138,307.7061656581113,531.9726260629008,70.97615085361745,655.449961591477
633,1.8885926716279822,59.91485625127943,-43.14965587983801,14.732338657831924,303.62059858846783,541.5177154501343,70.13370997818735,649.3965889010674
634,3.734089446296981,55.64012741598722,-45.97646140101234,9.359242309482346,298.8610486758034,547.1917116437824,70.24579889286451,643.2086272465175
635,5.5530763875618065,50.23859670679792,-49.43364998132055,2.704053713876924,293.40111277777737,548.8740903850239,71.43106461199244,637.2037411737637
636,7.289079561569596,43.70392110773472,-53.56152396800204,-5.750314946262108,287.22160276548806,546.4866507754593,73.81344439171107,631.7112826289988
637,8.892481627809591,36.01696262027168,-58.389732604223205,-16.50933084410372,280.306342497979,539.9945471470338,77.5177999772301,627.062017241328
638,10.322152234440898,27.147858215925446,-63.93565284706745,-30.04555624067338,272.63752532285145,529.4070248599332,82.66528805610118,623.5775201484172
639,11.546742402373686,17.05890230380141,-70.20298908637315,-46.777659226045564,264.19100148507994,514.7778512045005,89.3685839697585,621.5596320884162
640,12.545599798847343,5.708102594455154,-77.18063363288647,-67.05055687879646,254.93185042048734,496.20542677661547,97.72708958130218,621.2803549126111
641,13.309280962317006,-6.9467644316683055,-84.8418302854707,-91.11748286989757,244.8105590233137,473.83255525937807,107.8222667716109,622.972545428421
642,13.839657052631122,-20.943795731504295,-93.14368340075373,-119.12469463024323,233.76007870237333,447.84583951185004,119.71324521572551,626.8217409917922
643,14.149630057727624,-36.312510976272506,-102.02705404033846,-151.09943151751608,221.6939765655146,418.4746592840861,133.43285662927255,632.9594211225167
644,14.262494938878952,-53.06951929257139,-111.4168819686954,-186.9416106068611,208.50583405994107,385.9896719759391,148.9842468066359,641.4579763736125
645,14.210998291404904,-71.21450463624603,-121.22296629317741,-226.41960731542835,194.06998361163434,350.70076507516137,166.33821020944643,652.3276171276275
646,14.036154038100024,-90.72671312025659,-131.34122728279823,-269.1703210114342,178.24361299085925,312.95438065738455,185.43137806776176,665.5154087170545
647,13.785879986199607,-111.56210111270943,-141.65545676390695,-314.7035775840157,160.8702098883471,273.1301324466382,206.16536878283466,680.90656340766
648,13.513515065012294,-133.65127345828986,-152.03954451603002,-362.4107766169355,141.78426579795067,231.6366480220965,228.40697882096163,698.3280535679825
649,13.276266033855546,-156.89830784746576,-162.3601439716463,-411.5775527493877,120.81710762663288,188.90659548104736,251.98945443336572,717.5545341988895
650,13.133615758096104,-181.1805249399893,-172.47971348873892,-461.4000888166157,97.80367524455488,145.39089622274017,276.71484122629766,738.3164776887044
651,13.145705520743894,-206.34922547674864,-182.25984114889977,-511.0045904762441,72.59001114803361,101.55218207738776,302.3573615978398,760.3103288647953
652,13.371685670088446,-232.2313770954596,-191.56473332045903,-559.4693058001018,45.04117414197233,57.85762132298034,328.6677211227708,783.2103814847577
653,13.868017549757626,-258.6321968871205,-200.26472220314696,-605.8483469280308,15.049236224931198,14.771306658900983,355.37819662994076,806.6819535566658
654,14.686709744826992,-285.33854207874356,-208.2396279341686,-649.1964445425463,-17.45902028045166,-27.253540745103077,382.2083147791308,830.3952952067089
655,15.873485562176107,-312.12299034782217,-215.38180081875691,-688.5936453125994,-52.51510689713062,-67.78225335288731,408.87089521337015,854.0395057594508
656,17.465905394248924,-338.74846175647286,-221.59867513046908,-723.1688654498679,-90.1029182217832,-106.40597007159381,435.0782118692608,877.3355917292671
657,19.49150233247797,-364.9732049163349,-226.81469431271523,-752.1211767641627,-130.15422935235992,-142.74815921000874,460.5480237119328,900.0477119811438
658,21.966023945776662,-390.55594171346473,-230.97252052353988,-774.7377770804513,-172.54582738928437,-176.47016167402992,485.00924272977664,921.991689282736
659,24.891898773083177,-415.2609423300329,-234.03351220805735,-790.4078296476184,-217.0983895848729,-207.27558734045203,508.2070383587592,943.0400636622329
660,28.257057028219954,-438.8627930767191,-235.97752566007182,-798.6317494706274,-263.57711991549155,-234.9134999543467,529.9072165188279,963.1233217018238
661,32.034229991096154,-461.15063164811477,-236.80215262131378,-799.0260074889824,-311.694090847861,-259.1804289038507,549.8997533508295,982.2273936957384
662,36.18083296342197,-481.93166244600485,-236.52153515424396,-791.3240059086879,-361.11221312833356,-279.92133157761873,568.0014093797976,1000.3879573141463
663,40.639504239565646,-501.0338271148071,-235.16490069742412,-775.3739367776889,-411.45075646781004,-297.02968517752953,584.057402517074,1017.6824101390778
664,45.33932961451349,-518.3075840199059,-232.77494134693714,-751.1347013351152,-462.29233733993846,-310.44690524375676,597.942177448063,1034.2205068892313
665,50.19773292258363,-533.6268316110434,-229.4061322451434,-718.6709306777076,-513.1912499239878,-320.16126821976655,609.5593673335371,1050.134599230778
666,55.12296379115969,-546.8890801272117,-225.1230538016176,-678.1479487097234,-563.6829340281819,-326.2064623992022,618.8410907136164,1065.5702200977717
667,60.01706934088179,-558.015023272117,-219.998756928332,-629.8272198818272,-613.2942629384116,-328.65981976408403,625.7467532498703,1080.6774934733587
668,64.77920087412183,-566.9476818429998,-214.1131915916501,-574.0624914337297,-661.554223628706,-327.6402117702709,630.2615271011549,1095.6035866214108
669,69.3090831698256,-573.6512863528782,-207.55170701621157,-511.29652612230234,-708.0044860990347,-323.3055460659648,632.3946627961418,1110.4861988053522
670,73.51046573783691,-578.1100412120303,-200.40362597528716,-442.05806759141956,-752.2093459718712,-315.8497906840777,632.1777558812429,1125.4479311470047
671,77.2943829341645,-580.3268768977573,-192.76089357934876,-366.95851582337133,-793.7645867107552,-305.4994769598763,629.6630510421222,1140.5913269084472
672,80.5820706490091,-580.3222566918788,-184.7168000085678,-286.68772910961,-832.3049353881139,-292.5096815527991,624.9218265457955,1155.9944098347391
673,83.3074168719778,-578.1330674020757,-176.36477493151358,-202.008407973369,-867.5099505312422,-277.15954607402085,618.0428666420031,1171.7066556755578
674,85.41885770025104,-573.8115931271929,-167.7972490093398,-113.74863509728965,-899.1083448580521,-259.74744510957146,609.1310022281666,1187.745467244685
675,86.88066639520315,-567.4245496480746,-159.10457628914517,-22.792314310019968,-926.8808759004627,-240.58594934648872,598.3056824618841,1204.093342479791
676,87.67361854557254,-559.052144834298,-150.37401194433633,69.93255774770697,-950.6620128959036,-219.9967454033558,585.699532433126,1220.6959942885167
677,87.79504892675736,-548.7871265057775,-141.68874342149388,163.4676634645606,-970.3406038436547,-198.30566827577113,571.4568531857358,1237.4616831643273
678,87.25834312513231,-536.733781619353,-133.1269789838094,256.8398793123451,-985.8597301650095,-175.83797943368526,555.7320279527801,1254.261957645073
679,86.0919278119361,-523.0068577749238,-124.76110418856449,349.0780791688306,-997.2158654704609,-152.91398874612597,538.6878100993538,1270.933877381048
680,84.33783707925127,-507.730388458173,-116.65692224843234,439.23064724191045,-1004.4573734192102,-129.84507898881466,520.4934820886051,1287.2836450673494
681,82.04993905733865,-491.036415433217,-108.87299749929419,526.3830416990683,-1007.6823114662004,-106.93015639152974,501.3228890846256,1303.091429412562
682,79.29190828629275,-473.0636133023941,-101.46012185368683,609.6747243856134,-1007.0354682290865,-84.45252549542306,481.35236389421004,1318.1170506501153
683,76.13502623695328,-453.95583115935966,-94.46092191243496,688.3148031695797,-1002.7045571344513,-62.67717240494495,460.7585707757026,1332.1061403770866
684,72.65588645496133,-433.86057421315456,-87.90961957127747,761.5958140777311,-994.9155153532245,-41.848435418562026,439.7163041827158,1344.7963835774642
685,68.9340738675754,-412.92745440832664,-81.8319523333309,828.9051876367475,-983.926908157281,-22.18804396487545,418.396285225845,1355.9234970225023
686,65.04988125603664,-391.30664320205443,-76.24525231439742,889.7340832961842,-970.0235045596274,-3.893512848660522,396.9630035947648,1365.2266813385954
687,61.08212005237336,-369.1473611015169,-71.15867636375498,943.6834231132675,-953.5091580453363,12.863115655144911,375.5726553203537,1372.4533858851316
688,57.106076922094786,-346.5964366956577,-66.57357479180563,990.4670979623381,-934.699185189343,27.936188544287848,354.37122639559476,1377.3633287118034
689,53.19166151179518,-323.79696279291585,-62.48398326855295,1029.9124460117848,-913.9124782704262,41.20702909513138,333.49276879551803,1379.7318053743456
690,49.40178429231172,-300.88706981195,-58.87722137200049,1061.958206747139,-891.4636142230089,52.58421280092657,313.0579095317236,1379.3523929176818
691,45.790996980658775,-277.99882818985674,-55.734581689026406,1086.6502294864279,-867.6552336122073,62.00355611103074,293.1726262506024,1376.0392053782423
692,42.404421715082606,-255.25728365720607,-53.03209497705151,1104.1352600620203,-842.7709625661034,69.42784188103151,273.9273156765516,1369.6288827579422
693,39.27698868843581,-232.779622771813,-50.74135921608444,1114.6531421919233,-817.0691391127266,74.84630051022876,255.39617458598332,1359.9824952830186
694,36.4329949112328,-210.67446167726757,-48.83042268440133,1118.5277533393687,-790.77758323235,78.2738589443946,237.63690717950757,1346.9875194017732
695,33.88598901168352,-189.0412490291425,-47.26471268609735,1116.1569549650515,-764.089617270365,79.75016501066023,220.6907677341658,1330.5599953637309
696,31.6389785801787,-167.9697748036549,-46.0080016819673,1108.0017836807556,-737.1615011863114,79.33839447557779,204.5829434178967,1310.6469157202266
697,29.684947729336155,-147.53978056862698,-45.02340106536555,1094.5750535906984,-710.1113974526785,77.12385247945971,189.32327928853155,1287.228828679922
698,28.007663550651117,-127.82067349431169,-44.27436983558486,1076.4294908822496,-683.0199258984795,73.21238655668651,174.9073454826295,1260.3225788334912
699,26.582741574113847,-108.87135488118045,-43.72572176100539,1054.1454877502379,-655.9323118324667,67.72863169450288,161.3178445317962,1229.9840581545516
700,25.37893309004762,-90.74018291831955,-43.34461160139777,1028.3185499487447,-628.8620725273556,60.8141074411257,148.52635358829681,1196.3108080696938
701,24.35959211087066,-73.46509763721384,-43.10147969378954,999.5465230902146,-601.7961272429334,52.62518447155958,136.49539139044785,1159.4443010617883
702,23.484277048240664,-57.073942762285405,-42.970935033854445,968.4167155832396,-574.7011534078637,43.330935986133376,125.18079258490194,1119.5717362729115
703,22.710441349027963,-41.585023456692845,-42.93255930448753,935.4930855740757,-547.5309458007008,33.11089032695845,114.53436184015797,1076.9272034183743
704,21.995167482418545,-27.00793954523502,-42.971616765774364,901.3037175808888,-520.2344676611004,22.152706922569266,104.50676593307095,1031.7920966701809
705,21.29689893284815,-13.344729270987404,-43.07965613004233,866.328872347246,-492.7642172721314,10.649807551628461,95.05060312962219,984.494688488814
706,20.577124797657937,-0.5913479563267218,-43.25499010308952,830.9899416278254,-465.0844798871321,-1.2009951857393544,86.12356745859061,935.4087981360846
707,19.80197152507892,11.260511384288206,-43.50303695217291,795.6396710239569,-437.17900423447156,-13.201825887683587,77.69160531021973,884.9515097688703
708,18.943657053191462,22.221272162701624,-43.836507161605894,760.5540244119032,-409.057644036599,-25.155987840917373,69.7319480975889,833.5799128250129
709,17.981764763953304,32.3010485701211,-44.275417198697504,725.9260510334249,-380.7615418094218,-36.870083391092564,62.235900158396355,781.7868566359672
710,16.904298468043702,41.50701691934063,-44.846911590588014,691.8620798505472,-352.3665038220299,-48.155988180371914,55.21126524874219,730.0957350114905
711,15.708485054685218,49.84069076653515,-45.58487415288954,658.3805044028011,-323.9843166353051,-58.832663057309,48.6843054553308,679.0543456436853
712,14.40129827622728,57.295231539922035,-46.529309847159595,625.4133358112394,-295.76187803924904,-68.72779587598619,42.70114008176375,629.2279010537621
713,12.99968495793937,63.85294287909016,-47.72548098872164,592.8105963794637,-267.87814610185893,-77.67927393710046,37.32850659880142,581.1912978776413
714,11.530483142256898,69.48310274734621,-49.222786050901185,560.3475106762302,-240.53903646613668,-85.53649589430655,32.65382015477657,535.520775200588
715,10.030029810621857,74.14028206428026,-51.073376775537184,527.7343363432755,-213.97050916348928,-92.16153841207047,28.78448319078456,492.785107856273
716,8.543463739632397,77.76328299680688,-53.330520005602594,494.6285726686371,-188.4101744933776,-97.43019712850541,25.846414036854302,453.5364865654151
717,7.123736932320245,80.27480586611523,-56.04672421169935,460.64919667770675,-164.0978086638331,-101.2329237904923,23.981784209677887,418.30123470401116
718,5.830356075885322,81.58192293318798,-59.271666063045245,425.3925058696295,-141.2652028909534,-103.47568241275167,23.34597853786183,387.57050425575926
719,4.727883384187838,81.57740235857624,-63.04996829905033,388.44909342064227,-120.12577679743761,-104.0807475399028,24.103819150131027,361.7910854333587
720,3.88423338100631,80.14188876090259,-67.41889525194577,349.42144472858206,-100.86437310169826,-102.98746744718454,26.4251220790932,341.35646020403857
721,3.3688079491094842,77.14691026398785,-72.40604529448306,307.94162277211143,-83.6276218106935,-100.1530141487179,30.479681876323966,326.598233046687
722,3.2505157518058736,72.45864752453507,-78.02712898993154,263.6885033881636,-68.51522425865205,-95.55313937221311,36.43180359948883,317.7780841123751
723,3.5957237207103003,65.94236921441059,-84.28392696729628,216.40402974559495,-55.572465056506516,-89.18294956159363,44.434521897456484,315.0804097025212
724,4.4661879026130915,57.46741153349698,-91.16252228744358,165.90797708483095,-44.78421639009203,-81.05770190658079,54.623663516043074,318.60583984282084
725,5.917009133443514,46.912556872505085,-98.63189853933477,112.11075250069706,-36.07065539568813,-71.21360678060647,67.11192262739738,328.36584854467026
726,7.994656545822099,34.171648714806864,-106.6429875753184,55.023797820935236,-29.28487120920836,-59.708600793419386,81.98312815900557,344.27869422243486
727,10.735099636259925,19.159265973639144,-115.12824018475976,-5.232785916737288,-24.212492337689206,-46.62303150975166,99.28688864200257,366.1669409073286
728,14.162088147521718,1.8162697672830173,-124.00177955651635,-68.42571781037844,-20.57341566058358,-32.060173315219984,119.03380250369283,393.7568115878675
729,18.285618600392876,-17.884971169651088,-133.16018123762973,-134.20738376981421,-18.025664876972176,-16.146477515865094,141.19141933400803,426.6796110320739
730,23.10062668863361,-39.93587354060851,-142.4839042196487,-202.11824388696854,-16.17134933201033,0.9685487762044038,165.68112935002978,464.4754261352335
731,28.58594531518735,-64.28764723484608,-151.8393754090903,-271.59291147837513,-14.564636017418222,19.11293983503971,192.3761429787604,506.59926717033005
732,34.70356812370709,-90.84820774476029,-161.08170399996172,-341.9699157921103,-12.721590751409021,38.0934399668699,221.10069947182186,552.429752923547
733,41.39825760437648,-119.4801700037989,-170.05797373824788,-412.5050415682823,-10.131691192827333,57.69732191655912,251.63061274708508,601.2803651786917
734,48.59753549776787,-150.00007853781963,-178.61103113322193,-482.3879996855325,-6.270765428278107,77.69491038356033,283.69522509826277,652.4132006313666
735,56.21209219130442,-182.17899714525623,-186.58365829731855,-550.7620284209871,-0.6150649366305957,97.84283828219822,316.98079654096694,705.0550278118762
736,64.13665197481764,-215.74453970099617,-193.82299212935155,-616.7458637631238,7.343862531064513,117.8880309689445,351.1353106508737,758.4153125768285
737,72.25133209981644,-250.38437325674244,-200.18502811539364,-679.4573608222516,18.083880509131006,137.57237597767872,385.77462702440084,811.705714679745
738,80.42353323124789,-285.7511671739724,-205.53902761301768,-738.0379046190452,32.03698563033437,156.6379928154387,420.4898552555975,864.1603925900644
739,88.51039284395225,-321.46889897458493,-209.77163290921806,-791.6766212106014,49.574540207000034,174.83297068011353,454.8557652521072,915.0562974581326
740,96.36181668032172,-357.14035970184807,-212.79048748576102,-839.6332953897992,70.99357662066018,191.91739524104534,488.43998621425516,963.7325021024285
741,103.82407342389484,-392.35563022920167,-214.52716641764016,-881.2588387754299,96.50478152521707,207.6694442066242,520.8126888359565,1009.6075170913151
742,110.74389424817105,-426.701229193529,-214.93925240879472,-916.0121722424819,126.22277154982072,221.89130137420395,551.5564028538536,1052.1935326258058
743,116.9729655882672,-459.76957119851266,-214.01145072136265,-943.4725408035648,160.1592142757133,234.41462589969285,580.2756033702835,1091.1066447300077
744,122.37264775895746,-491.16833202946486,-211.75571344084412,-963.34659925959,198.2192291598195,245.1053212647131,606.6057054344583,1126.0724112627543
745,126.81870396126519,-520.5293071132982,-208.2104214948256,-975.4700696764968,240.20134025034875,253.8673768965213,630.2211324693501,1156.926514187485
746,130.20579379075863,-547.5163771846367,-203.43873247765967,-979.8042889919813,285.80106832504316,260.6456014501791,650.8421667473617,1183.6107904076462
747,132.4514790976426,-571.832260529686,-197.52623466265794,-976.4284186268751,334.6180612015603,265.4271260548595,668.2403501140486,1206.1653163190615
748,133.49950908007062,-593.2238257060264,-190.5780558763772,-965.5283847227416,386.1664772883075,268.24162349137697,682.2422812453456,1224.7174996457263
749,133.32219223281575,-611.4858475109381,-182.71557014118943,-947.383725550771,439.88816736872934,269.1602588700795,692.7317465850203,1239.4692156582187
750,131.92171893167526,-626.4631952899881,-174.0728350892975,-922.3534683432345,495.1680547250207,268.2934517537099,699.6502143742721,1250.6829510588652
751,129.33036285872882,-638.0515322092809,-164.79288518091047,-890.8619968506471,551.3510075748337,265.7875842284864,702.9958023210204,1258.6677461858542
752,125.60955533290822,-646.1966684685466,-155.02400147591575,-853.3856565358949,607.7594406950162,261.82083332369166,702.8208903716213,1263.7655151401473
753,120.84788803167423,-650.892748690955,-144.91607672089663,-810.4406125453753,663.7108788093484,256.59833929095794,699.2285868390969,1266.3381189570841
754,115.15815211097083,-652.1794673054519,-134.6171914002764,-762.5722478506896,718.5347613452963,250.34694095328067,692.3682697202523,1266.7553956505374
755,108.67356274165707,-650.1385022470494,-124.27050785907976,-710.3461803498038,771.5878620619413,243.30971096137526,682.4304198251689,1265.3842261112356
756,101.54334697235646,-644.889344020079,-114.01157233051971,-654.34080155788,822.2678303191192,235.74050415898483,669.6409446010283,1262.5786409849293
757,93.92789050829414,-636.5846801179911,-103.9660882869695,-595.1411067491632,870.0245211739875,227.8986930899813,654.2551676478166,1258.6709478240641
758,85.99364693718488,-625.4054779804424,-94.24819192178475,-533.333503576446,914.3689515386451,220.04421335307728,636.5516341300828,1253.9638696173279
759,77.90801228822743,-611.5558952390448,-84.95922675915237,-469.5012545200541,954.8798788298656,212.43298827250567,616.8258600409195,1248.723719516791
760,69.83435900920117,-595.2581347106083,-76.18698443411525,-404.2202245564526,991.2081282207077,205.31275603752138,595.3841353100344,1243.1746755356746
761,61.92740657590663,-576.7473533026143,-68.00535623288158,-338.0546622347597,1023.0788827162503,198.91928773974243,572.5374775945509,1237.4942499278063
762,54.32908173242855,-556.2667280493788,-60.4743268719239,-271.5528298611851,1050.2921938508428,193.47296220309826,548.5958250776545,1231.8100627362305
763,47.1649917763056,-534.0627778906254,-53.6402384993663,-205.24240345531976,1072.7219753971403,189.17565152533373,523.8625520198177,1226.1980237949422
764,40.54160202569634,-510.3810351834789,-47.5362578878161,-139.62567014601842,1090.3137193151617,186.2078678004457,498.62938879744297,1220.6820017319656
765,34.54417583729833,-485.4621547063918,-42.182990789209896,-75.17464508127941,1103.081135199514,184.72612498710288,473.17182672699516,1215.2350148148341
766,29.23550336756197,-459.5385385258171,-37.58920125266915,-12.326301006559472,1111.1018729374564,184.86047907532608,447.74508489877127,1209.7819224810246
767,24.655413976579972,-432.8315414648948,-33.75260743372072,48.52185391104521,1114.5124510874336,186.71222307867006,422.5807097299961,1204.2035360091984
768,20.82103721569772,-405.54930376355736,-30.66073701383011,107.01560088257051,1113.5024855699,190.35172907662388,397.88386707138625,1198.3420105892103
769,17.727750104999323,-377.88523563101484,-28.2918337827703,162.84700072801408,1108.3082981574194,195.816446697265,373.8313716670933,1192.0073374266706
770,15.35072586988886,-350.01715458084664,-26.61581204127978,215.75634500852493,1099.2059850841524,203.10908795859638,350.5704808980428,1184.98473110833
771,13.646982758183208,-322.1070530003549,-25.59525773134473,265.5329120018662,1086.5040434395123,212.19605513723053,328.21846099146074,1177.0427078501868
772,12.557821126467838,-294.30145207768663,-25.186475549644403,312.01442985994663,1070.5356808406968,223.00619970042686,306.8629158575758,1167.941668802466
773,12.011532540955209,-266.7322794762797,-25.340580894365516,355.0852103372795,1051.6509603130196,235.43002847476765,286.5628519088495,1157.442825224615
774,11.926266351884856,-239.5181915607813,-26.004635248542794,394.672974033869,1030.2089472103628,249.3194896499722,267.3504361908388,1145.3173162268354
