time,ax,ay,az,gx,gy,gz,accmagnitude,gccmagnitude
0,-5.15974117418498,-255.41299804341017,10.199219653011184,-42.80096135546695,-104.9657870642069,1.5719936876530385,255.665793077961,113.67603565641947
1,-4.923096629668319,-254.9237193682711,10.18878191161184,-43.22145356631837,-109.72565787055986,1.1861582558305608,255.174979172204,118.6424889186602
2,-4.69814876421231,-254.46552844915996,10.170406789490618,-43.767272889834885,-114.60047001534952,0.8321020661912228,254.71502521934954,123.7770672446348
3,-4.4891017573994345,-254.04386085671584,10.14261170417455,-44.462369988688515,-119.56843564180357,0.5197174385509743,254.29133921385215,129.0610425259847
4,-4.299467229106024,-253.66358716057556,10.104091876086589,-45.32714758512852,-124.60565956150646,0.25919231210509885,253.9087678763634,134.47168091837636
5,-4.131916894327489,-253.3288885027526,10.053774498739413,-46.3775392987581,-129.68603128731607,0.060862906716216185,253.57147354697116,139.98191842239672
6,-3.988163267666261,-253.0431420813531,9.990869047412115,-47.62422190624281,-134.78113700472719,-0.0649630242792728,253.282821004266,145.56012663376086
7,-3.868873812929622,-252.80881987681116,9.914911179064875,-49.07199638692872,-139.86020194407865,-0.10821197453671426,253.0452774676683,151.16999125207843
8,-3.773622731896216,-252.62740395066436,9.825797678227339,-50.71936712960355,-144.8900717645588,-0.059276600824687935,252.86032903047575,156.77052183907264
9,-3.7008830352945337,-252.4993216268132,9.723810442931219,-52.55834104636561,-149.83523921894763,0.09073200752871788,252.72841676654775,162.31620626824594
10,-3.648059666612976,-252.42390383118692,9.609628390307716,-54.5744592776557,-154.65792017399195,0.34972029439327595,252.64889574978886,167.7573179868375
11,-3.6115625146000054,-252.3993697340015,9.484327075677013,-56.74706422124353,-159.318181532917,0.7243471122374016,252.62002012390332,173.04037922592025
12,-3.586916430111158,-252.42284042495834,9.349366498751369,-59.04979463036581,-163.7741229972828,1.2197689755374053,252.63895696406382,178.10877905600327
13,-3.568903941960342,-252.49038354925494,9.206567907323217,-61.45129244956423,-167.98211490969084,1.8394065026190007,252.70183087199945,182.9035418928633
14,-3.5517351771540935,-252.59708973360867,9.058080484972116,-63.91609764940683,-171.89709540550913,2.5847410945289315,252.8038001389907,187.36423968699145
15,-3.529238474518474,-252.7371804180324,8.906338826178242,-66.40570196055633,-175.47293133230139,3.4551486487458987,252.93916408808386,191.4300393029801
16,-3.495064358101608,-252.90414549268482,8.754012195749677,-68.87972906111618,-178.66284826469854,4.447774899372483,253.1014999852506,195.04087499959988
17,-3.442895005651662,-253.09090793882436,8.60394671304949,-71.29720707344687,-181.41993476389922,5.557455072504038,253.283826707981,198.13873378674728
18,-3.3666512313925665,-253.29001149784716,8.459101714758317,-73.61789857211048,-183.69772419587844,6.776678959518323,253.47879118632417,200.66903808089543
19,-3.2606893224563143,-253.49382630533725,8.322481635439438,-75.80365294720558,-185.4508536083486,8.09560116486787,253.67887254933513,202.58210502216662
20,-3.1199806789375906,-253.69476651965311,8.197064859072379,-77.81974519931886,-186.63579349545802,9.502095146644573,253.87659801169025,203.83465497211324
21,-2.9402679372082456,-253.88551330867116,8.085731131678175,-79.63616366371429,-187.2116353526638,10.981848790166373,254.06476388058962,204.39133354245112
22,-2.718192103472072,-254.0592361381538,7.991189221371827,-81.22880687706812,-187.14091672158523,12.518498739479433,254.23665465462267,204.22620300485258
23,-2.451386330049538,-254.20980507307993,7.915906552781039,-82.58054737181597,-186.3904570334139,14.093800663563432,254.3862529688646,203.3241513662907
24,-2.1385333757451663,-254.33198667036865,7.86204257656844,-83.68211842530293,-184.93217280208899,15.687833081340965,254.50843302740594,201.68216188183595
25,-1.7793853489635358,-254.42161596871463,7.831387666848037,-84.53277965222094,-182.7438379394285,17.279233133883768,254.59913011253306,199.3103830519707
26,-1.3747458563649135,-254.47573713965517,7.825309280933389,-85.14071986832315,-179.80975415259093,18.845463352391814,254.65547883215808,196.2329396848227
27,-0.9264161210177114,-254.49270570171922,7.844706877527791,-85.52316187153437,-176.12129743175964,20.363108554904365,254.67591310803726,192.48842979072438
28,-0.4371080003340172,-254.47224594903446,7.889976688255128,-85.70614425425045,-171.67730945111165,21.808201256545235,254.66022165016088,188.13006017835175
29,0.08967192803108603,-254.41545846453326,7.960986981025646,-85.72396988056995,-166.48430719951497,23.156572466545295,254.60955386718524,183.22538554819712
30,0.6497620121062682,-254.3247742843785,8.057064059630052,-85.61832815532559,-160.55649024968113,24.38422281866678,254.5263728395972,177.85563106745306
31,1.2385028902964126,-254.20385446644354,8.17698901166615,-85.43711685957079,-153.91553271155445,25.467707144209715,254.41435414680012,172.11459587060037
32,1.85090594854915,-254.0574364743103,8.319005203108071,-85.23300697623326,-146.5901560113995,26.38452431748589,254.27823197756416,166.10715342119258
33,2.4818258500696744,-253.89113177499877,8.480836674763918,-85.06180869068663,-138.61548895214216,27.11350371169676,254.1235969212325,159.94738294557507
34,3.126129969524637,-253.711182085863,8.659717786237904,-84.9807075069205,-130.03223252525018,27.635179818715834,253.9566528542257,153.75638312813305
35,3.778857635652203,-253.52418449127163,8.852434545867085,-85.04644588546962,-120.88565785289036,27.93214726011332,253.78394309768404,147.65983403430997
36,4.435362360593605,-253.33679793159016,9.055377981659854,-85.3135281065697,-111.22447553398673,27.98938935947943,253.61205827633287,141.78538500801272
37,5.091430782110995,-253.15544513943723,9.264609623577693,-85.8325242135484,-101.0996228026022,27.794574654246535,253.4473398531488,136.25995437277015
38,5.74337296555509,-252.98602479694483,9.475938738606882,-86.64854265003237,-90.56302077344361,27.338317326163594,253.29559399140436,131.2070305353117
39,6.388079995345592,-252.833648418293,9.685010495231817,-87.79993031547525,-79.66635722826007,26.614399610056797,253.1618301159751,126.74406298144285
40,7.023046304135111,-252.70241521994282,9.887403748549845,-89.31724352623942,-68.45995043979343,25.619956649924887,253.05003730443744,122.98002523002843
41,7.646355859289717,-252.595236118868,10.078736515748293,-91.2225151762299,-56.991746123893385,24.3556264869169,252.9630095247352,120.0132201238358
42,8.25663319927735,-252.5137151720564,10.254776434133158,-93.52882469649246,-45.306492910652345,22.825669086271958,252.90222793040044,117.92938191638416
43,8.852962417478727,-252.45809347248604,10.411552804091045,-96.24016087857926,-33.44513242743189,21.038057884385466,252.8678051712965,116.80011154145201
44,9.434779353179614,-252.42725704482632,10.545466487665012,-99.35155501145385,-21.444429105783406,19.004545200043832,252.8584932746559,116.68166369687091
45,10.001744125896797,-252.4188069800054,10.653393949223194,-102.8494534835843,-9.33685296536426,16.740699572460617,252.87175342020305,117.61408888275427
46,10.553602447153988,-252.42918717759443,10.732781908203288,-106.71229446080585,2.8492834767856534,14.265909481494655,252.9038831182581,119.62072130327809
47,11.090044768395853,-252.45386272099498,10.781729357179549,-110.91125161957825,15.08944486435351,11.60334465528134,252.9501939867473,122.70799478416546
48,11.610572318562694,-252.4875400735087,10.799054107621293,-115.41110839483575,27.362271106332457,8.77986371016149,253.00523149790834,126.86556330755037
49,12.114378509969171,-252.52441893520844,10.784341509924351,-120.17122805592003,39.64878604669368,5.825855476893327,253.06302671204352,132.06669986969246
50,12.600253102293637,-252.55846474174757,10.73797343311205,-125.1465875208097,51.93145784108075,2.775001279768685,253.117369131791,138.2689464796142
51,13.066514986746842,-252.58369039406747,10.661135926515342,-130.28884575704535,64.19315967215041,-0.33605316733907925,253.1620893728313,145.414988687145
52,13.510977581744129,-252.5944358026545,10.55580428684112,-135.54742074925173,76.4160850056966,-3.468124671913828,253.1913402818227,153.4337296337493
53,13.930948769818976,-252.5856340823793,10.424704676814802,-140.87055231368365,88.58067482026593,-6.5800224478223015,253.19986532312356,162.24154085839774
54,14.323265283743588,-252.55305365676588,10.271252189010644,-146.20633146376616,100.66461479931526,-9.629179816595263,253.18324343321714,171.7436695229762
55,14.684359671200232,-252.49350617849606,10.099466433307516,-151.5036804312261,112.6419583019405,-12.572380440834632,253.13810017276518,181.83578390935293
56,15.010356481487722,-252.4050111867146,9.913867155966598,-156.71327057861944,124.48242633545888,-15.366565151905206,253.06227602297542,192.40564061214425
57,15.29719308547989,-252.2869098774876,9.71935360665513,-161.78836802636837,136.1509292479049,-17.9696986599308,252.95494412762318,203.33485752395083
58,15.540759591080235,-252.13992224219388,9.521071988232835,-166.68559869385015,147.60734683314743,-20.341669205164113,252.8166716407112,214.50077629868298
59,15.737051725907286,-251.96614408053142,9.324275360968642,-171.36562573208263,158.80659406705612,-22.445189451967952,252.64942105922583,225.778396469149
60,15.882330316641033,-251.76898294377568,9.134180112786067,-175.79373346995646,169.69898859809487,-24.246664571461967,252.45649043871484,237.04236103208714
61,15.973281017989555,-251.55303477191873,8.955822822767804,-179.9403136125707,180.23092333407746,-25.716994047147956,252.24239407873242,248.16897055425284
62,16.00716818068158,-251.32390570234213,8.793921107041902,-183.7812518553742,190.34583339384315,-26.832277239292363,252.01268797568883,259.0382001542483
63,15.981977187002766,-251.08798616314127,8.65274175399322,-187.2982161399236,199.9854322025692,-27.574398703387565,251.77374698525054,269.535691327063
64,15.896540194661283,-250.8521868706192,8.535979079936011,-190.47885092299654,209.09117764226576,-27.93147699442028,251.53250316030628,279.55468850889656
65,15.750640936830564,-250.6236485755476,8.44664606273111,-193.31688441096605,217.6059168829041,-27.898169306237055,251.2961569785546,288.99788843423715
66,15.545094953633091,-250.4094390965891,8.386980561356003,-195.8121571543225,225.47564871566573,-27.475832597996323,251.07187489544756,297.77916871154474
67,15.281802369134635,-250.21625219696793,8.358368811262338,-197.97058024588355,232.65133575303406,-26.67254846535836,250.8664877091261,305.8251608043609
68,14.963771113705713,-250.0501232387337,8.36128832477508,-199.80402928577558,239.09069635773741,-25.503022790679495,250.6862046408766,313.07663199303437
69,14.59510935266104,-249.91617629095992,8.395272274485157,-201.33017613151193,244.75990769409336,-23.988371780535697,250.53635782111334,319.48964108196367
70,14.180986834591637,-249.81841627441335,8.458897353793397,-202.5722545164936,249.63515638546085,-22.155803986947646,250.42119082798186,325.0364337101739
71,13.727565920441121,-249.75957754948968,8.549796864837047,-203.55874879538635,253.7039810653504,-20.038204722011706,250.34370280438927,329.7060452755958
72,13.241904146712834,-249.74103707638335,8.664700222726387,-204.322988812418,256.96636061219283,-17.673626562953896,250.30555645093904,333.50458294010036
73,12.73183119649636,-249.76279616448352,8.799499189708376,-204.90262982726298,259.43551201174546,-15.104688621400605,250.3070541154649,336.45516317890593
74,12.205803993392308,-249.82353027052577,8.949340163219194,-205.33899607914876,261.1383716816575,-12.377888287730194,250.3471816598663,338.5974880953667
75,11.672744269154228,-249.92070166029995,9.108740923607927,-205.67627106118707,262.1157431241372,-9.542831882894303,250.423715142165,339.98705250010005
76,11.141863406648127,-250.05072540239908,9.27172940953959,-205.96052725930383,262.4221017243145,-6.651394371748264,250.53338099362733,340.6939846443932
77,10.622479621270488,-250.20917563860402,9.432001239128471,-206.2386020773293,262.1250544508667,-3.756822347430832,250.67205682057164,340.8015360372535
78,10.123832572059193,-250.39101689703645,9.583091759571936,-206.5568428243167,261.30445842975865,-0.9127982860742098,250.8349977396507,340.40424888335036
79,9.654900254123246,-250.59084461363972,9.718557376670569,-206.95975940457825,260.05120834204956,1.82751294045592,251.0170724970919,339.60584210261334
80,9.224222555586355,-250.80311987505223,9.832159909070576,-207.488636501809,258.4657089511958,4.412412494197243,251.21299440330586,338.51686772492576
81,8.839735285793726,-251.0223853704646,9.918046997842103,-208.18016613579732,256.6560563142421,6.792587604268333,251.41753402709026,337.2521982802834
82,8.508617938014863,-251.24345228998473,9.970921420537035,-209.06516579914663,254.73595954435515,8.921980388868294,251.62570330134906,335.92841246983915
83,8.237158018039615,-251.46155109888363,9.986192563062628,-210.16744685228397,252.82244406662105,10.758583874093304,251.8329038688058,334.66115075839235
84,8.030634415115246,-251.67244244441613,9.960104213816305,-211.50289279297886,251.03338652246632,12.26514529038986,252.03503583436105,333.5625144034764
85,7.8932219037582225,-251.8724876558551,9.88983417122869,-213.0787979351053,249.4849401489327,13.409758892472102,252.22856632665597,332.73858068666976
86,7.827918390465873,-252.05868115881682,9.773562786694642,-214.89350443420017,248.28891695655727,14.166333506238482,252.41056017841362,332.2871036000492
87,7.836496022989287,-252.22864941466005,9.61050930763055,-216.93636006939406,247.55019873427128,14.514924158083275,252.578677377718,332.29546285654396
88,7.919476843530073,-252.38062251114948,9.400936506569229,-219.1880016914257,247.36425222628515,14.441922726653258,252.73114350691725,332.83891493163264
89,8.076133300713817,-252.51338521371784,9.146125431742876,-221.62095118726202,247.8148243135595,13.94010925542027,252.86670010656928,333.97918834323156
90,8.304513598513077,-252.626214254388,8.848323175603092,-224.2004938081976,248.97189046383312,13.00857224127778,252.98454189338756,335.7634522474228
91,8.60149147749928,-252.71880807171337,8.510667351838936,-226.8857943245062,250.88992394257366,11.652511300454194,253.08424720661333,338.22367349634527
92,8.962839512868351,-252.79121430905096,8.137091479031097,-229.63119611524002,253.6065441473048,9.882938112351306,253.1657071426611,341.3763634812056
93,9.38332441206901,-252.84375932996477,7.73221569208882,-232.3876429781079,257.1415899933338,7.716291725542775,253.22905776354855,345.2227033387593
94,9.856822284986084,-252.8769829731097,7.301227220213514,-235.10416324427928,261.49664911998383,5.17398329004547,253.27461869295308,349.7490251950287
95,10.376451582381033,-252.89158080210527,6.849754941194412,-237.7293596351343,266.65505690467654,2.281884002818432,253.30284040971748,354.92761824205513
96,10.934721310654876,-252.88835524119784,6.383741986050837,-240.21285439712594,272.582362168864,-0.9302311326839864,253.31426164364422,360.7178212149576
97,11.523692081499432,-252.8681763132805,5.90931972658212,-242.5066459097549,279.227240231674,-4.429272155962043,253.30947755477496,367.06735678428754
98,12.135147419445648,-252.83195229244146,5.432685554190298,-244.56633921659594,286.5228195675597,-8.179444739497363,253.28911891178646,373.9138583793277
99,12.760772473278934,-252.7806103864393,4.959985829740577,-246.35221857153184,294.3883764315496,-12.14287183573419,253.25384221832832,381.1865362894764
100,13.392336862041498,-252.71508735831526,4.497204487713095,-247.83013536865164,302.73134285296555,-16.280215318629182,253.2043304567764,388.8079280205799
101,14.021877878819112,-252.6363295545731,4.050057228571181,-248.97219016835572,311.44956753827813,-20.551285858263896,253.14130360742485,396.69567824892306
102,14.641879718794614,-252.54530107125137,3.6238911894691745,-249.7571933867443,320.43376633502015,-24.91562862764216,253.06553730454473,404.7642965381013
103,15.24544384270344,-252.44299792197071,3.223590456971996,-250.17089585513827,329.5700985249223,-29.333072091935243,252.97788707634382,412.9268461072477
104,15.826445195360126,-252.33046534981992,2.853488546052017,-250.20598785842253,338.742806630965,-33.76422710697125,252.87931486523982,421.09652381586113
105,16.37966900301988,-252.20881505585217,2.517289645014666,-249.86187313232816,347.8368598696887,-38.170923990865404,252.7709141514939,429.1880993869904
106,16.90092333523511,-252.0792391247422,2.2180007994430246,-249.14423224727173,356.7405441180911,-42.516576523427744,252.6539300300658,437.1191899181238
107,17.387123402639446,-251.9430177154727,1.9578773732352568,-248.06439749038395,365.3479436601864,-46.7664643141527,252.52977091712404,444.81135322576495
108,17.83634462102794,-251.80151812028265,1.7383842497634387,-246.63856847353674,373.5612617793832,-50.88792862319462,252.4000091649433,452.19099013561697
109,18.247842907015816,-251.6561836525756,1.5601752453032918,-244.88690379531195,381.2929289436498,-54.85048120999529,252.26636882873026,459.19005155438595
110,18.622042418016555,-251.50851198640356,1.423092858402907,-242.8325285201278,388.46744991872816,-58.625830703373296,252.1307001311007,465.74655145790797
111,18.96049261729154,-251.36002379170154,1.3261897200434953,-240.50049944955222,395.0229453672463,-62.1878356504784,251.9949415304803,471.8048919977963
112,19.26579772739453,-251.21222347469302,1.2677721593190505,-237.91677005876616,400.912349081003,-65.51239687883941,251.861071370227,477.3160113788109
113,19.54152226087442,-251.06655441812515,1.2454653796444013,-235.10719493443867,406.10422799947673,-68.57730347484234,251.73105173765896,482.2373683348922
114,19.792076593531114,-250.92435144426992,1.2562989198877168,-232.09661007054615,410.58319792765775,-71.3620466454848,251.60676753657356,486.53277865834036
115,20.022586680207294,-250.78679346452017,1.2968104179343112,-228.90802080305082,414.34991362600357,-73.84761455498254,251.4899640592511,490.17211977619485
116,20.238752088823258,-250.65485943857368,1.363165356042471,-225.56192374961816,417.42061868575973,-76.01627952061813,251.38218654641247,493.1309198658634
117,20.446696554481356,-250.5292907103976,1.4512904993270692,-222.07578316265253,419.8262494169508,-77.85138726071754,251.2847252124129,495.389849618651
118,20.652815179377072,-250.41056247347254,1.5570189180194713,-218.4636759118311,421.61109847844415,-79.33715668331908,251.19856893675708,496.934138244109
119,20.86362211259939,-250.29886669562472,1.6762444715284064,-214.73611305851637,422.83105793175736,-80.45849820223745,251.12437042024226,497.75294056696634
120,21.08560200071647,-250.19410845217283,1.80508324590625,-210.90003963225539,423.55147661557965,-81.20085859245313,251.06242521731085,497.8386880182283
121,21.325067845204398,-250.09591722573992,1.9400387194553446,-206.9590076979351,423.8446814454612,-81.5501004959739,251.01266664622597,497.18646129936656
122,21.588027309139793,-250.00367420874227,2.0781665479711595,-202.91351128495393,423.78722483106117,-81.49242439483574,250.97467803522093,495.7934250843076
123,21.880059016709986,-249.9165560215792,2.2172339844410893,-198.7614656674458,423.4569299683231,-81.01433991648933,250.94772311819557,493.65836468526186
124,22.20619991903207,-249.83359470560524,2.355868190410048,-194.49880825315338,422.9298121030337,-80.10269175481743,250.93079481033516,490.78136120478956
125,22.570844327017088,-249.75375345247323,2.4936871111062233,-190.12019422976195,422.2769571760308,-78.74474356085308,250.9226821561736,487.16363576082637
126,22.97765478527892,-249.67601717783225,2.631406213543239,-185.61975743957095,421.56143994547676,-76.92832130347821,250.92205484209634,482.8075855800084
127,23.4294846579304,-249.5994965723935,2.770914262299975,-180.99190615194408,420.835362244886,-74.64201620839263,250.9275641443252,477.71702596072925
128,23.928312126997696,-249.52354365372207,2.9153114843075754,-176.23212472773193,420.13708898721535,-71.87544663137776,250.9379585306827,471.89764307254563
129,24.475185167515114,-249.4478762113931,3.068904063505793,-171.33775520987393,419.48875525125686,-68.61957798584906,250.9522114568858,465.35765362323474
130,25.07017685476611,-249.3727079620626,3.2371500039409997,-166.3087365980393,418.89411253238166,-64.86709973509488,250.9696582640656,458.1086585166535
131,25.7123500914151,-249.29888070752682,3.4265529531256016,-161.14828291174032,418.3367761999276,-60.61285797750098,250.99013849248396,450.16666861927564
132,26.399730621706883,-249.22799429848845,3.6445024132350228,-155.8634835658054,417.77892954160995,-55.85434090340205,251.01413936522204,441.5532717544122
133,27.129287123565632,-249.16252973744713,3.899060724600898,-150.46581113889846,417.16053251756284,-50.592212255183796,251.04293566055867,432.29690134157846
134,27.896917282842182,-249.105960321649,4.198699188274899,-144.97152278479845,416.3990753095647,-44.83088502738944,251.07872070310705,422.4341590014874
135,28.69743905888362,-249.06284538062195,4.551987640900605,-139.40194286887453,415.38990764451916,-38.57912430814685,251.12472281197364,412.01113620059806
136,29.524586825979902,-249.03890093931827,4.9672436446942285,-133.78361618637902,414.0071645125105,-31.850664724697864,251.18530128597558,401.0846738272415
137,30.371012679095557,-249.0410416099369,5.4521491646193825,-128.14832321955987,412.1052973420048,-24.664824733522405,251.26601595345713,389.7234937169825
138,31.228293807648985,-249.07738840012976,6.013344187738105,-122.53295106613325,409.5212071738695,-17.047097268691967,251.37366467705482,378.00913289081205
139,32.086947316141696,-249.15723809657567,6.65600821143949,-116.97921587077016,406.07696315057376,-9.029694215056502,251.51628414285983,366.0366099855257
140,32.936454222034065,-249.29099121385306,7.38344178814384,-111.53323496134955,401.58307585383784,-0.6520208580758442,251.70311055332192,353.9147542921028
141,33.76529477831225,-249.49003669168695,8.196661199947423,-106.2449495005962,395.8422807468938,8.038944156489737,251.9444980055298,341.76613105057527
142,34.56099779998931,-249.76659234929267,9.094019791349272,-101.1674011416136,388.6537724572082,16.98838778806555,252.25179314767482,329.72650227664116
143,35.31020711855527,-250.13350073528966,10.070869565592705,-96.35586862852502,379.81781661546125,26.133544272116453,252.6371653191401,317.94377086195294
144,35.998768467444584,-250.60398067358315,11.11927639865764,-91.86687228346909,369.14065365909613,35.4037420202562,253.1133920070481,306.5763678259395
145,36.611840052505634,-251.19133559107863,12.227801673576021,-87.75705581240668,356.43959966948637,44.72063641542502,253.69360019656435,295.7910592308684
146,37.13402991333129,-251.90862067509764,13.381362286840785,-84.0819560013272,341.54824369183115,53.99864662840037,254.39096512637826,285.76017069686714
147,37.54956297550859,-252.76827213488647,14.561179746527383,-80.89467208479928,324.3216389894302,63.14561115615115,255.21836917714356,276.65825308562296
148,37.84248034897327,-253.78170340399151,15.744827385289348,-78.24444859723874,304.6413864104342,72.06367215255993,256.18802517907085,268.65824134670635
149,37.996872781013884,-254.958875006957,16.906382604399376,-76.1751893693927,282.42051015307965,80.65039245058043,257.31107029560394,261.92718784630085
150,37.99714905532547,-256.30784692454813,18.016688687913895,-74.72392696559236,257.6080283274632,88.80010128036163,258.59713870627695,256.6216797192506
151,37.82833847514103,-257.83432449377983,19.04372814095876,-73.91928171009492,230.19312179342478,96.40545521889392,260.05392343466275,252.88307506353883
152,37.47642443388077,-259.54121105763465,19.953106667296527,-73.77995706539126,200.20880449175226,103.35919040018302,261.6867397378448,250.83271371372805
153,36.928703557181564,-261.4281826116916,20.708643769697392,-74.31333207107886,167.73499743051363,109.55603131662566,263.4981043794423,250.56727397345597
154,36.17416216088349,-263.4913013846347,21.27306255845657,-75.51422469153083,132.90090773525668,114.89471166080334,265.4873466708481,252.15445643908407
155,35.20385914767632,-265.722686370763,21.608767717992993,-77.3639098696743,95.88661483392633,119.28005459809562,267.6502681559946,255.62917932160542
156,34.01130238533756,-268.1102590647326,21.67869670966473,-79.82948062689533,56.92376874715963,122.62505444314166,269.9788680384333,260.99046588210166
157,32.59280433778593,-270.6375818814212,21.44722521703614,-82.86363792059484,16.295311152575554,124.85289939902637,272.46115078081374,268.1991933171788
158,30.947802238006798,-273.2838048812163,20.881103704716566,-86.40498410492586,-25.665861105457257,125.89887585737151,275.08103064169455,277.17685363308874
159,29.0791282058893,-276.02373342195534,19.95039803057343,-90.37887563886386,-68.5793574483739,125.71209852649886,277.8183451836081,287.8054511931733
160,26.993215261037655,-278.82802535437185,18.629403695501036,-94.69886423078826,-112.02092968684666,124.25701706608787,280.6489860977976,299.9286295237375
161,24.700226123952145,-281.6635217146164,16.897500922915057,-99.26872418307191,-155.52730953539498,121.51465862160856,283.5451513855912,313.3540823644991
162,22.214093063820034,-284.49370992594845,14.739916705341457,-103.98503049261161,-198.6022452767436,117.48357605802896,286.47571840169337,327.857261155087
163,19.552458843909324,-287.2793135258468,12.148360634190928,-108.74022073011274,-240.723700280471,112.18048280619071,289.4067327375797,343.1863431520348
164,16.73651102248181,-289.978997501563,9.121504096694192,-113.42604678961925,-281.35213505794013,105.64056599186776,292.30200353086263,359.068371545184
165,13.790704479487035,-292.55017363472825,5.665277454271669,-117.93730201712985,-319.9397484875281,97.91747920460406,295.12379171119557,375.21642276937666
166,10.742370084303245,-294.94988614351035,1.7929670082486668,-122.17569531040088,-355.9405051433739,89.08302467092601,297.8335742192829,391.3375995964943
167,7.62121100347697,-297.1357547162563,-2.4748975042497237,-126.05373569840698,-388.82072833942834,79.22654173612047,300.3928646380518,407.14159575488446
168,4.458692442988838,-299.0669499438825,-7.110864102986511,-129.49848727626227,-418.06999754563884,68.45402416541954,302.7640690467161,422.3495336281128
169,1.2873357470250384,-300.7051750940938,-12.081077166421167,-132.4550536279107,-443.21205864694866,56.88699202528597,304.91135507013524,436.70274531228404
170,-1.8600664043108552,-302.01562785468434,-17.34597177963099,-134.88965117339657,-463.8154384417359,44.66114371089534,306.80151169494775,449.97115128396536
171,-4.95129095289922,-302.96791584420293,-22.86111261694631,-136.7921301422328,-479.5034507788934,31.92480950579857,308.40477712974837,461.9608901017816
172,-7.9555532996136415,-303.5369002174505,-28.57813841550797,-138.1777987338941,-489.9632894501816,18.83722066472631,309.6956116422073,472.52086555589676
173,-10.84437109371836,-303.70344259842716,-34.445768193513906,-139.08840154880775,-494.9539210739062,5.566599457941236,310.6533920060896,481.54790335005794
174,-13.59238642867236,-303.45503193805763,-40.410823978559684,-139.5921021207027,-494.31251895606886,-7.711931755072968,311.2630042151696,488.99024757847593
175,-16.178107613277536,-302.78626969231937,-46.419227065154885,-139.7823286069334,-487.959215755866,-20.818629034928627,311.515311703136,494.84917851665705
176,-18.584531518774313,-301.6991937342659,-52.416930289460865,-139.775369050664,-475.8999982533323,-33.57160099050403,311.40747749915255,499.1785985896177
177,-20.799610563293445,-300.20342342471855,-58.35075670304598,-139.70665377102844,-458.22762151833666,-45.78948423545113,310.9431205565323,502.082514042427
178,-22.816535471101908,-298.3161102834806,-64.16912445888285,-139.72573916736044,-435.1204826016094,-57.29431864518701,310.132289084065,503.71043633745427
179,-24.633815754811646,-296.06168110221614,-69.82264787782425,-139.9901060301729,-406.83946537674876,-67.9146071831852,308.9912374402416,504.25083740385776
180,-26.255152943225514,-293.4713638563314,-75.26461475718212,-140.65799681270795,-373.7228464654048,-77.48852406209173,307.5419984748571,503.9229094781295
181,-27.689114898798568,-290.58249228755346,-80.45134914632028,-141.88062576883715,-336.1794327312413,-85.86720769707118,305.8117505122341,502.96699115557607
182,-28.948631365215736,-287.4375931631249,-85.34247620692307,-143.79418693194336,-294.68017665859725,-92.91804459119474,303.83198758677804,501.63411138088503
183,-30.050339991301488,-284.0832710617979,-89.90111091139865,-146.51214271600287,-249.7485789390432,-98.52782227169668,301.637512849888,500.17515893248657
184,-31.01381790941883,-280.568918623711,-94.09399522995756,-150.11829047697353,-201.95023032405766,-102.60560994994039,299.2652877475713,498.8301992994826
185,-31.86073646032944,-276.9452944653005,-97.89160933384771,-154.66107310811407,-151.88186184016902,-105.0852202454006,296.75318265072576,497.81843589008116
186,-32.613976328651724,-273.2630247185619,-101.26828113836976,-160.14952805715396,-100.16026102420022,-105.92711697386909,294.1386865163116,497.32925890665126
187,-33.29673799406642,-269.5710953940387,-104.20231482456875,-166.55116797731176,-47.41137224741501,-105.11966160186674,291.45764189258017,497.5147570563406
188,-33.931678884421515,-265.9154096381709,-106.67615255631549,-173.79196783134833,5.740164361567015,-102.67962968498547,288.74307536559394,498.48399575467516
189,-34.540104712869265,-262.33748513045356,-108.6765748328413,-181.75850792322763,58.68085989502371,-98.65197147760313,286.02419125423955,500.299295091234
190,-35.14123876454042,-258.87336172520605,-110.19493487448375,-190.30219717614958,110.81751625297358,-93.10883115619525,283.32558776596176,502.9746691339603
191,-35.75158961214371,-255.55277818570246,-111.22741264343335,-199.24538080653994,161.58563643554288,-86.14787208573426,280.6667406499374,506.4765084450351
192,-36.38443479387066,-252.39866047823034,-111.77526611727869,-208.38902540880142,210.45713140562077,-77.8899796237247,278.06178120004745,510.72649301143707
193,-37.04943511807826,-249.42694413060042,-111.84505251079139,-217.5215771503916,256.9473651560086,-68.47642912154994,275.5195753065581,515.6066104691355
194,-37.75239115765824,-246.6467313585793,-111.4487908711511,-226.42851159038165,300.62156195352514,-58.06561747144222,273.04409009997096,520.9660296216981
195,-38.495149808727675,-244.06076177614167,-110.60403968896337,-234.9020438953968,341.1005549923762,-46.82946405724066,270.6350161392319,526.6294548977069
196,-39.27566419559113,-241.66615527279097,-109.33386822392137,-242.7504524299064,378.06579653383614,-34.949592504877806,268.2885972977017,532.4064806340268
197,-40.08820465640603,-239.45536877530944,-107.66670728904717,-249.80649063417303,411.26349158480855,-22.613408196435138,265.99860853216626,538.1013905514924
198,-40.92371237616082,-237.41729660993187,-105.63607323771352,-255.93442208198493,440.50767469966866,-10.010187316079435,263.75741434635944,543.5228182089999
199,-41.770281019180345,-235.53843801948935,-103.2801667232956,-261.0353083697841,465.6820327568079,2.672709843402265,261.5570382964166,548.4927031597607
200,-42.613746023881575,-233.80405534701347,-100.64135457000927,-265.0503020771067,486.7402900380893,15.253396386408482,259.39017623110647,552.8540431731145
201,-43.43835646951657,-232.19925219715824,-97.76554836860834,-267.96183703583887,503.70501464607247,27.558695185393805,257.2510928009019,556.4770474588531
202,-44.22750082281499,-230.7099119428933,-94.70149704327395,-269.7927527993276,516.6647721191282,39.42698005391942,255.1363516716334,559.2634271975573
203,-44.96445548026709,-229.32345233962488,-91.50001259122304,-270.60352615139345,525.7696352932214,50.710569373865056,253.04534412869836,561.1487035399471
204,-45.63312381747908,-228.0293702763168,-88.21314859575472,-270.48789739009993,531.2251497961231,61.27764344886292,250.98059715170072,562.1025551221991
205,-46.21873345095522,-226.81956984574637,-84.89335032454466,-269.56726302849296,533.2849424693429,71.01367982256376,248.94785893907158,562.1273541188303
206,-46.708460742444984,-225.68848487554425,-81.5925937906191,-267.9842532956846,532.242236850309,79.82242053661467,246.95597559336284,561.2551422015932
207,-47.09195443947485,-224.6330221033081,-78.36152959444634,-265.8959207050821,528.4205990635318,87.62640000714421,245.01658589389652,559.5433701120343
208,-47.36173488055198,-223.65236201900368,-75.24864605105981,-263.46693742286163,522.1642751068191,94.36707137709668,243.14367080170115,557.0697656522673
209,-47.51345133468478,-222.74766013939103,-72.29946525472339,-260.8631399750247,513.8284950599157,100.00457362342307,241.35299986961252,553.9267064627046
210,-47.54598748163609,-221.92169179886642,-69.55578543141549,-258.24567848285665,503.77011175562643,104.51718283865203,239.66151780414975,550.2154593693463
211,-47.461413261662365,-221.17847895561923,-67.05498307141302,-255.7659347742609,492.3389131897319,107.9004904941489,238.08671141235055,546.0406115636523
212,-47.26478973576163,-220.52292931125282,-64.82938858270369,-253.56128102170354,479.86990279028464,110.16635028499138,236.6459909968378,541.5049652100503
213,-46.963841585011664,-219.96050788944768,-62.905749150246514,-251.75166899379656,466.6767834915296,111.34163401442058,235.3561121392172,536.7051019087667
214,-46.56851885419002,-219.49695072880766,-61.30479190768828,-250.43697842129845,453.0468142392085,111.46683613264949,234.23265495573344,531.7277536723052
215,-46.09047508843225,-219.13802084227973,-60.04089941393621,-249.69501708374023,439.2371347914008,110.59456590174824,233.28956942189254,526.6470504342841
216,-45.54249291910477,-218.8892990952099,-59.12190774308301,-249.58005691866603,425.4725800475196,108.78796535216856,232.53878817338742,521.5226575007167
217,-44.937890251403005,-218.75599792758578,-58.54903511192006,-250.12180734677875,411.9449322231396,106.11908976315245,231.98990303594942,516.3987737262487
218,-44.289940202546724,-218.74278438445404,-58.31694580665606,-251.32476269320784,398.8134916069835,102.66728502487565,231.64989890526024,511.3039325047099
219,-43.61133563254912,-218.85360075465996,-58.413950343369635,-253.16790604408905,386.2067878389406,98.51759288005131,231.52293860502274,506.25152960249915
220,-42.91372464181362,-219.09147570568445,-58.8223386501544,-255.60479731290346,374.22520665882354,93.75921082625031,231.61019465077734,501.2409897721783
221,-42.207337232396135,-219.4583251532208,-59.518839062479735,-258.56410974513057,362.94427437859525,88.48402853880089,231.90972770941912,496.25947396688554
222,-41.500716042069676,-219.95474906788198,-60.475192408714186,-261.9506996702313,352.41832582819814,82.7852571831742,232.41641603229633,491.2840189436065
223,-40.80055637636182,-220.5798368345065,-61.65882748491389,-265.64729498615696,342.68428237794575,76.75616216308441,233.12194422578057,486.28399167308174
224,-40.11165346539536,-221.33099852589913,-63.0336216910526,-269.51686771990694,333.76528495509297,70.48890420264438,234.0148623930944,481.2237344664686
225,-39.4369486406424,-222.20384166013903,-64.56072843141398,-273.40571712834503,325.67396143142435,64.073488970794,235.08072715181063,476.0652753181722
226,-38.77766141423905,-223.19211228466614,-66.1994510044902,-277.1472370102064,318.4151553733861,57.596822517812704,236.30233398400026,470.77098247676895
227,-38.1334914369701,-224.28771568085028,-67.90814118383766,-280.5662812471767,311.9879993901471,51.14186900567743,237.6600459956346,465.30605161535027
228,-37.502872890587184,-225.48082608828665,-69.64509972369282,-283.48398330386055,306.38727579664265,44.78690831509098,239.1322179800743,459.6407259193813
229,-36.883263663087824,-226.76008734063782,-71.36945576552935,-285.72283650677554,301.60406477080915,38.60489323923546,240.69570740312622,453.752161988163
230,-36.27145226224793,-228.11289808218083,-73.04200258543075,-287.11180905715054,297.62573137224706,32.66290799387998,242.32645635948182,447.62586733389344
231,-35.66386658615095,-229.52576726916539,-74.62596829259446,-287.4912554851333,294.43534485282606,27.02173066777803,244.00012157175277,441.2566500827751
232,-35.05687023923494,-230.98471891735443,-76.08770197612228,-286.71739650948274,292.0106550716676,21.73550136128237,245.69272399503365,434.64904080277046
233,-34.44703393536582,-232.47572035691587,-77.39725837518067,-284.6661707907782,290.32277088241864,16.851494979694063,247.38128628189654,427.8171719660495
234,-33.83137156128096,-233.98510609771455,-78.52886736901623,-281.23631055485606,289.3346940766499,12.409993426390791,249.04442568173388,420.7841319544277
235,-33.20753259749686,-235.49996993000178,-79.46127841416481,-276.35155187903274,288.9998604539324,8.444247289965542,250.66287199497378,413.5808448020263
236,-32.57394474732564,-237.0085009730267,-80.17797444697653,-269.96195183058364,289.26082817974105,4.980513294790627,252.21988484242144,406.2445594416075
237,-31.9299028368705,-238.50024470706478,-80.66725463330452,-262.04434113192144,290.04823485546746,2.0381518715776896,253.70155140842394,398.8170581843293
238,-31.275602440957048,-239.96627696768212,-80.92219052109692,-252.60198667801922,291.2801213029423,-0.3702302112777692,255.09695436208565,391.34270980197925
239,-30.61211928530609,-241.3992865973991,-80.94046528655295,-241.66356979568218,292.8616947445525,-2.238604221824706,256.39820894889436,383.86649649102026
240,-29.9413380534927,-242.79357005804172,-80.72411029672615,-229.2816033485065,294.6855791464547,-3.5673182546069966,257.6003772326158,376.43213724633034
241,-29.2658364887655,-244.14494802822577,-80.27915655959956,-215.53041559345823,296.6325773677668,-4.362872708499225,258.7012751900677,369.08041535225834
242,-28.58873247461266,-245.45061922814637,-79.61522049766278,-200.50382391227285,298.5729488431215,-4.637670342177267,259.70119412348765,361.8477976208241
243,-27.913503070420823,-246.7089700484687,-78.74504397840468,-184.31260990208955,300.3681875453019,-4.4097360909873835,260.6025613357665,354.7654098732428
244,-27.24378523684987,-247.91935989467174,-77.68400797406147,-167.08189102565117,301.8732673635747,-3.7024011897230387,261.4095662019541,347.8584084231186
245,-26.583168202386624,-249.08190158339696,-76.449637738266,-148.94846479874576,302.9393053548266,-2.54394747327904,262.1277768006985,341.1457619831007
246,-25.934987170538925,-250.19725387046057,-75.06111496017975,-130.05818082260467,303.41657750790546,-0.9672105943021007,262.76376936439385,334.64043341841744
247,-25.302127483878433,-251.2664395453781,-73.53880922588084,-110.56337545823271,303.15780697127735,0.9908553506848164,263.32478832941644,328.3499271579038
248,-24.68684760942846,-252.29069782140604,-71.90383785524861,-90.62038544876435,302.0216316192522,3.28964549887532,263.81844920899385,322.277147004496
249,-24.090628490890964,-253.2713744117015,-70.1776602391749,-70.38714233075436,299.8761470608275,5.885394933477634,264.2524904206959,316.42149179707343
250,-23.514055854688372,-254.209847352955,-68.38171021367171,-50.020840893466705,296.6024135844098,8.731681590229382,264.6345742021459,310.78010407753254
251,-22.956740764820033,-255.1074821181165,-66.53706766843744,-29.675673526855256,292.0978119583973,11.779930574188615,264.9721315661526,305.3491805628752
252,-22.4172820220572,-255.96560650970144,-64.66416860329888,-9.500628265289025,286.27913416833934,14.979910770627678,265.27224253548354,300.1252531994557
253,-21.893272042250445,-256.78549450832,-62.78255148800815,10.362639469549428,279.0853014150783,18.280217785758225,265.5415409970091,295.1063555151211
254,-21.381345793139477,-257.5683486083528,-60.910637208029726,29.78183543299361,270.47961291406585,21.628741592341402,265.7861334279004,290.2929997910091
255,-20.877270281335512,-258.3152720296298,-59.06554004796874,48.63591282783618,260.4514446530849,24.973122213432337,266.0115223024835,285.68890474228755
256,-20.376070081317263,-259.0272252652018,-57.26290791688279,66.81675964695812,249.0173363872031,28.26120153246512,266.22252788073826,281.3014294807003
257,-19.872182726681643,-259.7049651939056,-55.516791099062,84.2306216373005,236.2214266732804,31.441482940106624,266.4232057617938,277.1416864731479
258,-19.359636595251335,-260.34896874961015,-53.839539862066644,100.79919361403311,222.1352183570851,34.4636121857701,266.61676130448484,273.2243233207468
259,-18.83224321569698,-260.9593462656966,-52.24173192867522,116.46031773421097,206.85667912900124,37.27889195715725,266.8054650854906,269.5669799281708
260,-18.283795737069454,-261.5357517678892,-50.732130928889724,131.16824037976838,190.5087021271689,39.840839273789854,266.9905756241009,266.18944348186994
261,-17.708265735310075,-262.07729860159395,-49.31767648044151,144.89339785103277,173.23696902210523,42.10578917307146,267.1722765946655,263.1125380423312
262,-17.099991550432584,-262.5824888966441,-48.0035056364914,157.62172292225506,155.20727201039298,44.033541229046044,267.3496357455731,260.35679791458773
263,-16.453852711502876,-263.0491646292832,-46.79300433340683,169.35348727295266,136.6023617003163,45.58803814228363,267.5205919097808,257.9409838346379
264,-15.76542644051907,-263.4744866838864,-45.687886449113996,180.1017169754719,117.61839563846398,46.73805875597972,267.68197509593875,255.88050814819894
265,-15.031123587807775,-263.85494659567706,-44.68829731444999,189.89023798966628,98.4610683416301,47.457901847842486,267.82956295376994,254.18583949013978
266,-14.248302555594941,-264.18641374637855,-43.79293799259887,198.75142481180205,79.34150938262118,47.72803212757732,267.9581750741941,252.86095900549552
267,-13.415360669497549,-264.46421883900746,-42.999206266605256,206.723737513758,60.47204213084646,47.53565619813597,268.06180473429174,251.90193896734098
268,-12.531802962103376,-264.68327263679885,-42.30335002918998,213.8491406023049,42.06190216531618,46.87519415705396,268.13378595303305,251.29571097313968
269,-11.598288542333938,-264.8382172802671,-41.70062866788289,220.1705022281984,24.313020272834205,45.7486125705117,268.16699215508885,251.01908518817626
270,-10.616654836383573,-264.92360599810945,-41.185478073962294,225.7290752595769,7.415978893004801,44.16558724532105,268.1540613573561,251.03807499581728
271,-9.58992008392975,-264.93410571065675,-40.75167509244766,230.56216315076193,-8.453748512685147,42.14346969941412,268.0876416100616,251.3075734952342
272,-8.522264537387489,-264.8647159022688,-40.3924975889118,234.7010729688313,-23.13916936727496,39.70703919656318,267.96064945398246,251.7714196633189
273,-7.418990844426429,-264.7109962135689,-40.10087673908687,238.16945394417496,-36.50465781835378,36.888032036571445,267.7665333816349,252.36288209464016
274,-6.286464136022292,-264.4692945107078,-39.86953851188383,240.9821105451382,-48.438270532628614,33.72445066689717,267.499533725803,253.00557610772728
275,-5.13203243702829,-264.13696681538397,-39.691131655714656,243.1443627323703,-58.85342652299552,30.259666260051265,267.15493013690764,253.61481497523843
276,-3.9639281948161837,-263.7125805148829,-39.55834003560588,244.65200221580227,-67.68990727619422,26.54133891379455,266.72926797372554,254.09937820823487
277,-2.7911519660650947,-263.1960927592022,-39.46397807048959,245.49186323462334,-74.91415891555872,22.620188908970807,266.2205555874198,254.36366025778722
278,-1.6233395287231744,-262.58899691191147,-39.40106921352597,245.64299212253937,-80.51890580625563,18.548659890228027,265.62842563238945,254.31014344487252
279,-0.47061385194007294,-261.8944313511428,-39.36290867880343,245.07836522313062,-84.52211356215189,14.379519874813308,264.9542551510046,253.84212133693518
280,0.6565764086583742,-261.11724668779584,-39.34311278968564,243.7670732627211,-86.96536716668857,10.164448298381386,264.20124110286093,252.8665847768333
281,1.747629673752015,-260.26402925908644,-39.335658378154726,241.67686498499734,-87.91175494237186,5.9526568618034785,263.3744299258528,251.2971732847848
282,2.7919722841133123,-259.34308021633086,-39.334916526963966,238.77692523464134,-87.44336949479984,1.78958911935534,262.4807012719355,249.0570897594748
283,3.7792431062091913,-258.36435051792057,-39.33568536201379,235.04075288364595,-85.65855091905364,-2.284260731987381,261.5287070806436,246.0818758191308
284,4.699476659271585,-257.33933278354897,-39.333226259365695,230.4490012266806,-82.66900431405342,-6.234374597544256,260.5287677131868,242.32194793062573
285,5.543279113636407,-256.2809114758892,-39.32330661599283,224.99214658137672,-78.59692228341667,-10.03305249647977,259.4927271668884,237.7447998855942
286,6.301991702713578,-255.20317338198097,-39.302250427027964,218.67285881951415,-73.57223339903096,-13.660043774991312,258.4337695874515,232.33678479066026
287,6.967836871962046,-254.12118091183234,-39.26699571010037,211.50795990368306,-67.73007998778503,-17.102944771273624,257.3661995013076,226.1043997370442
288,7.534043806211792,-253.05071137284529,-39.215155788437265,203.52987317948123,-61.208604227697066,-20.35734302027072,256.3051885285715,219.0750093969435
289,7.9949517099922645,-252.00796622491794,-39.14507994459444,194.78748737201394,-54.14709227798821,-23.426691201820823,255.2664919679062,211.29696176532184
290,8.346091123628229,-251.0092554397189,-39.055908123880286,185.34638499007926,-46.68449447725634,-26.32189827245702,254.2661396500951,202.83907056276368
291,8.584245345664165,-250.07066338286745,-38.94761422497844,175.2884146169727,-38.95830834415792,-29.06063121927254,253.32010673971683,193.78946410078473
292,8.707495485113965,-249.20770385928404,-38.821033040018996,164.71061894299754,-31.103783022464796,-31.666328849187867,252.44397146809575,184.25382834365658
293,8.715253672730547,-248.43497285350955,-38.67786690379669,153.7235629759563,-23.253381320753668,-34.16693874977696,251.65256781979403,174.35310017609555
294,8.608289433259449,-247.7658079476218,-38.52066925769585,142.449136544639,-15.536420263676415,-36.593399538204935,250.95964180693943,164.2206926156719
295,8.388754093647812,-247.2119634709644,-38.35280344516702,131.01792877215203,-8.078803837150376,-38.97790220173515,250.37752018129078,153.99935406179029
296,8.06020738583965,-246.7833102708325,-38.178376150651594,119.56628706308207,-1.0027621230186181,-41.35197618050493,249.91680039850036,143.83777655088272
297,7.627649179846994,-246.48756869341432,-38.00214596829682,108.23317798436779,5.573481836307851,-43.74445728145854,249.58607046670397,133.88707247875791
298,7.097557612141934,-246.3300828897704,-37.8294085440701,97.1569624456817,11.536183945495429,-46.17940493604732,249.39166693244314,124.29723574689537
299,6.477932755267791,-246.31364373575076,-37.66586055074599,86.47218465521186,16.77674079913233,-48.6740450964217,249.3374785063453,115.21369329196213
300,5.778342466585191,-246.43836634429468,-37.51744550405366,76.30645680211937,21.192575234452345,-51.236821574447454,249.42480159129923,106.77403873071421
301,5.009964363679502,-246.70162643975158,-37.39018510757335,66.77750364824293,24.688262357449684,-53.86564231376975,249.6522523327858,99.10502408029579
302,4.185615256647338,-247.0980579837462,-37.29000031042979,57.99041741312154,27.176896139891547,-56.54640766011179,250.0157379715448,92.31987093152176
303,3.3197570477426375,-247.61961252400187,-37.22252651154769,50.03516615831386,28.581681093953872,-59.25190523843479,250.50848836657866,86.51595118863469
304,2.4284663826343906,-248.25567876017038,-37.19292738122004,42.98439849981015,28.837718509813897,-61.94115080069871,251.12114656192037,81.77288017108604
305,1.529354646656328,-248.99325878443852,-37.20571164888084,36.89159174651161,27.89394180433261,-64.55924638082931,251.84191521303654,78.1510600927986
306,0.6414256617972564,-249.81719553550965,-37.264557010848186,31.789595900034527,25.715140710097142,-67.03781582638454,252.65675376822767,75.6907066609855
307,-0.21513920111748963,-250.7104445213316,-37.37214515490077,27.689628512590723,22.284000128980924,-69.29606250857316,253.54961985949618,74.41138264512891
308,-1.0192750167306013,-251.65438213995765,-37.53001176437449,24.58077217881728,17.603067832043283,-71.24247410442197,254.50274771380617,74.31204868596694
309,-1.7494081682720055,-252.62914313516777,-37.73841510783023,22.430016113898596,11.696557228532113,-72.77717469046104,255.49695669112108,75.37162542901414
310,-2.3839085832520372,-253.61398079089338,-37.9962264316273,21.182866559245117,4.611888198353061,-73.7948956219087,256.5119841933678,77.55004596821571
311,-2.9016105649522888,-254.58764506882238,-38.30084505183976,20.764530085640274,-3.579129030343833,-74.1885051639683,257.52683884869487,80.78976583791508
312,-3.282388543061738,-255.52877552686655,-38.648140914652934,21.081652443607776,-12.779554811477178,-73.85300453524911,258.52017156499056,85.01768888026781
313,-3.507769903715042,-256.416306962158,-39.0324273685584,22.024576259221085,-22.867101798651518,-72.68986717643229,259.4706631924415,90.1474592458932
314,-3.5615639483942467,-257.2298858292351,-39.44646685064338,23.4700650740691,-33.69449772128949,-70.61157094238034,260.3574276566192,96.08206103936632
315,-3.430484131074198,-257.95029439762766,-39.88151210420654,25.284428795923763,-45.0904711828566,-67.54615152909525,261.16042833389827,102.71665750232508
316,-3.1047399344618674,-258.5598775233979,-40.32738533409179,27.32697508678109,-56.86138296103192,-63.44159126747275,261.86090332747415,109.94159203274624
317,-2.578574810440638,-259.0429642748906,-40.77259717658673,29.453700724912988,-68.79350599316926,-58.26985128273544,262.4417925985491,117.64546514688365
318,-1.8507273328673584,-259.386273960651,-41.20450639438805,31.52112538487103,-80.65593922748589,-52.030357205987315,262.8881570818876,125.7181959984684
319,-0.9247940668332585,-259.57929377734223,-41.60951990994538,33.3901578038338,-92.20412452954893,-44.75275905249157,263.1875774015406,134.05397517249912
320,0.19052532345421536,-259.6146137306233,-41.97333138995281,34.929872577220635,-103.18392208161539,-36.49880429530027,263.33051803307853,142.55401761046798
321,1.4813175742101266,-259.4882040440939,-42.281195234784406,36.0210674729918,-113.33618786520549,-27.363189203966712,263.3106421079146,151.12903084750207
322,2.928493620186371,-259.1996211991239,-42.51823151316138,36.55946917672758,-122.40178600254072,-17.473286691243914,263.12506275365376,159.7013242873372
323,4.507984736313641,-258.7521311221662,-42.66975612321992,36.458462371470844,-130.12695772239,-6.987688458830423,262.7745189882788,168.2064998870387
324,6.191102875604945,-258.15274171985607,-42.72162938838493,35.651234264611126,-136.2689562604392,3.9064560055067976,262.26346761795327,176.59468272571124
325,7.945066200643005,-257.41214153560963,-42.66061551948749,34.09225345857987,-140.60184220982038,14.997272646106506,261.6000869288249,184.83126996727387
326,9.733685181724168,-256.54454610598106,-42.47474482433168,31.7580362062349,-142.9223164990007,26.053087271092007,260.7961925516333,192.89719634315887
327,11.518198272986192,-255.5674578708413,-42.1536701307963,28.647191629226953,-143.055449004691,36.82831064720972,259.86706994595755,200.7887307520084
328,13.258239325152902,-254.50134853634134,-41.68900865411512,24.779777338620697,-140.86014148618835,47.070107223195556,258.83123080072556,208.5168294415788
329,14.912911998399872,-253.36927413887923,-41.074660522332735,20.196035118501634,-136.2341465337782,56.5256300011454,257.71010181116327,216.10607506566222
330,16.441940077927526,-252.19643264519638,-40.307095282689545,14.954610002191032,-129.11845251588662,64.94957294199594,256.52765368082345,223.59322818129772
331,17.80685735753926,-251.00967211224253,-39.38559780912818,9.130382195242525,-119.50084112900264,72.11177347394589,255.30997615889086,231.02541152098865
332,18.972197132283096,-249.83695486250915,-38.312465035069245,2.8120567894826074,-107.41843176390977,77.80459299443606,254.08480211295728,238.45794281181352
333,19.906639634252045,-248.70678050725977,-37.093144852945066,-3.9003417540496352,-92.95904721808392,81.84981265438527,252.88098080026543,245.9518344764456
334,20.58407602910597,-247.64756861030813,-35.73630845648395,-10.897936548034927,-76.26126849339336,84.10480335706256,251.72789833570286,253.57099175418136
335,20.984549760638288,-246.68700085605516,-34.2538475044813,-18.065321124641205,-57.513090917559104,84.46776008689332,250.6548424500353,261.37916495597256
336,21.09503992049798,-245.85132314165838,-32.66078792065475,-25.28267380294276,-36.949146510250536,82.88182869399706,249.69030940957768,269.43674395031974
337,20.910056738333285,-245.16461031224273,-30.97511313777655,-32.427648870101045,-14.846514349664274,79.33799564436212,248.86125372224691,277.7975183853679
338,20.43202596955323,-244.64800050165866,-29.21749143319612,-39.37708200999437,8.480802714261818,73.87665567174484,248.19228620277636,286.50555879917613
339,19.671446538793184,-244.3189122399282,-27.41090489223884,-46.00859499414095,32.68860450735172,66.58781645859527,247.70483310026657,295.5923944092348
340,18.64681382121967,-244.19026519707623,-25.580181420695084,-52.20222078925601,57.41024825861147,57.60994135537145,247.4162777832978,305.0746669964788
341,17.384308861470835,-244.26973372661865,-23.751435773624483,-57.842189184073085,82.26522191831641,47.127469086284684,247.3391158814905,314.95242407648453
342,15.91726103779427,-244.5590701443111,-21.95143029491897,-62.8190107340046,106.86830128434607,35.36708237851027,247.4801635441929,325.20818019709736
343,14.28539770037664,-245.05354089432961,-20.20687052020245,-67.0319712739993,130.8390394521519,22.5928252476943,247.83986544316622,335.8068286834941
344,12.533899013505579,-245.7415224547507,-18.54365475192739,-70.39210115524166,153.8113264550999,9.1001918503174,248.41175331815137,346.696435051205
345,10.712279861410018,-246.6043041563089,-16.986100189585823,-72.8256167885464,175.44274977491614,-4.790670441300062,249.18210642895372,357.80989300057644
346,8.873123759531499,-247.6161414896882,-15.55617119517288,-74.27775439242984,195.4234809533779,-18.74248347659061,250.129861763713,369.0673754491837
347,7.070696892468071,-248.7445958469982,-14.272737567777153,-74.71683640585248,213.4844099457982,-32.4089096068797,251.2268141969064,380.37946467571555
348,5.359474260551369,-249.95118517578308,-13.150891975823395,-74.13833918009526,229.40424934028388,-45.44297956011388,252.43813521612003,391.650796503088
349,3.7926147447717486,-251.19235511635642,-12.20135569870519,-72.56867391685194,243.01533897611492,-57.50567006975012,253.72322376452232,402.78400656634307
350,2.4204274812315543,-252.42076249826385,-11.430000312738501,-70.0683564002872,254.20790245492185,-68.2744114737038,255.03688481822076,413.68372899594743
351,1.288877503967742,-253.58684347924236,-10.83750973475498,-66.73422748832174,262.93254490544433,-77.45129551317719,256.3308113733111,424.26037760268747
352,0.43818300309509783,-254.64061810966788,-10.419202184921776,-62.700396717049415,269.20083915174877,-84.77074868881022,257.5553245020001,434.43344368773916
353,-0.09844146675068106,-255.53366278206965,-10.165025465149732,-58.13761660347071,273.08392574696506,-90.0064394701217,258.6613051515117,444.13407646900305
354,-0.29584275509989943,-256.22116328568774,-10.059731820598023,-53.250856462642076,274.70914820383393,-92.97720053785557,259.602231893171,453.3067712403956
355,-0.1377394653356369,-256.66394591433607,-10.083230800053474,-48.27493245716748,274.2548508178255,-93.55177058175657,260.33622286809924,461.91007157013405
356,0.3827558778502516,-256.83037439791383,-10.21111015177381,-43.46816379041491,271.9435715236679,-91.65219296515936,260.82796990660654,469.9162856962071
357,1.2629335847176792,-256.69799821193305,-10.415306317904795,-39.1041588238631,268.03395352945046,-87.25574931155464,261.0504500914968,477.31031202195834
358,2.490621060691627,-256.25484431824964,-10.664898313374122,-35.46198126650526,262.81176587291395,-80.39535360594006,260.9863061113248,484.08775236045375
359,4.044658985960981,-255.50026012446455,-10.926992439180808,-32.81509400634988,256.5804572992133,-71.15838577401006,260.62880207170025,490.2525536159732
360,5.8957081511635945,-254.4452400503907,-11.16766072848357,-31.419612669860054,249.65166779029815,-59.684001408756544,259.98228555352836,495.8144498847208
361,8.007359394447844,-253.11220004425152,-11.352893488203817,-31.50250747131088,242.33609061107032,-46.159013692885765,259.0621180368291,500.786471348648
362,10.33750326781304,-251.53420102846374,-11.449526248350605,-33.25045609932446,234.93502191298825,-30.81250063659711,257.89407163029887,505.1827438228024
363,12.839901857267328,-249.7536601157396,-11.426104312019028,-36.8000613250544,227.7328640632167,-13.909340609821665,256.5132268887149,509.0167333937876
364,15.465893657278063,-247.82062377935313,-11.253653830804831,-42.230099069854916,220.99077242383441,4.257083023403563,254.96244063836065,512.3000138794749
365,18.16615436877344,-245.79070643877532,-10.906336184606594,-49.556356716613365,214.94156123083263,23.372744846567638,253.2904806714753,515.041572537315
366,20.892432502232026,-243.72281820791116,-10.3619713414627,-58.7294650130624,209.78591807022923,43.11113808254848,251.54994310631943,517.2476350822208
367,23.599179116923427,-241.67681485925587,-9.602424786453147,-69.63593298570197,205.6899213359023,63.1414709893797,249.79507636962597,518.9219851838906
368,26.24499612981723,-239.71120056598713,-8.613860862251542,-82.10238047767152,202.78381195709218,83.13665599269709,248.079632677646,520.0667661129605
369,28.793837319358943,-237.88100034290906,-7.386872668919231,-95.90274632736671,201.16193877090862,102.78087586394206,246.4548546643231,520.6837672512349
370,31.215910032319773,-236.23589656451685,-5.916504834794789,-110.7680523559127,200.88377401114982,121.77654382537419,244.96768403552684,520.7761988294956
371,33.488242860781114,-234.81869591304823,-4.202190068470529,-126.39814347169316,201.97587864825266,139.85050935202497,243.65925424971869,520.3509323818805
372,35.594903875528686,-233.66416338291197,-2.2476228311346285,-142.47471615422185,204.43468390326896,156.75939562980028,242.56370357107343,519.4211311449615
373,37.526873689418096,-232.7982320267407,-0.060593328501209,-158.67489704879807,208.22994276351,172.29398574865195,241.70732112394592,518.0091261571773
374,39.281595985112915,-232.23757368716062,2.3471975889559005,-174.68463830229356,213.30869206855596,186.28260171630967,241.10801873585473,516.1493293219858
375,40.86224389333715,-231.98949852541034,4.960326496869211,-190.21124923349572,219.59955109870847,198.59344364303604,240.77510641581173,513.8909308426335
376,42.27675306110336,-232.05213991272205,7.759827733780955,-204.9944750247749,227.01716743575295,209.13587735276306,240.7093393501465,511.30011345836954
377,43.53668118215967,-232.41487546499144,10.723360756984215,-218.8156514449538,235.46660771069122,217.86067896837096,240.90319872014075,508.46152978094113
378,44.65595916520975,-233.05893370164497,13.825364096645453,-231.50459906139827,244.84748362618532,224.7592660730175,241.34136668762395,505.4788267974131
379,45.64960103693089,-233.9581381542958,17.037199331670195,-242.94406049060265,255.0576067942103,229.8619672672483,242.00135690385835,502.4740567808943
380,46.53243823510127,-235.0797459488938,20.327291362989982,-253.07162094807572,265.99598329319787,233.23540460219897,242.85426525571958,499.5858804310404
381,47.31793941303023,-236.38534496701257,23.661273348059638,-261.87917843098256,277.56499254812724,234.97908504040083,243.8656104761528,496.96654112848995
382,48.017169694070574,-237.83178151677623,27.002146208585707,-269.4101397025148,289.67164485229506,235.22131633601035,244.99623973579028,494.7776646412962
383,48.63793404830774,-239.37209795100938,30.310463641624356,-275.7546078330893,302.2278746510669,234.11457855620662,246.20327946441898,493.1850127392247
384,49.18413869793746,-240.956466115477,33.54455386478943,-281.04289403248794,315.14989746302,231.8304943512466,247.44111576087155,492.35238819894624
385,49.65539272399794,-242.53310752281743,36.66078872899824,-285.43773030628364,328.35673044536554,228.55454869826545,248.66239151952644,492.4349487052099
386,50.04685985560949,-244.04919464983044,39.61390933969028,-289.12558137726245,341.76804305657714,224.48071197731963,249.81900880411825,493.5722343727601
387,50.34935833015803,-245.45172985270696,42.35741514128163,-292.30745725500026,355.3015585665594,219.80611879239925,250.863125207651,495.88124490803574
388,50.549695290269725,-246.6883992723564,44.84402082898781,-295.1896156149327,368.87026435866335,214.72594889406494,251.74813221887896,499.44991573081944
389,50.63121197011554,-247.70839897547012,47.026182719911596,-297.97451932956625,382.3797060351028,209.4286458391555,252.42960227932232,504.3313366442426
390,50.57450743253103,-248.46322976802813,48.85669356527755,-300.85238164039697,395.72563619478433,204.09159361080063,252.86618968784865,510.53903173336494
391,50.35830226438868,-248.90745613573011,50.28934241492162,-303.9935911241786,408.7922641331213,198.87735152079463,253.02046940233296,518.0435759367853
392,49.96039957372866,-248.99942419476645,51.27963411370306,-307.5422618800828,421.4513100116007,193.93052395401253,252.85969772654803,526.7707642538033
393,49.358698721610544,-248.7019337972208,51.78556114495912,-311.6111024533618,433.56201007086787,189.3753150042571,252.35648023251233,536.6014772424624
394,48.53221722142126,-247.98286112109375,51.768418555518664,-316.27774157836336,444.97215311144987,185.31379027035405,251.48933506177124,547.3733059621323
395,47.46207797339995,-246.81572996548604,51.19365041232927,-321.5825919653927,455.5201583673868,181.8248406673306,250.2431436858698,558.8839163292395
396,46.1324223598043,-245.18023221516194,50.03171368570135,-327.52827720264906,465.0381368807539,178.9638177008223,248.60948590060156,570.8960527556789
397,44.53121454290263,-243.06270022556131,48.25894290988175,-334.08059296629966,473.3558177645289,176.76278778472462,246.5868609491372,583.1440090069649
398,42.6509082909448,-240.45653592156492,45.85839681617915,-341.1709227812346,480.305171168874,175.23133615733892,244.1808018795669,595.3413340342825
399,40.488954390804125,-237.3626028022509,42.8206666225,-348.69998047732946,485.72552361167135,174.3578397801412,241.40389503855081,607.1894940396436
400,38.04813371978118,-233.78958728465565,39.14462488689733,-356.54270605453326,489.46893942266,174.11112393221563,238.2757203163675,618.3871798316352
401,35.336707927141155,-229.7543344497046,34.83809375133822,-364.554099311616,491.40563379251347,174.44241907730492,234.822729759037,628.6399301057454
402,32.36838615954162,-225.2821600554381,29.918411834004594,-372.57573785785263,491.4291862712562,175.28754206968378,231.07808204749202,637.6697351091962
403,29.162112244317203,-220.407135698916,24.41287975034141,-380.44269580085034,489.46133537937806,176.5692370023305,227.08144798491202,645.2242891037345
404,25.741682123483873,-215.1723374956694,18.359065079786618,-387.9905598264665,485.4561519705732,178.19962357819622,222.87879763312066,651.0855721842713
405,22.13520592370031,-209.63004107553377,11.804948308186516,-395.06223336109514,479.40340869535106,180.08271245503744,218.52217339762606,655.0774612842702
406,18.374432681716325,-203.84183778237465,4.808891567157869,-401.514228725246,471.3309843348337,182.11695576557102,214.0694457328033,657.0720966748745
407,14.493958472106632,-197.8786396396487,-2.5605881648525375,-407.2221722559489,461.3061651711655,184.19780604823825,209.5840400879335,656.9947649364749
408,10.53034080273048,-191.82053493535096,-10.225259858458205,-412.08528771397596,449.4357321089578,186.22025831743898,205.13461633609694,654.8271034876511
409,6.521143973813782,-185.7564532386521,-18.097850948734184,-416.0296769212273,435.86475348376985,188.0813489459018,200.79467637896474,650.6084859214953
410,2.5039417945165927,-179.78359925724413,-26.082966844079202,-419.01028033939417,420.77404050310304,189.682582715366,196.6420729418779,644.4355110143126
411,-1.4846943451886379,-174.00661985243514,-34.07826790236158,-421.011470387421,404.37626508458004,190.93225706340522,192.75839346192194,636.4595892881403
412,-5.410192501228582,-168.53647789857234,-41.975906937068174,-422.04630260831635,386.91078725999927,191.74765125527793,189.22819757944097,626.8826961348949
413,-9.2409312492886,-163.48902007086733,-49.66422051315168,-422.1545202803929,368.6372893221079,192.05704851591346,186.13809463414805,615.9514357984981
414,-12.9491124534268,-158.98324210819476,-57.02965573604599,-421.39947303304183,349.82836450443585,191.80156090338087,183.57565778606278,603.9496320713665
415,-16.511522689384822,-155.13927325501,-63.958901719438714,-419.8641662853111,330.7612576062257,190.93672900200917,181.6281826090068,591.1897259499057
416,-19.91015074159406,-152.07611988815134,-70.34118211191229,-417.64670312540835,311.70900222849986,189.43387011460126,180.38130882682063,578.0033146225601
417,-23.132630711295704,-149.90922527129987,-76.07065256126188,-414.8554112140738,292.9312424701195,187.28114846778095,179.9175330659017,564.7312070210693
418,-26.17248453112605,-148.74791662766128,-81.04883559236983,-411.6039624684621,274.66506356114127,184.48433863260075,180.31464729516787,551.7133957081293
419,-29.02914445871356,-148.69282127454113,-85.18701619890227,-408.00679116722716,257.1161825836509,181.0672495355247,181.6441418345211,539.2793501570951
420,-31.707745442581256,-149.83333983025923,-88.40851574712359,-404.1750956521932,240.4508631081446,177.0717726412832,183.96961387174196,527.7390200334742
421,-34.218688552165624,-152.24526626810982,-90.65076056449796,-400.2136695096902,224.7889124832223,172.55751606129442,187.345223118429,517.374897778398
422,-36.57698879531198,-155.9886419035603,-91.86706533520157,-396.21875053485735,210.19809555158858,167.6009881135987,191.81423627302968,508.4354289242897
423,-38.801432229763954,-161.10592346664,-92.02805999756883,-392.2770019229932,196.69025455827378,162.29430006447024,197.40770164795128,501.1299802688468
424,-40.913577249080106,-167.62053449259065,-91.12270140924184,-388.4656535870768,184.21936608381222,156.74336822755592,204.14329442295906,495.6254862120787
425,-42.93664288443131,-175.53585464370266,-89.1588263789694,-384.85373721439254,172.6816981287534,151.0656091686328,212.02437090305528,492.0447980988919
426,-44.894332944424285,-184.83468366540382,-86.16321960013003,-381.5042526720437,161.91815957906994,145.3871369781483,221.03926626090353,490.4666651425733
427,-46.80964879569099,-195.47919617646338,-82.18118775871005,-378.47701271122924,151.7188628446977,139.83948750402624,231.1608641245759,490.9271830172303
428,-48.70374529125016,-207.4113814230738,-77.27564905243916,-375.83183562026954,141.82984775864432,134.5559113687858,242.34645785372436,493.42246335473703
429,-50.594883423450284,-220.55393974455563,-71.525764928671,-373.6316999577777,131.96183836295876,129.66729670428813,254.5379124395881,497.91221164649835
430,-52.49752953247117,-234.81158613369593,-65.02515728225073,-371.9454497135446,121.80082219558523,125.29780476762744,267.6621229224133,504.3238602957775
431,-54.4216444595745,-250.07269222639917,-57.87976890340893,-370.849648771288,111.0201549083003,121.56032668362515,281.6317506996236,512.5568941893749
432,-56.37219723237591,-266.211182649947,-50.2054369809992,-370.4292343355678,99.29380526657306,118.55189588139615,296.34620432495717,522.4870314245669
433,-58.34892705724421,-283.0885914314797,-42.125258368949055,-370.7767097591344,86.31027259740061,116.34921585325992,311.69281824919227,533.9699806196602
434,-60.34636490149341,-300.5561807752327,-33.76683061473695,-371.98974245540757,71.78663693588015,115.0044835302194,327.5481737054325,546.8445825494099
435,-62.35411231220031,-318.4570291725767,-25.259454155082693,-374.1671819546408,55.482147603534344,114.54170100397268,343.7795026224426,560.9352474635716
436,-64.35736122024623,-336.6280087169729,-16.731378596370575,-377.4036729485399,37.21072476793505,114.9536683942873,360.2461191696343,576.0537077799378
437,-66.33762530901451,-354.9015917196531,-8.307169760959741,-381.7831927959911,16.851747247930685,116.19983528772687,376.8008341939562,592.0002062667334
438,-68.27364188621935,-373.10745228741223,-0.10526457196957867,-387.37197596063834,-5.641464764638993,118.20515686390983,393.291324068295,608.5643216637537
439,-70.14239373438537,-391.0738565798554,7.764231327420105,-394.2113829863645,-30.235986326814505,120.86005604723854,409.5614449422552,625.5256897917047
440,-71.92019381066524,-408.6288626582963,15.201461905527076,-402.3113152532676,-56.81683867187057,124.02153918880765,425.4525030597598,642.6549063235723
441,-73.58377252872131,-425.60137387592175,22.118427367187593,-411.6447608446551,-85.18799300955246,127.51545476864219,440.8045086263351,659.7149000043132
442,-75.11130798864751,-441.82210588451227,28.44026368014015,-422.14398094413593,-115.07688295533325,131.13982686112422,455.4574520481772,676.4630460229815
443,-76.48334383027397,-457.1245347238195,34.10618903055028,-433.6987178612538,-146.1422872915345,134.66914168170837,469.25264542623097,692.6542487086793
444,-77.68354681604673,-471.34589151675067,39.07011690125813,-446.15663982108674,-177.98525699781965,137.85942051702247,482.0341682855266,708.045155300206
445,-78.69926584069309,-484.32825864773406,43.30093751767727,-459.32605393217267,-210.16259573024988,140.4538797528095,493.65044510758236,722.3995612423073
446,-79.5218648346737,-495.9198045761445,46.78246904831195,-472.98073920087717,-242.20227407304782,142.188961511247,503.9559647604275,735.4949331440163
447,-80.14681338974262,-505.9761721102741,49.5130790462067,-486.8665965088336,-273.62007248082887,142.8005173048501,512.8131307802854,747.1298244252017
448,-80.57353069948674,-514.3620112656777,51.504977152373606,-500.7096975632097,-303.9367082897623,142.02994025390637,520.094209873806,757.1318192962405
449,-80.80499051400528,-520.9526262028384,52.783183597668064,-514.2252478058361,-332.69470681370143,139.63006515271496,525.6833274335897,765.3655404781284
450,-80.84710714171624,-525.6356890136103,53.384185279185814,-527.1269585287545,-359.4743203753876,135.37068590049228,529.4784460785095,771.7402089862513
451,-80.7079348550937,-528.3129629474307,53.35430201962999,-539.1363435454427,-383.90787466880334,129.0435732271938,531.3932577558414,776.2162491219561
452,-80.3967248688262,-528.9019744238432,52.747799151079505,-549.9915044573193,-405.69202038926426,120.46691055287394,531.3589218981442,778.8104781327517
453,-79.92289451100658,-527.3375761983403,51.62479734071676,-559.4550335545545,-424.597481024028,109.48910208880275,529.3255904478194,779.599494580504
454,-79.2949713746129,-523.573351830721,50.04904484067078,-567.3207336554798,-440.47600748836237,95.99194495097493,525.2636733141576,778.72096975353
455,-78.51958054384652,-517.5828220390624,48.08562930811449,-573.4189224036522,-453.2643707947107,79.89319415521308,519.1648125780802,776.372642769371
456,-77.60054525387599,-509.36042431804066,45.79871436563519,-577.6201531211592,-462.98534083665373,61.14858080685115,511.0425480482757,772.8089172237314
457,-76.53817030539925,-498.9222465465271,43.24938880787274,-579.8372490900061,-469.74571009443576,39.753362513414224,500.9326687169007,768.3350551801119
458,-75.32877254000347,-486.3065023569908,40.493712967396334,-580.0256194204464,-473.7315238783802,15.743484928652391,488.89325339485816,763.2990658421161
459,-73.96451287822984,-471.5737408244458,37.5810372123219,-578.1819074899346,-475.20077144122496,-10.803587711791867,475.0044094161814,758.0814940178133
460,-72.43356942572804,-454.80678605129515,34.55265282372911,-574.3411179671945,-474.47387211517145,-39.76835378141222,459.36772143213733,753.0834268052294
461,-70.72067117245963,-436.110404135253,31.440817299077164,-568.5724702461487,-471.9223549823779,-70.98909610229967,442.10542380546207,748.7131501004349
462,-68.80798774883004,-415.6106965550032,28.268176480494,-560.9743234367954,-467.95617760399085,-104.26212167644762,423.3593108238735,745.3719888384278
463,-66.67634448557278,-393.4542209817132,25.047586895588662,-551.668596356063,-463.0101579887891,-139.34253667200576,403.28939970554154,743.4399428966965
464,-64.30670660748466,-369.8068437366902,21.78232511149679,-540.7951509533215,-457.5300048731471,-175.9456995261785,382.0723629930363,743.261772192559
465,-61.681854826229916,-344.85233326768355,18.466657493503156,-528.5066080299275,-451.9584275301206,-213.7495005730349,359.89975017121674,745.134182508159
466,-58.78815896779148,-318.79071105480347,15.086732724196903,-514.9640138974003,-446.72179196725705,-252.3975982516032,336.9760232411322,749.2947171682356
467,-55.61734752952911,-291.8363837983843,11.621749220000588,-500.3336778436327,-442.2177677990829,-291.5036993387185,313.5164361699066,755.9128733953861
468,-52.168169274163404,-264.2160863350383,8.045339681153163,-484.785366230527,-438.80437737539154,-330.65690870220845,289.74479145097683,765.0838439282928
469,-48.4478476099642,-236.16666730076818,4.327107121419195,-468.49189341957555,-436.79081080816223,-369.42810207999213,265.8911074322066,776.8251448364213
470,-44.47323912826732,-207.93275007506176,0.4342440613130437,-451.63001842454935,-436.4303033727085,-407.37720391797086,242.18922894113555,791.0762423976261
471,-40.27162390344438,-179.7643023721035,-3.6668283699472943,-434.38245509458613,-437.9152876415931,-444.06118974123217,218.8744137321376,807.7011489842604
472,-35.88107570269709,-151.91415105952214,-8.008852466432712,-416.9407322598333,-441.37494109259313,-479.04258376765114,196.18093005817482,826.4938300512838
473,-31.35038267784989,-124.63548471538736,-12.622192771411976,-399.5085874223825,-446.8751610305295,-511.89818999460954,174.3397053773257,847.1861551070116
474,-26.73851104815992,-98.17939346561836,-17.533383932022627,-382.30553292213114,-454.42091531363434,-542.2277802527235,153.5760699934587,869.458033932238
475,-22.113624232781895,-72.79250112057846,-22.76378167779518,-365.5701948270438,-463.96083387847295,-569.6624662144706,134.10763906466278,892.94930368723
476,-17.551686995320345,-48.71474602332092,-28.328328365263612,-349.56299718654805,-475.3938146335643,-593.8725030831054,116.14236950050993,917.2728729583857
477,-13.13469786643536,-26.17736267719328,-34.23444536834365,-334.5677549673223,-488.57731511474424,-614.5743078619053,99.87681397977903,942.0285860692443
478,-8.948603309923538,-5.4011054507408005,-40.48106666561525,-320.8917530457016,-503.3368928506568,-631.5365202347093,85.49457412841153,966.8172449862925
479,-5.08095430141798,13.40526159142095,-47.05782991801504,-308.8639287197229,-519.4764529233584,-644.5849838964942,73.1649328937464,991.2542162494601
480,-1.618370990730522,30.046207924576073,-53.94444254521596,-298.8308439901924,-536.7885744475677,-653.6065758469323,63.041627855802524,1014.9820580999473
481,1.3561153953435465,44.34043977229719,-61.11024049251906,-291.1502350710631,-555.0642336693047,-658.5518572251561,55.26171709999148,1037.6816338247775
482,3.765771651051425,56.12171933567806,-68.51395638844662,-286.18206240609794,-574.1012333799372,-659.4365595004165,49.94448865588756,1059.081238521672
483,5.5428485651566755,65.23958231230253,-76.10371169412441,-284.27715099488364,-593.710694549983,-656.3419524002344,47.19037130540293,1078.9633620146922
484,6.631167190336911,71.56005459240214,-83.81724461476546,-285.7636955450252,-613.7210681633078,-649.4141625937573,47.0798150568357,1097.1688375279962
485,6.988526580783494,74.96647636236096,-91.5823827173853,-290.93208930751695,-633.9792790049745,-638.8625222686303,49.672120915492776,1113.5982746641005
486,6.588852834981899,75.36053615555984,-99.31776725863458,-300.0187017314598,-654.3488099819257,-624.9570224561227,55.00421126709515,1128.210834892326
487,5.424009551500104,72.66359880381319,-106.93383575814866,-313.18936693213215,-674.7047630626785,-608.0249274631325,63.08934561042124,1141.0205679696357
488,3.505192134136717,66.81838124841488,-114.33407025868829,-330.5234463911106,-694.9261749224324,-588.4465773465661,73.91580299681387,1152.090678688629
489,0.8638330678161021,57.790991263315945,-121.41652004391133,-351.99938951903823,-714.8861017845713,-566.6503714038034,87.4455723509271,1161.526223075948
490,-2.448047294667794,45.57329968465461,-128.075607632982,-377.4827264460366,-734.4401960573285,-543.1068954936842,103.61311298889514,1169.465827652638
491,-6.358099236263985,30.185570629462937,-134.2042235281489,-406.7173805773065,-753.4146553351148,-518.3221380020008,122.32426697946327,1176.0730727976227
492,-10.774551933707436,11.679230291377596,-139.69610646488746,-439.3210813285238,-771.5945158741011,-492.82973977683235,143.45541913227538,1181.5281769680118
493,-15.587793645083337,-9.860383408252236,-144.44849052109709,-474.7854953422867,-788.7132801182987,-467.1822454732458,166.85300676111564,1186.0205664779598
494,-20.672623507251664,-34.311477959175775,-148.36497828023403,-512.4814888370702,-804.4448118555168,-441.9413671994606,192.33347881508942,1189.742824985108
495,-25.89114768859111,-61.51367695073497,-151.35857159156467,-551.6696978413439,-818.3983092935338,-417.6673332122863,219.683792775671,1192.8863973513905
496,-31.096261438052863,-91.2665172897744,-153.35476091369404,-591.5163283031764,-830.1169849565739,-394.9074699001887,248.6625190667013,1195.639280866125
497,-36.135624251930295,-123.32877773386996,-154.29454435459414,-631.1138418876169,-839.0808528611052,-374.1842484425367,279.00159812790133,1198.1857761734957
498,-40.85600072494764,-157.4188202373775,-154.13722247966984,-669.5059091973991,-844.7137615269438,-355.98311116264097,310.4087663136713,1200.7081908214418
499,-45.10780936503953,-193.21608747048344,-152.862799077867,-705.7157330143807,-846.3945347557028,-340.7404671723797,342.57063531459767,1203.39018882708
500,-48.74970133607943,-230.36384789399384,-150.4738156396711,-738.7765697696179,-843.471816942485,-328.8322989767975,375.15637887498497,1206.421262819269
501,-51.65298497653793,-268.47321569777006,-146.99646204834045,-767.7630338259734,-835.2819964834891,-320.5638348522651,407.8219542419193,1210.001589126284
502,-53.70572105304905,-307.12839994093406,-142.48083976498026,-791.8216000351284,-821.1694243411384,-316.1607029433868,440.21476716695287,1214.3463514159796
503,-54.816335673253924,-345.8930610870895,-137.00030486709562,-810.1986727274416,-800.5080643673296,-315.7618917929961,471.97867811901597,1219.6885386860554
504,-54.91662798909238,-384.31758177276896,-130.6498810672952,-822.2646916439566,-772.7237008723979,-319.41471622921176,502.75923998467704,1226.279278270347
505,-53.96408339334197,-421.9470001401056,-123.5437996159067,-827.5329923763728,-737.3158714209195,-327.071858388212,532.2090500668635,1234.3849595036536
506,-51.943436349384896,-458.3293143273777,-115.81228623343853,-825.6724995852479,-693.8787714989838,-338.59045219527184,559.9930907648983,1244.2807129152716
507,-48.86745814688542,-493.0238488614944,-107.59776829900822,-816.5137658093806,-642.1204778553083,-353.7331236726797,585.7939262682959,1256.2401946013617
508,-44.776971898746545,-525.6093784653315,-99.05071251449948,-800.0483392705946,-581.8799486315779,-372.17088934583853,609.3166206453044,1270.5220470340894
509,-39.74011816611404,-555.691731053779,-90.32531927642823,-776.4219116351006,-513.1413727814246,-393.48783739458815,630.2932493979889,1287.3538244220142
510,-33.850908482412635,-582.910636976174,-81.57529270305412,-745.9221119943902,-436.04554788112296,-417.18755011021096,648.4868946371641,1306.9145291051068
511,-27.22711062676474,-606.9456519309024,-72.94987674322135,-708.9621185253759,-350.8980478674551,-442.70125025750707,663.6950443636117,1329.3171421695795
512,-20.00751043898835,-627.5210492241135,-64.5903045844047,-666.0614061352294,-258.17398359699536,-469.39765370270914,675.7523552049826,1354.5925971477907
513,-12.348594269907062,-644.4096414189795,-56.62675931564966,-617.8249208391462,-158.51915298405294,-496.5944819236746,684.5327755040573,1382.6765330770536
514,-4.420699069459533,-657.4355393886383,-49.17589593633187,-564.9217933324203,-52.74733587373208,-523.5715331508032,689.9510501224623,1413.3999124079292
515,3.596312414380348,-666.4758822788734,-42.338933144181915,-508.06442639346517,58.16655894958261,-549.5851348681817,691.963633901769,1446.4842625269202
516,11.517774837284419,-671.4615781811248,-36.20029100727799,-447.988473917045,173.0978032060761,-573.88371187617,690.5690307216565,1481.541950896853
517,19.159239602967588,-672.3770909212446,-30.826730162266244,-385.4339327238919,290.7878730855342,-595.7241174761982,685.807557884327,1518.0815689028166
518,26.341659176311488,-669.2593016468235,-26.266940828155885,-321.12734581347854,409.86530803308074,-614.3883080898075,677.7605191757699,1555.5182048681474
519,32.89657775206447,-662.1954707637957,-22.551534027395615,-255.76501026930654,528.8712983497708,-629.1999082570288,666.5487598216256,1593.18815538446
520,38.671148558596286,-651.3203295171907,-19.69339824281149,-189.9971147977556,646.2895980205745,-639.5402197190407,652.3305753733484,1630.3674678035586
521,43.532787257459404,-636.8123421905292,-17.688396419496325,-124.41288796340527,760.5800223352367,-644.8632709801615,635.2989549899011,1666.2936125288186
522,47.37327229880278,-618.8891993393787,-16.51638603378442,-59.52707286525871,870.214456141972,-644.7095689373513,615.6781574293715,1700.1895127113423
523,50.112116354801564,-597.8026292679507,-16.14254654545788,4.231707405402443,973.714014397053,-638.7182834771114,593.7196451816785,1731.2890666114108
524,51.69905641738689,-573.8326482563954,-16.518993900564823,66.52993068840641,1069.6858035747227,-626.6376518106388,569.6974379938674,1758.8631659967766
525,52.11554235337558,-547.2814074367734,-17.58665259407141,127.13464051725542,1156.8576583524396,-608.3334199209007,543.9029893811922,1782.2450685161941
526,51.37514397577242,-518.4668312239614,-19.277344781176375,185.91455923844686,1234.109282348091,-583.7951403989318,516.6397342982934,1800.8538805791857
527,49.5228440245275,-487.71627305039874,-21.516045650175773,242.83617561638493,1300.498397325271,-553.1401247894339,488.2174971515788,1814.2149067204307
528,46.63323616553171,-455.360432940884,-24.223246674937027,297.9544192488271,1355.2807842099687,-516.6148179905725,458.9469803593018,1821.9757524346455
529,42.80769881737587,-421.7277831834748,-27.317364508673258,351.3979200607363,1397.9234585250758,-474.59334085218126,429.1345686341804,1823.9173290886247
530,38.17066238121043,-387.1397298653615,-30.717132980649673,403.3492995155015,1428.1106359770463,-427.57295378859686,399.07767844216517,1819.9592752340309
531,32.86512538850656,-351.90669920223445,-34.343917108959396,454.02140283439064,1445.7425782986645,-376.16624300012364,369.06085391531843,1810.1597324988022
532,27.047602837236816,-316.32528138178094,-38.12388878105117,503.6308024312937,1450.9278242389587,-321.08992680920664,339.3527617622759,1794.7098361800636
533,20.882709030505346,-280.6764956773393,-41.99000278410001,552.370224394232,1443.9696608074782,-263.150317741533,310.2041729954244,1773.923637434179
534,14.537590190341751,-245.22516385797877,-45.883710376058644,600.3817219504913,1425.3479375920122,-203.22564421152643,281.8469442245149,1748.2244173507988
535,8.176430423470993,-210.2203005516886,-49.75634758983844,647.7324094502229,1395.6974536591208,-142.24561881558006,254.4939325905857,1718.1284668987566
536,1.9552568803585344,-175.89635733383219,-53.57013893585991,694.394372432261,1355.7841579484848,-81.16882312681267,228.33970502008677,1684.2274079728186
537,-3.982738260679075,-142.47510058780054,-57.29876650665063,740.2300137653938,1306.480323966035,-20.95864730941675,203.5618449258529,1647.1700520884485
538,-9.511165267278384,-110.1678682297189,-60.92747192327621,784.983642451448,1248.7397171419018,37.441338759614275,180.32262710230003,1607.6446581462972
539,-14.523541606881471,-79.17794045164203,-64.45268381552084,828.2796320683411,1183.573593083631,93.13161794093226,158.77082882247768,1566.3622660590152
540,-18.935437449416337,-49.70277466625057,-67.8811924218873,869.6270347621811,1112.0281657113453,145.27958050169616,139.04346985876109,1524.041555909742
541,-22.685627962283853,-21.935891459387808,-71.22891912889503,908.4301812312245,1035.1639818633878,193.14008783349257,121.26731852555316,1481.3954395998833
542,-25.73627995868843,3.9317503431652296,-74.51934739152293,944.0045518792699,954.0374482979819,236.07297948008426,105.5600538756244,1439.11937771665
543,-28.072253752048088,27.710994920889505,-77.78169103063139,975.5970696803273,869.6845911688853,273.5569608493763,92.03102418245913,1397.8812662540065
544,-29.699641003890054,49.214400207704536,-81.04887791875424,1002.4099210976368,783.1069985416967,305.19953477815284,80.78157943863725,1358.3126682710654
545,-30.64368407054573,68.25682979118824,-84.35542412412039,1023.6270264721352,695.2598136859517,330.7428576745611,71.90497677025897,1321.0011636803986
546,-30.94623330247244,84.65670915336105,-87.73526785549576,1038.4423240366482,607.0416170072046,350.06558987348996,65.48586493169788,1286.4836350214548
547,-30.66289909896894,98.23791295412317,-91.21962555383409,1046.089075410033,519.2860544680843,363.18096225485266,61.599354625674444,1255.240374963259
548,-29.86004823999889,108.83224188620417,-94.8349254933287,1045.8694240780537,432.75512500865847,370.2313981442502,60.30968312648059,1227.6899676383925
549,-28.611781123321634,116.28244273384242,-98.60086860464608,1037.1834292620588,348.1341048790706,371.4801150369334,61.66848931427918,1204.1849371573312
550,-26.997009540356782,120.44571857725373,-102.52866310459638,1019.5567574755497,266.028137899361,367.3001871885283,65.71272948465686,1185.0081592556608
551,-25.096734982743776,121.19766398412389,-106.61947957963598,992.6661622284485,186.96053892833598,358.16157776639665,72.46228356090393,1170.370001399975
552,-22.991606471307612,118.43654142983691,-110.86317629615003,956.3618485294164,111.3728354292666,344.61664847318104,81.91732364820763,1160.4061164028456
553,-20.759815502388687,112.08779152524654,-115.2373496586707,910.6858288665773,39.62651169455956,327.2846285158119,94.05554055893941,1155.1757933614717
554,-18.475364690780676,102.10864367858721,-119.70676992411605,855.8854412891823,-27.993667664049745,306.83547967221847,108.82934703316661,1154.660784798736
555,-16.2067268106093,88.49266834296947,-124.2232647461955,792.4213117020436,-91.27497933924059,283.9735378278783,126.16319613832604,1158.7645790940965
556,-14.01589284747418,71.27408933041842,-128.72610999615452,720.9691880904154,-150.07103011275382,259.4212517972047,145.95116687898744,1167.3121596057629
557,-11.957791713333165,50.531657048240106,-133.1429765658353,642.4152438992642,-204.29541352854932,233.90328457789985,168.05497463542503,1180.0503725859783
558,-10.080050422064065,26.391873321182437,-137.3914628941331,557.8446373129907,-253.91518226026983,208.13119496111506,192.30256167163373,1196.649105958354
559,-8.42305166737705,-0.9686420627820324,-141.38121638668076,468.52332159286993,-298.94459144725215,182.7888798685279,218.48741369299466,1216.7035537970173
560,-7.02023607249154,-31.32184223526251,-145.01661416257517,375.87332628287294,-339.4395332425578,158.51892890560293,246.36873324418767,1239.7378996432094
561,-5.898589563708624,-64.38817813999485,-148.19993666812462,281.4419645114502,-375.4930072627124,135.91002135962847,275.6725796569981,1265.2107864192885
562,-5.0792532874319125,-99.83789981520911,-150.834928989318,186.86566043287002,-407.2318615126341,115.48548252458957,306.09405741598323,1292.5229413593631
563,-4.578194975680803,-137.2938314192781,-152.83060674121634,93.82932505066891,-434.81490241382477,97.69311237665976,337.3005990415886,1321.0272807665942
564,-4.406886907984167,-176.33566267537256,-154.10512926380866,4.022430234123136,-458.4323212973675,82.89640711771489,368.9363443374641,1350.0417219876767
565,-4.572946247576908,-216.50573668657836,-154.5895363315494,-80.90686766292568,-478.30622974174156,71.36731361417282,400.627565986446,1378.8647712711202
566,-5.080707200174304,-257.3162456289485,-154.2311299724847,-159.39802690808068,-494.69194946603324,63.28068625933409,431.98903458299054,1406.7937335067456
567,-5.931708151150428,-298.2576749240024,-152.99628402723994,-230.02316658898997,-507.87957564743067,58.7106496074882,462.63115800030556,1433.145108996675
568,-7.125086097632148,-338.8082669929959,-150.8724829900741,-291.52906839098785,-518.1952358652165,57.62909828119418,492.16767459468963,1457.2764207292707
569,-8.657871116099084,-378.4442111821449,-147.86942931910903,-342.8742706054613,-526.001411382385,59.90657337071495,520.2236312570574,1478.6083863820231
570,-10.525164472608468,-416.65020956956573,-144.0191150676588,-383.25939173171633,-531.695689916581,65.31572407024342,546.4433397989068,1496.6460673105357
571,-12.720169255161707,-452.93002180651354,-139.37482861537478,-412.14894197585807,-535.7074039187424,73.53748031627116,570.4979821199499,1510.997466894425
572,-15.23402955712948,-486.8165612292166,-134.0091561805361,-429.28317856281564,-538.4917970071104,84.16992475550968,592.0925287661096,1521.3880875979214
573,-18.055431610598177,-517.8811087468667,-128.0111303737313,-434.67907557715444,-540.5216490504941,96.73967591306953,610.9716498807928,1527.670229762679
574,-21.16993454998023,-545.7412417675887,-121.48275809934813,-428.62020621749906,-542.2766300760443,110.71540872277656,626.9243367323764,1529.8263001524329
575,-24.559032304576263,-570.067149648211,-114.53520956971093,-411.6362049433659,-544.2309637226382,125.52297803750857,639.7870206432746,1527.9659972254221
576,-28.19899761769588,-590.5861217779566,-107.28495678529221,-384.47335593399725,-546.8401838903727,140.56150343436724,649.4450744224829,1522.317806228723
577,-32.05961332456814,-607.0851349352732,-99.85011417812518,-348.05857798600573,-550.5278248722992,155.21973481272443,655.8327004465564,1513.215628193967
578,-36.102939903547856,-619.4116111570651,-92.34716994176765,-303.45950313079396,-555.6728083309149,168.8920503635546,658.9313318400394,1501.0815187961578
579,-40.28228962988173,-627.4725438674449,-84.88822282147461,-251.84340824052427,-562.5981289505725,180.9935334293077,658.7667787288262,1486.4054836763105
580,-44.54157161967322,-631.2322817692441,-77.57877101722984,-194.4374749811656,-571.5612546762522,190.9737147291421,655.4054247229525,1469.723202818657
581,-48.81514187779323,-630.7093085893612,-70.51604530904746,-132.49231074029197,-582.7464964356745,198.32872513623946,648.9498121557502,1451.5925487937573
582,-53.02824638136725,-625.9723621798443,-63.78783971731418,-67.24998227601617,-596.2594902877613,202.61175335376242,639.5339487344205,1432.569838867165
583,-57.098092503478036,-617.1362053049947,-57.471769175464615,0.08288158262416087,-612.1238686809902,203.44182053550514,627.3186296355312,1413.1868576280513
584,-60.93553231349425,-604.3573029016566,-51.634872980761585,68.3569665076619,-630.2801555564927,200.51095827935305,612.4870072720693,1393.9297232457195
585,-64.4472958012594,-587.8295878811634,-46.33348292764417,136.49761608059015,-650.5868782025291,193.58990388108336,595.2405663219193,1375.2205931381811
586,-67.53867622032111,-567.7804203757083,-41.61328334250309,203.51836607293782,-672.8238327288077,182.53241035304637,575.7955841091693,1357.4030120625314
587,-70.11654491438526,-544.4667732403723,-37.509503866291986,268.5314303416991,-696.6973701859217,167.27821906000813,554.3800850209104,1340.7314432135313
588,-72.09255845929489,-518.1716172551504,-34.04720222580611,330.75577537990023,-721.8474987043597,147.85467743565718,531.231239536767,1325.3652512363058
589,-73.38641454566357,-489.2004379763947,-31.241611416991695,389.5231980299192,-747.8565393851464,124.37692390738896,506.5931183618459,1311.3671631634202
590,-73.92901261089354,-457.8777949381448,-29.098541898421065,444.28256491714285,-774.2590419705198,97.04652613805494,480.71469198581644,1298.706025951866
591,-73.66537974279196,-424.5438327272058,-27.614842532993777,494.6021386577494,-800.5526646586218,66.14846027376251,453.8479651047408,1287.2635017610398
592,-72.55723151866462,-389.5506702136591,-26.778932165300027,540.169745287425,-826.2097471931534,32.04636200533652,426.246151222896,1276.8441949350554
593,-70.58505108377648,-353.2586255448164,-26.57141581863406,580.790453315817,-850.6893482274245,-4.823941153639722,398.161821815295,1267.1885971041759
594,-67.74958800965614,-316.03227629743407,-26.965796024625572,616.381444718492,-873.4495643618411,-43.96250701095086,369.84500255690455,1257.9881783369717
595,-64.07270146951527,-278.2364015478175,-27.929282801884657,646.963854282021,-893.9599863516993,-84.81475409018834,341.5412315232432,1248.9019440339077
596,-59.59749941340634,-240.2318997110647,-29.42369821309603,672.6515147907016,-911.7141676595056,-126.78204207465213,313.48963508437777,1239.5738092874735
597,-54.3877550167848,-202.37181603878213,-31.40646589900846,693.6367407538247,-926.2419757609548,-169.2330201091528,285.9211096115367,1229.6501963721187
598,-48.52661196819705,-164.9976395401688,-33.83167328918709,710.1734802539156,-937.1216649705085,-211.51540763760892,259.0567143866789,1218.7973164686862
599,-42.11462043371069,-128.43603512555282,-36.651192400480475,722.5583395176899,-943.9914529459135,-252.96791329334846,233.10637892007105,1206.7176395366134
600,-35.26717531665133,-92.99616096751302,-39.81584124813996,731.1101306737911,-946.5603113348334,-292.9320586010897,208.26800627039452,1193.1650858223659
601,-28.11145593897821,-58.967685781674334,-43.276560789592466,736.1487162412988,-944.6176129643053,-330.76373426555136,184.72701728086054,1177.9585017244465
602,-20.78298871211381,-26.619571309707,-46.98557363712592,737.9740314748842,-938.0412344495911,-365.8443639855336,162.65633587777057,1160.993027473629
603,-13.42196968293819,3.8003716231817304,-50.89748301734944,736.8462528032641,-926.8037080394437,-397.5915796604892,142.21677027956753,1142.2490303331433
604,-6.1694913851229645,32.06520291122666,-54.97026521278079,732.968128578156,-910.9760528630353,-425.469324221689,123.55770528493565,1121.7983579835313
605,0.8361817017147666,57.96795148226256,-59.166106715341364,726.470475389993,-890.7289869962544,-448.9972985457026,106.81799040962527,1099.8077504075964
606,7.463152320362076,81.32023974306617,-63.4520389927593,717.4017554163596,-866.3313156009673,-467.7596626829708,92.12688920643225,1076.5393258305692
607,13.589122086724274,101.95061671529862,-67.80032923495342,705.72248591028,-838.145392957217,-481.4128949574936,79.6049473920329,1052.3481234663013
608,19.104214591871205,119.70280655183515,-72.18859430179842,691.3050009523246,-806.6196565026144,-489.6927104112644,69.36464144653876,1027.6767437074993
609,23.913315366713178,134.43409134357304,-76.59961654626655,673.9388070177214,-772.2783238601457,-492.4199452816105,61.51068394766518,1003.0471782825877
610,27.93788400792508,146.01404540377766,-81.02085341593705,653.3414712255533,-735.7084304643914,-489.505326086338,56.139884673541104,979.0499728825961
611,31.1172247014768,154.3238203691976,-85.44364725950675,629.1746774375068,-697.5444713961076,-480.9530566688992,53.34049492913254,956.3309163430043
612,33.409230762546265,159.2561456563457,-89.86215751032739,601.0648006785735,-658.4510025305481,-466.8631688438367,53.19099485146099,935.5755055063286
613,34.79064400823316,160.71615867090668,-94.2720542433726,568.6271009712003,-619.1036548251586,-447.43258742530475,55.758318310828734,917.4914924081792
614,35.25688842898602,158.62311787233222,-98.66902924357746,531.4924366456713,-580.169115423129,-422.95485662650464,61.09554569242448,902.7898762145686
615,34.8215482227196,152.91298520406448,-103.04719680143033,489.3352547668001,-542.2847169404125,-393.81846417964624,69.23912898119467,892.1647510269736
616,33.51556266589702,143.54179842116955,-107.39746988482187,441.90153931372595,-506.0383360790455,-360.5036873020496,80.20574398905431,886.2724595211823
617,31.386205584559985,130.48969301223025,-111.70600668675415,389.0353879052142,-471.94932270306,-323.5778770747611,93.98888987524853,885.7105336260101
618,28.495906859175925,113.76538063581458,-115.9528266430684,330.70294109770316,-440.45115746007104,-283.68909976411834,110.55537590165983,890.9969329750487
619,24.920958753414748,93.41084834136224,-120.11069303395013,267.0124962188419,-411.8764756510629,-241.55806718717554,129.8418500508706,902.5501252709823
620,20.750132043280193,69.50601217157278,-124.14435100439121,198.22979069890224,-386.44500791853727,-197.9683126709869,151.7515347472658,920.6705917756394
621,16.083207428821844,42.17304163646666,-128.01019587614513,124.78762924333336,-364.25488442203294,-153.75460188252757,176.15134268996584,945.5243827607355
622,11.029408676445392,11.580069014358957,-131.6564282599303,47.28924690130374,-345.277634882565,-109.78960571673073,202.8695514636525,977.1293843646699
623,5.705707926820291,-22.055990401884625,-135.02373102726352,-33.49496294109735,-329.3570953538508,-66.96890327733617,231.6942186314346,1015.3449788335482
624,0.23496306332424105,-58.46775514475637,-138.04647950367635,-116.63748048353757,-316.21230585848673,-26.19442630162282,262.3725173742606,1059.8657719787138
625,-5.256156019668206,-97.33704201928883,-140.65447074517547,-201.07032976966698,-305.44435417928514,11.64349623267081,294.61116338199463,1110.220013809972
626,-10.639489333407,-138.29604187023327,-142.77513081693263,-285.60802462950386,-296.5469953711813,45.685279979953705,328.07808381438645,1165.7732434559125
627,-15.787977453840028,-180.93011630342292,-144.3361308943048,-368.9761945936596,-288.92076064578555,75.1221348238931,362.40544704694156,1225.7375443137778
628,-20.578514097882646,-224.78226516475388,-145.26831399768434,-449.8450710666511,-281.8901685471038,99.21666398819217,397.19412693080943,1289.1865996569647
629,-24.895016982647892,-269.3592500988288,-145.5088049236963,-526.8667993439149,-274.72356747977756,117.3235585779261,432.01961720333236,1355.0764953505072
630,-28.63163065325985,-314.13929129995887,-145.00414807477478,-598.7153362040357,-266.655070904577,128.90982079360825,466.43934064667104,1422.2719302834707
631,-31.695931808148,-358.58118378319665,-143.7132941967314,-664.1274945857361,-256.9079957023103,133.57382388467988,500.00121503859435,1489.5771738983997
632,-34.01197145605148,-402.1346075263863,-141.6102414591765,-721.9435057417049,-244.71918530129724,131.06239191919903,532.253247949067,1555.770763482035
633,-35.52296834947044,-444.2513337176984,-138.68613415339843,-771.1452925006072,-229.36359942801397,121.28498129117362,562.7538426893194,1619.6425795444286
634,-36.19347248994946,-484.39695806685353,-134.9506401962504,-810.890511950631,-210.1785836043592,104.32400089297067,591.0824189056599,1680.0316112945268
635,-36.01084711863332,-522.0627246839966,-130.43247277283763,-840.5403843029093,-186.5872763853112,80.4403509320104,616.8498940319183,1735.862482723203
636,-34.98596513850078,-556.776947758647,-125.1789925297858,-859.6794420492098,-158.12062582733273,50.07341236873793,639.7085425234682,1786.1787202885423
637,-33.15307067182295,-588.1155051461366,-119.2549152016965,-868.1256625636564,-124.43741689597763,13.834985415142791,659.3607498942806,1830.1708617275613
638,-30.568810133937617,-615.710881661433,-112.74023676130521,-865.9300052730212,-85.34155112416931,-27.502954629547958,675.56620797061,1867.1978525769068
639,-27.31048484428538,-639.2592909486776,-105.72755432566561,-853.3651300348658,-40.79564247004029,-73.02637618890147,688.1471585457781,1896.8007187107744
640,-23.47361503968096,-658.5255071389987,-98.31899420247767,-830.9039448840537,9.070075723256991,-121.70242777500627,696.9913889587987,1918.708152822919
641,-19.16892982971705,-673.3451877303952,-90.62295850591109,-799.1895012247415,63.954402995568145,-172.40665497232163,702.0528176866833,1932.8342972767286
642,-14.518908214393354,-683.6246552055233,-82.75087783121583,-758.9984973811437,123.38791225728475,-223.95282421742237,703.349675455036,1939.2695405463455
643,-9.653996488906081,-689.3383030482125,-74.81412180116467,-711.2011628359481,186.7418456468387,-275.1239283248975,700.9604680745174,1938.2654987620976
644,-4.708623918377126,-690.5239694773123,-66.9211818639184,-656.7205103016215,253.2427710440472,-324.7030757520945,695.0180704475903,1930.2155072295423
645,0.18286327249291487,-687.2767508743602,-59.175207000469875,-596.4938425265581,321.9922405202043,-371.5032147179043,685.7024188827347,1915.6319367177368
646,4.890228357947329,-679.7417934178383,-51.671944452072985,-531.4390137175046,391.9904727937201,-414.39493577316296,673.2323277743923,1895.1215554501694
647,9.291207107763741,-668.1066080839169,-44.49811338012605,-462.42733798423376,462.16300462667533,-452.33186381420876,657.8569588129446,1869.3600591370005
648,13.275082509261598,-652.5934113460453,-37.73021822334726,-390.2642983689485,531.3892845298766,-484.3733515799293,639.8474263423683,1839.0668232606256
649,16.74585116297109,-633.4519143633601,-31.433789807790994,-315.67843584191985,598.5322636722311,-509.70430738733296,619.4889439803819,1804.980873987912
650,19.624874516882343,-610.9528800973103,-25.663026419879163,-239.31807702396108,662.4681222079871,-527.652037894423,597.0738181955288,1767.8389756867678
651,21.852929824509808,-585.3826532463739,-20.460795254908092,-161.75496201156247,722.1153206204212,-537.6999844496489,572.8954867876148,1728.3565519781228
652,23.391603029085566,-557.0387540355102,-15.858947964448324,-83.49340279739606,776.4621794476755,-539.4982074405282,547.2436953746621,1687.2118904019485
653,24.223994281700023,-526.2265240055121,-11.878902348788662,-4.983354664890772,824.5921872794567,-532.870452498989,520.4008119684769,1645.033770436606
654,24.354732745633648,-493.25672752935367,-8.532444077153176,73.3642894061517,865.7062495926813,-517.8176330531378,492.63920457652745,1602.3923687150075
655,23.809318952363558,-458.44395097140534,-5.82270552761917,151.16179244200794,899.1411507559415,-494.51759442762716,464.21955264693435,1559.793094123117
656,22.632830339267716,-422.1056033122371,-3.7452816379642186,228.0294715552898,924.3836262261319,-463.32108679583274,435.38993073860746,1517.6729176584417
657,20.88803989881279,-384.56130674380296,-2.2894441035162987,303.58254418026877,941.0796326348999,-424.7439626192238,406.38549093928333,1476.3987816696854
658,18.653010692662555,-346.1324709941324,-1.4394149422387037,377.42075191080824,949.0386459740234,-379.45571836037936,377.4285769558021,1436.2677715628565
659,16.018241597706385,-307.14186778951296,-1.1756580262123195,449.12126620401244,948.2330870016797,-328.26460680156936,348.7291241034077,1397.5088704195116
660,13.08345239754119,-267.91305767676045,-1.4761428006602095,518.2350709383878,938.7932354769259,-272.09964235080173,320.48523108141893,1360.2862499819628
661,9.954108592214421,-228.76956505274435,-2.317529784320103,584.2867465599609,920.9982155955147,-211.98989869275962,292.88382567670055,1324.704140348713
662,6.7377969043652985,-190.0337427277873,-3.6762257282617337,646.7773672003883,895.2637841809903,-149.04155413824333,266.1013810504512,1290.8133391051028
663,3.5405702161141948,-152.02530952292955,-5.5292602471104555,705.1900754229922,862.1277147810564,-84.41317963997798,240.30466663844,1258.6193645610813
664,0.4633848250549091,-115.05958019655041,-7.854945797933865,758.9978186831755,822.2335464135848,-19.289795849654674,215.6515347657052,1228.0921460019372
665,-2.4012467756084113,-79.44543535590748,-10.633297178776184,807.6727076979411,776.3133716566587,45.14374378014026,192.2917498005506,1199.17700725934
666,-4.972268148804471,-45.48309974294284,-13.846202354953622,850.6964756944132,725.170199785907,107.7294535427505,170.3678611013175,1171.8065678836665
667,-7.182645274430235,-13.46181022627945,-17.477350769653764,887.5715650421207,669.6602734533669,167.3623750056205,150.0161049154804,1145.9130783678286
668,-8.981390110208972,16.342540160478993,-21.51193648621747,917.832432084233,610.6755665195038,223.01554188754162,131.3672959377519,1121.440631408426
669,-10.334963882814861,43.66969849764333,-25.936160551647035,941.0567323949815,549.1265665890743,273.7630828643639,114.54764066532985,1098.3566533755227
670,-11.228006408785909,68.27721466272888,-30.73655991930195,956.8761211567294,485.9253641751443,318.80080603312894,99.67937806332009,1076.662081948188
671,-11.663364466713526,89.94241249625684,-35.89919029291835,964.9864749142303,421.9690406301601,357.4636512377927,86.88113503873012,1056.3996815277662
672,-11.661420952732705,108.46413350010322,-41.40868928436321,965.15741035565,358.12337042764335,389.2394726226196,76.26788049828696,1037.6600391096117
673,-11.258756388472825,123.66424492507933,-47.24724616433209,957.2410367632507,295.2069225933607,413.7787233964178,67.95037537598616,1020.5849127956658
674,-10.506203938599382,135.3889362374007,-53.393506079023105,941.1799177950044,233.9757461145853,430.89975528397895,62.03404599963553,1005.3677556934484
675,-9.466386648107223,143.50986012797662,-59.82143951903666,917.014219294682,175.10893599136497,440.5896097856567,58.6172493329554,992.2513861529878
676,-8.210849344960744,147.92519976882807,-66.49921133200566,884.8879754659765,119.19548137781533,443.000354955459,57.78894321896011,981.5229002989556
677,-6.816915884716726,148.56075625702394,-73.38808786892082,845.0543266163312,66.72287917462224,438.44119396212074,59.625815592868086,973.5060146408035
678,-5.364413707668069,145.3711452519638,-80.44142708858492,797.8794948185077,18.068042900617527,427.36672473114027,64.18896004512858,968.5510890047381
679,-3.93241126201644,138.34116994768337,-87.6038051735035,743.8451988584427,-26.50896293606822,410.36185226963266,71.52021139427416,967.0231263773692
680,-2.596109735924667,127.48740236300213,-94.81034316326718,683.5491833704583,-66.86788707739404,388.1239410546779,81.63827627145503,969.2880905971091
681,-1.4240193166241373,112.85996177642019,-101.98630560334135,617.7035471276575,-102.98759207719104,361.4428428911772,94.53481177724119,975.69793332978
682,-0.4755327468027661,94.54443332925021,-109.04704741379688,547.1305877745936,-134.96150015354354,331.17944782438383,110.17062029807889,986.5747793471336
683,0.20101368105125705,72.6638257792799,-115.89838301157842,472.7559200046589,-162.98921348945098,298.24338562929006,128.47213990705865,1002.1947801548225
684,0.5697281541514743,47.38042838366313,-122.43744215756277,395.59866482711647,-187.3645905042321,263.5704578365153,149.32841650990449,1022.7722042306746
685,0.6079658561553719,18.89739544798124,-128.55406016854766,316.7585527837748,-208.46081903652745,228.10031204586292,172.588745089911,1048.444378190973
686,0.30654084742069576,-12.540134639921641,-134.1327269615632,237.3998434362519,-226.7132628973022,192.75479142663903,198.06116200063872,1079.2581149592882
687,-0.3306300816134407,-46.644589104696855,-139.0550910621655,158.73204777355375,-242.60103830251376,158.41731493276671,225.5119571397931,1115.1582518869889
688,-1.2874046551737268,-83.0863790132476,-143.20298239710792,81.98755788498329,-256.62837452405654,125.91357914470109,254.66635316872757,1155.97887164132
689,-2.536746705812913,-121.49536775857122,-146.4618828024842,8.396443789425291,-269.30681072616073,95.99382829214247,285.21046833588815,1201.43770120405
690,-4.042430498352206,-161.46353846860706,-148.72473759863246,-60.841131331984926,-281.1391718427784,69.31691718680803,316.79463982720455,1251.1340955416567
691,-5.76102627674854,-202.5489618290729,-149.89596776482534,-124.58421016791968,-292.6060574879108,46.43638967198536,349.0381359898889,1304.5509225076003
692,-7.644070371120132,-244.28110625380802,-149.89551298559422,-181.78116636982685,-304.1552905649731,27.788806204338822,381.535228708912,1361.0605685050164
693,-9.6403223700466,-286.16746291665936,-148.66271365726527,-231.49956642117135,-316.19443933989305,13.68456993182987,413.86253258660497,1419.935159337574
694,-11.698015035335272,-327.70138201998844,-146.15982640113427,-272.95452049963785,-329.0861873206406,4.301512262702562,445.58744681255143,1480.3609126347028
695,-13.767009566577228,-368.3709376435993,-142.3749635742686,-305.5341743370709,-343.1460210485909,-0.31850250912841704,476.27746120201624,1541.4562952746714
696,-15.800778431545066,-407.6685613012992,-137.3242542633668,-328.8209591297379,-358.64148084904224,-0.26971708957792834,505.510014476176,1602.293368074738
697,-17.758147323754915,-445.1011142969578,-131.0530458146311,-342.6072480762981,-375.79211677641035,4.220819000635979,532.8825276620364,1661.921410686839
698,-19.604733042636262,-480.20001133932726,-123.63600603667588,-346.9041681605475,-394.7693421388723,12.800089674573439,558.0221870349981,1719.3916984350628
699,-21.314013838816418,-512.5309673228516,-115.17605050721468,-341.94249418993263,-415.69558260587297,24.999474322900745,580.59502682403,1773.7822010537514
700,-22.867966884360403,-541.7029205269863,-105.8021054938594,-328.16483008514325,-438.64244435532606,40.248463800152784,600.3138663631469,1824.2210067372043
701,-24.25721207817231,-567.3756946744122,-95.66581539187048,-306.2086900243945,-463.6280004011721,57.89138998683465,616.9446906954025,1869.907429559653
702,-25.48062043193218,-589.2660065395897,-84.93739687652527,-276.8806559633501,-490.61363531397353,77.20665069133614,630.3111283093575,1910.1300091754867
703,-26.54438245957367,-607.1515119703581,-73.80090884680334,-241.12250666164917,-519.5011204346924,97.42775342024908,640.2967770590942,1944.2809276161604
704,-27.460584101168145,-620.8727133783302,-62.44923071516007,-199.9710258754127,-550.1306709324756,117.76538871386485,646.8452615175638,1971.8666931843404
705,-28.24539480481215,-630.3327173087265,-51.07901872482459,-154.5139718148881,-582.2806593485141,137.4296965668141,649.9580667055233,1992.5151857343824
706,-28.9170207492207,-635.4950095710359,-39.885854694565985,-105.84525423412889,-615.6694619479155,155.65191824588146,649.6903658406561,2005.9792403750755
707,-29.49360345197808,-636.3795774945827,-29.059735867907957,-55.02257273338821,-649.9596550716392,171.70472633443984,646.1452153950286,2012.1368760021182
708,-29.991244232906674,-633.0578271192511,-18.78099567853021,-3.030554752514799,-684.7645266147991,184.92067685610425,639.4666032999697,2010.9881699902407
709,-30.422310716182793,-625.6468024965279,-9.216700735297703,49.24817495581861,-719.656673900869,194.70839578015483,629.8318914361483,2002.6487869824066
710,-30.794141533991215,-614.303212885755,-0.5175400327948837,101.05245450935975,-754.178341729114,200.56626523375016,617.444190308216,1987.3403508350218
711,-31.108219929817334,-599.2177183160552,7.184793147124696,151.75206733060404,-787.8531002741829,202.09349173790685,602.5251486831346,1965.3781502785887
712,-31.359843788801715,-580.6098262428989,13.779730294514222,200.84775045264254,-820.1984437941977,198.99851647660827,585.3085446595703,1937.1569682943095
713,-31.538282579130886,-558.7236267296797,19.179467541299882,247.96308208124083,-850.7388813841179,191.10477586857735,566.03494101959,1903.1360024329267
714,-31.627381771053493,-533.8244579970712,23.320108969070557,292.8301906538699,-879.019074846542,178.35385250279214,544.9475332246154,1863.823833990764
715,-31.606552350302955,-506.19646552069736,26.162299745369847,335.2715074301059,-904.6165543369054,160.80607942980166,522.2891897747187,1819.7642256855584
716,-31.45206666820381,-476.14091037499907,27.691333437775786,375.1797584903796,-927.1535198956819,138.6386759238503,498.30057602317584,1771.5232666345905
717,-31.13857158888924,-443.97500552736847,27.91672162901585,412.4981091541606,-946.307232681314,112.14149991389527,473.21917338089145,1719.678141332579
718,-30.640725032178416,-410.0310162048568,26.8712238343138,447.2019192004725,-961.8185286218799,81.71050598960429,447.27896013712814,1664.8076330161243
719,-29.934861728197,-374.65535195950343,24.609351005169493,479.28304327763465,-973.4980571523726,47.83900958619736,420.71050731032534,1607.4843775667755
720,-29.000597502869546,-338.2074005188692,21.205375034610512,508.73711444643294,-981.2299579201361,11.106891339846886,393.74125939927484,1548.268827903338
721,-27.822288108359025,-301.057901291904,16.7508974745758,535.5538513207225,-984.9728304750537,-27.832061573930442,366.5958093649234,1487.704843995573
722,-26.390268088382903,-263.58672126810603,11.35205094313479,559.710165221511,-984.7580115181378,-68.26439332760894,339.4960308155798,1426.3167836789892
723,-24.70180733299643,-226.17996854353672,5.126424698497042,581.1657099937959,-980.6853333352686,-109.43242026522823,312.6609883527045,1364.6079383668825
724,-22.76173822135986,-189.22645072152332,-1.800179868969986,599.8604832580522,-972.9166791507213,-150.55042454620616,286.306601105795,1303.0601380852036
725,-20.582725005417544,-153.11355152185632,-9.297049061052418,615.7141143252267,-961.6677654409207,-190.82111460730115,260.64507928883637,1242.134340471976
726,-18.185168862479244,-118.22265519361429,-17.231795214376145,628.626528189176,-947.1986625168557,-229.45187733501638,235.88418569796752,1182.272016294331
727,-15.59676485446495,-84.9242906493311,-25.473423312488805,638.4797361322902,-929.8036099345228,-265.6704034761668,212.22639040834878,1123.8971476974739
728,-12.851748077183116,-53.57319134826246,-33.895130944086794,645.1405580823581,-909.8006879660439,-298.73936090732786,189.86798526597892,1067.418659461359
729,-9.989883471767774,-24.503470425945963,-42.376767989240946,648.4641208059913,-887.5218640241321,-327.96990272633695,168.99820571900406,1013.2330977218504
730,-7.0552661795931355,1.9759053985191577,-50.80690453890437,648.2979978007393,-863.3038411443375,-352.7339057738551,149.7983761063116,961.727346291192
731,-4.095006248360021,25.585190380381352,-59.08447417535078,644.4868698191549,-837.4800031593942,-372.4749184015152,132.44105928679278,913.2811302583426
732,-1.1578720629163861,46.077369443100814,-67.11997370299153,636.8776020069971,-810.3735980861825,-386.7178420412773,117.08916144077736,868.2690142823099
733,1.7070392296328896,63.241032069481086,-74.83621103974818,625.3246619903614,-782.2921518175445,-395.07738061436066,103.89492412563948,827.061576760564
734,4.451547905743624,76.90258069909811,-82.16860227025022,609.6958403903986,-753.5229802790482,-397.26527609578835,92.99873041059244,790.0254438472606
735,7.02951361823938,86.92778176367806,-89.06502854589436,589.8782709977156,-724.3295854938472,-393.0963215287725,84.5276595985354,757.5219044732357
736,9.397808890930245,93.22270083415503,-95.48527456448043,565.78476882411,-694.9486871365058,-382.4931150618483,78.5937437371385,729.9038975646286
737,11.517135512139953,95.73409119831712,-101.40008264500695,537.3604981931554,-665.5876548636185,-365.4894953263015,75.29190586925692,707.5112589443437
738,13.352688523546119,94.4493256853648,-106.7898689055319,504.58994295431035,-636.4221588111833,-342.2325813933449,74.69759088096481,690.6642284653497
739,14.874682912476095,89.39597217119307,-111.64315965516259,467.50407838216057,-607.5939318163198,-312.9833303074536,76.86413089448375,679.6553374156881
740,16.058765088797905,80.6411116919982,-115.95481635294793,426.187549990916,-579.2086213276453,-278.11552147196204,81.8199156881413,674.7399120424797
741,16.886334381465495,68.29048363114131,-119.72412655649612,380.78556522888454,-551.3337879097568,-238.1130776467296,89.56546390134699,676.1255323479704
742,17.344798924991665,52.48751627109404,-122.95284665304607,331.5101180457819,-523.9971716274856,-193.5656329781067,100.07051374594418,683.9608701378555
743,17.427785543161722,33.412266331369835,-125.643290133884,278.6451083176619,-497.1853936025547,-145.16225605881877,113.27127381358694,698.3243947596583
744,17.135315213549095,11.280252396609907,-127.79656235603436,222.5498959160118,-470.84328794911863,-93.68323118139294,129.06799525448207,719.2134806218465
745,16.473945535977077,-13.658870793013854,-129.41104768945115,163.66084317958408,-444.8740710221952,-39.98979943279561,147.32304393390865,746.5344796142691
746,15.456870595191875,-41.12288281249779,-130.48125530410462,102.49044468153376,-419.14055162829055,14.988228192799994,167.85966131974104,780.094333877468
747,14.103957799943574,-70.79892185178899,-130.9971229880999,39.62371293905875,-393.4675672330313,70.26704283410679,190.4616015525097,819.5942972823857
748,12.441691726918492,-102.34588346432976,-130.94386230966896,-24.28842154777054,-367.6457964723091,124.82559690099049,214.87381613698903,864.6263040221706
749,10.50298805670184,-135.39741248809776,-130.30240244763357,-88.53882922849486,-341.4370475649072,177.6244727696703,240.80432598610517,914.6724673363215
750,8.326838193199478,-169.56559101506244,-129.05045482539154,-152.3770250819268,-314.5810567446054,227.62668377878924,267.92737494091193,969.1081088786503
751,5.9577489259181124,-204.44539585458477,-127.16417801777037,-215.02499514864402,-286.80375187375927,273.82011536151913,295.8879030190635,1027.2086075652592
752,3.4449526294652517,-239.61995711324298,-124.62037475414374,-275.69569910560824,-257.82684498294594,315.2411876182674,324.30731509476584,1088.1602127082629
753,0.8413821971015083,-274.66659738099577,-121.39910366414843,-333.6137629297181,-227.37851576256796,350.9991848057928,352.7904538959668,1151.0747859821952
754,-1.7975696249631756,-309.1635716704593,-117.48654208983945,-388.0376863261608,-195.20484187496064,380.3005564902767,380.9336167137964,1215.0082179330393
755,-4.4154575788517345,-342.6973657129312,-112.8778973111661,-438.2826909972287,-161.0815336127413,402.4723595938609,408.33338461558526,1278.9820106394736
756,-6.956282492699534,-374.87034875918795,-107.58013590003826,-483.7431306870204,-124.82545986603557,416.983896478074,434.5959636141252,1342.0072425563078
757,-9.36599051164306,-405.3085204027919,-101.61428953756018,-523.9131868640304,-86.30543261288597,423.46553085563676,459.34667414577905,1403.109860989266
758,-11.593883852377676,-433.66904227462356,-95.0171078625928,-558.4044198808017,-45.451759910827825,421.7236499038937,482.2391770320728,1461.3560186650727
759,-13.593870801324739,-459.64720842416557,-87.84187175502545,-586.9586867893204,-2.264167257186279,411.7508058082459,502.96400056332675,1515.8760255816032
760,-15.325508336424614,-482.98248850679727,-80.15825415139129,-609.4550293057023,43.18221566953748,393.7302310349711,521.2559405407998,1565.885471075158
761,-16.754818122837978,-503.46328369153457,-72.05121027351385,-625.9094221222108,90.73303804665504,368.03419285555776,536.8999442210718,1610.7022280804615
762,-17.854880138468097,-520.9300752202937,-63.61897790396562,-636.4667710924354,140.15328050596437,335.2160307870512,549.7351587757126,1649.7584070953487
763,-18.606223645945644,-535.2767249154739,-54.97035258705434,-641.3852396232871,191.12834202739137,295.9961677045975,559.656922870928,1682.6068560124816
764,-18.99704022092004,-546.4498034266677,-46.221458774045075,-641.0137790411413,243.26775296341782,251.24282588403872,566.616602525683,1708.9224066097768
765,-19.023238710397546,-554.4459654980507,-37.49226107393446,-635.764512126828,296.11148346845465,201.9485243411553,570.6193128217091,1728.4985998804705
766,-18.68835145425725,-559.3075452947407,-28.903053136196966,-626.082225451092,349.1386671184467,149.20361865907074,571.7197136432696,1741.2409433996188
767,-18.003290750387553,-561.1166872528734,-20.571132891432658,-612.4135639489127,401.7784229899175,94.16815200585926,570.0162027119906,1747.1578114295146
768,-16.985949139677626,-559.9884372212981,-12.607830221022427,-595.1785537851437,453.4223692559069,38.04314651279499,565.643933036696,1746.3499501319993
769,-15.660638646974473,-556.0632803456987,-5.116003613388565,-574.746824657278,503.43839073707517,-17.95776364779125,558.7671409111655,1738.9993226783504
770,-14.05737220911626,-549.4996232020476,1.8119286193244712,-551.4204087540156,551.1852443155159,-72.6357089282267,549.5712819286836,1725.3578391732256
771,-12.211002856424459,-540.4666842004733,8.095404882118064,-525.424323317709,596.0276381203132,-124.83254874590453,538.2554416612858,1705.736416183346
772,-10.160249117874175,-529.1381882947105,13.666607378979728,-496.9053693703777,637.3514763276162,-173.45516842699416,525.0254234681681,1680.4947831088505
773,-7.946644886943582,-515.6871701473835,18.470872008177974,-465.93878506622707,674.5789976146989,-217.49794607745307,510.08782761199734,1650.0324370128762
774,-5.613456489365242,-500.28208429788094,22.466690362743304,-432.5416736829117,707.1835367986166,-256.06324637147003,493.64533298239945,1614.7810723018822
