time,ax,ay,az,gx,gy,gz,accmagnitude,gccmagnitude
0,-20.079584173544,-249.11042145046378,-53.15453032135772,-31.21493195745692,33.6985402632552,17.97186493361859,255.5096367952878,49.14349833514235
1,-19.72264882644529,-249.36161601668678,-53.15842037275105,-32.775310896062145,34.081107123300946,17.122719414506747,255.73607143802144,50.3208702501157
2,-19.377871577412822,-249.60042729356874,-53.1453299227952,-34.36054884057883,34.423766299459835,16.318659025878844,255.94783352517675,51.51282252931612
3,-19.048068506340094,-249.82643953806001,-53.113722764432495,-35.96176827826555,34.719807421204315,15.571977555488134,256.14432273406584,52.712301267406296
4,-18.735590904040638,-250.03942027896187,-53.06232854134409,-37.56964866196411,34.963328005296454,14.894261271697433,256.3251437072343,53.91202853824895
5,-18.442247257017563,-250.23931222420364,-52.99019236270116,-39.17447258616881,35.14940838021099,14.296110708185342,256.49010519382017,55.10454518012794
6,-18.16924406181616,-250.42622576393714,-52.89671494408175,-40.766176979298734,35.2742671079636,13.786880125873965,256.6392188994154,56.282254689988605
7,-17.917148012122514,-250.60043222796853,-52.78168090866897,-42.33441064100818,35.33539139388401,13.374442492893866,256.7726977978392,57.43746896665017
8,-17.685871362662127,-250.76235741172326,-52.64527333960077,-43.868599122176,35.331637289832884,13.064987051869933,256.8909530767055,58.562456271277505
9,-17.474681630207794,-250.9125744890647,-52.4880735146948,-45.35801749735141,35.26329492218133,12.862855409834792,256.9945886518386,59.6494912781877
10,-17.282235827015757,-251.05179536718055,-52.31104596307159,-46.79187113917702,35.13211451454079,12.770420690644276,257.0843923488203,60.6909065966853
11,-17.106638019219318,-251.1808596011866,-52.11551028629177,-48.159384296864005,34.941289639950504,12.788012803103129,257.16132313275125,61.679144793269316
12,-16.945517554866463,-251.30071998877713,-51.90310218617269,-49.44989617791912,34.6953949828205,12.913891471002097,257.2264939100008,62.60680985240658
13,-16.7961242947158,-251.4124239508032,-51.67572664203051,-50.65296432147523,34.40027701183309,13.144267398415694,257.28114945222467,63.46671724289826
14,-16.655436736574668,-251.5170899307267,-51.43550630384937,-51.758475259485195,34.06289744176933,13.473370743736156,257.32663910013497,64.25194229059848
15,-16.52027886218939,-251.6158784139385,-51.18472815275277,-52.75676268854517,33.691131191786354,13.893564889203818,257.36438423687224,64.95586730659826
16,-16.387441579811764,-251.70995772444277,-50.92579148253198,-53.63873349754514,33.29352260017331,14.395502317369157,257.39584104674674,65.5722287039766
17,-16.25380458107434,-251.80046534842694,-50.66116023138577,-54.39600186942835,32.87900570485869,14.9683182533961,257.4224596290793,66.09516590269548
18,-16.11645422591466,-251.88846606430488,-50.393322325352834,-55.02103117523129,32.4565962412054,15.599856608571438,257.4456409682116,66.51927395099396
19,-15.972792854697056,-251.97490861001532,-50.124757658406416,-55.507282479222695,32.035064563893634,16.276921724866096,257.46669350396917,66.83966142942018
20,-15.820634960534015,-252.06058296597638,-49.857914798201854,-55.849367270440766,31.622599974605684,16.985548616348602,257.4867911176063,67.05201446833581
21,-15.658286116901394,-252.14608057015133,-49.595195111953366,-56.043200682356044,31.226477913112774,17.711283979609604,257.50693435817715,67.15266676120794
22,-15.484601425177324,-252.2317599553115,-49.33894222460882,-56.086150112719075,30.85274206539153,18.43947024072798,257.5279168088967,67.13867440391145
23,-15.299021361087108,-252.3177203966697,-49.09143453842646,-55.97717296624922,30.505913568670383,19.155525233177563,257.55029861431825,67.00789332052189
24,-15.101584058105788,-252.40378608969831,-48.85487876873243,-55.71693636465882,30.1887391055364,19.845210638810247,257.5743892267364,66.75905605031386
25,-14.892914111384961,-252.48950310356193,-48.63140295840916,-55.30791119958654,29.901988780554987,20.494883007412426,257.600241313853,66.39184386594175
26,-14.674188883516342,-252.57415089139664,-48.42304808570717,-54.754432897647945,29.644313277479583,21.091722004253935,257.6276574863041,65.90694965431976
27,-14.447084130106754,-252.65676944049991,-48.231757977257764,-54.0627217884371,29.41216791271344,21.62393155194222,257.6562109765335,65.30612681761268
28,-14.213701604787394,-252.7362021722054,-48.059367604384725,-53.24085707225025,29.199808867893555,22.080910732170977,257.6852805595557,64.59221972307125
29,-13.976482078874875,-252.81115356931585,-47.90758989747957,-52.29870003130136,28.999364208374026,22.453392635788653,257.7140989463224,63.76917193888092
30,-13.73810775625199,-252.8802594132324,-47.778001010587616,-51.247764133014726,28.800979479748957,22.733550711030226,257.74181279293543,62.84200952476979
31,-13.501398243784239,-252.94216653219584,-47.672023691407986,-50.101031770076375,28.593035005476523,22.9150734821024,257.76755145930514,61.816797836382136
32,-13.269204045141846,-252.9956180843514,-47.5909083081988,-48.87271933066593,28.36242973606118,22.993209716932984,257.79050075444223,60.7005714975012
33,-13.044301134215816,-253.039539691138,-47.53571130879263,-47.57799396764671,28.09492469543408,22.964787128811395,257.80997722532373,59.50123827454621
34,-12.829289736904364,-253.07312135011443,-47.50727139002225,-46.232646855826665,27.775537609383793,22.828208424216847,257.8254982336932,58.227458492936734
35,-12.626500094576365,-253.09589007834313,-47.50618424257247,-44.85272906424102,27.388979007240778,22.583428913982512,257.83684317323485,56.888502426199025
36,-12.43790765316104,-253.10776864742544,-47.532777230993524,-43.45415769899636,26.920118863022736,22.231920001891474,257.84410165319184,55.49408895928581
37,-12.265059754066886,-253.10911654474512,-47.58708572632496,-42.05230190916691,26.35447167800343,21.776622731673942,257.84770527849776,54.05420997851256
38,-12.109015486011423,-253.10075040382236,-47.66883305040627,-40.66156070516762,25.67868684785801,21.221895301860922,257.84844076682845,52.57894642414651
39,-11.970299932974127,-253.08394245547518,-47.777416090094384,-39.29494709058096,24.881030282398612,20.573458086775908,257.8474434250001,51.07828360671562
40,-11.848873697159226,-253.06039686302668,-47.91189857711781,-37.96369535263694,23.951842647031626,19.838339207485262,257.84617126574955,49.561934925599346
41,-11.74411834461343,-253.0322049933559,-48.071013881686156,-36.67691000048862,22.88395935853021,19.0248230364002,257.84636117326477,48.0391841623972
42,-11.65483830590976,-253.00178170344773,-48.25317896623846,-35.441275299114345,21.673077662382,18.142403162674324,257.8499694901782,46.51875670706892
43,-11.579279689584745,-252.97178559668626,-48.45652073562199,-34.2608432643203,20.31805677379729,17.20174028764629,257.8591001771799,45.00872918907732
44,-11.515166334247027,-252.945026972486,-48.67891527268594,-33.1369152527114,18.821138155953296,16.21462432049139,257.8759243091639,43.5164850121477
45,-11.45975316857518,-252.92436788655908,-48.918039517967266,-32.06802808102231,17.18807450450021,15.193938758162236,257.902595171618,42.04872045613716
46,-11.409896552336788,-252.91261926077993,-49.171434101086774,-31.05005033421415,15.42815792119762,14.153624459822565,257.9411635574544,40.61150270644482
47,-11.362140760551355,-252.91244013231588,-49.43657528857333,-30.076388643076136,13.554140152194908,13.108639313883089,257.99349784733084,39.21037780908961
48,-11.312819191420179,-252.92624378803006,-49.71095324882072,-29.138297690766723,11.582040697434907,12.074910084604792,258.0612129442029,37.85052343438167
49,-11.258168277986393,-252.95611476786877,-49.99215309796103,-28.225281964128172,9.530842081601936,11.069272837508858,258.1456112131771,36.536938635616565
50,-11.194451505846112,-253.0037397280589,-50.27793471075853,-27.325572200929788,7.422075554488679,10.109398632462263,258.2476374812621,35.27466059432493
51,-11.118090430993359,-253.07035402728295,-50.5663072038883,-26.426655513799076,5.279304801223257,9.213701509220758,258.367849002723,34.068996723331736
52,-11.025799227266473,-253.15670459609808,-50.85559432459268,-25.515835677197423,3.1275196172390265,8.401226108949595,258.506400059358,32.925759538693164
53,-10.914719134216236,-253.26302822027415,-51.14448763977939,-24.580799263081477,0.9924555779950184,7.691512583571962,258.6630395791826,31.85149146197071
54,-10.782549206285353,-253.38904310618622,-51.43208524805199,-23.61016417410365,-1.1001408436552524,7.1044368017332955,258.837119073807,30.853667160950767
55,-10.62766988754162,-253.5339508221647,-51.717914474217636,-22.59398940725323,-3.1252797268288592,6.660024325196919,259.02760757282994,29.940862114156587
56,-10.449256055653189,-253.69644549013108,-52.00193749158243,-21.524228219153404,-5.059504200756056,6.378237193139902,259.2331101021396,29.122877680233543
57,-10.247376268823029,-253.8747273177342,-52.28453906212158,-20.395110844628984,-6.881651987827805,6.278733136985063,259.451886498188,28.410814907756155
58,-10.02307503978057,-254.06651812731212,-52.56649570942342,-19.203447147811932,-8.57357853445969,6.380597402935199,259.68186791580064,27.817091459259316
59,-9.778435062864974,-254.26907739148157,-52.84892583600291,-17.94884373346451,-10.120819703328364,6.702047941404202,259.9206692508547,27.355398197148602
60,-9.516616433428668,-254.4792182797301,-53.13322073642389,-16.633833878609234,-11.51317402904106,7.260115474027421,260.1655967519918,27.040594074594708
61,-9.24187007587536,-254.693324208983,-53.420957146937965,-15.263922021931574,-12.745186888838129,8.070300966266073,260.4136511965254,26.888539917138637
62,-8.959522914862555,-254.90736734969286,-53.71379279046475,-13.847547443247485,-13.81652149187249,9.146214272161759,260.66152811077365,26.91587347267666
63,-8.675932814356392,-255.11693148279537,-54.01334726060447,-12.395974214947124,-14.732204371389829,10.499199036381686,260.9056176295034,27.13972981614926
64,-8.398411975920054,-255.3172424114453,-54.321071559827026,-10.923116474516265,-15.502736103844335,12.137950214891154,261.1420076010891,27.57741283897436
65,-8.135118348563346,-255.50320955028863,-54.63811061953863,-9.445309369941914,-16.14406120807914,14.068131766628948,261.3664941973673,28.246025026980735
66,-7.894915651328772,-255.6694821529642,-54.965164013689005,-7.981036491663548,-16.677394448656937,16.29200319292241,261.5746043571956,29.16206390131368
67,-7.687203781889107,-255.81052292829492,-55.30235062294562,-6.550624277749339,-17.128903935203546,18.808064671937643,261.7616338654789,30.340994333818717
68,-7.521722594756316,-255.92070074394,-55.64908306307553,-5.175913045513517,-17.529254382642996,21.61073150013974,261.9227039121091,31.796806516521627
69,-7.408333221169551,-255.99440293029372,-56.00395724833856,-3.879913228845822,-17.913016655942165,24.690049320669374,262.0528377859862,33.54156974885267
70,-7.356782211869554,-256.0261664788158,-56.36466167970168,-2.686454137709264,-18.317952315122163,28.031462136406283,262.1470580691615,35.58499248356282
71,-7.376454710154112,-256.0108261784741,-56.72791017520066,-1.6198310073539033,-18.78418437220087,31.615645361867465,262.20050335385366,37.93399930492544
72,-7.476123491271902,-255.94367639990026,-57.08940099709985,-0.7044542218700806,-19.35326791866692,35.41841614493621,262.2085620987614,40.592335735981614
73,-7.663700998104092,-255.82064181375648,-57.4438047779382,0.035497492711007606,-20.067176705720307,39.41073285339855,262.1670197857453,43.560211997322476
74,-7.946001497915751,-255.63845098202896,-57.78478327971456,0.5764200890859212,-20.96722418190421,43.55879492250416,262.0722141898234,46.83399704444913
75,-8.32852022771953,-255.39480578868728,-58.10504068517517,0.8956250712033905,-22.092939916766458,47.8242531086111,261.921192596151,50.40597430683991
76,-8.815235946447341,-255.0885392782197,-58.39640864183961,0.9716804516572498,-23.48092469207056,52.16453847601698,261.7118643451094,54.26417039156906
77,-9.408442742462539,-254.71975457942568,-58.64996558307493,0.7847536233353442,-25.163709619377855,56.53331606612945,261.4431420803268,58.3922674076452
78,-10.108616297777209,-254.28993798952112,-58.85618996958063,0.3169566251065413,-27.168646141052697,60.881066116445425,261.1150653085348,62.769608319996344
79,-10.914319116178051,-253.80203984091585,-59.00514609167341,-0.44730783698693866,-29.51685443329026,65.15579195262556,260.7289002301311,67.37130275770375
80,-11.822148513328635,-253.26051747835774,-59.08669996039328,-1.521003893025202,-32.2222574705837,69.3038494392354,260.2872102734826,72.16843807723895
81,-12.826730398943544,-252.67133560617344,-59.09076154045738,-2.914130711024127,-35.290726905981984,73.27088842241155,259.79389241613865,77.12839747908095
82,-13.920760924945858,-252.04192049951163,-59.00754810104515,-4.633411431897234,-38.71936509876638,77.0028922266575,259.25417526226505,82.21528387996385
83,-15.095096866543754,-251.38106619295016,-58.82786186625133,-6.6820153310635915,-42.49594520289094,80.44729718734222,258.67457606364167,87.39044523467818
84,-16.338894240118915,-250.69879278862584,-58.54337367459055,-9.059327256218868,-46.59852835494018,83.55417048179437,258.06281549608934,92.61309412444623
85,-17.639793264463886,-250.00615932116304,-58.14690330167331,-11.760778546552391,-50.99527385091605,86.27742111253619,257.4276909583676,97.84101163081509
86,-18.984146344016818,-249.31503587042357,-57.632686664026515,-14.77775216666649,-55.64445496552422,88.57601568401039,256.7789111882838,103.03132270963988
87,-20.357284245560365,-248.63784150127773,-56.996620338084334,-18.097571872114802,-60.49468988472562,90.41516753575696,256.12689678215884,108.14132742396856
88,-21.74381412638533,-247.98725594560085,-56.23647457819421,-21.703581371882684,-65.48539414669763,91.76746494374557,255.48255255817938,113.12936955089037
89,-23.12794179459956,-247.37591369380849,-55.352067092511135,-25.575315300738612,-70.54745795207748,92.61390175699792,254.85701855957515,117.95572142335568
90,-24.493809800337687,-246.81608937336932,-54.34539105885701,-29.688759916468356,-75.60414849040059,92.94477240515639,254.26140686798718,122.58346163041999
91,-25.825842752249315,-246.31938303696015,-53.22069219531377,-34.01669811955838,-80.57223370021124,92.76039315900023,253.70653136581407,126.97932060902197
92,-27.109091512995622,-245.89641341662153,-51.98449116788241,-38.52913072907729,-85.36331933249848,92.07161333064418,253.2026373008761,131.11446847388956
93,-28.329568467509663,-245.55652656978035,-50.6455491423464,-43.19376385276045,-89.88538571295281,90.9000841461645,252.75913717977292,134.9652199005247
94,-29.47456671009432,-245.30752687202698,-49.214775699861136,-47.97655049521451,-94.04450431582768,89.27825937020744,252.38435931280898,138.51363255453478
95,-30.53295662489766,-245.15543703994854,-47.70507955720891,-52.842273019923695,-97.74670740198725,87.24911002150662,252.08531526134624,141.7479781444476
96,-31.495453843605752,-245.10429367950198,-46.13116368376846,-57.755151478958624,-100.89997678952165,84.8655450372227,251.86749240328606,144.66306814382037
97,-32.35485289507512,-245.15598464262428,-44.50926772025241,-62.67946108637942,-103.41631063259885,82.18953992039376,251.73467777292464,147.26041920494308
98,-33.10622100072905,-245.3101341563417,-42.85686221163551,-67.5801404949402,-105.2138203406285,79.29098579935555,251.68881919584223,149.54824624539486
99,-33.74704647677273,-245.56404111839038,-41.19230097533601,-72.42337155587161,-106.21880405446832,76.24628156065494,251.72992937278875,151.54127437627508
100,-34.27733620331012,-245.91267495864923,-39.53443972668976,-77.17711145890259,-106.3677389561084,73.13670138066902,251.85603777317414,153.26036457976204
101,-34.69965676554644,-246.34873201597327,-37.90223070776394,-81.81155997627229,-105.60913248288546,70.04657866499952,252.06319393829,154.73195259224346
102,-35.019114313627036,-246.86275363625907,-36.31430437215826,-86.29954807144914,-103.90517246013225,67.0613547530227,252.3455242243188,155.98730595664145
103,-35.24326901752332,-247.44330533795946,-34.788550017483544,-90.61683902480004,-101.2331185079068,64.26554648424172,252.69534230463094,157.06161070601598
104,-35.381981227401994,-248.07721445453163,-33.34170753340236,-94.74233869641927,-97.58638212141265,61.74069063964741,253.10331193543436,157.9929064947326
105,-35.44718809251462,-248.74986163351005,-31.988982179604537,-98.65821670005631,-92.97525068550317,59.56332518961473,253.55865857195846,158.82089684128346
106,-35.45261147477758,-249.445519519016,-30.743693665955302,-102.34994444622407,-87.42722107009601,57.80306709159101,254.0494245095727,159.5856689208974
107,-35.41340050188657,-250.1477299780676,-29.616969878407996,-105.80625891641019,-80.98692068941855,56.52084405987092,254.56276044376597,160.32636434824158
108,-35.34571492767481,-250.83970939476788,-28.61749432787952,-109.01906259390829,-73.71560712716882,55.76733327302137,255.0852447204874,161.07984787224672
109,-35.26625845930259,-251.50476987439976,-27.75131472358625,-111.98327031468065,-65.69025078486918,55.581653379946346,255.6032200791661,161.8794241972564
110,-35.19177420682708,-252.12674280014033,-27.02171807425132,-114.69661322229699,-57.00221780203232,55.99034748444365,256.10313648532656,162.75365382950542
111,-35.13851715489005,-252.6903903134437,-26.429175581554016,-117.15940900370836,-47.75558222558263,57.00668430891693,256.57188792740146,163.72531686013244
112,-35.1217207398094,-253.18179019181528,-25.97135847371537,-119.3743066766575,-38.06510679520623,58.63029297667967,256.9971310220834,164.81056918142443
113,-35.1550760351559,-253.58868040240893,-25.64322399448408,-121.34601378041756,-28.053940654060053,60.84713451085518,257.36757404348066,166.01832919627498
114,-35.25024268117278,-253.9007512780499,-25.437169122553115,-123.08101402111414,-17.85108973671674,63.629801033131066,257.6732265350533,167.34992501569465
115,-35.41641060118665,-254.10987562553794,-25.343248174452516,-124.58728409915109,-7.58872146697177,66.93812256107543,257.90560182181366,168.799022746153
116,-35.659930747741306,-254.21026991815637,-25.349449015322765,-125.87401922968955,2.6006303335928407,70.72005191807996,258.0578672876059,170.3518459762276
117,-35.9840315502641,-254.1985828378808,-25.442020981880724,-126.951377264353,12.586891802556536,74.9127910231851,258.1249399926694,171.98768519998094
118,-36.38863531340388,-254.07391063050113,-25.605845787300204,-127.83025086854718,22.24523716494254,79.44411690951024,258.10352788527933,173.67968395630874
119,-36.87028551211995,-253.8377418476587,-25.824840762314654,-128.52207563057632,31.458769767400316,84.23386321422876,257.9921193484247,175.39587637783444
120,-37.42219183886353,-253.4938369032339,-26.082382072931285,-129.03867929370034,40.1210292763799,89.19551240084151,257.7909259833727,177.10043926438073
121,-38.03439520822389,-253.04805028667377,-26.36173443606521,-129.3921737980295,48.13826179991606,94.23785527477563,257.50178524366527,178.7551114220693
122,-38.69404999375643,-252.50810509863254,-26.64647363042811,-129.59488791616354,55.43139445137446,99.26667702297583,257.12803069681325,180.3207244566203
123,-39.38581581665178,-251.8833307251923,-26.920888763801308,-129.65933434859227,61.93766180882867,104.18643270048227,256.6743382536828,181.7587829583003
124,-40.09234648374934,-251.1843749268646,-27.17035256970767,-129.59820150466172,67.61183888406296,108.9018795785567,256.1465566556966,183.0330284412181
125,-40.79485946176194,-250.42290140169283,-27.381649747658948,-129.42435715574567,72.42704374683956,113.31963885088612,255.5515298761448,184.11092080277658
126,-41.47376580872725,-249.61128307446947,-27.543255418909705,-129.1508491971462,76.37508292696627,117.34966454560559,254.8969179816256,184.96497365874487
127,-42.10933787197566,-248.7623001597278,-27.645558060641935,-128.79088845695853,79.46632405640888,120.9066027048767,254.1910216167799,185.5738857511958
128,-42.682390328710326,-247.8888506725158,-27.68102370863785,-128.35780018382698,81.7290927533674,123.91102860526807,253.44261385014724,185.92341957160087
129,-43.174949357208526,-247.0036796693441,-27.644300655694604,-127.86493443082357,83.2086042855176,126.2905537515247,252.6607818120807,186.00698995538866
130,-43.57088501772935,-246.1191321461933,-27.53226615579185,-127.3255305298593,83.96545474975814,127.98079745700657,251.85477943795257,185.82593896841465
131,-43.85648337481232,-245.24693322098247,-27.344018602567285,-126.75253649313382,84.07371084797016,128.9262200432045,251.03389172927004,185.38948801800584
132,-44.020937443038896,-244.39799803198594,-27.080820116540533,-126.1583897031618,83.61865115544185,129.0808162332512,250.20731029204262,184.71437285513147
133,-44.05673948947883,-243.5822727753827,-26.745995291134463,-125.55477002846615,82.69422436660936,128.40866846127815,249.38401954515126,183.8241811951796
134,-43.95996131025623,-242.80860756685425,-26.34479199921107,-124.95234018808226,81.40030069277287,126.88436078307633,248.57269294512756,182.7484254576368
135,-43.7304135517606,-242.08466137782472,-25.884209876177614,-124.36049063110585,79.83980075320237,124.4932549071538,247.78159885518164,181.52139407159666
136,-43.37167975730783,-241.4168391051751,-25.372801685744204,-123.78710722338234,78.11579141174349,121.23163053050224,247.01851622625185,180.1808333853296
137,-42.89102539916957,-240.81026071298797,-24.820452401807128,-123.23837945615692,76.32863977519936,117.10669261010368,246.2906608661777,178.7665180452886
138,-42.2991864727424,-240.26876215142056,-24.238140464286595,-122.71866468608886,74.57331499889995,112.13644836673282,245.60462351480112,177.3187706093084
139,-41.61004604288558,-239.79492733549378,-23.637685189159967,-122.23042027334344,72.93692279087456,106.3494566564881,244.96632108055,175.87699119067122
140,-40.84021033340386,-239.39014987302488,-23.031483757942027,-121.77421072199733,71.4965497095344,99.7844519328799,244.38096222281857,174.47825531674508
141,-40.008498625151475,-239.05472249209376,-22.43224077700186,-121.348791421752,70.3174837058083,92.48984459409569,243.8530280470092,173.15603330985505
142,-39.13536354653318,-238.7879512647244,-21.85269329793856,-120.95126478358816,69.45186425317705,84.52309937344464,243.38626810268815,171.9390778817283
143,-38.24226041446561,-238.5882908328637,-21.305334464293882,-120.57729897028746,68.93780040775968,75.94999383984836,242.9837112447261,170.85051885517856
144,-37.35098608631568,-238.45349602505374,-20.80213942552722,-120.22139458772713,68.79897888401827,66.84376016162842,242.6476903227266,169.907195512002
145,-36.483009115876484,-238.38078457585874,-20.354297564428517,-119.87718105656685,69.04476734594583,57.28411505585454,242.3798791182873,169.1192483741216
146,-35.658813573743686,-238.3670051407846,-19.971955210019694,-119.53772209304407,69.67080123361099,47.35618521318915,242.1813394075268,168.48998338319225
147,-34.89727847082588,-238.40880449599095,-19.66397288966138,-119.19580870562396,70.66002623983955,37.14933833575886,242.0525755244067,168.0160124220317
148,-34.215113272854744,-238.50278786368085,-19.437701089568943,-118.8442182458135,71.98415365829177,26.755933118911035,241.9935935090888,167.68766493981033
149,-33.62636763918201,-238.64566679485628,-19.298778669059896,-118.47591937651345,73.60547276625111,16.270004871173644,242.00396198118236,167.48965632067143
150,-33.14203048635056,-238.83438987836607,-19.25095845844004,-118.08420546768889,75.47895359206413,5.785906781318641,242.08287222615377,167.40198994349672
151,-32.7697300301188,-239.0662525401338,-19.295964959408547,-117.66274292284608,77.55456514548145,-4.603070109760196,242.229195460584,167.40106199346246
152,-32.513542830407665,-239.33898324405988,-19.433389291718164,-117.20552613132227,79.77972862053889,-14.806072573625785,242.44153576154457,167.460931301326
153,-32.3739161887052,-239.65080454965593,-19.660626452383084,-116.70673686019522,82.1018222824563,-24.736028844392347,242.71827775559981,167.55471105476454
154,-32.34770458291394,-240.000468791906,-19.972859455046056,-116.1605125937841,84.47065474691996,-34.310931417514084,243.057628929662,167.6560353672426
155,-32.428317232600754,-240.38726956999355,-20.363093945355722,-115.56063516189145,86.84082605034968,-43.455030064569655,243.4576572941499,167.7405515164197
156,-32.60597046995104,-240.81103160651267,-20.82224544468849,-114.90015749193174,89.17390097500547,-52.09990741049926,243.9163259523153,167.7873881390229
157,-32.86803544274235,-241.27208274227272,-21.33927951162961,-114.17099202548297,91.44032609676016,-60.18541215284847,244.4315267951384,167.78055066873347
158,-33.19946889371436,-241.77121277575785,-21.90140298990927,-113.36348882126076,93.62103056397066,-67.66042897663495,245.0011159804252,167.71019764768369
159,-33.58331251429529,-242.3096244249622,-22.494302428174315,-112.46603413968938,95.7086603500269,-74.48346907790776,245.6229539913457,167.57375495758873
160,-34.00124485827496,-242.88888177290318,-23.102424093535753,-111.46470090520465,97.70840635878125,-80.62307063112911,246.2949528482754,167.37682920188558
161,-34.434169131613686,-243.51086112179001,-23.709289061398305,-110.34298064005574,99.63839810306884,-86.05800423596082,247.0151324777747,167.13388625362074
162,-34.862820297697894,-244.1777082719053,-24.297836616037742,-109.08162237771464,101.52964660414587,-90.77728401469511,247.78168737112784,166.86866634702017
163,-35.26837561591994,-244.89180498022017,-24.85078920470788,-107.6585980830561,103.42553254701137,-94.77999017169756,248.59306354813248,166.61431303224532
164,-35.63305359819182,-245.6557459179198,-25.351031946900964,-106.04920678255544,105.38084834837863,-98.07491305334233,249.44804455907743,166.41319975718417
165,-35.940687142071745,-246.47232600019876,-25.781999085332217,-104.22632161131916,107.46041524664308,-100.68003180607326,250.34584391886247,166.31644463402537
166,-36.17725726290026,-247.34453659635435,-26.128059110011346,-102.1607759910659,109.73730820719715,-102.62184261795625,251.2862000902184,166.38311086883607
167,-36.33137457240097,-248.27556787845717,-26.374889999215288,-99.82187773244216,112.29073176595783,-103.93455247938773,252.26946901773758,166.67909720583438
168,-36.394696624610326,-249.26881346537223,-26.50983620042363,-97.17803350572474,115.20359866504553,-104.65915478219188,253.29670833001796,167.27572966166645
169,-36.36227057487925,-250.3278726104927,-26.522239444425498,-94.19746130991588,118.55987042631045,-104.84240325882348,254.36974671391945,168.24807315815235
170,-36.23279223212493,-251.45654448935255,-26.403736091427437,-90.8489655542088,122.44172515808368,-104.53570100214505,255.49123162116953,169.6729896998113
171,-36.00877433176506,-252.65880866272784,-26.14851445494222,-87.10274804063971,126.9266231060836,-103.79392175628728,256.6646483568299,171.62697847056353
172,-35.69661849809297,-253.93878558229434,-25.75352649511911,-82.93122812580482,132.08434482875046,-102.67418146744812,257.8943037496838,174.18384239199156
173,-35.30658685990131,-255.30067125057508,-25.218649372046443,-78.30984627196415,137.97408036649492,-101.23457939999567,259.18526817921565,177.41223497735558
174,-34.85267081132297,-256.7486410068916,-24.54679341575814,-73.21782687472485,144.64165020924452,-99.5329301059038,260.5432708961505,181.3731503948983
175,-34.352356198118876,-258.2867188497153,-23.743953884334257,-67.63887863347766,152.11693999053864,-97.62551016495027,261.9745452970484,186.11742811422536
176,-33.82628636631198,-259.91861050254886,-22.819204368117312,-61.561813826729924,160.41163039087147,-95.56584656911983,263.48562288840213,191.68335080453986
177,-33.2978269939197,-261.647500343924,-21.78463001422235,-54.9810715764779,169.51730144867207,-93.40357632876677,265.0830768731174,198.09441954509117
178,-32.79253925722173,-263.4758142404247,-20.655199172744723,-47.89713418545737,179.4039860082373,-91.18340875107714,266.7732185017042,205.3573930083589
179,-32.33757039864021,-265.40495230078665,-19.448572798284864,-40.316829382096685,190.0192399456689,-88.94422255849432,268.56175158577105,213.46067622695605
180,-31.960972984192676,-267.43499768433435,-18.184852000346204,-32.25351438502429,201.28778667269998,-86.7183295244611,270.4533929216944,222.37313923356314
181,-31.690966045557765,-269.5644097399115,-16.88626548317112,-23.727139914248774,213.1117799796827,-84.53093464511201,272.4514687056661,232.04343600186928
182,-31.555152913714355,-271.78971168184444,-15.576800266734665,-14.764193590195799,225.37171274424335,-82.39981995790956,274.5574991090947,242.39987988848233
183,-31.579711873606875,-274.1051845883019,-14.281781078811719,-5.397522662095359,237.92798022437648,-80.33527462684812,276.7707848968808,253.3509138915616
184,-31.78857692584102,-276.50258071493107,-13.027406131305142,4.333963939772853,250.62308688030015,-78.340287296207,279.08801130693115,264.7861937092313
185,-32.20262715703619,-278.9708698749311,-11.840249553292873,14.38571391406094,263.2844662401063,-76.411007542632,281.50288531323525,276.5782802008565
186,-32.83890458495639,-281.49603279714887,-10.746743385798998,24.70806849074803,275.7278650900971,-74.53747165144476,284.00582272190013,288.58491662187726
187,-33.70988170706939,-284.0609148871284,-9.772654454860865,35.24691285310306,287.76122650202524,-72.70457475797527,286.5837012158647,300.65184567697486
188,-34.82280107621255,-286.64515278348665,-8.942573262817618,45.94442957218712,299.1889907535686,-70.893257952963,289.21969451924366,312.61610231197005
189,-36.179109802070904,-289.2251846451139,-8.27943297825703,56.739937274896064,309.81671869991385,-69.0818665887311,291.89320138059475,324.30970018749116
190,-37.77401172653793,-291.7743533165859,-7.804076473140426,67.57078848818588,319.45592834507244,-67.24762571727561,294.5798811534725,335.56361284047495
191,-39.596158978770454,-294.2631095523828,-7.534888024297013,78.37329247356868,327.9290223722564,-65.36817081744437,297.2518055327221,346.2119348637572
192,-41.62750254282687,-296.65932048789244,-7.487503701791106,89.08362216791288,335.074172855813,-63.42306681156859,299.87773364302365,356.09609475591844
193,-43.84331827487066,-298.9286864764895,-7.6746106406938726,99.63866037931015,340.75002026469514,-61.395245813560344,302.4235151300021,365.0689805768089
194,-46.21242048299895,-301.03526702970555,-8.105840524744934,109.97674032811614,344.84003824381864,-59.27229420503497,304.8526229442142,372.9988335421463
195,-48.69756979488012,-302.9421136928073,-8.78775706369977,120.03824029497927,347.2564145147753,-57.0475228126844,307.12681392723624,379.77276449997953
196,-51.25607566918263,-304.61200411707836,-9.723931432900793,129.76600185388008,347.9433024642883,-54.72076060630607,309.2069109573613,385.2997549612575
197,-53.8405867158163,-306.0082671421085,-10.915093898994957,139.10555582204748,346.8793084497923,-52.29882292506564,311.053695079344,389.51301893211576
198,-56.400054364819745,-307.09568314375304,-12.359344503977368,148.00515927040598,344.07909730708815,-49.7956200595728,312.62888952183624,392.37162485411545
199,-58.88084797907368,-307.8414372467258,-14.052401203032597,156.41566985747107,339.5940232311632,-47.2318908446121,313.8962098702301,393.8613082973892
200,-61.22799284006867,-308.21609569470957,-15.987860929440776,164.2903084419519,333.51172424076526,-44.6345676897177,314.8224464499431,393.9944437999847
201,-63.386496897948405,-308.1945685524276,-18.157448418330688,171.58438385589213,325.95465373580805,-42.03580223105259,315.3785371269523,392.8091846168315
202,-65.30272782447756,-307.7570160687515,-20.551229853197533,178.25506987947986,317.07755968720863,-39.47170202176741,315.5405824399615,390.3678174106683
203,-66.92579859543233,-306.8896527567147,-23.157773810789642,184.26132837912223,307.06395893785424,-36.98084601346489,315.29075161685734,386.7544111815443
204,-68.20891748095691,-305.58540395221627,-25.96425027009904,189.5640600301206,296.1216902906065,-34.602658469121366,314.61802901805885,382.07186417215524
205,-69.11065731539053,-303.8443753728434,-28.956468282549476,194.12653412751484,284.47766541356197,-32.375727011569374,313.5187569178155,376.4384692217882
206,-69.59610008109046,-301.67410711754303,-32.118861996053134,197.91510566468784,272.3719703544923,-30.336151308542235,311.99694231176323,369.9841278442921
207,-69.6378168582958,-299.0895983747457,-35.43444092305578,200.90017992594568,260.0515004526875,-28.516005220197037,310.06431131774826,362.84634658322466
208,-69.21664999247965,-296.1131054771785,-38.88472287246599,203.05734340992046,247.76333451737156,-26.941987549206267,307.74011234001136,355.1661464550444
209,-68.32227306703876,-292.7737312168233,-42.44966768381673,204.36855421089453,235.7480677144675,-25.634325081133756,305.0506858496331,347.0840094033951
210,-66.9535138205139,-289.1068354379168,-46.10762831163689,204.8232788855598,224.23332596782973,-24.60597704630742,302.028832275303,338.73597786681785
211,-65.11843463142303,-285.15330470001624,-49.83533393790766,204.41947413220532,213.42767886295496,-23.86217387084817,298.71301885067714,330.25001738299943
212,-62.834174166099345,-280.9587219343537,-53.60791781861339,203.16433434574222,203.5151543349555,-23.40030676185986,295.1464709141074,321.74274768569893
213,-60.12656206435059,-276.57247582777745,-57.39900014654147,201.07475378940376,194.65053718504703,-23.210169386054282,291.3761933079298,313.3166427843741
214,-57.02952589483009,-272.04684495498896,-61.180833032843935,198.17747979114785,186.95560428396482,-23.274538844271603,287.4519638203495,305.0577922995692
215,-53.58431568181969,-267.4360845972314,-64.92451094010134,194.5089579791787,180.51641217285595,-23.57006991924274,283.4253340662089,297.03430302162235
216,-49.838575744403336,-262.79553601127014,-68.60024614157143,190.1148904467305,175.3817090337399,-24.06846386957173,279.34866503291266,289.2954007018823
217,-45.845296215720595,-258.180769725804,-72.17770562166444,185.04954214702664,171.5624954472104,-24.73786122756336,275.2742158318083,281.8712679040081
218,-41.66167746804137,-253.64676705903605,-75.62640345494569,179.37483989954887,169.03271044594442,-25.544398285238596,271.2532958683439,274.7736255591377
219,-37.34794006569371,-249.24713823125632,-78.9161409005151,173.15931313796932,167.7309744602235,-26.453860596508324,267.3354834969908,267.9970356627534
220,-32.96611125659436,-245.03337193996765,-82.01748485825783,166.47692739011976,167.56328155699495,-27.433364568385688,263.5679090575542,261.52087271670354
221,-28.578816721471004,-241.05411050880218,-84.90227360759276,159.40586151228297,168.4065017686768,-28.452999527085122,259.9945974606337,255.31188409485566
222,-24.248103391053515,-237.3544465866905,-87.5441367258903,152.02727802357438,170.11253134560704,-29.487366133450866,256.65586510975714,249.32723565300256
223,-20.034315594716386,-233.97524126308568,-89.91901390913382,144.42413191993964,172.5129148543022,-30.51695139452871,253.58776743201048,243.51791915134592
224,-15.99504278453372,-230.95246852208453,-92.0056555198334,136.6800565930031,175.4237580987488,-31.529285349335698,250.82159600325448,237.832382989492
225,-12.184152986138745,-228.31659622023676,-93.78608661711964,128.87835611289785,178.65075435681436,-32.519830292410816,248.38342753100733,232.22023827489406
226,-8.650922399229561,-226.0920183779003,-95.24601644734888,121.10112194707317,181.99415748347053,-33.49256101982426,246.2937302185015,226.635889252293
227,-5.439268485342267,-224.29655690578298,-96.37517706946447,113.42848005806795,185.25355272275223,-34.46020466813445,244.5670358360517,221.04194092155146
228,-2.587091590619517,-222.94105251136153,-97.16757775901411,105.93796186930449,188.23229794271177,-35.44412130766316,243.2116877569024,215.41224671775942
229,-0.125728790236071,-222.02906418587503,-97.62166560778458,98.70398040086152,190.74153267590626,-36.47382102699758,242.22967589914484,209.73447430390502
230,1.9204768083463946,-221.55669445336932,-97.74038680030695,91.7973819684517,192.60367820988697,-37.586128901137776,241.61656884441544,204.0120867018576
231,3.5344879952527357,-221.5125539249952,-97.53114704573713,85.28503558595757,193.65537788347407,-38.82402486451916,241.36155162672793,198.26565836219714
232,4.7067633759651555,-221.8778742320438,-97.00567340321386,79.22941777349187,193.74985201778725,-40.235200041872105,241.4475752272151,192.53347080578084
233,5.435322760000094,-222.62677363602447,-96.17978312012497,73.68815038221061,192.75866605203726,-41.87038374066564,241.8516210534749,186.87135961790145
234,5.725687046448217,-223.72667494610985,-95.07306781098443,68.7134534750665,190.57293292141813,-43.78150562435387,242.54508084081885,181.35181322095735
235,5.590693767346897,-225.13887109204288,-93.70850298049591,64.35148461613998,187.1039908417301,-46.019765244440286,243.49424955056637,176.06235340782905
236,5.050191776815439,-226.81922992626465,-92.11199350093067,60.64155067845123,182.283614636317,-48.633685783086584,244.66092600913436,171.10325746487644
237,4.130620744961605,-228.7190265633196,-90.31186566799377,57.615198298314596,176.06383160611512,-51.667230292507284,246.00311338647234,166.58471076877512
238,2.8644829148628257,-230.7858887879507,-88.33831652709435,55.29521232642213,168.41642076795594,-55.15805681342746,247.4758093662253,162.62350499487357
239,1.2897158761258165,-232.96483875279176,-86.22283165614844,53.694573979097875,159.33217634602644,-59.13598351381036,249.03187411574655,159.33941762653646
240,-0.5510241060572019,-235.19941217369018,-83.99758354964646,52.8154470101438,148.82001233715565,-63.621726506534856,250.62296276156783,156.85142034046936
241,-2.6111581702916493,-237.4328341736047,-81.69482398426656,52.648267357354655,136.90597500346016,-68.62596155474014,252.2005076193164,155.2738653347467
242,-4.841049706899595,-239.60922856403317,-79.34628486297494,53.17100838147624,123.6322153674258,-74.14874690937445,253.716733531349,154.71279020760159
243,-7.188926245945633,-241.6748347223629,-76.98260253359126,54.34868225021831,109.0559561997221,-80.17932859645558,255.12568719458355,155.2624659921611
244,-9.601844927574959,-243.57920361412144,-74.63278013992839,56.1331225094972,93.24847012493775,-86.69633219182026,256.38425849000515,157.0022926070685
245,-12.02668589388728,-245.27634235513958,-72.32370122412765,58.46307760250191,76.29406981800084,-93.66832717599962,257.4531689990528,159.99412418256446
246,-14.411155622764726,-246.72577548415336,-70.0797058285245,61.26463252850485,58.28909982640618,-101.0547321755361,258.2979006811358,164.2800855561063
247,-16.70478011633725,-247.89349114888768,-67.9222380435141,64.45196656291436,39.34091344743899,-108.80701277291925,258.8895365348241,169.88092184467607
248,-18.85986621090441,-248.75274177640915,-65.86957155139788,67.92844827548068,19.566817237138874,-116.87010920488436,259.20548516114314,176.79490552474738
249,-20.832408333612214,-249.28467143180686,-63.936617332842665,71.58806357410344,-0.9070311980664484,-125.18402022760641,259.23006250624735,184.9973092578861
250,-22.58291803373664,-249.47874588971868,-62.13481526771804,75.31716652073403,-21.94678168294351,-133.6854626521695,258.9549066479273,194.44043710372094
251,-24.07715472723958,-249.33296643066396,-60.47210878245522,78.9965348195091,-43.41211153288347,-142.30952419515856,258.37920531321794,205.0541917044885
252,-25.286738319004975,-248.85385453146498,-58.95299903501731,82.50370147569663,-65.15751015508624,-150.99123038217434,257.5097209230987,216.74714115237705
253,-26.189627574751327,-248.05620183244318,-57.578672589551566,85.7155214057885,-87.03363078088269,-159.66695369427407,256.3606043060284,229.4080374791769
254,-26.770452109039294,-246.96258773671764,-56.347194359130164,88.51091778859963,-108.88871260325887,-168.27560423523835,254.95299556716063,242.9077298663108
255,-27.020690361981657,-245.60267532823744,-55.253756015208666,90.773739155742,-130.57007710905353,-176.75955550261472,253.31441857490012,257.1014103651666
256,-26.938690593521056,-244.01230454245578,-54.29096918116633,92.39564618199056,-151.92570157317041,-185.06527607908282,251.4779836710947,271.83112831801134
257,-26.52953643288402,-242.23240925344174,-53.44919243522025,93.27893828998087,-172.80586954830696,-193.1436574764413,249.48142103338313,286.92851122595727
258,-25.804762740320996,-240.3077918460634,-52.71688126138032,93.33922563231592,-193.06489214588657,-200.95004843360854,247.36597425018888,302.2176332072989
259,-24.781931381492754,-238.28579473709834,-52.080950546056506,92.50785228495297,-212.56288506408876,-208.44402471999194,245.1751898931042,317.51797585800676
260,-23.48407989699932,-236.21491293672457,-51.52714002851847,90.73398147472655,-231.1675756953359,-215.58893919477578,242.95364391270093,332.64742920558984
261,-21.93905897073536,-234.14339467281903,-51.04037420132288,87.98626285102571,-248.75610400852497,-222.35130845411547,240.74564909754216,347.42528239055036
262,-20.17877713645611,-232.11787792919515,-50.60510941221849,84.25401459747665,-265.21677214871255,-228.70009947121937,238.59398920630022,361.6751552968818
263,-18.23837330171705,-230.1821093570618,-50.20566227071673,79.54786907199646,-280.4506921416108,-234.60598230339306,236.53872457135705,375.2278243722198
264,-16.155339249097477,-228.37578859876908,-49.826514815078674,73.89984920110885,-294.3732791579187,-240.04061353289507,234.61611111808185,387.92389881041646
265,-13.968615140671503,-226.73357590953702,-49.45259309725194,67.36286345123159,-306.91553923487226,-244.97600991238028,232.8576700761473,399.6163070630781
266,-11.717681209356378,-225.28429431323931,-49.069516810181845,60.009629098678374,-318.0251046917782,-249.38406297225274,231.28943939025794,410.1725579352881
267,-9.441668384135186,-224.050349590043,-48.66381840781141,51.93105580864567,-327.6669773409101,-253.23623367002776,229.93143021114673,419.4767450411336
268,-7.178509672876699,-223.04738244810656,-48.22313099382319,43.234143192682026,-335.82394872112974,-256.5034524297491,228.79730319021544,427.4312680911449
269,-4.9641527613115,-222.28415768847924,-47.736345041739135,34.039466046943666,-342.49667754819825,-259.1562350434536,227.8942700167867,433.95824920412315
270,-2.831852415677617,-221.76268555026402,-47.193734597585866,24.478338470816325,-347.7034166342877,-261.16500953879637,227.22321620472889,439.00062672717524
271,-0.8115587947067956,-221.4785612601027,-46.58705399298631,14.68976205520856,-351.47939375860415,-262.50063387752914,226.7790320883884,442.52291240879833
272,1.070585289213197,-221.42150057800862,-45.909606419686995,4.8172726239654144,-353.8758625714598,-263.1350701817966,226.55113083936268,444.51160008228806
273,2.7926286148711124,-221.5760422078056,-45.15628612371903,-4.994196595500502,-354.9588500358261,-263.0421693701558,226.524125484589,444.97521572106
274,4.337071539886238,-221.9223825806505,-44.32359653325886,-14.601320785426008,-354.8076358280463,-262.1985119971935,226.6786316716622,443.94400073403665
275,5.690999882813723,-222.43730483283528,-43.40964736383483,-23.865153933600034,-353.51300645527033,-260.58424801756087,226.99215940507247,441.46922396790643
276,6.846094680420163,-223.09516180222315,-42.41413450903635,-32.653576431188654,-351.17533274319106,-258.1838811836933,227.44005515126594,437.6221245361472
277,7.798523430679781,-223.86887259354754,-41.338306976979034,-40.84335594378998,-347.9025237550439,-254.98695306973107,227.9964555401575,432.4924980596856
278,8.548721963150316,-224.73089380378659,-40.18492496028879,-48.321785855227965,-343.80791236214884,-250.98859578541436,228.6352154146779,426.18695192631424
279,9.101079566126359,-225.6541299306613,-38.95821224109084,-54.98789504830081,-339.0081264204041,-246.1899379856197,229.33077626590747,418.82686744388
280,9.463543179049246,-226.6127526801459,-37.663804625866206,-60.753249161268236,-333.6209943967471,-240.5983622611662,230.0589460202619,410.5461150098594
281,9.64715886660956,-227.58290541214413,-36.308694241792054,-65.54238377097066,-327.7635264121119,-234.2276215827934,230.79756731412635,401.48857172050987
282,9.665570087462589,-228.54327626122816,-34.901167735337275,-69.29292356453068,-321.55000304303474,-227.0978283639226,231.5270583038208,391.80549071431443
283,9.534492381515411,-229.47553106468786,-33.450735046354666,-71.95544926314379,-315.0901966797153,-219.23533299269147,232.23081729811364,381.6527702253324
284,9.271183163434099,-230.36460471163258,-31.968044485199588,-73.49317675034108,-308.4877447286289,-210.67251021697928,232.89548967068004,371.1881692688347
285,8.893923550267214,-231.19885648741501,-30.46477912694758,-73.88151114794098,-301.83869061120066,-201.44747194931406,233.51110219123848,360.5685165557067
286,8.421526772129301,-231.9701010382748,-28.95352910725276,-73.1075331168235,-295.2302071026886,-191.60372415768765,234.0710757330028,349.9469596698287
287,7.872884896118509,-232.67353134556998,-27.447634589508795,-71.16946625989681,-288.73951671313955,-181.18978388112163,234.5721319443953,339.47030271915094
288,7.26656253756766,-233.30755324638835,-25.960995227373928,-68.07616403640607,-282.4330249455066,-170.25877040831378,235.01411262343922,329.2764823343259
289,6.620443135154261,-233.87355241339446,-24.5078438159965,-63.846642859669515,-276.36568343890315,-158.86798243420452,235.3997320450697,319.49223333450703
290,5.951430351447101,-234.37561441931868,-23.102484153019464,-58.509675751947064,-270.58060014324786,-147.07847050853584,235.73428241982614,310.2309956281362
291,5.275204330584358,-234.82021687190502,-21.75899542576211,-52.10344865520507,-265.108911976864,-134.95461126061153,236.02531124194527,301.59111217580653
292,4.606030083850906,-235.21590997255652,-20.490907368269536,-44.6752697839399,-259.9699316359416,-122.56368682750967,236.28228682284106,293.6543638354088
293,3.956613404843239,-235.5729985041326,-19.310851962353432,-36.28131192032656,-255.17157458049894,-109.97546982874177,236.5162650769664,286.4848808225183
294,3.337998559622166,-235.90323442256351,-18.230198757860123,-26.986359074469032,-250.71106515536738,-97.2618112928078,236.73956688891522,280.12846271769365
295,2.759501552585117,-236.21952524164095,-17.25868217453533,-16.863523145506893,-246.57591277712444,-84.49622627220276,236.9654715001799,274.61232978973356
296,2.2286729968688275,-236.53565971544467,-16.40403058134038,-5.99389357810416,-242.74514058469072,-71.75346963587113,237.20792778450516,269.945318224362
297,1.7512854708831305,-236.8660493968709,-15.671608512408113,5.533916218650104,-239.1907403386086,-59.109092969725296,237.48128248911718,266.118521001888
298,1.331341651714819,-237.2254827891763,-15.064084843824814,17.624357649044114,-235.8793189635338,-46.63897298324386,237.800022788753,263.1063649025165
299,0.9711013921063653,-237.6288880579416,-14.581140818250956,30.175695262976376,-232.77389411306336,-34.41880256353433,238.17852985165274,260.868102485784
300,0.6711280860247817,-238.09110045953153,-14.219232265881235,43.080928589140505,-229.83578859999653,-22.52353770080568,238.63084036208207,259.3496858119307
301,0.430356853776549,-238.6266315574095,-13.971420208896733,56.22888908848111,-227.02656667513585,-11.026796820168219,239.170413867686,258.48597612619017
302,0.24618892491820493,-239.2494388137439,-13.827283324186276,69.50550080294066,-224.30994935812575,-0.00021335626598870203,239.80990529945768,258.2032309688379
303,0.11461781905972306,-239.97269614547818,-13.772924488848892,82.79518084126231,-221.65364193055873,10.487252643193937,240.56094393665424,258.42179785497245
304,0.03039327523410964,-240.80856830656626,-13.791081760755413,95.98234528641864,-219.03100491594805,20.370032938319223,241.43392224903715,259.0589327264946
305,-0.012771872401496132,-241.7679942002152,-13.86135156933896,108.95297842985376,-216.42250083835657,29.586683722163084,242.43780015348776,260.03165282474237
306,-0.021948653523555815,-242.86048609062718,-13.960528627962912,121.59621895049308,-213.81685302507793,38.08061255246044,243.57993194115383,261.2595283964937
307,-0.004692648344996278,-244.09395280277016,-14.063063271258427,133.8059156931676,-211.21185982555855,45.800776879063754,244.86592410823673,262.6673164723743
308,0.03129776577237589,-245.47455510543978,-14.14163276335751,145.48210754338018,-208.61481785077564,52.702330273272864,246.2995322943697,264.18734327072644
309,0.0785574477287426,-247.00660054629785,-14.167818762225494,156.53238580377752,-206.04252098008507,58.74719310448268,247.88260446496395,265.76154958168286
310,0.13025242155145791,-248.69248320421164,-14.11287865726983,166.87310273932331,-203.52081745332487,63.90452681588513,249.6150755075087,267.3431253566947
311,0.18058372089917724,-250.53267135213014,-13.948594034792778,176.43039613792632,-201.08372461469446,68.1510947880381,251.49501574029745,268.89767497004505
312,0.22517868785733094,-252.52574313284944,-13.64817522086661,185.14100676589834,-198.77211887077107,71.47149752567582,253.51873269832336,270.4038724402952
313,0.2614501396506952,-254.66846727247707,-13.187196860575977,192.95287364060354,-196.63203618827214,73.8582750653189,255.68092220131976,271.8535855501228
314,0.2889039889149056,-256.95592270128157,-12.544535955575448,199.82550124638436,-194.71263504581884,75.31187474386402,257.9748612499318,273.25146858733416
315,0.3093772529860243,-259.38164779246927,-11.703280905532392,205.730103109042,-193.06388824898556,75.8404875369932,260.39263184335255,274.6140445625303
316,0.3271909344442447,-261.9378069801604,-10.65157827809131,210.6495369667183,-191.73408146494708,75.45976073105456,262.9253616233416,275.9683180999025
317,0.3492060056575573,-264.6153601230374,-9.383383770272962,214.5780569198132,-190.76720381406895,74.19239825466053,265.5634647153801,277.3499781244847
318,0.3847753835619323,-267.40421849209247,-7.899085478551306,217.52091569258198,-190.20031888409915,72.06766208226469,268.2968646375732,278.8012632345138
319,0.44558963700614684,-270.2933709945242,-6.2059711910715265,219.49385378373904,-190.06100367511388,69.12078852372925,271.11518098792936,280.36857119561097
320,0.5454183519712263,-273.27096545711333,-4.318516602391318,220.52251068248472,-190.36494012325002,65.3923323184779,274.0078630075693,282.0998976347696
321,0.6997519470704574,-276.3243325861326,-2.258477502886236,220.64178635162216,-191.11374153466957,60.92745033369954,276.96425608838905,284.0421893787616
322,0.9253501754126998,-279.4399444921413,-0.0547754780206305,219.89517001225016,-192.29309635451642,55.77513673471097,279.97359169536077,286.2386971682997
323,1.2397039783742003,-282.6033051512735,2.2568269647496773,218.3340402566386,-193.87131424088872,49.98742385754975,283.02489672663427,288.7264123726666
324,1.6604174264429625,-285.7987764762252,4.634259827202086,216.01692837611904,-195.79836241974635,43.61856788538828,286.1068246538501,291.533673144749
325,2.204516827531054,-289.0093502658455,7.029879682973063,213.00872753358672,-198.0054805297033,36.72424486140403,289.20741737000174,294.6780259752177
326,2.8876952700458958,-292.21638262582906,9.391390396896258,209.37982481656317,-200.40545642326666,29.36078864227704,292.313812997742,298.16442675210766
327,3.7235034386020853,-295.39931299974546,11.662930155955104,205.2051310628356,-202.8936315883997,21.584505943509964,295.41192051898514,301.98385938556476
328,4.7225018506273315,-298.53539429582474,13.786298038183105,200.5629840823027,-205.34968252388586,13.451103105397506,298.48608658352765,306.11243909295314
329,5.891395623602833,-301.5994634616978,15.702287513396037,195.53390402675032,-207.64019459176347,5.015254110889003,301.5187829695397,310.51105202535473
330,7.232179957965905,-304.56378318249233,17.352089712778955,190.1991848582062,-209.62200963781373,-3.6696698813024273,304.49034483282423,315.1255641596506
331,8.741331871838968,-307.39798518928427,18.678726381658823,184.63931288438386,-211.14629043554427,-12.551701661096134,307.37879010973654,319.8876114095135
332,10.409090307477046,-310.0691439069149,19.628471132708565,178.93221204306363,-212.06320603627955,-21.580216200334437,310.15974914240047,324.7159606432649
333,12.21887146338225,-312.54200565875124,20.152217804026524,173.1513261657194,-212.2271043154262,-30.705727140175743,312.8065305658551,329.51840855950553
334,14.146868163720892,-314.77939313703837,20.20675635044007,167.36356131333017,-211.50200307717677,-39.879576378051134,315.2903445031393,334.19416311448333
335,16.16188053012431,-316.74279712905224,19.75591983044481,161.62712726263686,-209.76720072767648,-49.05356290982359,317.5806970019422,338.6366316953721
336,18.225419694925087,-318.3931575441089,18.7715707827093,155.98933725176963,-206.92278363752214,-58.179564621117244,319.645960477596,342.73652305907893
337,20.29211678123541,-319.691823966758,17.234401645309173,150.48444963760335,-202.89479184347334,-67.20920929009515,321.45411411531467,346.3851576335948
338,22.31045649898019,-320.60167299812406,15.134531797941797,145.131663478662,-197.6397994566408,-76.0936479241216,322.97363645526644,349.47787380083196
339,24.223839642442126,-321.0883464503701,12.471892909818093,139.93340991520196,-191.14867238840108,-84.78347460310106,324.1745205159528,351.91741585116546
340,25.971962893362768,-321.12156187942986,9.256403367892375,134.87410826563678,-183.44928445510922,-93.22882285416956,325.0293703790546,353.6171909285736
341,27.492488612582818,-320.6764357315307,5.507939572296271,129.91957309819526,-174.60800352867,-101.3796506676381,325.51452760123937,354.5042854166394
342,28.722961871608025,-319.7347504504668,1.2561146613327223,125.01725646790395,-164.72980162706355,-109.18620670407299,325.6111668849354,354.52213480274787
343,29.60291644005194,-318.28609165407465,-3.460127135792744,120.09747729719555,-153.95689593500055,-116.59965111532772,325.3062946042974,353.63274706245636
344,30.076096057036043,-316.3287818720841,-8.59309843177419,115.07572029247453,-142.46589045095138,-123.57278699554404,324.59358313067384,351.81839272098625
345,30.09270381302362,-313.87054520061383,-14.087142956545671,109.8559821334708,-130.46345752864363,-130.06084362221196,323.47398039402094,349.0826978699829
346,29.611583430099586,-310.92885321448904,-19.879601809303225,104.33501885075583,-118.18066999825197,-136.02224186702892,321.9560484964269,345.4511053769353
347,28.602233447098737,-307.5309250691262,-25.90197136653612,98.4072323816657,-105.8661612935599,-141.41926798053103,320.0560061211223,340.9706944867087
348,27.046558893506003,-303.7133803788518,-32.08123958813653,91.96985423767852,-93.77834758661955,-146.21858667073735,317.79747357065327,335.7093636691354
349,24.940273899240953,-299.5215678505246,-38.34137123446523,84.9280566658922,-82.17699019603509,-150.39153844793657,315.21094219328575,329.75439005442996
350,22.293881574472568,-295.0086121083158,-44.60489754467288,77.1996464312328,-71.3144094550365,-153.91418759032732,312.33300796027635,323.2103912893853
351,19.13317334191378,-290.2342335073592,-50.79455540882321,68.7190603367854,-61.42668428418012,-156.76711192800744,309.2054198858859,316.19673786893725
352,15.499207775093712,-285.2634004402486,-56.83491609528407,59.44046755501034,-52.72518457029754,-158.93494959467034,305.8739974485131,308.8444928775099
353,11.447748188128674,-280.1648713869947,-62.65394399626505,49.3398767443244,-45.38878379349178,-160.40573772529694,302.38746819081143,301.29298395651864
354,7.048158490300036,-275.0096763556301,-68.1844312221617,38.416234611714515,-39.55708434300677,-161.1700925335374,298.79626926745436,293.68613255529584
355,2.3817781281626162,-269.86957666884126,-73.36526376272502,26.691578272339683,-35.3249556832282,-161.2202896279403,295.1513474006274,286.16867476798285
356,-2.460181176986504,-264.8155308804817,-78.14248823810192,14.210359035818177,-32.738635529210455,-160.54930875123986,291.50298283124687,278.88240654249597
357,-7.379152864760137,-259.9161855290541,-82.47016274887841,1.0380852774968257,-31.793577759960296,-159.14990914754017,287.8996560038573,271.9625773907838
358,-12.272063686985033,-255.23640449816642,-86.31098809196745,-12.740563115748005,-32.4341511990803,-157.01380096331715,284.3869716366806,265.5345462384475
359,-17.034412669617204,-250.83585091967004,-89.63672431250028,-27.024010871112782,-34.555205770210506,-154.13097479150463,281.00665357512935,259.71080443668217
360,-21.563468424931948,-246.76764040943394,-92.4284015430013,-41.69634112089039,-38.005433262988625,-150.48924598362248,277.7956249465125,254.58846393257554
361,-25.76146457731823,-243.07709235142238,-94.67633443497498,-56.63004051914338,-42.59236568974771,-146.07406290038244,274.78519072798775,250.2472993172698
362,-29.538670685392265,-239.80061468081612,-96.37994830223019,-71.68887190609955,-48.088781003576685,-140.86861879497695,272.00034278402006,246.74841615407036
363,-32.8162191789012,-236.96476493318883,-97.547424413535,-86.73082698222855,-54.24022838675639,-134.85429523343527,269.4592097050303,244.13359171439117
364,-35.52857725797127,-234.58553444456982,-98.19517291230862,-101.6111213445136,-60.773346170817675,-128.01145052015832,267.17267463549825,242.4252987238541
365,-37.62556609013243,-232.66790222544256,-98.34714474856602,-116.18519886536885,-67.40462574703427,-120.32054933673345,265.144183130395,241.6273823130396
366,-39.073847530902775,-231.20569947574066,-98.03399815196974,-130.31171286452974,-73.84927416292132,-111.76360992994675,263.3697594965854,241.7263213783197
367,-39.857820323519995,-230.18181501493854,-97.29213970410355,-143.8554482761994,-79.82984478522908,-102.32592355174668,261.83824402896306,242.6929735979635
368,-39.979892492846616,-229.56875688223968,-96.16266436496889,-156.69014200115066,-85.08433656235046,-91.99797898912153,260.53175549980205,244.48468141048463
369,-39.460123543057186,-229.32956730844663,-94.69022261006405,-168.70114821193243,-89.37350428602373,-80.77750485901318,259.4263739431085,247.04760454435416
370,-38.33525800864028,-229.4190687544151,-92.92184604693398,-179.78788322236775,-92.48717082275193,-68.67152579867222,258.4930289328853,250.31914188327968
371,-36.657199438577805,-229.7853995017295,-90.90576533827246,-189.86597382812772,-94.24938396208437,-55.69831734655859,257.69856875047606,254.2303103035997
372,-34.49099916853685,-230.37178005648792,-88.69025564653903,-198.8690275892708,-94.52231251692321,-41.88913941210567,257.0069764161442,258.7079601594803
373,-31.91245524948714,-231.11843781806314,-86.3225446913364,-206.74994630833342,-93.20882667449689,-27.289630731292533,256.3806898112344,263.67672633154376
374,-29.005431944586263,-231.96460821881087,-83.84781637570227,-213.4817159207207,-90.2537551688008,-11.960757193397045,255.78197557391812,269.06063986978984
375,-25.859018295192378,-232.8505266209105,-81.3083384986787,-219.05762592382658,-85.64385601728424,4.020774671472826,255.174300988776,274.7843568190369
376,-22.564645265239378,-233.7193268180289,-78.74273661651047,-223.49089655201317,-79.4065778932702,20.56270237444218,254.52364564728995,280.77399503748507
377,-19.21327549927972,-234.5187685807498,-76.18542851711616,-226.81371903028264,-71.60772498673997,37.55802294337848,253.7996958923235,286.9576031328222
378,-15.892768840022105,-235.20272754074418,-73.66622599340155,-229.07574103904034,-62.34816828519508,54.88643780248558,252.9768702099941,293.2653146566521
379,-12.685511673240722,-235.7323949494263,-71.21010321530503,-230.34205469735727,-51.75976916784874,72.41639054253213,252.0351325625317,299.6292628890075
380,-9.666380056909974,-236.07715144088482,-68.83712425361261,-230.69076709791815,-40.000695799123314,90.00762715777351,250.96056246343062,305.98334524403657
381,-6.901086520855997,-236.21509668281732,-66.56251647585813,-230.2102525433254,-27.250318337878262,107.5141779208662,249.74566435116824,312.26293044645047
382,-4.444939527153638,-236.13323446152555,-64.39687199941011,-228.9961995445858,-13.703865570698351,124.78763512205606,248.38941333502393,318.40459579394025
383,-2.34202414767641,-235.8273290878877,-62.34645639066919,-227.14857299665954,0.43298571742024555,141.68058286432458,246.8970483899447,324.34596698006317
384,-0.6247939171093543,-235.30146290483103,-60.41360228172489,-224.76861222670522,14.949434655901797,158.05002502666335,245.27963628878234,330.02571162560264
385,0.6859517538865627,-234.5673353117252,-58.59716527337055,-221.95597906011432,29.634660610138926,173.76065613430308,243.55343898265465,335.3837133605207
386,1.5807421314707533,-233.64335081773,-56.89302012963933,-218.80615731770635,44.28259766500709,188.68782758496562,241.7391233669187,340.36142955672256
387,2.0608074889855605,-232.55354739500325,-55.29457668430472,-215.40818721872293,58.69629134026107,202.72007829637295,239.86085557558752,344.9024155601929
388,2.1372001455877037,-231.32641722030533,-53.793297034038076,-211.8427964045276,72.69177047503437,215.76112349256454,237.94532256782466,348.95298351422366
389,1.8297176325953965,-229.99367020356,-52.37919841542081,-208.1809654125023,86.10138626659987,227.7312264365365,236.02072226221728,352.4629555099408
390,1.1656817183892412,-228.58898705361196,-51.04132937541397,-204.48294112728692,98.77658785412758,238.56791323979408,234.11576032176157,355.3864686345176
391,0.17862553748150348,-227.14680374203115,-49.768210013636406,-200.79768855478758,110.59011996008115,248.22602788523508,232.25868747636082,357.68279243401327
392,-1.0930618502170493,-225.70116383325728,-48.54822990772189,-197.1627505961375,121.43764318142742,256.6771606515877,230.47640661803845,359.3171258221816
393,-2.6074881573239628,-224.28466978430814,-47.36999984326583,-193.60446859424133,131.2387915160514,263.90851573764036,228.79367432451085,360.2613488837916
394,-4.3205673792889865,-222.92755918166492,-46.222655779045525,-190.13850423420843,139.93769425843763,269.9213110050158,227.23241718315612,360.49471383036683
395,-6.187251334885026,-221.656926873306,-45.09611555313174,-186.77059637720672,147.5029999254885,274.7288230211103,225.81117919960505,360.0044673917922
396,-8.162654978443719,-220.49610875850416,-43.98129047653436,-183.4974845272817,153.92744769418624,278.3542032693433,224.54471234905242,358.7864032746925
397,-10.203054562319325,-219.46423726829005,-42.87025497117629,-180.30793329710792,159.2270362568402,280.8281961954653,223.44371758232143,356.845347181532
398,-12.266745496070412,-218.57597217969433,-41.756377773397844,-177.1837985387443,163.43984055580373,282.1868866599894,222.5147381696892,354.1955775658086
399,-14.314754315977716,-217.84140364816514,-40.63441820253441,-174.1010847209882,166.62452366565492,282.46959374617586,221.76020142203524,350.8611825150229
400,-16.311405986754124,-217.266117893374,-39.50059097599939,-171.03095365728953,168.85858510383872,281.7170106704625,221.17859925044093,346.87634729536205
401,-18.224753531197702,-216.85141064957133,-38.352603177133936,-167.9406558244279,170.23637969171145,279.96966830530204,220.76479350667617,342.2855591919366
402,-20.026881607330697,-216.59462978932936,-37.18966694866905,-164.7943663979218,170.86693442735822,277.2667745130945,220.51042899757005,337.14370771250185
403,-21.694098888081374,-216.4896262366618,-36.012490921626835,-161.55391829831296,170.87158577249633,273.64545508407326,220.4044351706685,331.5160503752905
404,-23.207035594323134,-216.5272907431869,-34.823252364071145,-158.1794340354293,170.38145673694686,269.14039626922937,220.4335960486193,325.47800840226625
405,-24.550662213468843,-216.69615296462567,-33.62555097350384,-154.6298671835569,169.53479233550604,263.78386512047445,220.58316677728592,319.1147537474563
406,-25.714243724374686,-216.98301876595178,-32.42434441384698,-150.86347278659207,168.47417365433205,257.6060633882026,220.8375144566137,312.520549854346
407,-26.691241196254655,-217.37362204465245,-31.225865066151478,-146.83823309793945,167.34363520000537,250.63575478184356,221.18076103299302,305.7978138553984
408,-27.479169959209727,-217.85326838097106,-30.037516953319297,-142.5122695814792,166.2857173845668,242.9010948356325,221.59740676893102,299.0558775277645
409,-28.079420963353154,-218.40744912467568,-28.867751454167028,-137.84427294962555,165.43849520606207,234.43058754340134,222.07291383063944,292.4094373503315
410,-28.49704962166307,-219.0224061687994,-27.725920197781356,-132.79397983847383,164.93263401284693,225.2540925358326,222.59423091820338,285.9766989515046
411,-28.74053447272425,-219.68563008431244,-26.6221033046325,-127.32271812355822,164.8885320680628,215.4038097115035,223.1502420395195,279.8772365619364
412,-28.821506471745714,-220.38627768739815,-25.566910966570756,-121.39403414605822,165.41361624331478,204.91517420972554,223.73212570339055,274.22960301878715
413,-28.75444869983271,-221.11549918667075,-24.571256450022513,-114.9744056206145,166.59986099209243,193.82760346255589,224.33361472896877,269.14874047530833
414,-28.556365882661314,-221.8666693713913,-23.6460991415584,-108.0340346778592,168.52160150306895,182.18504993575903,224.9511511464587,264.74325634845894
415,-28.24642334484176,-222.63552154180485,-22.802157340173846,-100.54770677857267,171.23370927416883,170.03632758067823,225.58393500995422,261.11264252826675
416,-27.845555683229176,-223.4201868238124,-22.04959220303894,-92.49569333891971,174.7701920891781,157.43519582642477,226.23387011887493,258.34452725123083
417,-27.376046258152623,-224.2211449272986,-21.397666482458185,-83.86466917003001,179.1432708835714,144.4402009304805,226.9054133840583,256.51205731423016
418,-26.86107956714307,-225.04109514569257,-20.854384148148903,-74.64861069761989,184.34297409361048,131.11428970996963,227.6053376877866,255.67151295466323
419,-26.324269865506714,-225.8847584962383,-20.4261192973623,-64.8496376200128,190.3372766344911,117.52422413484042,228.3424205946839,255.8602582315041
420,-25.789171053993243,-226.75862354020134,-20.11724468303969,-54.47875902122226,197.07279628889404,103.7398359059096,229.12707331820266,257.0951254161584
421,-25.278774620551083,-227.67064967382572,-19.929771721750914,-43.55648452837442,204.47604558585886,89.83316714049478,229.97092597293366,259.3713223189814
422,-24.815004011560802,-228.62994244511728,-19.863015057502178,-32.11326145059859,212.45522272068334,75.87754636911758,230.88638622060967,262.66193681745415
423,-24.418215042263,-229.64641560994608,-19.913295687106217,-20.189699840325215,220.9025108994262,61.94664837901688,231.88618881466397,266.9180937156647
424,-24.1067127740971,-230.7304541448091,-20.073697278600356,-7.836549436830581,229.6968415104342,48.113582440786544,232.98295320930154,272.06979623902834
425,-23.89629577805214,-231.89259122685084,-20.33389057378165,4.885603786101575,238.7070624838852,34.45004671353417,234.18876527502545,278.02745891583913
426,-23.79983912763352,-233.1432102047722,-20.68004053103981,17.906947477778825,247.79543907010563,21.025577907573854,235.51479720453528,284.6841114352201
427,-23.826928080802475,-234.49227988071368,-21.09480999821782,31.149375963739793,256.8214002964228,7.9069155364867605,236.9709769827985,291.9182254305491
428,-23.98355525670039,-235.949128254271,-21.557472118425558,44.527751192569724,265.6454310402572,-4.842509680373917,238.5657155797063,299.59708906855286
429,-24.27189500005808,-237.52225654140113,-22.044141291481804,57.95148190671934,274.1329977328107,-17.16296266783825,240.3056965701615,307.5806288532174
430,-24.690169266396005,-239.2191919989662,-22.52812930446487,71.32639565956562,282.15838619675964,-28.998673091502575,242.19572938473232,315.7255552911281
431,-25.232619422218928,-241.046375052795,-22.980429326360834,84.55686218306629,289.60832413512696,-40.29799947569478,244.23866400812432,323.8896901586376
432,-25.889597438704797,-243.00907365774808,-23.370326112985914,97.54811069139545,296.38525925930713,-51.01350474982312,246.43536186598362,331.93631904222127
433,-26.64778765317281,-245.1113159279495,-23.666126240269385,110.20866835134755,302.41016762543296,-61.10196102984179,248.7847150735415,339.73840433410265
434,-27.490566302799003,-247.355831022447,-23.835997543244968,122.45283294270858,307.6247759729516,-70.5243008016679,251.2837043154337,347.1824916387746
435,-28.398500423465794,-249.7439881296039,-23.848902136931148,134.20308075120653,311.9930972298391,-79.24552935629806,253.92748446874447,354.1721473314989
436,-29.349980835394717,-252.27572420170833,-23.675602428113866,145.39230234366562,315.5022001370302,-87.23460988462324,256.70948673508286,360.63077745494417
437,-30.321976358162576,-254.94945293880798,-23.289714429373664,155.9657553268606,318.16216189467457,-94.46432888816047,259.6215266270571,366.5036984996552
438,-31.290888512740374,-257.76195052087877,-22.668777477698292,165.88262553262973,320.00518590392545,-100.91114647815452,262.65390878753414,371.7593586114801
439,-32.23347800968173,-260.70821764972675,-21.795304240836266,175.11709736446792,321.0839034375455,-106.55503462271305,265.795522229452,376.3896426785589
440,-33.12782673239196,-263.78132208259063,-20.65776998153781,183.6588515457431,321.4689161968918,-111.3793069800646,269.03392270828857,380.4092355370066
441,-33.954292594324734,-266.97223023678737,-19.251496077997043,191.51293525735164,321.2456735741903,-115.37044643205611,272.3554019148589,383.8540627663211
442,-34.69641068832942,-270.2696398799434,-17.579380898419508,198.6989853814985,320.5108111760659,-118.51793982907611,275.74504550760327,386.7788759523454
443,-35.34169346100699,-273.65982783295925,-15.652432784018002,205.24982778320071,319.36810280109904,-120.81413241670441,279.18678348509883,389.2540952891576
444,-35.88228560393344,-277.12652669681444,-13.490066136529059,211.2095194702995,317.9241939172391,-122.25411569182272,282.66343703910985,391.36206218625983
445,-36.315435603097946,-280.6508430189087,-11.120132262622844,216.6309398948593,316.28428938669157,-122.83566106245405,286.15676604284533,393.1928832971431
446,-36.64375441167431,-284.21122668801195,-8.578670459027306,221.57306651745168,314.54796278462345,-122.55920704486434,289.6475211011685,394.8400619683208
447,-36.87524118110343,-287.7834984807672,-5.909380068594756,226.09808370123002,312.80524260332606,-121.42789998275298,293.1155039016744,396.3961134654742
448,-37.02306524674042,-291.34094003346985,-3.1628289429703056,230.26847177659033,311.1331161709268,-119.44767881128723,296.5396393588849,397.9483493750072
449,-37.10510201376859,-294.85444809807825,-0.39542613256998344,234.14420717064763,309.59257801283496,-116.62738568322244,299.8980623820157,399.5749986287678
450,-37.14322808628665,-298.29275270286263,2.3318043219776103,237.78018016560256,308.2263355846181,-112.97887899237689,303.1682209122985,401.34181134341884
451,-37.162388521323294,-301.622696990074,4.954605883283533,241.2239100690366,307.05726943856786,-108.51712521713237,306.3269956202019,403.29926888214504
452,-37.18945731670476,-304.80957545970597,7.40698258474685,244.51361251328518,306.08772421506285,-103.26025112019279,309.35083609238126,405.4804992470821
453,-37.25192185021595,-307.8175273921275,9.62275575566704,247.67665184832543,305.299680152193,-97.22954650450231,312.21591404579783,407.8999704258169
454,-37.376433097275886,-310.60998327614914,11.537137616852037,250.72839309454486,304.6558230019914,-90.44941713982242,314.8982961253543,410.5530053433679
455,-37.58727539330022,-313.15016368421874,13.088276052183376,253.67145234650857,304.10149565708605,-82.94729468060444,317.3741416429691,413.41613112439614
456,-37.904820908891224,-315.4016315342608,14.21872674009006,256.49533191523733,303.56747984307935,-74.7535134119434,319.6199332934087,416.4482435981525
457,-38.3440431770786,-317.32889939580446,14.876811611403557,259.17641705509925,302.97352243756734,-65.90116240900275,321.6127505156867,419.59253663522964
458,-38.9131693855411,-318.8980930187905,15.01782668463178,261.6783047505304,302.2324888802107,-56.42591797953375,323.33059518277224,422.7791159201464
459,-39.61255159986939,-320.07767043297844,14.605068148846312,263.95243141383617,301.25499603365677,-46.36585764460017,324.75277754400355,425.9281888338887
460,-40.43383201603316,-320.83919270863083,13.610653293623367,265.93896542241595,299.95434965283886,-35.761255448753005,325.86036686737395,428.95369728693737
461,-41.35946665938216,-321.1581376667591,12.016122394049521,267.5679329139951,298.2515892691122,-24.65436010495547,326.6367060927863,431.76724055938405
462,-42.36265619352828,-321.0147414297209,9.812818652823836,268.7605526115893,296.08042847493925,-13.089162595038985,327.06798310113913,434.282123247208
463,-43.40771304395444,-320.39484488691335,7.002055262162255,269.43076918667197,293.3918735090528,-1.1111681045480328,327.1438431115175,436.4173617125665
464,-44.45087283005002,-319.2907133131355,3.5950903590461523,269.4869952223926,290.15830778062724,11.232802174888855,326.85801747030723,438.1014911725543
465,-45.441536698051664,-317.70178811660554,-0.38706031710175687,268.83409697404704,286.37684202990704,23.894742334369088,326.2089340589351,439.2760313179346
466,-46.32390993343209,-315.6353210560149,-4.913940250417715,267.3756820965026,282.0717462133661,36.8254792796673,325.20026472367744,439.8984848961476
467,-47.03898104611963,-313.1068351491452,-9.946071315295653,265.01675633551235,277.2957999665628,49.974524815624456,323.84135767241884,439.9447555160139
468,-47.52676522394562,-310.1403556535659,-15.435462030964203,261.6667965772918,272.13042794308535,63.28971374521645,322.14750071514385,439.4108775770171
469,-47.72871898322708,-306.7683617133366,-21.326208987437226,257.2432306337353,266.6845297983592,76.71659222628952,320.13996724251746,438.31395795841786
470,-47.590221611981754,-303.0314258343618,-27.555209033068987,251.67522481196968,261.09197327906395,90.19754269976549,317.84581188544655,436.69224209346163
471,-47.06301489334636,-298.97753279750145,-34.0530039418477,244.90758064346966,255.50778760457007,103.67066121909778,315.297405234182,434.6042383799837
472,-46.1074950709226,-294.6610977625707,-40.74477337404993,236.9044627722887,250.10316454304777,117.06843735647739,312.5317228198773,432.1268638578321
473,-44.69475842133804,-290.1417298868146,-47.55147961024507,227.65264509068302,245.05943976176675,130.3163226179188,309.5894277639267,429.3526120561422
474,-42.808312600846996,-285.4828082722346,-54.3911533608278,217.16397881235946,240.5612848772403,143.33130579407222,306.5138047405096,426.3857940838089
475,-40.44537944540778,-280.74994863466014,-61.18029684787207,205.47684581394583,236.78939030849546,156.02063747729997,303.3496125320206,423.33796635828014
476,-37.617731053675925,-276.0094406908521,-67.83536924367054,192.6564489011004,233.91295728492918,168.28085669183446,300.14192271980977,420.32272716139715
477,-34.35201953705736,-271.32672845781264,-74.27431070802768,178.79389487826194,232.08233812774515,179.9972685914638,296.93500382421377,417.45013084783795
478,-30.68958086751355,-266.7649903571712,-80.41805569501008,164.0041356564431,231.4221616668166,191.04400479415617,293.7712956486162,414.82102418461375
479,-26.68571339436193,-262.3838559955692,-86.19198565235298,148.42293514506008,232.02525390847381,201.28476993612384,290.69050069345485,412.5216446506732
480,-22.40845064542243,-258.2382750378089,-91.52727688314137,132.20311063833267,233.94761636748476,210.5743420526263,287.72880164857867,410.61882535556305
481,-17.936865503690438,-254.37753434573355,-96.36211031068231,115.51034220227601,237.20466247244224,218.76085231186747,284.91819932160723,409.156118276541
482,-13.358958879016125,-250.84440616075395,-100.64272296530541,98.51884363883701,241.76884330920282,225.68882313584757,282.2859562748522,408.15107924756836
483,-8.769200765192295,-247.6744052094687,-104.3242918764905,81.40714676249539,247.56872396380334,231.20289519084565,279.8541288905792,407.5938684634353
484,-4.265804951283133,-244.8951366929261,-107.3716465178862,64.35418138168673,254.48950621400544,235.15212651763858,277.63917394577635,407.4472267172789
485,0.05216992545501739,-242.52572824040948,-109.7598056942095,47.5357563367203,262.3749367073158,237.39470515585614,275.65162325900747,407.64780196163616
486,4.0877917537486015,-240.57635371816693,-111.4743311836575,31.1214787342589,271.0304948281883,237.80288348065383,273.89582940943245,408.10872766073817
487,7.749192899650467,-239.04787187197812,-112.5114869675254,15.272097314612983,280.2277216847858,236.2679204060365,272.3697950731163,408.7232954141432
488,10.952369116667315,-237.93161534170014,-112.87819211864955,0.13722227158868183,289.70952958420423,232.70480771606526,271.06510679351095,409.36952067539505
489,13.623739347407804,-237.20937337628047,-112.59175834921699,-14.146645251239857,299.1963177223376,227.05655923842772,269.96699977324994,409.9153723778034
490,15.702376894901935,-236.85361281648653,-111.67940920456921,-27.457848246496656,308.3927122524146,219.29785578239694,269.05458219737625,410.2244237582116
491,17.141836911110257,-236.8279755189297,-110.17758545319195,-39.691144276086725,316.99474514146607,209.43786346425134,268.30124448226576,410.16168034284834
492,17.911522274212714,-237.08807657770654,-108.13104898790937,-50.759166119298996,324.69728407885043,197.52207646429255,267.67527041814236,409.59934910389734
493,17.99754868935603,-237.58260834092852,-105.59180477268342,-60.593798330950925,331.2015234503147,183.63307532645757,267.14065460412485,408.4223272873525
494,17.40308944169417,-238.25473338510565,-102.61786683125081,-69.14745594345011,336.2223434601582,167.89013650840346,266.6581160428714,406.53320764148066
495,16.148199810358726,-239.04372837630618,-99.27189994689529,-76.3942096385129,339.4953419642166,150.44767607357022,266.1862834047196,403.8566168715958
496,14.269139772839987,-239.88682230279903,-95.61977354689213,-82.33066749953069,340.7833442165828,131.4925584206912,265.68301468306714,400.3427259831091
497,11.817230404629688,-240.7211581287773,-91.72906799306801,-86.97650515542439,339.8822030882501,111.24034799669693,265.10680343830023,395.9697965923248
498,8.857293699410633,-241.48579712494723,-87.66757592669869,-90.37453717136493,336.6257193954731,89.93062612503122,264.41821596648265,390.74565900574385
499,5.465737167970074,-242.12368037311774,-83.50184214700084,-92.59024151623564,330.8895402522674,67.82153443202905,263.58129895102473,384.70805779639767
500,1.7283535340397926,-242.58346248068062,-79.29578450511704,-93.71068141312038,322.5939324388634,45.18373898809923,262.5648959346903,377.92384859839353
501,-2.262087886373689,-242.8211383678434,-75.10943533141297,-93.84280923560448,311.70537528312695,22.294033431727474,261.343813594408,370.48708323930583
502,-6.408378133893232,-242.80139464181556,-70.99783801111857,-93.11117947012185,298.2369691125334,-0.5711866312889906,259.8997852282575,362.5160741116462
503,-10.611453444774671,-242.49863167062196,-67.01012669284012,-91.65513645358766,282.24770517233725,-23.142342984420527,258.2221886029819,354.14957647060817
504,-14.77294977339806,-241.89761992672305,-63.18880912613465,-89.62557280652541,263.8406853374438,-45.16276191572106,256.3084876673388,345.54226334841235
505,-18.797653266433183,-240.99377326942127,-59.56926383927779,-87.1813732336101,243.16041107209597,-66.39422291796159,254.16438175789204,336.8596888378112
506,-22.595779453539414,-239.79304118190922,-56.179454018618145,-84.48566523854183,220.38927964082436,-86.62179183229277,251.80366075218748,328.2729419406972
507,-26.085022425194346,-238.31144008104084,-53.039852213508155,-81.70199521265916,195.7434326429314,-105.65779732111113,249.24777894603005,319.9531880255034
508,-29.192325615030988,-236.57425933998252,-50.16356277227534,-78.99053837968212,169.46810010456122,-123.34484993408624,246.52517308299744,312.0662821932359
509,-31.855337430599164,-234.6149896562655,-47.556622933220076,-76.50443721665671,141.8325756673486,-139.55784495858248,243.67036004570616,304.76762195024236
510,-34.02352704394976,-232.47402936800327,-45.21845897404879,-74.38634760105137,113.1249476480043,-154.20493123171255,240.72285669837288,298.1973877537505
511,-35.658947365194756,-230.19722823170622,-43.142470960436256,-72.76525680664368,83.64669909842789,-167.22746637765655,237.72596812161316,292.47630046712095
512,-36.73664306316261,-227.83432843886322,-41.31671840952054,-71.75362379518079,53.70727898121356,-178.59901355094507,234.72549128838372,287.7020051725001
513,-37.24471125953945,-225.43736004845803,-39.72467931553586,-71.44488070529044,23.618736974371767,-188.32346518270143,231.76837972054793,283.9461712851512
514,-37.184031221896305,-223.05904347779327,-38.3460560967506,-71.91132523709061,-6.30949368284884,-196.4324049278905,228.9014116145276,281.2523791277089
515,-36.567687142003685,-220.7512460424516,-37.15760378752707,-73.20242668791772,-35.77558784837254,-202.98183941415604,226.16990002321697,279.6348424396578
516,-35.42011496839053,-218.56353337649242,-36.13395794304525,-75.34356349639621,-64.49002345938118,-208.04844608907834,223.6164794086359,279.07799437632053
517,-33.77601014490524,-216.54185032958873,-35.248442098572056,-78.33520697993922,-92.17991467855926,-211.72549237261902,221.2799985295006,279.53694158211636
518,-31.679037787700025,-214.72735989580735,-34.47383729652117,-82.15256403863907,-118.59292420761409,-214.11858452662975,219.19454536846519,280.9387674416232
519,-29.18039017671339,-213.1554629770347,-33.783099242213524,-86.74569038266259,-143.50070242304105,-215.34140218151626,217.38862567715933,283.18464226851233
520,-26.337238346322383,-211.8550163273212,-33.15001189092066,-92.0400847830657,-166.7018084307553,-215.51156630023672,215.8845126533934,286.1526757214314
521,-23.21112488152258,-210.84776084014717,-32.54976938620576,-97.93777343471687,-188.02407658412517,-214.74677465539344,214.6977811524801,289.7014259539536
522,-19.86634363863011,-210.14796733520413,-31.959481110530927,-104.31889108507832,-207.3264014711686,-213.16132016083125,213.83703554911824,293.6739616758748
523,-16.368349103317314,-209.76230198126862,-31.358597154917266,-111.04376114019246,-224.4999246135129,-210.8630846321739,213.3038357578019,297.90235799899517
524,-12.782233808020901,-209.68990827064144,-30.72925364426778,-117.95546931777803,-239.46861681787115,-207.95107513529817,213.0928208611891,302.2124950377072
525,-9.171307121589301,-209.9226969910944,-30.056538883494408,-124.88291358055675,-252.18926104047551,-204.5135435150313,213.1920242834706,306.4290199420896
526,-5.595803308201891,-210.44583005609414,-29.328682238703102,-131.64429677890203,-262.65085156139645,-200.62670331877146,213.583368667295,310.3803283940189
527,-2.11174147799893,-211.23837862333033,-28.53716829795463,-138.05100849866665,-270.8734359858644,-196.35403323148017,214.24332291390164,313.9034205210791
528,1.230044875424395,-212.27413095058168,-27.676779393523535,-143.91182097100344,-276.906436897967,-191.7461332466049,215.14369858065177,316.8484886779362
529,4.384695695647525,-213.52252113128787,-26.745570046426753,-149.0373030578597,-280.82649979615223,-186.84107997383452,216.25255824343748,319.08310079187123
530,7.313920987358352,-214.94964641888606,-25.744777274972666,-153.24433864525207,-282.734923177141,-181.66521148311188,217.5352047291978,320.49585321485097
531,9.986402171328931,-216.5193385515545,-24.678671026719474,-156.36062299830482,-282.75473512221265,-176.2342604216921,218.95521758866713,320.99938135413856
532,12.37799866893709,-218.19425358189437,-23.554349342906637,-158.2290038028117,-281.0274880514057,-170.55474705713124,220.47550209763088,320.5326345528404
533,14.471764919700384,-219.9369453058582,-22.381483258383252,-158.71153324354168,-277.7098487664395,-164.62554146463432,222.05931657049976,319.0623432737042
534,16.257787809600536,-221.71088947752432,-21.172016720872524,-157.6931036223204,-272.9700638036066,-158.43950629368462,223.67124583518387,316.58363101441023
535,17.732859184312222,-223.48142961732862,-19.939826797098853,-155.08455132578104,-266.98438017468135,-151.9851382715435,225.27809235056552,313.11975003511816
536,18.900002494125708,-225.21662029322655,-18.700349133476177,-150.82513159314868,-259.9334991452716,-145.24813737904654,226.84966154778868,308.7209484679663
537,19.76787628877177,-226.88794985663228,-17.470173267442583,-144.88428835156802,-251.99913660317137,-138.21284669211798,228.35942410826934,303.4625061689947
538,20.350079923878713,-228.47093104950028,-16.266612177448717,-137.26266806984,-243.36075865640103,-130.86352223128904,229.78504434634706,297.44200695578314
539,20.664388446141803,-229.9455540255914,-15.107250576121283,-127.99235284289894,-234.19255586452812,-123.18540968322733,231.1087700120079,290.77594445361467
540,20.731944427549422,-231.29660177862576,-14.009476944586618,-117.13631460787387,-224.6607138451296,-115.16562237788428,232.31768432029872,283.59578605822395
541,20.57643464876424,-232.51383258860784,-12.990005088681375,-104.78711848301796,-214.92103125448944,-106.79383127928608,233.40382569505564,276.04364263120283
542,20.223278829136284,-233.59203780928993,-12.064391931615127,-91.06492767740114,-205.11692747818714,-98.06279188385577,234.3641844839101,268.26770849331587
543,19.69885579753398,-234.53098608407907,-11.246559292150915,-76.11488409136955,-195.37787127923016,-88.96874376021705,235.20058869371243,260.4176452899114
544,19.029789514025595,-235.33526691437697,-10.548328541964151,-60.10395644440448,-185.8182483312052,-79.51172513414988,235.9194926244853,252.64008320994395
545,18.24231338415501,-236.01404746338036,-9.978978230549274,-43.21736061448185,-176.53667089078434,-69.6958469821397,236.5316832043145,245.07440368200133
546,17.3617266750408,-236.58075658673926,-9.544835831870838,-25.654664445310754,-167.61571807570306,-59.529568605788995,237.05191888228515,237.84894996614813
547,16.41195184277382,-237.05270940308628,-9.24891548745157,-7.6256916526083165,-159.1220815138033,-49.02601003666869,237.49851518705444,231.07778777234142
548,15.41519645957732,-237.45068443380916,-9.090613904541243,10.653663042834085,-151.10707943739592,-38.20332657330346,237.89288968777328,224.85810941537997
549,14.391718404089513,-237.7984636792721,-9.065476501901342,28.965602340302652,-143.60749317271888,-27.085158276479962,238.25907733567988,219.268344471768
550,13.359688311190503,-238.1223441459641,-9.16504560354723,47.09448369832324,-136.64667360168238,-15.701153518298838,238.62322521655562,214.36700966372302
551,12.335139346033072,-238.45062749206895,-9.37680201923009,64.83068412030808,-130.2358614133284,-4.087551845444099,239.0130738124705,210.19230248340662
552,11.331991580294359,-238.8130928284502,-9.684210755941098,81.97420551599467,-124.37566348013665,7.712201475055429,239.45743017776988,206.76241792919708
553,10.36213685643141,-239.24045641608063,-10.066880902192668,98.33796853552315,-119.05762805450675,19.646847829798894,239.98563710616259,204.07654597224746
554,9.435569989230432,-239.76382101685988,-10.500848795736317,113.75075637675621,-114.26586310963165,31.656761278871016,240.62704137700922,202.11648861021143
555,8.560553166476527,-240.41411690086562,-10.95899207142748,128.05978126134454,-109.97864433403382,43.67349946274671,241.41046341599153,200.84881872125302
556,7.743802051232356,-241.2215359849666,-11.411579674791968,141.13285425662565,-106.16996143320229,55.61951115248341,242.36367015209984,200.22748759615988
557,6.990683991913782,-242.2149604171209,-11.82695922366155,152.86014372474,-102.81095336715734,67.40804886854548,243.5128526153597,200.19677378126582
558,6.3054206354319255,-243.4213873004836,-12.172378241328735,163.15550932355464,-99.87118542268954,78.9433285261422,244.8821100579391,200.69445323971215
559,5.6912888911710136,-244.86535217709866,-12.414929845775045,171.9573980776879,-97.31972442972318,90.12096953035044,246.49294309585204,201.65506096596886
560,5.150815483539224,-246.56835518893044,-12.522606562067578,179.22928801826993,-95.12597382206496,100.8287392014614,248.3637593841461,203.0131085632804
561,4.68596122883255,-248.548295343667,-12.465438283329368,184.95966514474304,-93.2602381234381,110.94761554377475,250.50939649257927,204.7061224741884
562,4.298291705966501,-250.81891999451003,-12.21668242531405,189.16152294613553,-91.69399694238373,120.35317239583716,252.94066789736263,206.67737482450497
563,3.9891313339148105,-253.3892984940613,-11.754026405462993,191.8713819223277,-90.39988160122044,128.9172808632157,255.66393934214426,208.87819392372828
564,3.7596983412730736,-256.2633309679909,-11.060755210701682,193.14784009095507,-89.35136284901102,136.51011054651428,258.68074422033186,211.26976427417756
565,3.6112188723534966,-259.43930521432054,-10.12683080333845,193.06968387203898,-88.5221750183614,143.0024034170414,261.9874480552414,213.82435528003697
566,3.5450193095832354,-262.9095166669076,-8.949826688992228,191.7336102841597,-87.88551894578674,148.2679822861176,265.5749734624803,216.52595111741695
567,3.5625964430101433,-266.65996770133773,-7.53566146115469,189.25163316829835,-87.41310056282092,152.18644460380682,269.4285978212404,219.3702874747605
568,3.6656651056265415,-270.6701628158693,-5.899080418587728,185.7482645263652,-87.07407181031618,154.64598056817928,273.52783593788894,222.36432951603524
569,3.856182038717608,-274.91301527190944,-4.063844587174748,181.35757315460245,-86.8339446160639,155.54624204150954,277.8464193113982,225.52524560210563
570,4.136342686400835,-279.3548788989732,-2.062600959278725,176.22022303516422,-86.65354924623291,154.80117612403342,282.352382512745,228.8789414437446
571,4.50854410965273,-283.9557162892244,0.06357531270789321,170.48058124114868,-86.48810973712553,152.34172641704237,287.00826577139065,232.45822116797427
572,4.9753025047756845,-288.66941167398187,2.2659591702785953,164.28396024431896,-86.28651492498892,148.11829919526687,291.7714408503858,236.30063981936553
573,5.539108815467164,-293.44423333026657,4.489251895623497,157.77402731620793,-85.99087347347802,142.10289395420702,296.5945643000492,240.44611117092035
574,6.202202195729136,-298.22344633550443,6.672920448718492,151.0903816332002,-85.53645011121434,134.2908094832256,301.426158105767,244.93433832156123
575,6.966240559234931,-302.94607210961914,8.752754182337439,144.36627456395348,-84.85208047431705,124.70185672559651,306.21131306276277,249.80214237240614
576,7.8318518436107665,-307.5477871014253,10.662583455307626,137.72643399422358,-83.86114766177236,113.38103516239076,310.8925058967698,255.08077454267317
577,8.798059635176008,-311.9619498757956,12.33609653695413,131.28494955230283,-82.48317390978633,100.39865626634284,315.41051816539573,260.7933068325913
578,9.861591797428211,-316.12074397495303,13.70868627149585,125.1431807661189,-80.63603976407873,85.84992192270151,319.70544369904945,266.9522033475947
579,11.016098910762897,-319.95642292044084,14.719257645618562,119.3876632676099,-78.23879728538705,69.85398483715316,323.7177714189947,273.55717688964506
580,12.251328148224907,-323.40264289055017,15.311932016379599,114.08800853449303,-75.21499898221332,52.55253032271807,327.3895309428554,280.5934325381999
581,13.552314975475053,-326.39586711859573,15.43759258592309,109.29481969030104,-71.49642379742079,34.10792419992267,330.66548836198297,288.03039167740764
582,14.898667346778648,-328.876823092576,15.055227498904273,105.03767848589492,-67.02704674998715,14.700970862698206,333.4943778737083,295.82097678715917
583,16.264023141317033,-330.7919885699238,14.133040387416841,101.32329533692602,-61.76706962881925,-5.471678871423919,335.8301508085903,303.90151991774724
584,17.615760632321866,-332.09507503143965,12.649312039997497,98.13395354952677,-55.69680630818392,-26.20043549729265,337.6332167922988,312.1923363903634
585,18.915033859215747,-332.7484678185533,10.593009629782431,95.42641807376873,-48.82019865142387,-47.265961781147666,338.87164271036687,320.59897923377207
586,20.117190458400437,-332.7245717486948,7.964149726518992,93.13151293908673,-41.16772981973486,-68.44261188253545,339.52226476101134,329.0141572528109
587,21.172609339842914,-332.00700096695545,4.7739263607985505,91.15458987916251,-32.79850445188177,-89.50207540095947,339.57165877895187,337.3202592989191
588,22.027969809734614,-330.5915442061662,1.0446148558873887,89.37709930384149,-23.801283432823436,-110.21717028763739,339.0169064816279,345.3923839250803
589,22.627932971385306,-328.48683409397927,-3.1907431669977613,87.65942023155466,-14.29429787508391,-130.36571225092038,337.86609310960665,353.10173982971764
590,22.917182718671103,-325.7146545369366,-7.888875186990048,85.84500354138089,-4.423722725071503,-149.73436954624734,336.13847775232847,360.3192714974415
591,22.842741347981118,-322.30983560098355,-12.997039030795781,83.7657445459845,5.639239295536093,-168.12239267910607,333.86429297064944,366.91937689979784
592,22.356448120858328,-318.3197103383672,-18.45401214639032,81.24835426765068,15.70263608626472,-185.34509203288067,331.08415435360206,372.78360480376296
593,21.41747121521142,-313.8031390410862,-24.191300245626152,78.12137815095406,25.559305006049456,-201.2369275253704,327.84808974988994,377.8042301086257
594,19.99471587986276,-308.82913766651296,-30.134541724898085,74.22244190099948,34.99350271852235,-215.65407739821185,324.21422666326515,381.8876022559789
595,18.06899412704673,-303.47517336327877,-36.205070051911775,69.40529365776929,43.78839714520736,-228.4763700746497,320.2471997915764,384.9571549139379
596,15.634832568716973,-297.82520810457873,-42.321586126432486,63.54624908321907,51.734140493151806,-239.6084926799555,316.0163563217833,386.95596776221475
597,12.701812979857266,-291.96758064811576,-48.40188745763417,56.549712143065044,58.63619770349548,-248.98042929999747,311.5938439997396,387.8487872297125
598,9.295362928479632,-285.99281791235865,-54.36460030185424,48.35252257217207,64.32357046629718,-256.5471269480449,307.05266700454706,387.62343786053304
599,5.456939932114928,-279.99146060728026,-60.13086373471868,38.92696196643158,68.65653845580002,-262.28743164944,302.4647886600198,386.291583014844
600,1.243580935342868,-274.0519763264816,-65.62592017451534,28.282330912239072,71.53354155687255,-266.2023751835525,297.8993496900376,383.8888187564955
601,-3.2731819022896493,-268.2588184096255,-70.78057421835867,16.465087092071986,72.89685140746279,-268.31292170039944,293.4210577244102,380.47410698343265
602,-8.009009676706906,-262.69067301403476,-75.53248953691892,3.5576042819275813,72.7367264343603,-268.65730279394944,289.08878954730784,376.1285736700534
603,-12.86899376723325,-257.4189221548247,-79.82730072447957,-10.32433044426312,71.09380928188003,-267.2880811239609,284.95443347383076,370.95371654927754
604,-17.750362496170485,-252.50633851799094,-83.61952270205832,-25.035121457365218,68.05960604851076,-264.2690874993061,281.06198633529976,365.0690847978461
605,-22.54555880921037,-248.00601921068156,-86.87324452435088,-40.40388249917595,63.77497883138064,-259.67237518274095,277.44690848942724,358.6095118208556
606,-27.145574726612157,-243.96056012590077,-89.56259777190962,-56.23966069318333,58.426681158977566,-253.575328518771,274.1357312758787,351.72199993627527
607,-31.443417362086805,-240.4014697783715,-91.67199287298362,-72.33714919706767,52.242063651255705,-246.05805106960815,271.14590450025975,344.5623697076054
608,-35.33757563090369,-237.34882071297685,-93.19612035751406,-88.4826675119616,45.4821684580565,-237.20114143144713,268.48586690133646,337.2917931999196
609,-38.73535665850568,-234.81113716428916,-94.13971854229887,-104.46019167133967,38.4335100006891,-227.08394316606953,266.15532002817974,330.07332665135357
610,-41.5559661946406,-232.78551869614898,-94.51711450025705,-120.05722699080114,31.3989012025895,-215.78332953549364,264.14568517079846,323.06854312197254
611,-43.73321746749323,-231.2580001709191,-94.3515511997309,-135.0703343152136,24.687724538919472,-203.3730549052679,262.4407233806012,316.43434168062515
612,-45.21776712703416,-230.20414773563883,-93.67432011642461,-149.31014673156608,18.606063187132296,-189.9236738569122,261.01729948962014,310.31998160371035
613,-45.97879456306232,-229.58988790606801,-92.52372502963655,-162.6057463898144,13.447098824608243,-175.50299757343734,259.84627173370905,304.8643643972625
614,-46.005061511507805,-229.3725619803373,-90.94390868122888,-174.80830818383657,9.482151026081713,-160.17702669669785,258.893488705193,300.1935689298748
615,-45.305312237324166,-229.5021910410472,-88.983579101343,-185.79395588347822,6.95268257789436,-144.0112725780542,258.1208748446966,296.4186385398169
616,-43.908000351439576,-229.92292817062858,-86.6946763642287,-195.46581404805468,6.063530616109344,-127.07235639813918,257.48758465326716,293.63362309175
617,-41.86035559855063,-230.57466493323173,-84.13102302116494,-203.75527270386598,6.977551399351637,-109.4297592553995,256.95120431045234,291.91388998449617
618,-39.22683116571581,-231.3947496244285,-81.34700203216268,-210.6225083358001,9.811792786768622,-91.15758686116978,256.46897729564046,291.3147308582682
619,-36.08699729805236,-232.3197663654306,-78.39630413138869,-216.05632186164829,14.635238093117643,-72.33621057555116,255.99902781461054,291.8703003345697
620,-32.5329686038818,-233.28731786867445,-75.33078190339423,-220.07336091345414,21.468101189073604,-53.053652541571836,255.50155252167045,293.5929262963604
621,-28.666469291041047,-234.23775142059273,-72.19944079387736,-222.71679075935288,30.282597093519744,-33.406596493959285,254.93994784083156,296.47282678041046
622,-24.595652094071085,-235.1157678010527,-69.0475888654425,-224.05446839651532,41.00506550401735,-13.500926740968659,254.28183807586012,300.47825721814417
623,-20.431792492195658,-235.87185665491066,-65.91615850303462,-224.1766621758988,53.519287189759865,6.5482752642488125,253.49996936375376,305.5560957490389
624,-16.285979847348305,-236.4635090792917,-62.841205264506975,-223.19334966322086,67.67080545466555,26.617315761560963,252.57293693379077,311.63285674756685
625,-12.265921546025096,-236.85616839789108,-59.8535819752632,-221.23112321071673,83.27204727790716,46.575059175424606,251.4857182171611,318.6161067065246
626,-8.472965852479401,-237.02389247052002,-56.97878006945589,-218.42973794286,100.10803100247871,66.28465239376756,250.22999182104303,326.3962445177139
627,-4.9994350406365236,-236.94971439232458,-54.23692515889964,-214.93835044204607,117.94244865682761,85.60573576374433,248.80423157040786,334.8486007706532
628,-1.926343500211057,-236.62570197321824,-51.642909915970556,-210.9115162919002,136.52391974752746,104.3970419736417,247.21357486388084,343.8358070999303
629,0.6784431868091628,-236.05272908239203,-49.20664459568013,-206.50503727307236,155.59222811409913,122.5192580992663,245.4694747020189,353.2103849972415
630,2.761571787686862,-235.23998321731,-46.93340395882159,-201.871770279667,174.88437291037843,139.8380081224448,243.58915432232442,362.8175021172101
631,4.285070623825546,-234.20424295299497,-44.824249056317555,-197.1575261205789,194.1402880051095,156.2268047061318,241.5948917489004,372.497842214951
632,5.226725901530394,-232.96896557260564,-42.87650313924457,-192.49719430216217,213.10811019315818,171.56982069176215,239.5131678883469,382.0905328753014
633,5.57998335231216,-231.56322879106617,-41.08426252916796,-188.01122769620363,231.54890458012406,185.76434245504663,237.3737154899907,391.4360741966786
634,5.353408018701175,-230.0205713696006,-39.438925362308865,-183.80260821475176,249.2407841564143,198.7227878267359,235.20850747606832,400.3792127424216
635,4.5697473625063,-228.3777762860539,-37.92972357613795,-179.95439280630754,265.9823884699098,210.374199015746,233.05072241465487,408.7717091818631
636,3.2646525753149676,-226.6736374840801,-36.544246129980614,-176.52791149707082,281.5957118002738,220.6651535605463,230.9337226416566,416.4749550867488
637,1.4851196895942855,-224.947747326076,-35.268943926968724,-173.56165939240694,295.92829277048094,229.56007099339465,228.89007687584126,423.3624032031132
638,-0.7122842316767061,-223.2393370472214,-34.089608993191135,-171.07089517100994,308.85479378296225,237.04092671099423,226.95065439508065,429.32178432456556
639,-3.263343597273442,-221.58619726207306,-32.991822096953825,-169.04793109900683,320.2780095978279,243.10641502015147,225.14381250554754,434.25709087084607
640,-6.098200597932604,-220.02370045764616,-31.961364182596608,-167.46307472416538,330.1293500282091,247.77062881329675,223.49469376439498,438.0903113978888
641,-9.143383715404333,-218.58394285591064,-30.9845878213999,-166.26616081590961,338.36884290471096,251.06134295632145,222.02464472426323,440.76290140664935
642,-12.323801735372019,-217.29501924266924,-30.048745482886396,-165.3885945340258,344.98470128887385,253.0180018717718,220.7507641288802,442.2369745375143
643,-15.564652878162288,-216.18044118793813,-29.14227200062316,-164.74581401759107,349.9924946654607,253.6895189422734,219.68558543113653,442.49619552770974
644,-18.793206039972038,-215.25870612578146,-28.255019330888224,-164.24007322315543,353.43395873127764,253.13199651922383,218.83689587861454,441.546353372216
645,-21.940419074684627,-214.54302170788645,-27.37844267158507,-163.76344419658133,355.37547339913965,251.4064710016773,218.20769189389117,439.4155910781691
646,-24.942367005464465,-214.04118668845084,-26.50573816843691,-163.2009417981957,355.9062343907933,248.57677823591357,217.79626800294554,436.15426798215503
647,-27.74146071241526,-213.75562647012217,-25.631933581360453,-162.43368240245252,355.1361407112825,244.70762103706537,217.59643419977402,431.83443215870363
648,-30.287443844913366,-213.68357836381557,-24.75393419768633,-161.3420000078492,353.1934187454474,239.86290383697005,217.59785434675038,426.5488841609973
649,-32.53816228335808,-213.81741851950457,-23.87052687346404,-159.80845701075302,350.2220040411345,234.10438053771543,217.78649588453447,420.40981932036124
650,-34.46010623895057,-214.145119316979,-22.98234532346592,-157.72070096071192,346.3787042167624,227.49064205004998,218.14517866875835,413.5470440418732
651,-36.02872996265453,-214.65082272527434,-22.091799567256604,-154.9741312447823,341.8301707535666,220.07645114659357,218.65420809448023,406.1057716493354
652,-37.228558075068676,-215.31551176844985,-21.202971775170617,-151.47434937766667,336.74971336247006,211.9124152776869,219.2920748299347,398.2440147983208
653,-38.053090784068004,-216.1177589582146,-20.32147993996434,-147.13937248137518,331.3139976193721,203.04497352554193,220.0362006661697,390.1296036196151
654,-38.50452279723887,-217.0345276713399,-19.454310250844493,-141.90159163288016,325.6996739484899,193.51666216309516,220.86370753612,381.9368709720279
655,-38.59329266900677,-218.042000255101,-18.60961898315575,-135.7094561772172,320.0799930150072,183.36661440966753,221.7521849808515,373.8430581044719
656,-38.33748080856384,-219.11640537694805,-17.796505073250387,-128.5288637331653,314.6214684184448,172.6312439568062,222.6804304852455,366.0245055233833
657,-37.762075653965695,-220.23481695887938,-17.024755132286575,-120.3442352416916,309.4806516842277,161.3450586981484,223.62913734136657,358.65270488053136
658,-36.8981288129539,-221.3758980377769,-16.304563258900046,-111.15925595994284,304.80108661877176,149.54155086776584,224.58150611778,351.8902980824541
659,-35.78182129526669,-222.52056514646563,-15.64622846519357,-100.99726665747359,300.7105101393645,137.25411241312352,225.523758469678,345.88711925291733
660,-34.453464073708844,-223.6525523910304,-15.059832804945984,-89.9012935645889,297.31836505899616,124.51692964882858,226.445535940111,340.77638322718246
661,-32.9564567871757,-224.75885922161652,-14.554903593874922,-77.93370993689197,294.7136874116715,111.36581859103315,227.34017145052593,336.67113042133764
662,-31.33622825942046,-225.83007155860628,-14.140063739129442,-65.17552604545149,292.9634268058509,97.83897115827871,228.20482696179383,333.66104149588926
663,-29.639181703473902,-226.86055181574838,-13.822675275848896,-51.725308202328385,292.1112525463538,83.97759170762585,229.04049670666274,331.8097352290917
664,-27.91166614352656,-227.84849888458265,-13.608482624449424,-37.69773159312409,292.17689023891137,69.82641217736882,229.85188090370767,331.15265841008676
665,-26.198993772131384,-228.79588401990415,-13.501263601286583,-23.2217766435765,293.1560229392305,55.43408167201019,230.6471396728427,331.6956667151823
666,-24.544520722728112,-229.7082727469837,-13.502497605317027,-8.438584557847818,295.0207777244012,40.8534321810954,231.43754093077004,333.41438033433553
667,-22.988806226852965,-230.59454640731903,-13.611061495762751,6.501005645973888,297.72080321400335,26.141625988011445,232.23701936809155,336.2543778371673
668,-21.568862540771562,-231.46653971332452,-13.822964417703595,21.439209247921013,301.18492647693535,11.360192093722699,233.06166615937946,340.1322669046889
669,-20.31750551145175,-232.3386125264834,-14.131133272854798,36.21430074649005,305.3233593400913,-3.4250411422332956,233.92917068332258,344.9376418367337
670,-19.262813284504315,-233.22717477864285,-14.525260762633602,50.663828302073796,310.0304048095666,-18.14411140763386,234.85823601271505,350.53590618250456
671,-18.427698505576817,-234.15018292067754,-14.991728028364157,64.62798708310527,315.18759469287943,-32.72318223255366,235.86798917665482,356.7719056659128
672,-17.82959752192512,-235.1266246789084,-15.513613872237189,77.95309268935911,320.6671703608493,-47.08489544622056,236.97740537062924,363.47428317079175
673,-17.48027864530167,-236.17600655193047,-16.070802222861133,90.49508664705853,326.33580099859057,-61.148815593686614,238.20476270838842,370.46043545169294
674,-17.385770558544497,-237.31785564996406,-16.64019870166303,102.12299624824763,332.05841904965183,-74.83196503075222,239.5671410180038,377.5419221665761
675,-17.546411407151144,-238.5712443405308,-17.19606570724282,112.72226151311251,337.7020422673671,-88.04944585863069,241.07997474012876,384.53015350055006
676,-17.957018755750926,-239.95434290978986,-17.710483317866053,122.19783355267921,343.1394468375036,-100.71514061161132,242.75666635349785,391.24216437655315
677,-18.607179937876797,-241.48400233041218,-18.15394040678524,130.47694175577655,348.2525568016944,-112.74247862654116,244.60826314299925,397.506271813321
678,-19.481660973972332,-243.17536654975225,-18.49605638478537,137.51142279964034,352.9354215164527,-124.04525052096359,246.64319680728684,403.1674079462726
679,-20.560930021253167,-245.04151179669014,-18.70642866727435,143.27950359103716,357.09666508770584,-134.5384502227178,248.86708268196827,408.09192517673824
680,-21.821788253314157,-247.09310950962782,-18.75559433294249,147.7869341957539,360.6613095838008,-144.1391231876658,251.28257349519558,412.1716825085038
681,-23.238097167689386,-249.33810976321485,-18.616086749743367,151.06737690111893,363.5718973198537,-152.76720105583578,253.88926173779075,415.3272439724008
682,-24.78158663400953,-251.78144355149306,-18.2635594403582,153.18197491802414,365.78886664297755,-160.34630681208344,256.68362496228065,417.51005162995415
683,-26.42272269691156,-254.4247448273244,-17.677940364881778,154.21804974475197,367.2901703921746,-166.8045198976429,259.65900948961837,418.70347721803853
684,-28.131608671025315,-257.2660964345505,-16.844570549993083,154.2869103317235,368.0701659702351,-172.07509682285973,262.8056497524162,418.922707564815
685,-29.878888204630012,-260.29980746053224,-15.75527256205346,153.5207995952122,368.13784871801255,-176.09714889512242,266.11072236813504,418.21347745989686
686,-31.636615772438095,-263.51623244235816,-14.409288348206584,152.0690528641762,367.51454181164206,-178.81628413786788,269.55843554630354,416.64972530037124
687,-33.37905931228992,-266.90164458200627,-12.814024437694561,150.0935947897366,366.2311901038967,-180.18522484731668,273.1301551956663,414.33030463158093
688,-35.083401560904,-270.4381750727753,-10.985546997502517,147.76395015995445,364.32542595962735,-180.16441478697743,276.8045688852437,411.37493043238385
689,-36.730310419382114,-274.10382867708466,-8.948780333824713,145.25198266562393,361.8385786805309,-178.72262957249845,280.5578877613999,407.9195658854834
690,-38.30435351380454,-277.87258239427905,-6.737379379885685,142.7265970590687,358.81278726673094,-175.83759897746822,284.36408520260227,404.11146137977073
691,-39.7942374273673,-281.7145704640443,-4.393267401593105,140.34863961140906,355.28835569720945,-171.49664001525557,288.19517008193617,400.10404675909905
692,-41.192857592685016,-285.5963559368536,-1.965851387629644,138.26620830516214,351.30146862824313,-165.69728575714203,292.02149219475626,396.0518585255867
693,-42.49715043236656,-289.4812867841049,0.4890538636423388,136.61054168325677,346.8823680282194,-158.44787998474703,295.81207721631574,392.10566329306056
694,-43.70774515613519,-293.3299326545741,2.910547961536955,135.49260202350916,342.0540767970759,-149.76809611200787,299.53498789504096,388.40792027751536
695,-44.82841914564,-297.10059661635796,5.234159065370663,135.00041426534443,336.83173893518784,-139.6893339035015,303.15770704514944,385.0887075148971
696,-45.8653687141689,-300.749894639428,7.393489844938084,135.1971743066387,331.2226224782785,-128.25495078733465,306.64753684108337,382.26221587143317
697,-46.8263165874936,-304.2333944218703,9.321932212521078,136.12010238939115,325.2267997659338,-115.52029486900642,309.9720085477788,380.0238903933503
698,-47.71948854655086,-307.50630459865494,10.954387363479857,137.7799898394865,318.8384823738147,-101.55252107018357,313.09929744807005,378.4482711796108
699,-48.552503583454055,-310.52420543715743,12.228930026511659,140.16136976322372,312.0479503488224,-86.43018646512522,315.9986393689592,377.58755822718047
700,-49.33123344404315,-313.2438127470026,13.088361306292393,143.2232335266745,304.8439821315731,-70.24263282515875,318.6407476380562,377.4708990837376
701,-50.058696956018416,-315.6237676592737,13.481602979342384,146.90021391827239,297.2166655140959,-53.08917220524141,320.998231998583,378.1043762781228
702,-50.73406035472466,-317.62544573459905,13.364896836707238,151.1041616266421,289.16045168730074,-35.07809559428094,323.046023236749,379.47165402627763
703,-51.35181557332887,-319.21377902150897,12.702784715991601,155.72605292531242,280.67730311021324,-16.325526897885403,324.7618083007669,381.53523058281974
704,-51.901203532878654,-320.358083637405,11.468857545589785,160.63818252091394,271.77978040737156,3.0458531709078263,326.1264799292367,384.2382334281069
705,-52.36593899345215,-321.03288259464074,9.646274547681292,165.69661606105905,262.49391261413564,22.90818458584072,327.1246017749942,387.50668866618446
706,-52.72427835739708,-321.2187084121309,7.228066019625693,170.74390120357967,252.86169776584583,43.12987108766978,327.7448842749639,391.25219255198584
707,-52.94945329490066,-320.9028623011521,4.21724347920877,175.6120624224704,242.9430858229299,63.577043118391686,327.98065784904117,395.37490981386077
708,-53.01047248886341,-320.0800969626977,0.626747254027825,180.12592827374692,232.81730182522944,84.11498398686923,327.83031895298694,399.76681676548156
709,-52.8732720505039,-318.7531801884916,-3.5207384708155374,184.10685259465214,222.58337367381841,104.6094541618799,327.2977130471292,404.31509367904545
710,-52.50217319526896,-316.9332896027995,-8.193080626824312,187.37688227996642,212.35973889128925,124.9278461734141,326.3924099924592,408.9055509885977
711,-51.86158530099692,-314.640188199037,-13.349093264951088,189.76338439901429,202.28282416052622,144.94010871135924,325.12982512480187,413.4259541463049
712,-50.917875692605215,-311.9021378240532,-18.939040904289513,191.10407288275738,192.50452627793106,164.51939348201876,323.5311452392166,417.7691015291331
713,-49.64131613656636,-308.7555236056768,-24.90526681715946,191.25228110736282,183.188574885372,183.5424006301508,321.623032883355,421.8355135972384
714,-48.00801068291691,-305.24418470852197,-31.182966662100227,190.0822342335838,174.50582200475654,201.889425561713,319.4371028175227,425.53560773792975
715,-46.00170964217371,-301.41847220810587,-37.70112180227169,187.4940095621292,166.6285744543152,219.44413922796542,317.0091878301683,428.7912582891807
716,-43.6154190424747,-297.33407875158434,-44.38359494229609,183.41785138226416,159.72415715925956,236.0931625686844,314.3784329127047,431.53667495691974
717,-40.85272295083025,-293.05070273096226,-51.150377600785326,177.8175319106491,153.94796426609827,251.72552033509436,311.58627291616716,433.71857711596533
718,-37.72874714117943,-288.6306191256628,-57.91896706225778,170.69251415056505,149.43631598059173,266.2320760112495,308.6753565714238,435.2956951832521
719,-34.27070658930011,-284.13722917385473,-64.6058405343333,162.07876372638128,146.2994842570095,279.5050553678971,305.6884785496405,436.23768750765885
720,-30.51799580932696,-279.63365247907734,-71.12798637691003,152.04816258651326,144.61527041863675,291.4377614113628,302.6675721503111,436.5236141450248
721,-26.521799378985982,-275.1814099805111,-77.4044472849628,140.70658549923704,144.42350602043243,301.92457062918413,299.65280039628055,436.14015030249453
722,-22.34421920106934,-270.8392270886469,-83.35782968784457,128.19079716330722,145.7218047212299,310.86128241436495,296.6817657127552,435.0797461094706
723,-18.056934355375603,-266.6619665967137,-88.91573812439533,114.66440036669306,148.4628234262802,318.1458721028898,293.78884133865756,433.33894099642947
724,-13.73942843662358,-262.69968448711654,-94.01210156301524,100.31310447463495,152.55320396597673,323.6796737199941,291.00461427830965,430.91701888810707
725,-9.476837872471107,-258.99679174297137,-98.58836724591886,85.33958658259557,157.85427054716504,327.3689917584935,288.3554219878925,427.8151483525453
726,-5.357492421373103,-255.59130351209092,-102.59454340367083,69.95819137855116,164.18446082230597,329.12711336602297,285.8629636842589,424.03609742463027
727,-1.4702349075236623,-252.51416308062585,-105.99007395237287,54.38967204483107,171.32337689774107,328.87666510936424,283.5439713971559,419.5845538260797
728,2.098380033770418,-249.78863978131034,-108.74452735892187,38.85612557491352,179.0172637646431,326.55223379102165,281.40993391869074,414.46802323435173
729,5.266900181139017,-247.42981389905523,-110.83808076970855,23.576230056260844,186.985662042586,322.10314976739716,279.46687649220246,408.6982249577163
730,7.961692165350603,-245.44417472211668,-112.26178141975109,8.76085233655558,194.9289426145173,315.4963145584125,277.71520850938794,402.2928595015345
731,10.119452493302466,-243.82936777833294,-113.01757123480385,-5.390937639598634,202.53641255371284,306.7189428665418,276.14965924659845,395.2775894791732
732,11.689414018034514,-242.57413237252814,-113.11806715296365,-18.695435211026698,209.49468194955827,295.7810830647317,274.7593266786732,387.68805623581426
733,12.635161489414884,-241.65846967465234,-112.58609802593554,-30.987460416703037,215.49599592273648,282.7177802745525,273.52786565850073,379.5717496813306
734,12.93598584760863,-241.05407426531218,-111.45400788554109,-42.12312742192886,220.246261394714,267.5907527034665,272.43383856318246,370.98955705094085
735,12.58772550767847,-240.72504863129296,-109.76274406912297,-51.98224324358585,223.47253058924542,250.48946521686932,271.4512439894093,362.016835851951
736,11.603063480912702,-240.62890214947848,-107.56075672187447,-60.47034404575391,224.92973981848692,231.53150422736798,270.55022823807303,352.7438850128324
737,10.011271054949209,-240.71781604680947,-104.9027431660877,-67.52035682953996,224.40654041540617,210.86218436712227,269.69797173240113,343.2757237610262
738,7.857410868249816,-240.94013637636456,-101.84827616631077,-73.09384998691742,221.7300970011761,188.6533488094746,268.85972978188994,333.7311272932967
739,5.201033300490482,-241.24204039275998,-98.46035888578214,-77.1818155612682,216.7697657719961,165.10135971057832,267.99999546730714,324.24090946675824
740,2.1144189236540227,-241.56930920640752,-94.8039510526764,-79.80491584392531,209.43960208269223,140.4243109989326,267.0837426524335,314.9454839680166
741,-1.319564532542311,-241.86913196194587,-90.94451040438885,-81.01313025946877,199.69968248324338,114.85853056114297,266.0776997997754,305.9917756825337
742,-5.009909948301119,-242.09186425303503,-86.94659100682013,-80.88475437919159,187.5562613252726,88.65447074660423,264.951600897777,297.5295919151595
743,-8.860133664860285,-242.1926658059941,-82.8725359785635,-79.52472785300378,173.06081526153724,62.07211328818307,263.6793587083004,289.7075965703511
744,-12.7710583752087,-242.1329490440498,-78.78129695157683,-77.06229811242888,156.30805921444727,35.37603592011277,262.2401077195282,282.66905685940367
745,-16.6436193960136,-241.8815802746073,-74.72740657383551,-73.64805845801416,137.43304348590496,8.830302386556854,260.61906942819775,276.5475491529319
746,-20.381599983224366,-241.41578818142474,-70.7601237146287,-69.45042966467304,116.60746250728043,-17.306655271343644,258.8082005397624,271.4628161391922
747,-23.894207436014803,-240.72174923149421,-66.92276409242659,-64.65168090434871,94.0353202167314,-42.786993546637994,256.80659492468794,267.5169599341063
748,-27.09841115400989,-239.7948356120231,-63.25222226123554,-59.4436064786037,69.94810428968857,-67.37809262424594,254.6206221380272,264.79113494660936
749,-29.92097602814659,-238.63952740111034,-59.778684611099905,-54.022988189469224,44.59962105002424,-90.86672413992251,252.26379824360598,263.34287203249346
750,-32.30013886732824,-237.26900578622534,-56.52552732862427,-48.586978610587565,18.26063544018828,-113.062627393282,249.7563976027467,263.20412601564425
751,-34.18689107093515,-235.70445725315216,-53.5093880274736,-43.32853831356218,-8.786552352236646,-133.8013965813303,247.12482608767684,264.3800974956077
752,-35.545846402500665,-233.97412896411888,-50.74039501294228,-38.43205118307174,-36.25347770063618,-152.94661152208633,244.40078589210233,266.8488418067865
753,-36.35568764405135,-232.1121825950491,-48.222534173372296,-34.06922775866479,-63.8507301492267,-170.39117526446572,241.62026917505767,270.5616457803588
754,-36.60919963579912,-230.15739771718475,-45.954130734969446,-30.395388872810408,-91.29293552599586,-186.05785195007408,238.8224221383796,275.4441271657979
755,-36.31290848715679,-228.15177677467068,-43.92842186092582,-27.54620259879344,-118.30343094255045,-199.89902582558187,236.04832312106973,281.3979915691428
756,-35.48635737570504,-226.1391024790122,-42.1341962151598,-25.63492831889374,-144.61857393008228,-211.8957265656597,233.33971838935636,288.303366688096
757,-34.16105822479499,-224.1634958165674,-40.55647774971823,-24.750203866078436,-169.99163699606902,-222.0559867304604,230.73775811004685,296.02162273909175
758,-32.379165788527196,-222.26801960435233,-39.177232725011706,-24.954396202065425,-194.19624724703758,-230.41261419921742,228.2817731347373,304.39858076633715
759,-30.191926427169914,-220.49336909394137,-37.9760810392028,-26.282523647524407,-217.02933793157968,-237.02047595321,226.00813107409272,313.26800683395
760,-27.657957952555456,-218.87668757012094,-36.930995011818496,-28.741748411992905,-238.3135856813566,-241.95339995289902,223.94920764816547,322.45529011450714
761,-24.84141892444028,-217.45054094904276,-36.01897058731472,-32.31143169745224,-257.899314716822,-245.30080928893713,222.1325060665521,331.78120674222026
762,-21.810125469713945,-216.2420806070038,-35.216657567229454,-36.94373931571525,-275.6658577527316,-247.1642071276896,220.57995278066394,341.06567860393716
763,-18.633671337058978,-215.27241767555097,-34.50093729183815,-42.5647827744653,-291.5223726074659,-247.65363173440826,219.3073921183269,350.1314459715971
764,-15.381602999983354,-214.55622470761338,-33.849438426006905,-49.07627810713135,-305.40812304293075,-246.8841975331918,218.32429510521493,358.8075837255418
765,-12.121696621754014,-214.10157217150865,-33.24098409744951,-56.35770095190138,-317.29224162234453,-244.97283047092372,217.63368948593128,366.9328017284378
766,-8.918377884431036,-213.90999810916378,-32.65596637078984,-64.26891003933146,-327.1730011024073,-242.03529391710265,217.2323090244941,374.35847991338517
767,-5.831319290792599,-213.97680002497606,-32.076646796498906,-72.6532013872581,-335.0766289436306,-238.18358527877191,217.11095111240274,380.9513973886537
768,-2.9142427988212285,-214.29152913045857,-31.487384557657773,-81.34074225366977,-341.05570669089536,-233.52376408544666,217.25502303952103,386.59612200630517
769,-0.21394869202778466,-214.8386588511832,-30.87479649599707,-90.15231844163986,-345.18720179814164,-228.15425046651316,217.64524938928562,391.1970321000074
