time,ax,ay,az,gx,gy,gz,accmagnitude,gccmagnitude
0,10.35629937595555,-263.4485447117451,-58.85872552707049,-86.11050919396264,23.479462148122234,30.921932899416934,270.12611450690565,94.18097630041505
1,10.438202443246334,-263.48151512724115,-58.913046063210814,-86.32931960558835,24.493574589315287,31.928870298110247,270.1701941360005,94.8904580552639
2,10.536404190685754,-263.5171701386583,-58.96781348131031,-86.51380153895758,25.464262279738332,32.93046738476503,270.2175855799682,95.53872273163199
3,10.655160562786586,-263.55132757764613,-59.02295320393433,-86.66411096251814,26.395627965596415,33.934481007829895,270.2645182982694,96.13518977001333
4,10.798831177536552,-263.5794911765161,-59.07841073053655,-86.78088604866849,27.295110582561044,34.949745675182264,270.30694925131115,96.69221091200521
5,10.971791492371509,-263.59692439135534,-59.13414770678366,-86.86526774787075,28.173685906957704,35.985994647193984,270.34062975504287,97.22509007779475
6,11.178340662617739,-263.5987357122629,-59.19013433037359,-86.91893649159343,29.045995581354102,37.053667879842294,270.36118185041266,97.75207047662539
7,11.422606893723675,-263.57997488022005,-59.24633763428299,-86.94416537913676,29.930395424581928,38.16371138899837,270.36418355367977,98.2942866101186
8,11.708452132770136,-263.53573881105007,-59.302705623842485,-86.94388813588878,30.84891599752808,39.32737185846358,270.34526187107053,98.87567770238999
9,12.03937812378668,-263.4612853207032,-59.35914791609242,-86.92177818369697,31.827130990644424,40.55598940248074,270.30019195362553,99.52285827408808
10,12.418436108561265,-263.3521520763731,-59.41551414110313,-86.88233349782377,32.89393184542067,41.86079038135981,270.2250002837409,100.26494113435383
11,12.848142553545236,-263.2042776342679,-59.47157167830659,-86.83096066171363,34.08120981679532,43.25268120529651,270.1160693277611,101.13330803893652
12,13.330403036383611,-263.0141209855906,-59.526984275119446,-86.77405072991132,35.42344924467135,44.74204325424478,269.97024066157365,102.16132366800784
13,13.866445852520997,-262.7787757404833,-59.581292836212214,-86.71903915088346,36.95723809337955,46.33852842085566,269.78491322716025,103.38398938527074
14,14.456766170767803,-262.49607500420655,-59.63389937551444,-86.67444199867288,38.72070383597746,48.05085443229373,269.5581332246854,104.83753440393053
15,15.101080883002094,-262.164683212466,-59.68405495297701,-86.64986105314674,40.75288445932406,49.88659925162105,269.28867230021416,106.55894352078694
16,15.798293827653433,-261.7841716547975,-59.73085239660457,-86.6559509224891,43.093045730914376,51.85199473624389,268.97609112701275,108.5854226253485
17,16.54647086992658,-261.35507495315386,-59.773224671559674,-86.70434257490894,45.77995703281049,53.95172135851189,268.6207860176459,110.9538059153636
18,17.34282432955789,-260.87892624029126,-59.80994981607962,-86.80751939824937,48.85113927154559,56.188707913828715,268.2240166903314,113.69991215639719
19,18.183706414193942,-260.35826926433487,-59.83966330912948,-86.97864410030603,52.34209976596576,58.563942370047485,267.7879137852859,116.85786115958938
20,19.064611661891245,-259.79664629146276,-59.86087849634247,-87.2313371341101,56.285570503831025,61.07630200289399,267.315465327123,120.45936548316718
21,19.98018888174033,-259.1985615132775,-59.87201530267485,-87.57940958235012,60.71076743581362,63.72241242581025,266.81048208518916,124.53301566726533
22,20.92426356722093,-258.5694205754902,-59.87143692216941,-88.0365553085733,65.64268920987018,66.49654576214684,266.2775425798424,129.1035795842023
23,21.889872117220946,-257.91544773014255,-59.85749345286679,-88.61600856279743,71.10147376503252,69.39056775685657,265.7219192042238,134.19133740832314
24,22.86930941110595,-257.2435829324096,-59.82857058267582,-89.33017421145823,77.10183051772933,72.39394200349204,265.14948754484624,139.81147329341005
25,23.854191403230327,-256.5613619095893,-59.78314066923166,-90.19023864885754,83.65256459289988,75.49379686667214,264.56662150227004,145.9735434313814
26,24.835534509650348,-255.87678275022122,-59.71981316279215,-91.20577060036722,90.7562077742952,78.67505747209974,263.98007722943686,152.68103821380643
27,25.803853660943474,-255.1981628279338,-59.637381398213996,-92.38432260098632,98.40876863751338,81.9206416349623,263.39686917924377,159.931054007606
28,26.74928083192427,-254.53398986321503,-59.534863297354704,-93.7310457333756,106.59961172649034,85.2117150056565,262.8241416429973,167.71408756071713
29,27.661705425255033,-253.8927706699913,-59.411534403550036,-95.24833189876124,115.31147265658238,88.52799723215857,262.2690390670284,176.01396313927884
30,28.53093702853903,-253.28288073502407,-59.26695271278854,-96.93549932156155,124.52061268550145,91.84810786490269,261.7385782025506,184.80789921676046
31,29.34688986062636,-252.7124174065844,-59.1009755933261,-98.78853808488581,134.19711266839525,95.14993831438912,261.2395248539002,194.06671806596393
32,30.099786747506343,-252.18905931201618,-58.913769424569296,-100.79993263900921,144.30530263474438,98.41103446060995,260.77827776494746,203.75519786844353
33,30.780378801474626,-251.7199347554684,-58.70581254051508,-102.95857614111824,154.80431977840936,101.60897351827383,260.3607621249427,213.83256257183885
34,31.380175231153338,-251.3115020980752,-58.47789193513938,-105.24978651316627,165.64878448265145,104.72171877740843,259.9923352000032,224.25309959797372
35,31.891676005925806,-250.9694451767573,-58.23109413201246,-107.65542748553206,176.7895807572193,107.72793731527932,259.6777064462671,234.96689024106922
36,32.30859860717098,-250.69858650103836,-57.9667906106423,-110.15413195198123,188.1747237160362,110.60726880603228,259.420873979434,245.92063304610164
37,32.62608903570613,-250.50282035384157,-57.686618209120994,-112.72162098881579,199.75029244381253,113.34053769906168,259.22507855726235,257.05853697585945
38,32.840906782913976,-250.38506713528108,-57.39245504844353,-115.33110944051363,211.46140224214105,115.90990568298457,259.0927754336898,268.323258569541
39,32.95157375093105,-250.34724935482646,-57.08639272742378,-117.95378702047745,223.25318646068598,118.29896609306127,259.02562361179065,279.6568553733473
40,32.958478214570086,-250.39028865135967,-56.770705689532726,-120.55936199322916,235.0717554897266,120.49278657665208,259.0244911985008,291.0017268511464
41,32.86392672340938,-250.5141222836486,-56.447818720073634,-123.11665298202698,246.86509943825038,122.47791071993007,259.0894748930892,302.30151415177403
42,32.67213900204611,-250.7177368229218,-56.120273588865054,-125.5942138115026,258.5839017962021,124.24233308366007,259.2199312266946,313.5019318159369
43,32.389183137556856,-250.99921624714293,-55.79069596595575,-127.96097689881972,270.182234037932,125.77546467945737,259.41451693805345,324.5515077724679
44,32.02285054870642,-251.35580121046286,-55.4617638461247,-130.18690245425893,281.6181055245696,127.06810692343197,259.67123572418853,335.4022125337322
45,31.58247238709305,-251.78395602442546,-55.136178729022,-132.2436229562943,292.85384893187694,128.11245141236685,259.9874886015192,346.0099638684216
46,31.078681129783384,-252.27943999260438,-54.8166406277195,-134.10507395166192,303.8563284524697,128.90212064656504,260.36012538276213,356.33499884461133
47,30.52312322861692,-252.83738021583733,-54.50582758016976,-135.74810231758954,314.59696585395386,129.43226135855937,260.7854953447602,366.3421105218832
48,29.928130722834172,-253.45234367651008,-54.20637981398092,-137.15304152820346,325.05158769582516,129.69969764411672,261.2594958963992,376.0007514237049
49,29.306361414383495,-254.1184070684673,-53.92088824036888,-138.30424075495134,335.2001051043565,129.7031458200701,261.7776187120946,385.2850100882551
50,28.670418270970224,-254.82922328735754,-53.651886615659905,-139.1905317985124,345.0260449206202,129.44348707885442,262.3349931853248,394.173470425231
51,28.032459224036735,-255.57808376127647,-53.40184648882253,-139.80561588477948,354.5159572422585,128.92408791516098,262.9264272100209,402.6489662773449
52,27.403808767688187,-256.3579760417233,-53.173173917504926,-140.14835191497477,363.6587289510074,128.1511524247361,263.54644540472117,410.69824548011127
53,26.794582887101974,-257.161636387316,-52.96820688212028,-140.2229291147787,372.44483554547145,127.13408544600289,264.1893250745582,418.3115588884478
54,26.213338747768866,-257.98159745099707,-52.7892123985698,-140.03891017741452,380.8655645379009,125.88584163189857,264.84913045604503,425.48219047692385
55,25.666760102118282,-258.81023158342026,-52.63838257403037,-139.61113570120156,388.91224307265486,124.42323324028608,265.5197460666875,432.20594493674196
56,25.159388442501697,-259.6397906159465,-52.5178292249834,-138.95948652448376,396.5755006086012,122.76716882997941,266.1949102027777,438.48060931827547
57,24.693408580678593,-260.4624432125584,-52.42957700562358,-138.1085068952723,403.84459480629323,120.94279610400591,266.8682496961247,444.30540525125656
58,24.268495679134706,-261.270310994078,-52.375555084216366,-137.08689774639225,410.70682544495924,118.97952474653425,267.53331694401334,449.6804481119398
59,23.881728926329025,-262.05550469157635,-52.35758722515586,-135.9268952497848,417.14705746422817,116.91090910455415,268.1836300263207,454.6062291660459
60,23.52757512545185,-262.8101615608235,-52.37737985654731,-134.66355498256934,423.147370270216,114.77437576744698,268.81271644657636,459.0831361959352
61,23.197943517830687,-263.5264851533291,-52.43650753574962,-133.333966222865,428.6868464511615,112.61078725418714,269.41416069617173,463.1110274462927
62,22.882311232113672,-264.19678835495534,-52.536395239501154,-131.9764238944123,433.74150908747947,110.46383984721567,269.9816555234391,466.68887282873254
63,22.5679168680765,-264.813540480331,-52.67829703301696,-130.62958727157576,438.2844128438454,108.37930077695682,270.50905658966946,469.81447501010626
64,22.240017966317254,-265.36941918391994,-52.863270830430835,-129.33165457098835,442.2858899295802,106.40409707958634,270.9904401350214,472.48428108834395
65,21.8822066357971,-265.8573679735988,-53.09214913386795,-128.11958099535264,445.71394787255446,104.58527514946579,271.42016332509405,474.69329303004315
66,21.47677651904909,-266.2706601675174,-53.36550585619334,-127.02836485017333,448.5348120386569,102.96885597933814,271.792927094171,476.43508207476435
67,21.005133489229497,-266.602970235531,-53.683619565555944,-126.09042230714383,450.7136021168103,101.59861611212601,272.10384154675,477.701909127463
68,20.448241762762898,-266.8484535868752,-54.046433654386774,-125.33506653997325,452.21512848039504,100.5148282913911,272.3484942642647,478.4849499438878
69,19.787096289182738,-267.001835912247,-54.45351402537043,-124.78810163271879,453.0047914360019,99.75299862436795,272.5230220787188,478.7746207661884
70,19.00321133620073,-267.0585130389063,-54.9040050296896,-124.4715361893999,453.0495638203788,99.34263872483209,272.62418691974614,478.5609970265619
71,18.07911425855363,-267.01466177877484,-55.39658469838452,-124.40341625052618,452.3190351333181,99.30611177536005,272.64945611299714,477.8343148170954
72,16.998832720734093,-266.86736136830484,-55.92942073719645,-124.59777216521904,450.78649337777074,99.65759076169488,272.5970869350319,476.5855420626471
73,15.748363357913101,-266.6147239393601,-56.500129173031254,-125.06466962493867,448.43001910525703,100.40216533320248,272.46621441683436,474.8070038496201
74,14.316110197789186,-266.25603130737835,-57.10573780931192,-125.81035127777398,445.23356498777605,101.5351309194016,272.2569405917298,472.49304433685194
75,12.693282158945562,-265.7918743881557,-57.742656686083656,-126.83745239835696,441.187993665121,103.04149000452881,271.970422748375,469.6407062543754
76,10.874240369959404,-265.22429065499074,-58.406657576516245,-128.14527216407285,436.2920466592245,104.89569092570026,271.6089576554953,466.2504082250608
77,8.856787564670425,-264.55689404948413,-59.09286433374444,-129.73008124693982,430.55321773044665,107.061624232902,271.17605799774344,462.32659994083593
78,6.642393155143015,-263.7949907176599,-59.79575581658413,-131.58544662603728,423.9885050160172,109.49289050897464,270.6765164684539,457.87837539212677
79,4.2363487575665015,-262.94567314473596,-60.50918322570688,-133.70255566465605,416.6250174267446,112.13334665690385,270.116452388513,452.9200246426184
80,1.6478500982876871,-262.0178849674523,-61.22640377645676,-136.07052341885864,408.50041194692847,114.91793024768259,269.50333557676623,447.4715048981473
81,-1.109997553060829,-261.02244900995026,-61.94013242550949,-138.67666957284115,399.66313974651933,117.77375390682803,268.8459824809976,441.5588118485137
82,-4.020252083800408,-259.9720518055373,-62.64261281020875,-141.50675401838035,390.1724806254241,120.62145418766046,268.1545201628094,435.2142326390046
83,-7.062285999268164,-258.8811788937751,-63.32570787017612,-144.5451627039711,380.09834757921897,123.37677215944473,267.4403145154815,428.4764626117423
84,-10.212016349083177,-257.7659964725234,-63.981009923088195,-147.7750378786973,369.5208464714311,125.95233624200276,266.71586005618366,421.39056939967134
85,-13.442211792942109,-256.64417656265607,-64.59996918824483,-151.17834915433787,358.52958014032276,128.25961186091027,265.99462978423946,414.00779027562794
86,-16.72287414440384,-255.53466469678594,-65.17403888826261,-154.73590378603672,347.2226919410971,130.2109774530324,265.2908849270312,406.3851520288214
87,-20.02169003667003,-254.45739118704373,-65.69483421546718,-158.4272961755353,335.7056507950458,131.72188229074794,264.61944584723875,398.5849071361231
88,-23.304546407640657,-253.43292916042458,-66.15430162407364,-162.23079796879176,324.0897881182389,132.71303845043994,263.99542686628035,390.6737855199312
89,-26.536101502847306,-252.48210469746596,-66.54489403919139,-166.12319158723955,312.490606121447,133.11259688015247,263.4339391932104,382.72206748416806
90,-29.680401251288007,-251.62556651600764,-66.8597468024997,-170.07955199465502,301.02588637129804,132.8582558039839,262.9497675361641,374.8024901813133
91,-32.70152934233019,-250.88332466174506,-67.09284881791213,-174.07298425557892,289.81363660811115,131.89924863152405,262.55702737068583,366.98900687423793
92,-35.56427820324905,-250.2742695311853,-67.2392035652356,-178.07432811258903,278.96992202531686,130.1981582389021,262.26881123777423,359.3554249894852
93,-38.234827304364835,-249.81568412827343,-67.29497525597276,-182.05184531997804,268.6066339565412,127.7325051495767,262.0968336945132,351.9739551793829
94,-40.6814146701439,-249.52276358592567,-67.25761613213783,-185.9709104969307,258.82925380444834,124.4960589849186,262.0510854283826,344.91370905212597
95,-42.87498708873112,-249.4081565664642,-67.12597152026835,-189.793731265544,249.73467293733896,120.49982579474518,262.13950742862147,338.23918772127337
96,-44.78981439102519,-249.48154318213025,-66.90035959845727,-193.4791277668824,241.40913016752586,115.77266872111491,262.36769596577335,332.0088067244476
97,-46.4040534470622,-249.7492636102906,-66.5826229125259,-196.98240460820767,233.92632734593016,110.36152603117392,262.73864855007287,326.2735049621285
98,-47.70024821044304,-250.21401068865606,-66.17614867752687,-200.2553491988613,227.34578065464666,104.33119887658732,263.25256014528037,321.0754858467758
99,-48.66575313210248,-250.8745985051597,-65.68585507542062,-203.24638872978124,221.71146052844685,97.76369104791154,263.906677800882,316.4471375862206
100,-49.29306845302508,-251.7258173873813,-65.11814123657791,-205.90093351132026,217.0507669879529,90.75709423389935,264.69522058704894,312.410176315001
101,-49.58007722274963,-252.75838379785262,-64.48079937936161,-208.16192719799002,213.37387965968756,83.42402454520375,265.6093703107007,308.97505062706637
102,-49.530175409340636,-253.95899145357095,-63.78288871719049,-209.9706151648511,210.67351294432257,75.88962895150885,266.6373369664061,306.14063906708884
103,-49.15228819100531,-255.3104674692013,-63.03457230725694,-211.26753173700797,208.9250967006644,68.28919341106749,267.76450120793567,303.8942635181416
104,-48.46076741468007,-256.7920344726308,-62.2469199821826,-211.9936959246421,208.08739149828827,60.76539741619219,268.97363428537693,302.2120314599946
105,-47.47516734146502,-258.37967649790045,-61.431682627342916,-212.09199451593167,208.10353507485505,53.46527198468956,270.24519385181725,301.0595090777322
106,-46.21989842126812,-260.0466030519822,-60.601044908502814,-211.50872138536667,208.90250335257383,46.53692933775815,271.5576917561689,300.3927155073644
107,-44.72376210190074,-261.763802127396,-59.7673647071169,-210.1952329677866,210.40095566287656,40.12614221330937,272.8881273662341,300.15941646847506
108,-43.019373408888036,-263.50066924905553,-58.94290784712446,-208.10967205781864,212.5054203406199,34.37285866134806,274.212477176296,300.3006835466015
109,-41.14248190621285,-265.22569617555695,-58.13958635031606,-205.21870535677,215.11476431055712,29.407744002503502,275.5062286714302,300.7526739021166
110,-39.131205426539736,-266.90719991568903,-57.36870769185192,-201.49921452235472,218.1228793893231,25.348845099456017,276.7449439383199,301.448574713212
111,-37.02519446067767,-268.5140704697238,-56.640741578482746,-196.9398760946246,221.4215093110828,22.29847283029563,277.9048365451009,302.320647784358
112,-34.86474810011542,-270.01651425506003,-55.965109834820865,-191.54256305465444,224.9031352954875,20.340396359633555,278.9633438635407,303.30230311858844
113,-32.689904742884465,-271.38676961251576,-55.35000413968029,-185.3235006429857,228.46383446723416,19.537437310415203,279.89967636036033,304.33012656567666
114,-30.539532332613575,-272.599771257237,-54.80223550923957,-178.31411218660415,232.0060246860103,19.929543189462223,280.6953255755086,305.3457865719794
115,-28.450443702095033,-273.6337421321468,-54.32711843274836,-170.5614975562441,235.44101149294158,21.53240746656219,281.33451362870466,306.297749025501
116,-26.456562591831997,-274.4706937334996,-53.92839145164873,-162.12849750577473,238.69125815186783,24.336688760449537,281.8045690771871,307.142737325873
117,-24.588165015181612,-275.09681934272936,-53.60817490484336,-153.093311016462,241.69230833770806,28.307864035466494,282.0962165830165,307.8468867856501
118,-22.871218781936356,-275.50276849180017,-53.36696564906688,-143.5486490263568,244.39430283137742,33.38673114912833,282.2037709632835,308.3865575148885
119,-21.326841184808178,-275.68379529570564,-53.20366779331163,-133.60042565825736,246.76304620997536,39.49055529539271,282.12522970756095,308.7487869754934
120,-19.9708911476797,-275.6397778942959,-53.11565785244917,-123.36600646835143,248.78059626280273,46.514832752847184,281.86226187350275,308.93138120080863
121,-18.81370762334525,-275.37511094112455,-53.098882238339414,-112.97205158212803,250.44536684109232,54.335624761081206,281.4200952287464,308.94266101647776
122,-17.860000947956447,-274.89847754921846,-53.147984614105994,-102.55200910067833,251.77175314604492,62.81239513703713,280.8073073005397,308.80089527978436
123,-17.108898562991754,-274.22251106764213,-53.25646022913885,-92.24333008431869,252.7893061650447,71.79126816140531,280.0355293396549,308.5334661194868
124,-16.55414127729405,-273.36336037784025,-53.41683380820099,-82.18449000079039,253.54149915509475,81.10860902743248,279.11907495059785,308.17582052444646
125,-16.184421240460576,-272.34017506558286,-53.62085679812028,-72.51191196601924,254.0841428525215,90.59481843571945,278.074507271657,307.7702677549619
126,-15.983848314760996,-271.1745288918666,-53.859718839443666,-63.356893561213795,254.48351674024906,100.07822633694585,276.92016016546665,307.3646826951609
127,-15.932527910956763,-269.8898014766205,-54.12426750637426,-54.84264072180093,254.8142908009076,109.38896776287996,275.67562997807556,307.01117173616313
128,-16.007230738166154,-268.5105389829806,-54.405229962625754,-47.08150869705953,255.1573156003075,118.36272622968717,274.3612550606315,306.7647509253338
129,-16.18213320592753,-267.0618147329831,-54.693430285589606,-40.172541379351536,255.59735841383153,126.8442371216885,272.9976003190443,306.6820771601612
130,-16.429606232284783,-265.5686099623804,-54.97999662237726,-34.199386949865634,256.2208597791779,134.69045433305584,271.6049633877514,306.82026351254643
131,-16.721029798501334,-264.0552333140467,-55.25655286672743,-29.228650838701494,257.11377886100524,141.7732977160528,270.20291755309734,307.2358006048446
132,-17.027610611130772,-262.5447953601934,-55.515390173348884,-25.308727848591513,258.3595879717383,147.9819159023254,268.80990445244396,307.9835982388885
133,-17.321180601454273,-261.0587517127193,-55.74961441939712,-22.4691354371686,260.0374671155657,153.22441797314417,267.442887129315,309.11615557875547
134,-17.57495473675315,-259.6165252838492,-55.95326668189126,-20.720350903521144,262.2207390160463,157.42904720278207,266.11707138816143,310.68286394289504
135,-17.764227878518266,-258.2352149581708,-56.12141487402939,-20.054137488974167,264.9755741648114,160.54478964143746,264.84570053110616,312.7294432196966
136,-17.86699236577552,-256.9293943008642,-56.25021581122258,-20.44432864291279,268.35998437043816,162.54142882780266,263.6399254459076,315.29751064282243
137,-17.864460677246605,-255.7110001426592,-56.3369480783813,-21.84802609756141,272.4231124589747,163.4090748307521,262.50874881931725,318.42427879740643
138,-17.741480790797937,-254.58930729332948,-56.3800170428272,-24.20715602852692,277.20481549347573,163.15721056631574,261.45903927025046,322.1423779188762
139,-17.486835444426035,-253.5709825338557,-56.37893409297304,-27.45031853805477,282.7355293846884,161.81331040271687,260.49560866274635,326.47979544174933
140,-17.093420183703916,-252.6602085733788,-56.33427259298952,-31.49485908366835,289.0363942663458,159.42109513093632,259.6213438698659,331.45992316225465
141,-16.558298778213608,-251.85886685765567,-56.24760315085053,-36.24908642216608,296.11961268536237,156.03849341909296,258.8373828367353,337.10169934272903
142,-15.882638314080818,-251.166766924848,-56.12141077789163,-41.61456030797692,303.98900665004385,151.73538308022543,258.14332391791174,343.4198298329578
143,-15.071529964885018,-250.58190935466237,-55.95899654311735,-47.488373655921706,312.6407350068739,146.59118610242993,257.5374571068299,350.4250691148806
144,-14.133704913872164,-250.10076919961801,-55.76436635065119,-53.76535809431823,322.0641295979065,140.69238961609182,257.0170058560615,358.1245394204039
145,-13.081157911396165,-249.71858704235152,-55.54210931072069,-60.34014865681662,332.24260728761294,134.13006103107176,256.5783685646042,366.5220640786413
146,-11.928693370364952,-249.42965539690198,-55.297267833275775,-67.10905258675442,343.1546152574065,126.99741980601694,256.21734937999753,375.61849034076295
147,-10.69341072733036,-249.2275890780087,-55.03520131971607,-73.97167851831942,354.77456881768705,119.38752115919675,255.92936880393538,385.41197729422026
148,-9.394147100760192,-249.10556951358373,-54.76144539789829,-80.83229517435748,367.0737441278902,111.39109900173708,255.70964587249387,395.8982261355766
149,-8.050896142883863,-249.05655480100313,-54.481568994388795,-87.60090262541492,380.02109238707146,103.09460698545158,255.55334543839754,407.07063296564854
150,-6.684222407303174,-249.07344945800563,-54.201031950483646,-94.19401350494253,393.5839471053597,94.57848827526989,255.45568613258754,418.92034835295226
151,-5.314690404067201,-249.14923008755105,-53.925046200524626,-100.53515581196035,407.728601971887,85.91569689524891,255.41200669794028,431.43623319203147
152,-3.962326620924987,-249.2770254784458,-53.658443713034366,-106.55512256339087,422.4207436766234,77.17048667978891,255.41779048852902,444.60470693475713
153,-2.6461311232488933,-249.45015207984636,-53.40555446571286,-112.19200603015898,437.6257318049778,68.39747835053484,255.46865010843504,458.40949201743945
154,-1.383652983664638,-249.66210841227925,-53.17009760818635,-117.39106472112769,453.3087262116537,59.64101106707668,255.56027651983422,472.8312666463584
155,-0.19064081354201579,-249.90653472061584,-52.95508852311858,-122.10447848015797,469.4346703143051,50.93478151962059,255.6883593814423,487.84724591030835
156,0.9192237764068035,-250.17714674208122,-52.76276373825444,-126.29105004843234,485.9681457360721,42.3017705591801,255.84848760888877,503.43071735117786
157,1.934505554968824,-250.46765452714357,-52.59452478795406,-129.915909904983,502.873119208052,33.75445394463814,256.03604090118915,519.5505610686594
158,2.8461070893972633,-250.77167862613513,-52.45090140051509,-132.95027546181595,520.1126064749645,25.295289756110623,256.2460841118878,536.1707861075516
159,3.6472745842732954,-251.0826766274374,-52.33153387061158,-135.37130640467458,537.648280107197,16.91747033308726,256.47327686260235,553.2501144290126
160,4.333523547207054,-251.39389303242277,-52.23517410180418,-137.1620859035559,555.4400486260097,8.605921343804301,256.7118107190183,570.7416414007987
161,4.902492632213057,-251.69834472646426,-52.159704478179904,-138.31174343732755,573.4456333168532,0.33852499941164393,256.9553855058481,588.5925977496322
162,5.353736760264046,-251.9888527829357,-52.10217343634502,-138.815720087483,591.6201668089068,-7.912461179357404,257.1972348495885,606.744232735482
163,5.688472878095682,-252.25812901714215,-52.058846462278474,-138.67616246036272,609.9158342809515,-16.178823875450302,257.43020881378675,625.1318324310746
164,5.909293122657237,-252.4989226425322,-52.025271354608016,-137.90241798982822,628.2815743133438,-24.494690141713807,257.646918595312,643.6848808566838
165,6.019860455836106,-252.70422866916672,-51.99635701182279,-136.5115932314625,646.662852159397,-32.894742182239675,257.8399447765103,662.3273656577725
166,6.024601048301258,-252.86755549144206,-51.96646562100515,-134.52912863638636,665.0015137592969,-41.41239513262562,258.00210672078805,680.9782242925662
167,5.928406108758108,-252.98324469227634,-51.92951878433188,-131.98933859822264,683.2357244333783,-50.07798328342446,258.126786575201,699.5519215906131
168,5.736353865469851,-253.04683181266108,-51.879118710393364,-128.93586435560883,701.2999921825997,-58.916999789126436,258.2082973434076,717.9591453050764
169,5.453460363871691,-253.05543314750733,-51.80868607018459,-125.42198940012472,719.1252721351522,-67.94843308449927,258.24228104467824,736.1076030509907
170,5.08446584908959,-253.00814090718333,-51.71161633755272,-121.51077198845125,736.639145978263,-77.18324015390336,258.2261204183271,753.9029017401248
171,4.63366171217868,-252.9064075069821,-51.58145621090185,-117.27495661441351,753.7660681160862,-86.62299268861477,258.1593461005782,771.2494890567026
172,4.104761076892245,-252.75439929179575,-51.41210099920459,-112.79663518135554,770.4276686853729,-96.25872725515968,258.0440206584747,788.0516354068708
173,3.500813965144245,-252.55930049619477,-51.19801276585395,-108.1666384456527,786.5431024389636,-106.07002511642389,257.88508116396196,804.2144339952997
174,2.82416574114634,-252.33154942732102,-50.93445767456052,-103.48364841760227,802.0294320239401,-116.02434154607019,257.69062290413973,819.6447963020552
175,2.076455465967165,-252.08499053968956,-50.61775941707456,-98.8530321613628,816.8020345378287,-126.07659862965116,257.47210816260514,834.2524204116605
176,1.2586491331831262,-251.83692821787494,-50.24556385079027,-94.38540628183593,830.7750215172756,-136.1690499276013,257.2444857483427,847.9507104740907
177,0.3711017119455983,-251.608070779328,-49.81710811363897,-90.19494896403279,843.8616645892266,-146.23142024233644,257.02620919006023,860.6576270288373
178,-0.5863583407526755,-251.422356450079,-49.33348566628082,-86.39748256421254,855.9748217262998,-156.18131931296054,256.83914427552384,872.2964499680854
179,-1.6143279092618141,-251.30665665792165,-48.79789710564494,-83.10835442318809,867.0273622765519,-165.9249247039795,256.70835973419753,882.7964385954059
180,-2.7137160514756458,-251.29035565637218,-48.2158753153324,-80.44014694313928,876.9325925756578,-175.35792645731928,256.6617980851775,892.0933766067393
181,-3.88562202235439,-251.40480903111836,-47.59547264077319,-78.50025036775855,885.6046878568161,-184.3667241055668,256.7298268073086,900.1299938927147
182,-5.131206188724256,-251.68268697700856,-46.94739733356146,-77.38833353124492,892.9591402256743,-192.82986518924477,256.94467296659906,906.8562618367267
183,-6.451554221551777,-252.15721141711285,-46.285086477577245,-77.19374950313139,898.913236592699,-200.61971320459907,257.33974730241636,912.2295642750764
184,-7.847533862282954,-252.8612991573555,-45.624703011779616,-77.9929149555678,903.3865845881826,-207.6043315979851,257.94886662890417,916.2147524722594
185,-9.319642686166624,-253.8266263662945,-44.9850454851338,-79.84670455533477,906.3017084758662,-213.64956870289367,258.8053863311363,918.7840992107916
186,-10.867844629452598,-255.0826326824531,-44.38736106292428,-82.79790493718376,907.5847406279831,-218.62132613610322,259.94125772793126,919.9171740889358
187,-12.491392647115129,-256.65548610132726,-43.85505513453813,-86.868776932678,907.1662367518499,-222.38798992497763,261.3860280850238,919.6006688514717
188,-14.188634803863263,-258.5670324566032,-43.41329453269366,-92.05877973246899,904.9821441349424,-224.82299935734804,263.16580406192594,917.8282073634591
189,-15.956801483536172,-260.83375574355773,-43.08850569388492,-98.34251650519344,900.974950978982,-225.80752315726613,265.30220230848175,914.6001788912743
190,-17.791772324307864,-263.465777564031,-42.90777394103695,-105.66796753764372,895.0950407301494,-225.2332062254348,267.81131361879073,909.9236349337081
191,-19.687822961135932,-266.4659253897903,-42.89815531340108,-113.95508396920003,887.3022676717201,-223.00494320321027,270.7027092827255,903.8122883988693
192,-21.63735361108238,-269.82890007634495,-43.08591780760528,-123.09482236821515,877.5677587494813,-219.04362799902896,273.97851995398275,896.2866492139838
193,-23.630603911445075,-273.5405731516183,-43.495734294801494,-132.94870725454354,865.8759319019442,-213.2888215969769,277.6326184836213,887.3743226033828
194,-25.65536121110751,-277.57744381115515,-44.14985445078452,-143.3490143238324,852.2267037450963,-205.70127432383757,281.6499386691574,877.1104856996267
195,-27.696672671869702,-281.9062841159921,-45.06728730249825,-154.0996701819391,836.6378403217063,-196.2652336576606,286.005961510185,865.5385454955601
196,-29.73657487899312,-286.4839984863684,-46.26302878855492,-164.97796311097355,819.1473849626545,-184.9904650487964,290.66639909948407,852.7109671442942
197,-31.75385797010704,-291.2577202260517,-47.74736946418523,-175.73715195244642,799.8160783486527,-171.91391156993518,295.58710362323177,838.6902470241528
198,-33.72388443303072,-296.16516359271264,-49.525315911441254,-186.11004492149425,778.7296687185298,-157.10091893915694,300.7142251631828,823.5499904572365
199,-35.618485581938145,-301.1352449389454,-51.596155601792155,-195.81359561823973,756.0009957801651,-140.64595582945185,305.98463720450764,807.3760399942272
200,-37.40596100205535,-306.0889807800397,-53.95318904170877,-204.55452865711106,731.7717210355106,-122.67276547762192,311.32664305978255,790.2675871446673
201,-39.051207409166864,-310.9406643929855,-56.583645270678716,-212.03596187096852,706.2135706574157,-103.33389343939156,316.66096988925506,772.3381887355458
202,-40.51600281873972,-315.59931568549683,-59.46878780571524,-217.96493673227678,679.528955457306,-82.80954790318094,321.9020495875321,753.7165991762538
203,-41.759469282471855,-319.9703913894432,-62.584208898746134,-222.06070575838433,651.9508365525519,-61.305763258950705,326.9595773604029,734.5473223111063
204,-42.73873255279601,-323.95773392372223,-65.90030136504714,-224.06355930384527,623.7417157186977,-39.05185453743924,331.7403292077116,714.9907818094143
205,-43.409789813839275,-327.4657275261904,-69.38288975036778,-223.74390996133636,595.191646573549,-16.297169708824015,336.1502088218165,695.2230077994841
206,-43.728587101251286,-330.4016196793011,-72.99399642327874,-220.91129735168653,566.6151869548024,6.692831589022245,340.09648287322585,675.4347405523022
207,-43.65229627049388,-332.67795476605426,-76.69271338462238,-215.4229358295393,538.3472442636091,29.641120896253632,343.4901516692889,655.829860837764
208,-43.140767410591764,-334.21505574961515,-80.43614730698037,-207.19140808683298,510.73780428356923,52.264188810110376,346.2483902877963,636.6230731667399
209,-42.158117000082264,-334.9434793972832,-84.18040376035019,-196.19111291050234,484.14558000860575,74.27757700722465,348.29698451873037,618.036794891544
210,-40.67439653875153,-334.80636271005795,-87.88157690006004,-182.46310750891857,458.93066942705525,95.40173089761124,349.5726778709793,600.2972425921537
211,-38.667273140360884,-333.7615743505083,-91.49671313214787,-166.11804296841328,435.44636744216325,115.36802937266253,350.02534209667436,583.6297563589403
212,-36.12364428840362,-331.78358574149047,-94.98472133844365,-147.3369713707347,414.030333068086,133.92483062934687,349.6198849369292,568.2534585128453
213,-33.041104326486625,-328.8649818845119,-98.30720769950338,-126.36989835623653,394.99536438683793,150.84335815519918,348.33781485387493,554.3754001652048
214,-29.429180602975404,-325.01754113454257,-101.42921910019123,-103.53205784001446,378.620076919323,165.92323986060904,346.1783926146462,542.1844006478668
215,-25.31026279373482,-320.27282568526624,-104.31988450912107,-79.1979883312356,365.1398132163442,178.99750835585638,343.159313099165,531.8448254438246
216,-20.72015971300133,-314.6822401477514,-106.95294782376935,-53.79358549421802,354.738130174218,189.9368739130538,339.31687722826416,523.4905729950628
217,-15.708233094252176,-308.31653393849336,-109.30718809473984,-27.786387293382205,347.5392138449289,198.65309537345442,334.7056328437082,517.2195468455326
218,-10.337075903012613,-301.2647432829704,-111.36672388885079,-1.6744125899539115,343.60155804168903,205.1012985709126,329.39748357164626,513.0888769473
219,-4.681722073634468,-293.63258915132286,-113.12119851034753,24.026080062608507,342.9132123605115,209.28112575777354,323.4802847556742,511.11112507239767
220,1.1716061586661524,-285.5403670571204,-114.56584291863865,48.793519361923394,345.38885792681054,211.23664080304147,317.0559642384357,511.25166810313357
221,7.127188718787883,-277.1203823834408,-115.7014142293401,72.11423015327756,350.8689071432677,211.0549606289929,310.23822225182397,513.4274040065953
222,13.08189419777446,-268.5140002174947,-116.53400972202635,93.49552684300448,359.12075012723375,208.8636304710873,303.14987842580507,517.5068727576745
223,18.927605191955568,-259.8683914225476,-117.07475894331563,112.47831436225742,369.8421892667213,204.82680650901474,295.91994473647554,523.3118316709097
224,24.553911775803886,-251.3330668034854,-117.33939957568006,128.64885188751404,382.6670184100978,199.14035217591248,288.68051107496956,530.6202735153901
225,29.85099108023669,-243.05629850428411,-117.3477462153064,141.6493753998571,397.17261854281844,192.02599251111346,281.56353496135944,539.1708271288785
226,34.71258199779927,-235.1815318854859,-117.12306490200547,151.18732127743598,412.88936120715874,183.7247033949476,274.69762858993414,548.6684340303191
227,39.038957992091234,-227.84389192839546,-116.69136986228685,157.04294101225034,429.31153808084474,174.48953902475492,268.20493490255734,558.79115080329
228,42.739798569225826,-221.1668857811695,-116.08066226699717,159.0751439308754,445.9094734680907,164.57812135001865,262.19818009744455,569.1978863729049
229,45.73686161174176,-215.25939750778028,-115.32013378602717,157.2254484448084,462.14242894594923,154.24502899968616,256.77798335430356,579.5368470587158
230,47.966364372507165,-210.2130625243695,-114.43936015458496,151.51996179256315,477.47187842578063,143.7343299128399,252.0304959603295,589.4544325323084
231,49.38098995322505,-206.1000978390401,-113.46751149882672,142.0693434237994,491.3747190067067,133.27250080217746,248.02543174484916,598.6043050666459
232,49.951447892817114,-202.9716504577568,-112.432606461051,129.06673907211842,503.3559887506241,123.06196731418841,244.81453908054627,606.6563451255724
233,49.667531572884904,-200.85671069939815,-111.3608359972634,112.78370295059386,512.9606862768451,113.27548123659965,242.4305520696135,613.3052100271981
234,48.53863132416917,-199.7616202297692,-110.27597999244409,93.56415676800971,519.7843271327885,104.05152567953046,240.88664535428182,618.2782295575336
235,46.59368027323453,-199.67018686973253,-109.19893560959231,71.81646910774619,523.4819255961036,95.49090646884476,240.17640365350402,621.3424021519136
236,43.880529674579755,-200.5444000518684,-108.14737087197513,48.0037796837418,523.7751546456217,87.65464882905718,240.2743038167602,622.3102956097174
237,40.46477093336913,-202.32572262195976,-107.13551088183905,22.632741797004165,520.4575078014298,80.56327366593223,241.13669396508,621.0447043799219
238,36.42804177004001,-204.93691711346403,-106.17405775071424,-3.7590869051761655,513.3973608969843,74.19747851235795,242.70324122557952,617.4619676291888
239,31.865872962358257,-208.2843483797121,-105.27023904898508,-30.616912553429664,502.5389063488895,68.50019614169771,244.8988067487486,611.5339043653427
240,26.88514872528972,-212.26069017836247,-104.42797371613116,-57.383075086237326,487.9010043616886,63.37995124555859,247.63569428425885,603.2883694404552
241,21.60126708112744,-216.747951474199,-103.64813941241016,-83.51170418731405,469.5740627195916,58.71538506181192,250.81620697032116,592.8084735133568
242,16.135095874390554,-221.62072934793832,-102.92892173668977,-108.48319882917112,447.71511805401536,54.36077211847813,254.3354368744186,580.2305387502144
243,10.609825067852046,-226.74958986329398,-102.26622386489085,-131.81804146785754,422.5413456348242,50.15231474150801,258.0842040200499,565.7408799846393
244,5.147816577903469,-232.00447613854084,-101.65411492022173,-153.08945585503767,394.32227033704135,45.9149715256602,261.95205667399676,549.5715100187476
245,-0.13245053892076356,-237.2580440216306,-101.08529636044206,-171.93444220005088,363.37098653843736,41.469556807058154,265.83024272213584,531.9948709818729
246,-5.119248703412988,-242.38883002105607,-100.55156728926607,-188.06277459085265,330.0347174285605,36.639839928022795,269.61456309282266,513.3176952580068
247,-9.710203301880082,-247.2841633974895,-100.04427141535831,-201.26362034514884,294.68505333079634,31.259375919329038,273.2080224647457,493.8741034690963
248,-13.814558445743168,-251.8427443515574,-99.55471022009591,-211.40953471212757,257.7082037430799,25.177813020629365,276.5231998734566,474.01805633878126
249,-17.35505257648484,-255.9768226342101,-99.07450891061103,-218.45769149923666,219.4955791574335,18.266446884568342,279.48427208623855,454.115293302647
250,-20.269364813207673,-259.61392510635324,-98.59592428692548,-222.44832492494913,180.43498720274633,10.422825759025768,282.0286353744648,434.5349132062058
251,-22.511108710509443,-262.69809615288847,-98.11208694767649,-223.5004746208762,140.90268485532903,1.5742543654369328,284.10808600313936,415.6407797438632
252,-24.050365642458125,-265.19063077835995,-97.61717409103639,-221.80523867101564,101.25647675952769,-8.319905101902703,285.68953561028303,397.7829635836886
253,-24.87376467793187,-267.07029614391735,-97.10651306266192,-217.6168431817958,61.82999217995063,-19.267180876474313,286.7552538636255,381.2894601140859
254,-24.9841289456784,-268.33305282150906,-96.57661935223199,-211.2419252331025,22.928213264751836,-31.242177130391777,287.3026466739271,366.45844083161114
255,-24.399719786225138,-268.99130172777694,-96.02517572221352,-203.0274935936629,-15.175731332483489,-44.18793020906054,287.3435932495784,353.55130139497476
256,-23.153119553269267,-269.0726961670424,-95.45096141907955,-193.34807393478283,-52.242547619689375,-58.01831830249716,286.90337894786245,342.78675498929096
257,-21.28980198923313,-268.61857037676776,-94.85374181629442,-182.59256003791168,-88.06761947827488,-72.6213652329042,286.019272890106,334.3361832701335
258,-18.866445590018568,-267.68204615435684,-94.23412930908562,-171.15127942611332,-122.48083935047282,-87.8632480200417,284.7388093366908,328.32040071356215
259,-15.949049910276202,-266.32588712557947,-93.59342596204999,-159.40374289705238,-155.3455800016618,-103.59279965504115,283.1178394277796,324.80791873842185
260,-12.610917029572667,-264.62017558632743,-92.9334575898648,-147.70748686010208,-186.5569784733753,-119.64629336701577,281.21842473999845,323.8147236150815
261,-8.930560404678344,-262.6398895462196,-92.25640790502528,-136.38834146618265,-216.0397098203506,-135.85230123296193,279.10664621706997,325.3055161008461
262,-4.989601306362708,-260.4624578470842,-91.56466021906812,-125.73237321503164,-243.74542394219566,-152.03643593720005,276.85040169404624,329.1963061756316
263,-0.8707093200075224,-258.1653691872399,-90.8606528649042,-115.97966411686629,-269.650005096354,-168.02580752606437,274.51726263312224,335.35821441998695
264,3.344361612233841,-255.8239065497021,-90.14675286436294,-107.3200053100891,-293.7507926301904,-183.65305518538668,272.17245581635314,343.6223014129001
265,7.576596053758645,-253.5090719231703,-89.42515041939266,-99.89050499628159,-316.06387542715316,-198.7598456332465,269.87702866580076,353.7852261937053
266,11.751359953535673,-251.28575750207685,-88.69777489867307,-93.77504148574471,-336.621543722194,-213.19976294086723,267.6862479218741,365.6155225633102
267,15.79983196938427,-249.211209074279,-87.96623153750295,-89.0054338976941,-355.46995238852816,-226.84054786532886,265.64827108613105,378.8602765690012
268,19.66019940074991,-247.33381544578947,-87.23175721576301,-85.56415649067478,-372.66702161993317,-239.5656767322252,263.8031187659628,393.251989401695
269,23.27860276082117,-245.6922450142342,-86.49519333237691,-83.38838783084425,-388.28057613553494,-251.27529932910903,262.18196428870993,408.5154170387625
270,26.609820786891795,-244.3149376039502,-85.75697381304967,-82.37516266578487,-402.38670424209573,-261.88658094158563,260.80674520843553,424.3741911432672
271,29.617695248400967,-243.21994701654194,-85.01712650948227,-82.38738170284455,-415.0683042994571,-271.33351442134096,259.6900901024526,440.55704452560724
272,32.27530212152346,-242.41511791552563,-84.27528648706544,-83.26043132269862,-426.4137786838641,-279.5662831672992,258.83554370086944,456.80348813555287
273,34.56488234080359,-241.89857008839698,-83.53071982418594,-84.80916996329863,-436.5158339933245,-286.5502648090709,258.23806422211385,472.8688141113066
274,36.47755118873568,-241.65945422026763,-82.78235653843171,-86.83504861155146,-445.47035026056403,-292.26476857666347,257.88475911869745,488.5283297691044
275,38.012810255628466,-241.67893628989333,-82.02883119781619,-89.13314792455373,-453.3752901907306,-296.7015978729472,257.7558194556619,503.58075946268593
276,39.177889659643725,-241.93136257350838,-81.26852980201363,-91.49893298705383,-460.3296304346167,-299.8635246822299,257.82560886775536,517.8507837622233
277,39.9869508207732,-242.3855540459916,-80.49964171750187,-93.73454811640494,-466.4323088885787,-301.7627548341292,258.0638605113605,531.1907167836823
278,40.46018157298187,-243.0061778438286,-79.72021580532358,-95.65449812606971,-471.7811932224654,-302.41945277582994,258.4369347703442,543.4813508507193
279,40.62281580914029,-243.75514444798574,-78.9282202648872,-97.09058880095706,-476.4720849614835,-301.86038137935697,258.9090916993501,554.6320215545262
280,40.5041091954719,-244.59298214930192,-78.12160598285666,-97.8960278694667,-480.5977798472943,-300.1176970947914,259.4437350535094,564.5799652333798
281,40.13630084936865,-245.4801448069708,-77.29837328332736,-97.9486182134893,-484.2472087442453,-297.22792473624713,260.00458891452325,573.2890551927397
282,39.55358846690042,-246.3782145666844,-76.45664195317869,-97.1530068359646,-487.50468413048293,-293.23112074050886,260.5567731047082,580.7480130788997
283,38.791141526910145,-247.25096782692245,-75.59472423267437,-95.44198534558697,-490.4492753947453,-288.17021994422896,261.0677495883058,586.9681980429642
284,37.88417417170359,-248.06528010196732,-74.71120012006963,-92.77686947821559,-493.1543319608456,-282.09054945104725,261.50811871287766,591.981078884227
285,36.867096301396145,-248.79185325045876,-73.80499401124536,-89.14701546384168,-495.68716696154394,-275.0394844387603,261.8522512402469,595.8354934141678
286,35.77275827987675,-249.40575652085747,-72.8754515264783,-84.5685588318869,-498.1089062301078,-267.06621515322286,262.0787494080096,598.5947951531209
287,34.631801371790246,-249.88678072849794,-71.92241528262257,-79.08248546952787,-500.47449844041694,-258.2215920631217,262.17073744991256,600.3339806553895
288,33.47212268286013,-250.21961232124067,-70.94629820515497,-72.75216429660284,-502.8328730657237,-248.5580171069589,262.11598876338144,601.1368817553283
289,32.318460118615,-250.39384077113513,-69.9481527402842,-65.66048468545235,-505.22722411868955,-238.1293527592954,261.9069029329047,601.0934962413631
290,31.192099780285247,-250.403818348678,-68.92973408423316,-57.906748845070894,-507.69538995219744,-226.99082674126717,261.54035083571824,600.2975183244237
291,30.11070523070594,-250.24839570988075,-67.8935552932123,-49.603469284650906,-510.2702932684621,-215.19891794953043,261.0174098895155,598.844117320437
292,29.08826514862492,-249.93055975097238,-66.84293185399844,-40.87321398675193,-512.980401337799,-202.81121773808516,260.3430140416699,596.8279997700563
293,28.135153085629447,-249.45700179108331,-65.78201304391631,-31.845627219359812,-515.8501645052571,-189.88626907052102,259.5255442972275,594.3417772057369
294,27.25829040179359,-248.8376443295522,-64.7157973567059,-22.654732661506625,-518.9003914078645,-176.4833933438521,258.57638548694456,591.4746492986891
295,26.461401058322927,-248.08515350827105,-63.65012960026624,-13.436598977801559,-522.1485218768611,-162.66252023191004,257.50947375436635,588.3114005399572
296,25.7453449363327,-247.2144621785978,-62.59167804024112,-4.32741797016762,-525.6087631349827,-148.4840394240576,256.3408571016227,584.931698285425
297,25.1085148792876,-246.24232528731207,-61.54789103358868,4.53798587462896,-529.292061418543,-134.00869462807077,255.08828840808616,581.4096711685019
298,24.547281758309463,-245.18692527259046,-60.526933720113234,13.027225980146111,-533.2058892555201,-119.2975397736182,253.770866671362,577.8137396174061
299,24.056471490740986,-244.0675404557889,-59.537606287307796,21.01104326966542,-537.3538379110715,-104.41197514775115,252.40873790129174,574.2066644005782
300,23.62985804259364,-242.90428427342803,-58.58924596958189,28.363676199171607,-541.7350145389357,-89.41387739643542,251.0228623220056,570.6457746177094
301,23.260656909173846,-241.71791790555923,-57.691615318036376,34.96298954555812,-546.34325399604,-74.36583215264665,249.6348495801754,567.1833333191196
302,22.94200425992015,-240.5297337248907,-56.854779521215335,40.69045108311413,-551.1661658277801,-59.3314717746051,248.26685883422633,563.8669970742596
303,22.66740777122485,-239.36150233089114,-56.08897575426832,45.43105029812851,-556.1840473747702,-44.37591361161949,246.9415562278181,560.7403254610243
304,22.431156126363934,-238.23547201106194,-55.404477643077975,49.073253016798795,-561.3687040288222,-29.566286644721195,245.68211857722466,557.8432977018833
305,22.228675240985524,-237.17440642128574,-54.81145787745976,51.5090808780646,-566.6822270931399,-14.972326490447118,244.5122692403916,555.212796541469
306,22.056820586253977,-236.20164409175825,-54.31985172786599,52.63439565681955,-572.0757881390803,-0.6670108046879146,243.45633007961231,552.8830238405901
307,21.914096692397287,-235.34116194405613,-53.93922366426985,52.34945626091216,-577.4885157567043,13.27280067134111,242.53927209283748,550.8858179975127
308,21.80079701113477,-234.6176241924641,-53.67863851355498,50.55980149283984,-582.8465256561857,26.765764486626743,241.78674653384903,549.2508498185276
309,21.719059594616095,-234.05639768135072,-53.54653782685796,47.17749501819051,-588.0621777456896,39.72553972776737,241.2250780766363,548.0056804691687
310,21.67283636940593,-233.68351494819402,-53.550621545086194,42.12275097750304,-593.0336338436205,52.06041651320635,240.88120189435597,547.1756723992875
311,21.667776142420912,-233.52556731677723,-53.69773469741562,35.325939764691846,-597.6447870473877,63.673143951485144,240.7825276391621,546.7837515468083
312,21.711023867157344,-233.60951225217272,-53.99375864009009,26.729953939189823,-601.7656285793329,74.46101495582617,240.95671533344216,546.8500266531565
313,21.810941081036624,-233.9623820223328,-54.44350604891682,16.292894203290388,-605.2531103472654,84.31626238532021,241.4313510440975,547.3912791600264
314,21.97675474743523,-234.6108843760389,-55.05061842774592,3.9910151839075882,-607.9525517204798,93.12681475387137,242.23351385119452,548.4203448866533
315,22.218143906355333,-235.58089050615587,-55.81746442916791,-10.178148920092298,-609.6996272981379,100.7774502327993,243.3892301021041,549.9454163781078
316,22.544775460542695,-236.89681101774298,-56.7450370737085,-26.19257695674458,-610.3229587116522,107.15137510626806,244.92281630755394,551.9693020911399
317,22.965802080443428,-238.58086672157353,-57.832848260392325,-44.002585452443576,-609.6473175119637,112.13223763088624,246.8561181100964,554.4886847888831
318,23.4893366002674,-240.6522673444966,-59.07881999669601,-63.52781104834698,-607.4974275697886,115.60657091736991,249.20765912430087,557.493425806732
319,24.12191835982341,-243.12631725770015,-60.479173615359926,-84.65448438900742,-603.7023338198728,117.46663953811614,251.99171971186615,560.9659633802718
320,24.8679877202248,-246.01347289863497,-62.02832069827636,-107.2331327209988,-598.1002795172175,117.6136446302211,255.2173717051862,564.8808513779317
321,25.729385490340448,-249.3183816013708,-63.718762080689245,-131.07684833926217,-590.5440068231097,115.96122192391584,258.88750054369086,569.2044794237747
322,26.704894277601912,-253.03893581185525,-65.54100376768189,-155.96025700496358,-580.9063664807998,112.43914704123887,262.9978509183289,573.8950070127261
323,27.789838866540094,-257.16537989012596,-67.48350065913247,-181.61931526339382,-569.0860930919798,106.99714319564231,267.53613554012634,578.9025338033374
324,28.975762686570054,-261.67950878461335,-69.53264054064555,-207.75205834456844,-555.0135749113595,99.60866862376362,272.48124893684036,584.1695170351114
325,30.250197232420696,-266.55399877156157,-71.67278160964057,-234.02041039377508,-538.6564231262709,90.27454529265717,277.80262914407734,589.6314361506559
326,31.596540807367813,-271.7519101051331,-73.8863564671213,-260.05315489097103,-520.0246272966954,79.02627747733811,283.45980960733186,595.2176952575938
327,32.994061928130854,-277.2263997226894,-76.15405369393416,-285.4501437003263,-499.1750728774785,65.92889981088611,289.4022013570164,600.8527468336858
328,34.418040816758975,-282.9206790348143,-78.45508478404423,-309.78779670750316,-476.215195040551,51.08319065948264,295.56914146041214,606.4574154496103
329,35.84005927845749,-288.76824726287697,-80.76753950783508,-332.62590927885196,-451.3055513219507,34.62708942206728,301.89023787485627,611.9503981525963
330,37.22844482446676,-294.6934247443467,-83.06882705925793,-353.515741210998,-424.66111427250155,16.736166659282375,308.2860331750417,617.2499179169139
331,38.54886936055733,-300.6122031160914,-85.3361940338374,-372.00930848814716,-396.5511139888125,-2.376985421036962,314.66900033039644,622.2755071404845
332,39.76509649412406,-306.43342031762,-87.54730388573381,-387.6697388128403,-367.2972982328366,-22.4645473112106,320.9448729206188,626.9498980386626
333,40.839864814040745,-312.06025791801443,-89.68085656033233,-400.0824851840512,-337.27052342022813,-43.246520791453165,327.0143000456899,631.2009942006457
334,41.73588755323662,-317.39204642134837,-91.71722201654103,-408.867121520504,-306.8856413529993,-64.41505753443715,332.77480292461814,634.9638908539395
335,42.41694210146893,-322.3263511730331,-93.63905770600167,-413.68937444613454,-276.59470225189636,-85.64004311778517,338.12299613596457,638.1828992885771
336,42.849016389434254,-326.761297654084,-95.43187797248618,-414.2729809445562,-246.8785523616931,-106.57585631465021,342.95702212639566,640.8135130396294
337,43.00147392788786,-330.59808082062665,-97.08454306004202,-410.41090851219667,-218.23696220031056,-126.86916512830854,347.17913367940116,642.8242308321799
338,42.84819589633056,-333.7435894388126,-98.58963741938254,-401.9754389789224,-191.17747763744123,-146.16756256138925,350.69834641829044,644.1981268501111
339,42.36865741688904,-336.11306407655405,-99.94371157531977,-388.92660552823946,-166.20323871681015,-164.12878971738863,353.4330732097265,644.9340373343726
340,41.54889597297701,-337.63269769124867,-101.14736881972959,-371.3184900552681,-143.80005869166655,-180.43024493317597,355.3136455790429,645.0472197687349
341,40.38233269851568,-338.2420816738713,-102.20518692262186,-349.3029387044077,-124.42309641232801,-194.77843894571294,356.28462477441985,644.5693430296736
342,38.87041183333039,-337.89639871769896,-103.12547524568629,-323.13033882183026,-108.48348765138958,-206.9180313369828,356.30680755532586,643.5476887614635
343,37.023029753090476,-336.56826776472286,-103.91987828666049,-293.14721925148694,-96.3353242811442,-216.64007572390807,355.3588395479748,642.0434880991826
344,34.858732128882465,-334.2491559597886,-104.6028468009595,-259.79058278301966,-88.26338378218131,-223.7891121450531,353.43836209673225,640.1293818344851
345,32.404665280649276,-330.95028778216454,-105.19100622419985,-223.57904539475237,-84.47201475933834,-228.2687753338054,350.56263632669663,637.886069717501
346,29.696275135228383,-326.7030013685004,-105.70245824057183,-185.1010288221254,-85.0755762345972,-230.0456364353617,346.76860940279636,635.3982954653407
347,26.776754291860577,-321.5585249293924,-106.15605426050736,-145.0004157399961,-90.09080844439241,-229.15106141082913,342.1124110711096,632.7503859330775
348,23.696244828654724,-315.5871702743202,-106.57067886135144,-103.96021509499924,-99.43147942520127,-225.68094867434493,336.668291737552,630.0216143459171
349,20.510811955907815,-308.87696416530673,-106.96457705233257,-62.68488575927044,-112.90560374148146,-219.79329688378985,330.5270351223718,627.2816809095183
350,17.281211430722866,-301.53176032127885,-107.35475236612244,-21.882021317224737,-130.21546694910268,-211.70364585433646,323.79389798016007,624.5865982126819
351,14.071481473071337,-293.66889454328026,-107.75645451625327,17.755894680447703,-150.96061256036322,-201.67852385191975,316.5861459267776,621.9752388921437
352,10.947397299307578,-285.41646190446573,-108.18276699396515,55.56899125612326,-174.64385929766178,-190.02711830192007,309.03026762201955,619.466758231337
353,7.9748327862779,-276.9103075610298,-108.64429755710049,90.94617191125471,-200.68031811442196,-177.0914603993608,301.2589589892686,617.0590535106854
354,5.218078587451229,-268.2908309155922,-109.14896878569667,123.33943610753144,-228.40927416226322,-163.23547422490822,293.40797447220865,614.7283701947783
355,2.738168593533927,-259.69970627013333,-109.70190205980953,152.27597406975022,-257.10869213850754,-148.83328549613563,285.6129434075338,612.4301133947558
356,0.591266494366618,-251.27662176601524,-110.30538640084622,177.36776770417222,-286.01199803773915,-134.2572126073337,278.00624661571715,610.1008696829074
357,-1.172838667580327,-243.15613278139534,-110.95892329576112,198.3185470588423,-314.3266905719425,-119.8658726276281,270.71404182854104,607.6615868418128
358,-2.5120841577991064,-235.46471684167335,-111.65933941354484,214.92805973838915,-341.25424645575293,-105.99282772777256,263.85351735757365,605.0217964392225
359,-3.393295126429786,-228.3181053799908,-112.40096037400457,227.09370549985954,-366.01071089434816,-92.9361740360799,257.5304421518947,602.084697931973
360,-3.793125883714544,-221.8189541795308,-113.17583970949593,234.80966695296325,-387.8473133210764,-80.94943668186659,251.83706758816777,598.7528582650027
361,-3.6987577744325244,-216.05489988315134,-113.97403734830489,238.16372845584465,-406.0704231686332,-70.23408372817376,246.85042251768218,594.9342251352533
362,-3.1083374520422717,-211.09703549583065,-114.78394126230118,237.33201908570297,-420.0601641981611,-60.93391010914663,242.6310290374989,590.5481135000626
363,-2.031145923071068,-206.9988241143211,-115.59262469250801,232.57194352520114,-429.2870398249876,-53.13147302384646,239.22205298147009,585.5308103953122
364,-0.4874949059941147,-203.79545758200325,-116.38623010361599,224.21357935366112,-433.3259852002517,-46.84668498822556,236.64889079613067,579.8404564781481
365,1.4916471003565717,-201.5036554588213,-117.15037008938009,212.64982354887744,-431.8673518413781,-42.03759240549801,234.9191834913575,573.4609039841225
366,3.8652908742918677,-200.1218896444509,-117.8705348999316,198.32556812153257,-424.724442939794,-38.60328864500521,234.02323876213865,566.4043166696604
367,6.583310585770262,-199.63101123365624,-118.5324959738405,181.72617774759422,-411.83734641651523,-36.388833898862465,233.93483412028914,558.7123619803729
368,9.587555830830443,-199.9952486831801,-119.12269480872085,163.36553359162835,-393.2729519203235,-35.19198223291825,234.61236688362143,550.4559417834154
369,12.813165347949202,-201.16354007688943,-119.62860673781267,143.7738988908701,-369.2211806255286,-34.77145188252045,236.00031108183092,541.7335074140492
370,16.190050301230414,-203.07115715568818,-120.03906965094549,123.4858538530718,-339.98759643117694,-34.85642040128191,238.03093665984915,532.6680992718914
371,19.64450970925294,-205.64157473841388,-120.34456829874891,103.02853956777724,-305.9826980496792,-35.15688399367884,240.62624262591194,523.4033329433955
372,23.100936142156943,-208.7885360685184,-120.53746553436542,82.91044183195942,-267.7083083238935,-35.37449220952122,243.70005287482354,514.0986159381979
373,26.483566366002723,-212.41826240467216,-120.61217282771622,63.61093470307343,-225.7415756570402,-35.213456573034065,247.16022135532324,504.9239161034705
374,29.718229472833396,-216.43175379580543,-120.56525386026867,45.570789060283914,-180.71717932936048,-34.39113527445888,250.91089219567547,496.05441091682127
375,32.7340447235946,-220.72712743338772,-120.39545708717195,29.183832761177417,-133.30838322361436,-32.64791551597907,254.85476050309674,487.6653248086301
376,35.465023247308615,-225.20194034178587,-120.10367573157104,14.789925772704656,-84.20760943081223,-29.756049505811195,258.89528092355374,479.92721138577235
377,37.85153173572677,-229.75544454516282,-119.69283651548263,2.6693856358808,-34.107203567042234,-25.52714790466132,262.9387736875694,473.0018652900964
378,39.84158171377944,-234.29072514752232,-119.16772132467058,-6.961034563033669,16.318962423062445,-19.81809374197241,266.89638156203006,467.03896532406
379,41.39191417954193,-238.71667480158854,-118.53472882625931,-13.950551976820032,66.43245541748996,-12.535207969669214,270.685835602599,462.17346968524845
380,42.468856028563295,-242.94976187026953,-117.80158569361278,-18.215122789941823,115.64529359878806,-3.6365719928313025,274.2329928135713,458.5237173813051
381,43.04893159623528,-246.91555449276836,-116.97701936078711,-19.736599169446258,163.4325785918336,6.86751058586209,277.47311493776834,456.1901439661316
382,43.11921973193844,-250.54996891669455,-116.07040591940003,-18.560345914340946,209.34242672611254,18.91585472399938,280.35186464477977,455.2544958088462
383,42.67745377612038,-253.80021765361454,-115.09140776524143,-14.791432433824367,253.00299473549325,32.39940744602875,282.82600308758896,455.77942220463814
384,41.731868357160565,-256.62544089638175,-114.0496159141887,-8.589554710374223,294.12651410537194,47.165741100874435,284.8637807893328,457.80833384614317
385,40.30080293893129,-258.99701292972014,-112.9542116374295,-0.16287355114583354,332.5103648387706,63.024781643791016,286.4450218806613,461.36543437456777
386,38.41207756593465,-260.8985238236718,-111.81366132197739,10.2390217089894,368.03532886235934,79.75548971249772,287.5609097497713,466.4558546749281
387,36.10216127581797,-262.325445398025,-110.63545727717839,22.33280102489849,400.66126171315165,97.11319091055557,288.2134900921983,473.0658443744574
388,33.41515806474428,-263.284499126788,-109.42591552862201,35.80950424233917,430.42050543840566,114.83724731708534,288.41491497121825,481.1629999173061
389,30.401639012496933,-263.79275215037205,-108.19003939679715,50.342846913619965,457.409433204605,132.65877415795217,288.1864586284134,490.69653233541464
390,27.11735225573455,-263.8764756679206,-106.93145480893585,65.59750076789749,481.7785646190238,150.30813149136,287.5573422178618,501.597598882664
391,23.621844976113255,-263.56980727608914,-105.65241983278366,81.23714060684705,503.7217184321022,167.5219570412835,286.56341000060644,513.7797392410849
392,19.977033319784514,-262.9132646796967,-104.35390693641125,96.93206671776281,523.4646754801383,184.04954884779752,285.2457032691056,527.1394675586109
393,16.245757040743246,-261.95216212368155,-103.03575226755711,112.36623356472771,541.2538103102784,199.6584515281047,283.64897999889274,541.5570754818586
394,12.49035564254847,-260.734982788564,-101.69686230120575,127.24354050496382,557.3451170062247,214.13914487924782,281.82022803655815,556.8976987612274
395,8.771301899418447,-259.3117603993278,-100.33546496460275,141.2932675379778,571.9940061602293,227.30877637838876,279.8072178467888,573.012691613388
396,5.145926818545773,-257.7325214781892,-98.94939002850921,154.27456785312012,585.446189049987,239.01391851869107,277.65713762440873,589.7413398308039
397,1.6672672742231214,-256.04583598561754,-97.5363622364875,165.9799586104746,597.9298955807221,249.13236688741188,275.4153489738384,606.9129268282344
398,-1.616936337773939,-254.29751864298441,-96.09429039438321,176.2377813849962,609.6495983210416,257.5740247428867,273.12429554430486,624.3491476957552
399,-4.665069935822566,-252.5295163318999,-94.62153643617388,184.9136333508506,620.7813397619597,264.28094411089967,270.82259032565327,641.8668461431404
400,-7.442286210106924,-250.77900901453847,-93.11715014976035,191.91079877108302,631.469687198309,269.22661179674355,268.5443000993822,659.2810291111614
401,-9.920944923493778,-249.07774298579963,-91.58105756755855,197.16973673704268,641.8262723964914,272.4145810293699,266.3184380821596,676.4080948323249
402,-12.080848589518968,-247.45160628867552,-90.01419386697025,200.66670443796858,651.9298140402126,273.87655577743834,264.1686683613834,693.0691933130827
403,-13.909275461721426,-245.9204470949079,-88.41857492709822,202.4116148220373,661.8274718256224,273.6700355057753,262.11321855375513,709.0936247100868
404,-15.400818080721923,-244.49812701072022,-86.79730532219476,202.44524291842708,671.5373432879127,271.8756240919887,260.1649903645205,724.3221719544318
405,-16.557041470473774,-243.1927928135645,-85.15452422679368,200.83590611198633,681.0518885543423,268.59409907701297,258.33185141409444,738.6102601311851
406,-17.385980012486776,-242.00734232579578,-83.49529415260008,197.67575008818113,690.3420542055247,263.94332796433633,256.6170858939906,751.8308371341485
407,-17.90149589316867,-240.94005339150593,-81.8254403887975,193.0767737071718,699.3618646827658,258.0551082680267,255.01997656823664,763.8768780119412
408,-18.122524984703244,-239.98533969614098,-80.15135128017063,187.16672267955596,708.0532569672732,251.07199805371368,253.53648670900017,774.6634284832759
409,-18.072238271312223,-239.13459376170107,-78.47975090307841,180.0849742303127,716.3509498130567,243.14419374924228,252.16000800351713,784.129120074062
410,-17.77714843839523,-238.37707596113103,-76.81745626579655,171.9785241100695,724.1871606460207,234.42650180930934,250.8821393922088,792.2371088309001
411,-17.266191842864615,-237.70080880000697,-75.17113100040194,162.9981744483562,731.4960093752202,225.07544050263056,249.69346222635448,798.975410294851
412,-16.569815689660757,-237.09343793225437,-73.54704678421281,153.2950067538819,738.2174769806543,215.24649819319487,248.58427906194325,804.3566242364273
413,-15.719098885218678,-236.54302526210495,-71.9508624759552,143.01720920971798,744.3008163049151,205.09156590039242,247.5452867377028,808.4170626829092
414,-14.744932785449155,-236.0387448005072,-70.38742924397248,132.30731142100586,749.7073417805141,194.75655562175126,246.5681589380741,811.2153134255362
415,-13.677284929902378,-235.571458355604,-68.86062809237629,121.29986305189738,754.4125529295885,184.37921254666665,245.64601899016984,812.8302880375911
416,-12.544564908628674,-235.13415523194485,-67.37324451587448,110.119575641177,758.4075726406136,174.08712896410358,244.77378990136157,813.3588180860319
417,-11.373106874176477,-234.72224749020074,-65.92688365294272,98.8799299078059,761.6999049533591,163.99596992429701,243.9484152688993,812.9128754089205
418,-10.186778046884944,-234.33371964383926,-64.52192814796507,87.68223483977265,764.3135380384733,154.20792471965862,243.16895134361542,811.6165018614283
419,-9.006717054536368,-233.9691386309296,-63.15753984775087,76.61511059496131,766.2884359320832,144.8104028868781,242.4365368781696,809.6025405395379
420,-7.85120038481055,-233.63153617375102,-61.83170538639935,65.75435529951822,767.6794770720342,135.87499750276896,241.7542531064538,807.0092638562902
421,-6.735629950151633,-233.32618090214535,-60.54132467220747,55.163146430065055,768.5549086082466,127.45674107046598,241.12689096991036,803.9769937944185
422,-5.672630044113761,-233.06026156296915,-59.28234037055648,44.89252055877705,768.9943928541499,119.5936796742567,240.56064624896769,800.6448062654885
423,-4.672238062274477,-232.84250505598166,-58.04990574504542,34.98207066265542,769.0867263149564,112.30678906752863,240.06276538165034,797.1474050668071
424,-3.742170583555792,-232.68275392094284,-56.83858764819399,25.460797833070504,768.9273128368028,105.60025192829328,239.64116544302715,793.6122419254683
425,-2.8881449645644954,-232.59152745214504,-55.642600951800596,16.348054077792955,768.6154710543994,99.46210881906048,239.30405118857723,790.1569481642582
426,-2.114236368479116,-232.5795891375619,-54.456070159471295,7.654515038022595,768.2516529923115,93.86528673923588,239.05955049272978,786.8871312527301
427,-1.4232507639263834,-232.65754091845696,-53.2733132518322,-0.6168742166601556,767.934645886766,88.76899905438076,238.91538720912496,783.8945765052272
428,-0.8170955901566151,-232.8354620874212,-52.08914198392012,-8.47003075821651,767.7588234802417,84.12049965834309,238.87860767487584,781.2558809647326
429,-0.2971314484181876,-233.12260763323098,-50.89917200799445,-15.914984772812515,767.8115065632023,79.85716313279833,238.95537394515296,779.0315334774831
430,0.1355095868192506,-233.52717753310012,-49.700135447638544,-22.96728142505624,768.1704856842655,75.90885200861631,239.15083343592613,777.2654424333651
431,0.4796507245989649,-234.05616484285935,-48.49018789302537,-29.64755230102807,768.9017519575749,72.20052250056743,239.46907092212794,775.984900860612
432,0.7338510441939263,-234.7152864265711,-47.26920116249197,-35.981260231643176,770.0574749431966,68.65501170195941,239.91314474469195,775.2009676807024
433,0.8962458307777691,-235.50899589666486,-46.03903262360612,-41.99860489344756,771.6742597982964,65.1959425557943,240.48520471631548,774.9092340542405
434,0.9644500002681028,-236.4405739970279,-44.80376158341545,-47.73455962366276,773.7717094667503,61.75067823712361,241.18668480821336,775.0909350211299
435,0.9355257167018302,-237.51228745989116,-43.56988350064749,-53.22899366686747,776.3513118652876,58.25325497149693,242.01855950430908,775.7143593096425
436,0.8060133989507599,-238.72560344558173,-42.346453679636234,-58.52682006916509,779.3956671551052,54.64722163855353,242.98164889713576,776.7365045872035
437,0.5720236823363201,-240.08144313507105,-41.14517354537401,-63.678099027889495,782.868066517123,50.88831553816045,244.07695424936887,778.104921870098
438,0.2293865480637332,-241.58045506971052,-39.980414219093916,-68.73802065313473,786.7124315084889,46.94690628740911,245.30600296663698,779.7596915525332
439,-0.22614719501389538,-243.22328668750805,-38.8691735682761,-73.76669019250609,790.8536220519477,42.81014391127279,246.67117991893008,781.6354746930366
440,-0.7986576756674566,-245.01083137457672,-37.83096405654622,-78.82864269476629,795.1981211758956,38.48375259454919,248.17602097099535,783.6635867160007
441,-1.4917673161751845,-246.94442825250545,-36.887629649510494,-83.99202242085877,799.6351052505163,33.99341775301952,249.82544448193553,785.7740460955591
442,-2.3083189110841134,-249.02599283432457,-36.06309086870848,-89.32737457547063,804.0379088383564,29.38572026635045,251.62589742645545,787.8975571124118
443,-3.250028292943358,-251.25805864192148,-35.38301782853686,-94.90601277838998,808.2658925256809,24.728577207211476,253.58539472909612,789.9673925900738
444,-4.317120077222264,-253.64371293748567,-34.874431679437,-100.79794490398118,812.1667194855922,20.111153031816087,255.71343344178803,791.9211489720234
445,-5.5079556198005095,-256.18641388447276,-34.56523543581612,-107.0693622381298,815.5790413862845,15.643209415054702,258.0207675652063,793.7023516333364
446,-6.818663100770055,-258.88968168577685,-34.48367606021733,-113.77972190788896,818.3355859742937,11.453866548173696,260.51903464595165,795.2618923636542
447,-8.24278060070549,-261.7566624531178,-34.65774128102403,-120.9784796588363,820.2666268647926,7.689754688895778,263.22023174473867,796.5592831354113
448,-9.770924106137624,-264.7895705207151,-35.11449703791797,-128.70155865711502,821.2038009472896,4.512542883716886,266.1360457683411,797.5637106837621
449,-11.390493417942531,-267.9890223260863,-35.87937442847529,-136.96766928924805,820.9842211876461,2.0958426848587504,269.2770511560864,798.254875692197
450,-13.085429751294347,-271.35328257634666,-36.97541813912047,-145.77462371204132,819.4548137705858,0.6214987327664675,272.65179618088195,798.6235994126488
451,-14.836039306740398,-274.8774509440784,-38.42251131157279,-155.09581533981026,816.4767900262474,0.27529538149595073,276.2658073682336,798.6721802971937
452,-16.618897225264874,-278.5526245937252,-40.236594698529906,-164.8770551979158,811.9301470080107,1.2421288862219944,280.1205493681619,798.4144844938019
453,-18.40684603271232,-282.3650778608269,-42.428900959683226,-175.03397162875018,805.7180773300836,3.700717415410869,284.2123844910637,797.875757422932
454,-20.169101778494873,-286.29550484267406,-45.00522793826241,-185.45018504485054,797.7711598986914,7.817945293765984,288.5315814689082,797.0921493195452
455,-21.8714794354121,-290.3183731511209,-47.96527745529477,-195.97646379031096,788.0511988908984,13.742962199008907,293.06142641635904,796.1099554139447
456,-23.476746692337237,-294.40143741670613,-51.302088363832915,-206.43104998648676,776.5545785950369,21.60118119602377,297.77749019222887,794.9845807383382
457,-24.945112116909943,-298.5054591284335,-55.001594163356316,-216.60131550250486,763.3150059146712,31.48834015964172,302.6471051774607,793.7792494209548
458,-26.234850000872076,-302.58417490038306,-59.04233601630294,-226.24686844831362,748.4055196270417,43.46480808326001,307.62910067889374,792.5634876107073
459,-27.30306030020123,-306.5845483086785,-63.395360879926216,-235.10418069753715,731.9396551073764,57.55032996760974,312.67383965749036,791.4114167401189
460,-28.10655822171807,-310.44733129390005,-68.02433097024787,-242.8927478381765,714.0716646485271,73.71941063848203,317.7235903978985,790.3998987453384
461,-28.60288442953556,-314.10795015957683,-72.88586449428216,-249.32272545688065,694.9957065285868,91.89753835298264,322.71325539171096,789.6065764706715
462,-28.751423653109633,-317.49771879692395,-77.93011855364907,-254.1039106468259,674.9439308329794,111.95844292705672,327.5714664606931,789.1078505233976
463,-28.51461648353361,-320.5453681762213,-83.10161381836707,-256.9558564899454,654.1834073727318,133.72256990748696,332.22204026327427,788.9768284656118
464,-27.859245862683057,-323.17886645529325,-88.34028782142074,-257.6188226623037,633.0118618814156,156.95693163229868,336.585771937333,789.2812740152907
465,-26.757775643247992,-325.3274883872749,-93.5827505277682,-255.86518169452444,611.7522123819933,181.3764675989961,340.58252692661654,790.0815739835674
466,-25.189713192739696,-326.92407651654605,-98.76370320233552,-251.5108240892367,590.7459297870275,206.64701028067566,344.1335725902557,791.4287307793245
467,-23.142961077376683,-327.90742083968854,-103.817470584659,-244.42604417386437,570.3452868425001,232.38990844955094,347.1640731116622,793.3623808852667
468,-20.615114416913592,-328.22466939875846,-108.67958813102112,-234.5453504557139,550.90460792947,258.18830837535774,349.60565503282544,795.9088374126159
469,-17.614651061780524,-327.83367100824506,-113.28838178496453,-221.87563677076068,532.7706878360297,283.5950343996455,351.3989381580192,799.0791599549541
470,-14.161952396045615,-326.7051443177352,-117.58647817853834,-206.50217919875502,516.2726072936475,308.1419453063186,352.49591921725124,802.8672688527308
471,-10.290084806297829,-324.8245658097099,-121.52218831163046,-188.5919914073496,501.7112321012375,331.3505733547691,352.8620947333756,807.2481437428039
472,-6.045267361978906,-322.1936738543556,-125.05071660785605,-168.394176947076,489.3487356239286,352.74378154402376,352.47821546799656,812.1761762329471
473,-1.4869518373381725,-318.8314968057324,-128.13515814207,-146.23705516872772,479.3985263839687,371.8581056225949,351.341577402946,817.5837795866263
474,3.3125513491633694,-314.77483002741235,-130.74725802967308,-122.52199682196722,472.01598936150657,388.25638592693673,349.46677275185374,823.3803877617153
475,8.268952312240529,-310.0781088924531,-132.86791722661687,-97.71407204573404,467.290458153559,401.5402466053226,346.88584800137113,829.4519942586564
476,13.287394225147997,-304.81265095782857,-134.48743790549557,-72.32977399443837,465.2388221968059,411.3619521088289,343.64784313871246,835.6613818240774
477,18.26439949678721,-299.0652690123884,-135.60550943803642,-46.92222550464915,465.8011363346866,417.43516711007334,339.81771530710523,841.8491748210719
478,23.09031991004132,-292.9362856756793,-136.23094333487487,-22.064397416890216,468.8385383339026,419.5441675716888,335.4746791352089,847.8358090849133
479,27.6522316359791,-286.53700792450275,-136.38117253529225,1.669038259572046,474.13369554511803,417.55109622824284,330.7100229728689,853.4244645238897
480,31.837189118746377,-279.9867449387981,-136.08153714360046,23.720530983098495,481.3938996041841,411.40092232034436,325.6244836933486,858.4049499942498
481,35.53572864572431,-273.4094739505972,-135.36438487793174,43.5684234902958,490.2568145627086,401.1238495053902,320.3252815317868,862.5584740703808
482,38.64549384158254,-266.9302755368054,-134.2680198677598,60.744937469406885,500.29876625182146,386.8350138657577,314.92292990312535,865.6631838834675
483,41.07484199135351,-260.67167127096894,-132.8355376017814,74.8526571371197,511.0453455602187,368.7314220317868,309.5279427147646,867.5003101401638
484,42.746282622727946,-254.75000211900348,-131.1135862864809,85.5788417809679,521.983991220326,347.08619333668474,304.24756293821133,867.8607211904862
485,43.59959883658197,-249.2719848898463,-129.15109525594198,92.70697266492685,532.5781234506844,322.2402848119576,299.18263110663844,866.5516631547887
486,43.59450806193287,-244.33157631425803,-126.99800934267238,96.12504028401335,542.2823228581792,294.5919885389665,294.4247016246196,863.4034469293408
487,42.712732513503894,-240.007260366719,-124.70406466909627,95.830202278049,550.557993707322,264.5845920508046,290.05349972086213,858.275836637672
488,40.95937049326119,-236.35985526031936,-122.31763686309938,91.92958598513674,556.8889209614053,232.69267887501962,286.1347944520588,851.0638979609625
489,38.363487169337716,-233.43091351431815,-119.88468794849513,84.63716630228099,560.7961291523495,199.40761299518107,282.7187452535817,841.7030785191467
490,34.97787638884004,-231.24176316454069,-117.44783354206807,74.26681122161642,561.851478924167,165.22279356935206,279.83876241097533,830.1733150524283
491,30.877981625496098,-229.79321208395945,-115.04554770665153,61.22174519264059,559.6894925399868,130.6192811039106,277.5109059636253,816.5019918661656
492,26.160002087370568,-229.0659118729023,-112.71151894734781,45.9808256720781,554.0169793568868,96.05238128138396,275.73383274992244,800.7656102094651
493,20.938246929044382,-229.0213540004473,-110.47416721704286,29.08215370146214,544.6201316532585,61.93972752357037,274.48928693175856,783.0900681198783
494,15.341834181294923,-229.6034497120663,-108.35632800132572,11.104640038429498,531.3688749857919,28.651329960480226,273.743114685294,763.6494947319732
495,9.51085962432849,-230.74062722058383,-106.37510536448815,-7.351778765665074,514.2183797515152,-3.4980394079918726,273.44676847574226,742.6636320419734
496,3.5921831511188764,-232.34836503171462,-104.54189146330724,-25.686536160113484,493.2077656992643,-34.25387239579606,273.53925065560867,720.3938095835364
497,-2.2650046344137786,-234.33206884186046,-102.86254574708005,-43.318689960106084,468.4561523633993,-63.42423719720291,273.9494306489193,697.1376108888876
498,-7.9136653758907824,-236.59019124694967,-101.33772286067243,-59.70629376604093,440.1563194443048,-90.87938760656066,274.59865560571166,673.2223812211831
499,-13.213275944598092,-239.01748858633735,-99.96333402333406,-74.36418037156061,408.5663361623568,-116.54880957006311,275.4035622579502,648.997769547958
500,-18.033910774506264,-241.50830761087204,-98.73112243376434,-86.87951148309254,373.99959248799496,-140.41596671635196,276.27898893187165,624.8275302760925
501,-22.259899464618893,-243.95979615538894,-97.62932935302037,-96.92452952707723,336.813713995448,-162.51111135033324,277.1408821793062,601.0808298927517
502,-25.792938690905753,-246.2749364713593,-96.64342424255194,-104.26605047075425,297.398863624201,-182.90261100175445,277.909092796229,578.1233111848235
503,-28.55456536764065,-248.3653073452227,-95.75686988444203,-108.77136077417089,256.1659275355084,-201.68729889695513,278.50996121504267,556.3081668330093
504,-30.48792850698909,-250.15349167159528,-94.95189211524836,-110.41032493953824,213.535050135482,-218.98038660952378,278.87860216919194,535.9674702170072
505,-31.558828186695873,-251.57505972480328,-94.21022420286413,-109.25366866177112,169.92492847231384,-234.90547694771982,278.96081264538867,517.4040090017118
506,-31.75601962708057,-252.58007463959896,-93.51379835087023,-105.46756969009489,125.74320317951754,-249.5851849018528,278.7145446629607,500.88386837920035
507,-31.090807252042204,-253.13408482587832,-92.84536117958096,-99.30485471367601,81.37819746837268,-263.13281621193164,278.11090417027003,486.6300130409453
508,-29.595976878782192,-253.21858714457395,-92.1889957160573,-91.0932539492996,37.19216348248903,-275.64547078511646,277.1346578882342,474.8171126204071
509,-27.32413345740047,-252.8309636620458,-91.53053858154696,-81.22129256669514,-6.483897172502646,-287.19883753763867,275.784249955491,465.56783419750474
510,-24.34552711438969,-251.98391299929096,-90.85788680835527,-70.12248774178853,-49.353858933047476,-297.8438355516478,274.0713488456244,458.9507787142039
511,-20.74546179543957,-250.70441415028412,-90.1611935066725,-58.25856395738585,-91.15864062662918,-307.6051420897902,272.01996161878395,454.98016421813753
512,-16.621388523956938,-249.03227543830567,-89.43295549789246,-46.10239526129122,-131.67707565109674,-316.4815392995448,269.665166539307,453.61726644430433
513,-12.07978912671648,-247.0183332757273,-88.66799941128497,-34.12133660194121,-170.7256875795983,-324.4479150959788,267.0515259323011,454.77353199958236
514,-7.232956392092704,-244.72237423962096,-87.86337578814143,-22.76152780642845,-208.15759990916044,-331.45867418820654,264.2312487061321,458.31519573367797
515,-2.1957733829452404,-242.21085970726418,-87.01817338776695,-12.43365642596809,-243.86081418622592,-337.45225515156113,261.2621764051392,464.0691690206798
516,2.917411624483253,-239.5545350338783,-86.13326813335796,-3.500561823661616,-277.75607833513845,-342.3564102889861,258.20566826721836,471.8299200927527
517,7.995727101234276,-236.8260050943022,-85.21102309333851,3.7330381737674685,-309.7945396013903,-346.093887157227,255.12445984999982,481.36703883353374
518,12.934461078932925,-234.09735511929554,-84.25495758226256,9.028509285525598,-339.9553378360452,-348.58815349031823,252.08056666970512,492.4331644359743
519,17.63742207067949,-231.43789045384298,-83.26940461400078,12.218844364600507,-368.2432492849553,-349.7688295939752,249.13329925804007,504.7719542163993
520,22.01892974727335,-228.91206158574045,-82.25917608024814,13.211752597747692,-394.6864433383992,-349.5765322805063,246.33744933736418,518.1257855438736
521,26.005401695617326,-226.57763198475817,-81.22925375503057,11.990320767615291,-419.33436948026144,-347.96688948382916,243.74169866818258,532.2429100092156
522,29.536516913653315,-224.48413632041763,-80.18452140904888,8.611329065240119,-442.255753123799,-344.9135512684187,241.3872927541109,546.8838184750244
523,32.56595027865091,-222.67166580708786,-79.12954917925353,3.2013554442646006,-463.5366503545511,-340.41009622109567,239.30701129615073,561.8266249987075
524,35.061684913324896,-221.17000609941158,-78.06843640632428,-4.049149483931298,-483.2784945300627,-334.4708063128774,237.524456509146,576.8713328780211
525,37.00592115351635,-219.99814164557193,-77.00471405137733,-12.893590076724047,-501.5960623059679,-327.13035236143025,236.05366960280918,591.8429028281073
526,38.39461159640634,-219.164128940095,-75.94130306291831,-23.03848712047074,-518.6152918831887,-318.4424917820303,234.89907520302867,606.5930979699112
527,39.236661189194024,-218.66532993674994,-74.88052112845187,-34.15396682074485,-534.4709002470253,-308.4779279990049,234.05574347399187,621.0011305288419
528,39.55283919580128,-218.48898628616544,-73.8241275077604,-45.88513945117726,-549.3037664606617,-297.32151584441783,233.5099504697745,634.9731792792695
529,39.37445599552328,-218.6131053836889,-72.7733943183601,-57.86400673216465,-563.2580719685968,-285.0690194166322,233.24000908868564,648.4408835633747
530,38.74186186062068,-219.0076207469449,-71.72919264571367,-69.72152471323179,-576.4782138386319,-271.8236385625693,233.21733611179422,661.3589484513847
531,37.70282681455196,-219.635782217266,-70.69208292453072,-81.09944882424338,-589.105530920071,-257.692518132057,233.40771523272628,673.70201637402
532,36.31086014298256,-220.4557260533273,-69.66240089884978,-91.6616002850559,-601.2749045591585,-242.78344153211995,233.77271174194544,685.460974115247
533,34.62352520758787,-221.42217122386435,-68.64033282856553,-101.10421785979068,-613.1113137511254,-227.20188824148553,234.27119161985695,696.6388715309469
534,32.70080027241217,-222.488186042281,-67.62597621313887,-109.16509505891169,-624.7264387161636,-211.04860538404117,234.86089616800697,707.246630936348
535,30.603529539519048,-223.60696861988365,-66.6193849643023,-115.63124885372312,-636.2154164423498,-194.41780795829084,235.50002291524973,717.2987247869002
536,28.39200090714771,-224.73358550053342,-65.62060046543148,-120.3449197773807,-647.6538564973455,-177.39608282930007,236.14876444670784,726.8089946768225
537,26.124678498132994,-225.82661544094674,-64.62967200426922,-123.20776252735753,-659.0952251777481,-160.06203016832995,236.77075914831156,735.78677687302
538,23.857109227051915,-226.84964963165208,-63.64667143713496,-124.1831482399295,-670.5687006855284,-142.48663469418855,237.33441164025967,744.2334882037721
539,21.64101411838558,-227.77260548561415,-62.67170767197943,-123.29656190227071,-682.0775914777546,-124.73431971199898,237.81404572776486,752.1398105452187
540,19.523567225494183,-228.57281811787067,-61.70494681980608,-120.63413853333867,-693.5983944297984,-106.86460127588698,238.19085879326448,759.4835918754914
541,17.546858155226488,-229.2358814459531,-60.74664372528604,-116.33943770667548,-705.0805494506151,-88.93422934813717,238.45365339828408,766.228556650532
542,15.747528572792742,-229.7562190943011,-59.797189991853855,-110.6086058909418,-716.4469234765303,-70.99967884182617,238.59932910823522,772.3238882834336
543,14.15656873438869,-230.13737366802584,-58.85718255230275,-103.68411839504607,-727.5950304742973,-53.119836797735225,238.63312489715958,777.7047124979307
544,12.799257044520132,-230.3920112401677,-57.92751536159421,-95.84732615841494,-738.3989666530707,-35.35872314332622,238.5686097242044,782.2934735682427
545,11.69522372761674,-230.54164586872398,-57.00949496136283,-87.41005636153818,-748.7120132104833,-17.78808163917082,238.42742581230027,786.0021577895377
546,10.858618727424785,-230.61609639592,-56.104978592409765,-78.70552956172588,-758.3698343659687,-0.48968452221450176,238.23879559202632,788.7352821359104
547,10.298363673375748,-230.65269445332385,-55.2165314250283,-70.07886015011469,-767.194177705601,16.44279156737579,238.03880900847528,790.3935331553765
548,10.01846803436886,-230.69526830544208,-54.347597536359636,-61.877402283288525,-774.9969681374486,32.90244043370304,237.86951276614582,790.8779136148435
549,10.018390419469922,-230.79293176829117,-53.50267756401696,-54.44119128851862,-781.5846767488019,48.76844849654369,237.7778269810339,790.0942336272758
550,10.293427452376436,-230.99871090623492,-52.68750452560763,-48.093712234698785,-786.7628418010559,63.906131469665915,237.81431759588247,787.9577697408208
551,10.835114695776866,-231.3680436270287,-51.90920814788013,-43.13320434912907,-790.3406207470172,78.16772094966444,238.03185488167728,784.3979098866187
552,11.63162649359738,-231.95718877798205,-51.176457205464736,-39.82468378737394,-792.135258843539,91.39390366264412,238.48418949520854,779.3626037642914
553,12.6681640471998,-232.82158200864964,-50.49956883277206,-38.39283943711296,-791.9763707062966,103.41608408787623,239.22447798197646,772.8224464144357
554,13.927323395051008,-234.0141756748542,-49.89057363633396,-39.015928146021196,-789.7099449489448,114.05931112230493,240.30378948116072,764.7742364535708
555,15.389437203030436,-235.58379958429322,-49.36322583143382,-41.82076770204631,-785.2019978467632,123.14578248637362,241.76962490051835,755.2438688232331
556,17.032886390739748,-237.57357844158406,-48.9329485694121,-46.878898350948546,-778.3418188634531,130.49881762644074,243.6644790064164,744.2884441293418
557,18.83437959912108,-240.01944034494107,-48.61670600643445,-54.20395675098643,-769.0447681149917,135.9471717395229,246.02447460538173,731.9975020303168
558,20.769200319281243,-242.9487486487059,-48.43279544247438,-63.75028026335364,-757.2546027650098,139.32955090444506,248.8780963011223,718.4933140512686
559,22.811423090644496,-246.37908712691325,-48.400555078886896,-75.41273476197145,-742.9453253013137,140.49918165044093,252.24504939230255,703.9302009788526
560,24.934101456003955,-250.31722576670322,-48.539985643627425,-89.0277363134276,-726.1225608874834,139.32828786732057,256.13526745094737,688.4928707797113
561,27.109431285948546,-254.75829162254527,-48.87128736417026,-104.3754169834638,-706.8244827201011,135.71233359277548,260.5480899437547,672.3938037871228
562,29.308893673436575,-259.68516590185726,-49.41431764558286,-121.18286878976923,-685.1223128041569,129.57390125781032,265.4716288990827,655.8697416610746
563,31.50338195071616,-265.0681248878085,-50.18797936447016,-139.1283885725241,-661.1204301401707,120.8660904071575,270.8823411629419,639.1773643085414
564,33.66331770528435,-270.8647385609391,-51.20955469195932,-157.84664106314523,-634.9561184889793,109.57534053128613,276.74482032322436,622.5882636015413
565,35.75876121891717,-277.0200369200605,-52.49400443371253,-176.93465784213714,-606.7989814000265,95.72360223307045,283.01181991539903,606.3833435988697
566,37.75952265789519,-283.4669499921051,-54.053257698387064,-195.9585955451956,-576.8500433080374,79.36980234548541,289.62451696986295,590.8467936473759
567,39.63528157747963,-290.12702334613266,-55.895521007737145,-214.4611860981045,-545.3405431548246,60.610569711890676,296.513022254456,576.2597931814025
568,41.355723750149636,-296.9114066832036,-58.02463938124917,-231.969822689038,-512.5304127265829,39.58020815022181,303.5971407157652,562.8941154824757
569,42.890705781343115,-303.72210887058566,-60.43954393517558,-248.00523489154898,-478.70641755980915,16.449920905220708,310.78738260999364,551.0058023147819
570,44.21045914152958,-310.4535086540703,-63.13382050394056,-262.0907118659731,-444.17992566105045,-8.57369380765308,317.98622251584663,540.8290821589145
571,45.28584579556443,-316.9941062382262,-66.09543119516849,-273.7618309273292,-409.28425998369636,-35.25084398637997,325.089599736932,532.5707013716599
572,46.08867726051887,-323.2284970602406,-69.30661535839987,-282.576637298323,-374.371585950067,-63.31139977064494,331.9886495553789,526.4048295380898
573,46.59210743513052,-329.03954547394534,-72.74398821016034,-288.12619747439624,-339.80928638137084,-92.45835491163989,338.5716504594404,522.4686871786303
574,46.7711067571389,-334.3107325886292,-76.37884466901549,-290.04541211872566,-305.97578369388367,-122.37183953629784,344.72616775353845,520.8590255986444
575,46.603021087389706,-338.9286487216446,-80.17766352156832,-288.02392488066187,-273.25578331022916,-152.71362655468798,350.3413684962668,521.6295649179837
576,46.068213202636045,-342.7855961384599,-84.10279393045813,-281.81690280868054,-242.0349325482805,-183.13207164298467,355.31047594393044,524.7894671818606
577,45.150778032215655,-345.7822613552122,-88.11329394550329,-271.2553958951901,-212.6939148987278,-213.2674243737961,359.5333232054868,530.3028869397561
578,43.83931514083421,-347.83040795110844,-92.16588071365301,-256.25591352169226,-185.6020292549942,-242.7574444572377,362.9189556375574,538.0896018793018
579,42.127734076499245,-348.8555306559332,-96.21594580803648,-236.82879178448644,-161.11033572006113,-271.2432507556833,365.3882200574823,548.0266817466602
580,40.0160609404639,-348.7994000120403,-100.2185871123787,-213.0848770007021,-139.54448241260704,-298.3753206584657,366.8762670095422,559.9511072376296
581,37.511208757077796,-347.6224152723888,-104.12961100253534,-185.24002708067513,-121.19735951451946,-323.8195433189707,367.3348813960028,573.6632066144156
582,34.62767049313266,-345.3056730074453,-107.90646480504537,-153.6169434805413,-106.3217557930343,-347.26321303888665,366.73454842221685,588.9307435376019
583,31.38809207064806,-341.8526522290888,-111.50906897502705,-118.6438995969708,-95.12321704894326,-368.42083062373155,365.06615783973564,605.4934726211317
584,27.82368333349116,-337.2904159054696,-114.90052993311893,-80.85003015997926,-87.75332370567368,-387.03956337892345,362.3422515946875,623.0679849601072
585,23.97442747648662,-331.6702352101378,-118.04772638063281,-40.85698800551363,-84.30361514155697,-402.9042013684934,358.597729182131,641.3526948449688
586,19.88905374746132,-325.06755735177444,-120.92177237606589,0.6330495534495636,-84.8003913665222,-415.84144139535607,353.88994122663223,660.0328652531922
587,15.624744146644176,-317.58125993613754,-123.49836804716509,42.852847566391716,-89.2006186483969,-425.7233333922769,348.29812416158626,678.7856224727682
588,11.246552281176744,-309.3321631679118,-125.75805269496081,84.98868001310424,-97.389154723801,-432.46973835465525,341.9221558389368,697.2849564397198
589,6.826521434710546,-300.4608035737775,-127.68637505836038,126.20144233906521,-109.17749058959403,-436.04967304802403,334.88064131172933,715.2067322022411
590,2.4424992100341965,-291.12450651021805,-129.2739922192785,165.6496062178659,-124.30417847279007,-436.48145295530713,327.3083673654823,732.2337434148038
591,-1.8233423598955774,-281.49382689140026,-130.51670323540293,202.51320315756797,-142.4370785102131,-433.83158790610423,319.35319142553254,748.0608211352371
592,-5.886259752487388,-271.7484565224265,-131.41541751805804,236.0179598477432,-163.17750958628682,-428.21243045812037,311.1724538818741,762.3999766006658
593,-9.660929028141945,-262.07272111232123,-131.97605256201203,265.45869171051885,-186.06633295782353,-419.7786220751258,302.9290220796863,774.9855153213813
594,-13.063626198521641,-252.65080979321667,-132.2093520642633,290.2210894129151,-210.59193154993926,-408.722424699827,294.7870890524498,785.579022542888
595,-16.014534476226473,-243.66189415600243,-132.13061467006278,309.80110014331086,-236.19997448737624,-395.2680648418628,286.9078604194478,793.9740944234601
596,-18.440103980713776,-235.27530177791817,-131.7593259243386,323.8212030644054,-262.30477768505597,-379.6652534440607,279.44526851006066,800.0006775243836
597,-20.275380353528497,-227.6459104375913,-131.11869102506313,332.0429979583108,-288.3019905463496,-362.18207689030555,272.5418533877565,803.5288794776063
598,-21.46621360753056,-220.9099234748694,-130.23507253953318,334.37566021503386,-313.58226089070655,-343.0974815694467,266.32494579218104,804.4721221369934
599,-21.971258110819264,-215.1811742531859,-129.1373440712733,330.8799580322451,-337.5454613031506,-322.69359531426187,260.903277195139,802.7895214650788
600,-21.763679075300825,-210.54808899144305,-127.85617692392955,321.7676742408308,-359.6150067894887,-301.248142806945,256.36412764428565,798.4873934953172
601,-20.83248989134632,-207.07141316280408,-126.42328140606253,307.3964217748486,-379.2517619378336,-279.02721783451017,252.7711035089278,791.6198023512201
602,-19.18345734913282,-204.78277816895633,-124.87062720475893,288.25998565965756,-395.96703006709515,-256.27867226632577,250.16261538690514,782.2880855581167
603,-16.83952739845331,-203.6841532525075,-123.22966825347626,264.97446346967195,-409.33413903696163,-233.22636892539327,248.55110217068497,770.6393156523725
604,-13.840741917601914,-203.74819406660146,-121.53059707743581,238.26060877784946,-418.99818787495974,-210.06552222910375,247.92302168691543,756.8636869417377
605,-10.243636306909481,-204.91946566537743,-119.8016521446971,208.92290618508198,-424.68359224191653,-186.9593157938068,248.23960252384057,741.1908524143014
606,-6.120127746432449,-207.11648560622834,-118.06849950767172,177.82601934573256,-426.19916035080473,-164.03693973335416,249.43832650674554,723.8852765666804
607,-1.5559235158946598,-210.23450391744825,-116.35370702053116,145.8693513110713,-423.4405384100301,-141.39313270147733,251.4350873841967,705.2407118446168
608,3.3515033924658,-214.14891225675856,-114.67632582518678,113.96053497290048,-416.3899794645638,-119.08924698015191,254.12694937096117,685.5739448035959
609,8.495308957861004,-218.71915573616604,-113.05159002483312,82.98872534118013,-405.1135050337274,-97.15578291106499,257.3954102665786,665.2179881561591
610,13.761968495207388,-223.7930081292996,-111.49074186102392,53.798589623803515,-389.7556389013402,-75.59626655274847,261.11005885115804,644.5149126841853
611,19.03417872101194,-229.21106440909156,-110.00098626050683,27.16588099274224,-370.5319911565967,-54.39227660727727,265.1325055813304,623.8085168178976
612,24.193880867450783,-234.81130333185257,-108.58557497331549,3.775434710841278,-347.72005332960794,-33.509367808518526,269.3204592571654,603.437022766377
613,29.12531033797497,-240.43357653364646,-107.24401633143484,-15.797659005072996,-321.64862843412976,-12.903591613568436,273.53182012930716,583.7259704995337
614,33.717977724520445,-245.92388876517472,-105.97240191575615,-31.103069306476737,-292.68636026900236,7.471716182755375,277.6286617393185,564.9814602685406
615,37.869488805674415,-251.1383459006952,-104.7638365118881,-41.82593700847455,-261.22984306145656,27.65922557175091,281.4809796138293,547.4838762375683
616,41.48811748646343,-255.94666264212086,-103.60895312915281,-47.792964366035015,-227.6917854516766,47.69132124250446,284.97009469690653,531.482212225872
617,44.49505535760764,-260.23513978732205,-102.49649086816261,-48.973745152275015,-192.4896732277548,67.58454979534133,287.9916128390715,517.1891172355465
618,46.826274229580356,-263.90904096810965,-101.4139103198819,-45.47738810994625,-156.03532556954283,87.33508615511272,290.4578583853719,504.77678227757843
619,48.43395296379128,-266.8943204058981,-100.34801940677866,-37.54467575814555,-118.72567323769547,106.91544603709264,292.29971954264255,494.37379692954397
620,49.28743628793184,-269.1386759220095,-99.28558268024805,-25.53617903289891,-80.93500832403637,126.2726043836668,293.46786522328483,486.06310717435133
621,49.373710061544855,-270.6119243526114,-98.21388932032316,-9.916906628822515,-43.0088686159242,145.32760348640744,293.9333165214813,479.88119648400175
622,48.69739381058585,-271.30571868115095,-97.12125911925386,8.761803473332018,-5.259630316488318,163.97665379627733,293.68737962776424,475.818580921659
623,47.28026666953495,-271.23264679075186,-95.99747075991873,29.882352501103274,32.03620435807639,182.09365082565844,292.7409696103621,473.8216512344365
624,45.160356608372524,-270.4247701637985,-94.83410176796674,52.78206567881825,68.63911886646099,199.53395884950552,291.123375045336,473.7958142483243
625,42.390634406792664,-268.9316765489771,-93.62477392850346,76.77465042102486,104.34625753368024,216.1392512655555,288.88053102511736,475.60979656854033
626,39.03736292331475,-266.8181329433469,-92.36530154918103,101.1711309117543,138.98988412496686,231.74315165520412,286.07288184973044,479.1008952098242
627,35.178158888911106,-264.1614336927958,-91.05374301687343,125.29954737102761,172.43488183320457,246.17738995259893,282.77292431873406,484.0809080774762
628,30.899829070635914,-261.0485429154934,-89.69035904775343,148.52282435368696,204.57557155895273,259.2781743171057,279.0625280109919,490.3424580588898
629,26.2960454050745,-257.57313091825347,-88.2774840798597,170.25434814159152,235.33212497868482,270.8924802005156,275.0301304813241,497.66543437039235
630,21.464924587614693,-253.83260110922842,-86.8193203328981,189.9709365493032,264.64683127639427,280.8839723802104,270.76790318769275,505.82330517827563
631,16.5065766291996,-249.92519757657143,-85.32166693506696,207.2230238466029,292.48044499946604,289.13830201133106,266.368978565859,514.5890969724145
632,11.520684275999482,-245.94727463169448,-83.79159888754481,221.64200998889342,318.80880142221577,295.5675574328614,261.9248205250628,523.7408809777475
633,6.604171329957688,-241.99079886079795,-82.23711214949947,232.944831098205,343.6198391952616,300.11369250931915,257.52281030510466,533.0666498165133
634,1.8490132019517822,-238.14114209378118,-80.66675154779128,240.9358943053972,366.91112173568416,302.7508072667756,253.244107574128,542.3685057984402
635,-2.6597622994486163,-234.475210597854,-79.08923763100465,245.50658426621905,388.6879021604039,303.4862099237851,249.1618333403777,551.4661146074038
636,-6.845841817261645,-231.05994224512142,-77.51310732095908,246.63259250248115,408.9617343978941,302.36024464978976,245.33960735361586,560.1994051179854
637,-10.643125182227475,-227.95119002225624,-75.9463815580205,244.369347151102,427.7495974726397,299.4449231211705,241.83045893175745,568.430518631151
638,-13.996927101769781,-225.1929976110011,-74.396271204187,238.84583316911193,445.0734720584679,294.84144783675964,238.6761171849949,576.0450299429422
639,-16.864860164962106,-222.81726121136379,-72.86893031286577,230.2570947420221,460.96028869885123,288.6767590049864,235.90667481485917,582.9524789283869
640,-19.217385454098167,-220.84376150608978,-71.36926362862727,218.85570525450075,475.4421553668533,281.09927282895046,233.54060932855117,589.0862649357034
641,-21.038025695942434,-219.28054089097347,-69.90079295705164,204.94247788288104,488.5567674986951,272.2740059597222,231.58513690393022,594.4029672463128
642,-22.32324509669257,-218.12459398172868,-68.46558480582013,188.8566734364158,500.34790514150563,262.3772981168633,230.03686739223588,598.8811631077272
643,-23.082009410445192,-217.36283385609372,-67.06423935143593,170.96594305099242,510.8659280764341,251.5913522887958,228.8827238633545,602.519820336853
644,-23.335048869933246,-216.9732921272175,-65.69593831116626,151.65622323793528,520.1681893355885,240.09880991495962,228.1010862141776,605.3363442455288
645,-23.11385479364594,-216.926507411685,-64.35854676524718,131.3217811558745,528.3192992189682,228.07756783438919,227.6631152254816,607.3643588839719
646,-22.459447517241475,-217.18705402820135,-63.04876158446252,110.35559015651079,535.3911848895302,215.6960256708956,227.53421099058858,608.6513007907909
647,-21.420958509749795,-217.71516111818963,-61.76229721244534,89.14020045817493,541.462904407039,203.1089279329275,227.67555814067637,609.2559001430382
648,-20.05407297443956,-218.4683720464161,-60.49409843936401,68.03925728779865,546.6201884180076,190.45393568612536,228.0457100317096,609.2456199276719
649,-18.419380823826412,-219.4031948766879,-59.238569633267375,47.3898083187586,550.9546974435441,177.8490295137271,228.6021650369663,608.694118851052
650,-16.580683737373857,-220.47669672660797,-57.98981065429705,27.495532290321073,554.5629974158296,165.3908099547181,229.302890141642,607.6787982372158
651,-14.603304321944261,-221.64799777767968,-56.74185116979855,8.621009271646237,557.5452701822519,153.15372503535167,230.10775005456264,606.278486967941
652,-12.552440519598312,-222.87962472874705,-55.488876999303585,-9.012862062974229,560.0037883903134,141.19021825278975,230.97980407554417,604.5713114240931
653,-10.491604602107914,-224.13868864719032,-54.22544423374547,-25.232215192129193,562.0411948407694,129.53175583808,231.88643807754784,602.6327894911963
654,-8.481181560883929,-225.39785844046392,-52.94667911551974,-39.91227589255328,563.7586346021072,118.19066063687546,232.80030513878106,600.5341793442769
655,-6.577136648820889,-226.63610827715567,-51.648463846352534,-52.978104728576106,565.2537936467223,107.1626525760716,233.70005531713815,598.3411053141954
656,-4.829896454400208,-227.83922487174357,-50.32761025100344,-64.4040301768977,566.6189003508048,96.42997322366143,234.57084238473394,596.1124748614383
657,-3.2834223359586994,-229.00006826705558,-48.98202431275581,-74.21181767485375,567.9387459345618,85.96495497566765,235.40460265690794,593.8996925866044
658,-1.9744893980539673,-230.1185873225313,-47.610865002209856,-82.4676564227536,569.2887772541444,75.73388443013346,236.20010809895115,591.7461694786878
659,-0.9321785453162679,-231.20159832783733,-46.214700605534,-89.27807999050708,570.7333112678078,65.7010050390815,236.9628024911587,589.687118824366
660,-0.17758369708273325,-232.2623418515423,-44.79566494635527,-94.78496705768545,572.3239161597871,55.83250642546382,237.70443543190157,587.7496250742994
661,0.27626881073675325,-233.31983899306428,-43.35761459728854,-99.15979334852427,574.0980002623145,46.10035642928238,238.44251426764328,585.9529686577793
662,0.4242962891707948,-234.3980735109437,-41.90628660935738,-102.59732339607372,576.0776466502439,36.48584589050532,239.19959858115854,584.3091877016067
663,0.26904343981617623,-235.525030668363,-40.44945456652542,-105.30894002443578,578.2687283628774,26.98273389774169,240.00246549982097,582.8238560929474
664,-0.1798092853262668,-236.73162687821255,-38.997078829667736,-107.51581013809367,580.6603364206853,17.599901253782107,240.8811766209157,581.4970558604823
665,-0.906090854401664,-238.05056619559747,-37.561444636281806,-109.44207820607606,583.2245498871066,8.363440912885222,241.8680786371224,580.324520162386
666,-1.887911705866747,-239.51516024783334,-36.15727948525556,-111.30826489877037,585.9165737469641,-0.681864996284363,242.99676965106576,579.2989209689846
667,-3.098531890531017,-241.1581472058673,-34.801839327825995,-113.32502903416128,588.6752658300669,-9.471712163134216,244.3010616198909,578.411272503846
668,-4.507291532011121,-243.01054294137526,-33.514951761502786,-115.68742766259119,591.4240679493848,-17.922097766020414,245.81396645131593,577.6524174163138
669,-6.08056831769733,-245.1005537881896,-32.319003721602186,-118.56978298313524,594.0723484961524,-25.929798005950165,247.5667292093965,577.0145573571491
670,-7.782726877308286,-247.4525756190639,-31.23886100168248,-122.1212369102039,596.5171537530701,-33.3734840245204,249.58792698599618,576.4927831398959
671,-9.57702673468406,-250.08629860021472,-30.301707231396833,-126.46204553428157,598.6453532159666,-40.11545088499115,251.90264662006996,576.0865522710534
672,-11.426458873198722,-253.0159313706063,-29.536790728701042,-131.68063764648238,600.3361506278426,-46.00392691095486,254.53174901654165,575.8010539083616
673,-13.2944856511978,-256.24955290522547,-28.97506909531862,-137.83143539071375,601.4639179437481,-50.875925088209755,257.4912227870541,575.6483941866986
674,-15.145664712093119,-259.78859542544905,-28.64874373382301,-144.93341265209548,601.9012950902414,-54.56059360986213,260.79162582626157,575.6485295877472
675,-16.946144417925478,-263.62745788791364,-28.590679713889436,-152.96934972565077,601.5224853882603,-56.88301812159733,264.4376107306858,575.82987410297
676,-18.664025751968396,-267.75324708806903,-28.833710576938,-161.88573269819392,600.2066661612566,-57.66842301942399,268.42752889198914,576.2295089124358
677,-20.269593089227953,-272.145642254163,-29.4098326287213,-171.59324388790645,597.8414275326923,-56.746712642210724,272.7531085833803,576.8929325916633
678,-21.73542331124685,-276.77687905901627,-30.349298840855994,-181.96779585979863,594.3261505664473,-53.95728501796652,277.3992042074556,577.8733063777548
679,-23.036389074726902,-281.61185008619793,-31.679628509345154,-192.85207519267817,589.5752389686097,-49.154040915530295,282.34361686129233,579.2301728103721
680,-24.149577259164364,-286.60832070747654,-33.42455525684127,-204.05758161836837,583.5211260398243,-42.210499552117675,287.55699020261784,581.0276560500334
681,-25.054147399279103,-291.7172617382964,-35.602942773343266,-215.36717109990624,576.1169891378028,-33.0249198485446,293.00278990679135,583.3321862109652
682,-25.73115710955079,-296.88330282949454,-38.227704634190566,-226.53813528017497,567.3391156450699,-21.525313231120606,298.63737942557765,586.209825117927
683,-26.163382219914514,-302.04531297276685,-41.30477110226684,-237.30587172437706,557.1888751572842,-7.6742214698329745,304.41020886294325,589.7233035377856
684,-26.335158785196985,-307.1371162343354,-44.83215125981241,-247.38821647281654,545.6942603716404,8.52687808172072,310.26413695776296,593.9289066906812
685,-26.232272484173855,-312.0883513365908,-48.79914220799838,-256.49051937183464,532.9109627452564,27.03368607542722,316.1359077381125,598.8733627755291
686,-25.841918284068843,-316.82548266890313,-53.18573744432455,-264.31154005896167,518.9229482780617,47.755864729565346,321.9568029533562,604.5908963901173
687,-25.152749770771333,-321.2729677400255,-57.96228310803004,-270.55022492664983,503.84249473020304,70.5546427649818,327.6534888269312,611.1006043298632
688,-24.155033559744627,-325.3545820974573,-63.08942335116587,-274.91338987113517,487.8096459164465,95.24138808654004,333.14907109826686,618.4042956975055
689,-22.840920019489225,-328.9948972598789,-68.51836499486878,-277.1242783364082,470.9910333822616,121.57728389379544,338.3643656959655,626.4849128763615
690,-21.204837052845207,-332.12090000962604,-74.19147752318972,-276.93188943807445,453.57801273233446,149.27422734419477,343.21938351141307,635.3056167516862
691,-19.244008211462255,-334.6637324235583,-80.04322830968478,-274.1208801642245,435.78406319457366,177.99704728322814,347.6350165939578,644.8095810690822
692,-16.959089096279527,-336.560521570255,-86.00143611110298,-268.52174554279406,417.841406795594,207.3671088200015,351.5349000067502,654.920499529545
693,-14.354906354374844,-337.75625630249374,-91.98880965787752,-260.0208809153954,399.9968197929007,236.96733773622344,354.8474091069548,665.5437675519614
694,-11.441271856590962,-338.20565651890206,-97.92472351983609,-248.5700425029018,382.5066351757756,266.3486570607306,357.5077367725149,676.5682611005931
695,-8.233831698228249,-337.87496848141814,-103.72717086621616,-234.19465804945455,365.6309714744402,295.0377819182735,359.45998006006033,687.8686007058196
696,-4.75489676510886,-336.7436096413493,-109.31482289141594,-217.00040929488245,349.62726865357183,322.546267453141,360.6591525066331,699.3077637698739
697,-1.0341901969939014,-334.80557971113865,-114.60911834170516,-197.17752093217086,334.74326355838303,348.38064897588583,361.0730287604057,710.7398966435204
698,2.890561286420147,-332.07055307013985,-119.53630442088813,-175.00225131004436,321.2095907272841,372.0534547185293,360.68372430903713,722.0131828098771
699,6.973268921808559,-328.56457207396943,-124.02935258217728,-150.83518770403907,309.2322442719493,393.09481202394903,359.48891600704513,732.9726450853315
700,11.159430425078565,-324.3302717666881,-128.02967902650545,-125.11609651157382,298.985178243795,411.06431136484923,357.5026193310077,743.4627945253383
701,15.38644947539256,-319.42658354717344,-131.48860950287292,-98.35525398025446,290.6033524662926,425.56274468267395,354.7554555805093,753.3300796733905
702,19.58437222124082,-313.92788760874623,-134.36854043937555,-71.12137128796383,284.1765447439017,436.24330112970847,351.2943656642988,762.4251284102489
703,23.67706264833847,-307.92260997098396,-136.64376247190035,-44.026414886946135,279.7442458299017,442.8217896535226,347.18175487560603,770.6048039605257
704,27.583810996015146,-301.51128775351447,-138.30092681621258,-17.707797469292974,277.29192902062556,445.0854673022604,342.49408266679075,777.7341130586176
705,31.221341434316063,-294.8041539567157,-139.33914857057314,7.1914325236400325,276.7489420957449,442.9000853427942,337.3199402417992,783.6880075711201
706,34.506159205531134,-287.9183184365944,-139.76975348267422,30.043652191012498,277.98820771767856,436.214820529426,331.75768458081956,788.3531127328685
707,37.35715468962159,-280.9746432621347,-139.61568607648198,50.258139424433985,280.82784273658604,425.06483281514295,325.9127187229494,791.6293986272627
708,39.69836310193582,-274.09442692564454,-138.91060749707694,67.30208015719508,285.03472110120475,409.57127945350777,319.89452376743685,793.4317908677253
709,41.46176438887302,-267.39602216733596,-137.69772080102567,80.72022313562944,290.32991352799036,389.93871460638087,313.8135575558931,793.6916964432064
710,42.589999119129104,-260.99151615781255,-136.02836908184318,90.15233685794546,296.3958443924612,366.4499089517646,307.7781381594437,792.3584055915827
711,43.038873603127726,-254.9835994470372,-133.96045715498846,95.34770144334156,302.884917669029,339.45823088818327,301.8914273067775,789.400322977242
712,42.77953161087484,-249.46274166165034,-131.55675033681453,96.17598152741867,309.4292847837835,309.3778350954857,296.24862042357717,784.8059821402887
713,41.800180829907596,-244.50477791323303,-128.88310435323348,92.63396980700203,315.6513635918001,276.6720007249959,290.93443710014657,778.5848053258051
714,40.107279116074515,-240.16899110302523,-126.00667902926119,84.84785812977125,321.1746743881514,241.8400456582401,286.0209899180188,770.7675843435072
715,37.72610791352025,-236.49675295940716,-122.99418570056207,73.07087630562728,325.63453975122377,205.40331040562705,281.56609212314567,761.4066741831903
716,34.70068693936461,-233.51076217884233,-119.9102148372117,57.676329533567014,328.6882021342355,167.89075080205123,277.6120469543266,750.5759065149856
717,31.093013923838395,-231.21489299426082,-116.81568653987813,39.14625465591304,330.0239462235148,129.824698909711,274.1849443496486,738.3702419811414
718,26.98164417233009,-229.59464328040752,-113.76646239631346,18.05609484209541,329.36886969134724,91.7073441923248,271.294474527596,724.9051862513065
719,22.45965524018555,-228.61814911255854,-110.81215252185244,-4.9440460248406115,326.4950219859785,54.00845191432405,268.93425251966187,710.3159943501053
720,17.632070406813284,-228.2377134329621,-107.99514629878328,-29.150870793635946,321.2237211439137,17.154774814414345,267.0826329823582,694.7566811705515
721,12.612839324639515,-228.39178072239733,-105.34988929059138,-53.83127258622031,313.4279575234584,-18.47846889495683,265.7039804479191,678.3988445515248
722,7.521493866145837,-229.00727758205383,-102.90242201165377,-78.24675516318308,303.0328945825844,-52.57377831688526,264.75034667818704,661.4302923953511
723,2.4796107772714526,-230.00223090235474,-100.67018870825274,-101.67797301437376,290.01457392738445,-84.87505224126309,264.16349429948775,644.0534487997843
724,-2.3927804725164865,-231.28857057562925,-98.66211609967306,-123.44847216910007,274.39701869111894,-115.18872721874386,263.87719486839825,626.4834980434676
725,-6.9807066632783865,-232.77502209845989,-96.87895316390235,-142.9467455745624,256.2480004355381,-143.38244475304154,263.81972044874817,608.9462117190835
726,-11.177546145733475,-234.3699955672837,-95.31385365991994,-159.64578248666504,235.67378582658324,-169.38143292916277,263.9164412863593,591.675395875385
727,-14.887993985462344,-235.9843812242484,-93.95317363764993,-173.11938720960282,212.81320733986064,-193.16288927408576,264.0924388711232,574.9098945545908
728,-18.03059956831635,-237.53416751974038,-92.77744754618334,-183.0546661820585,187.83140610427597,-214.74873787061208,264.275043904732,558.8900967011411
729,-20.539801950052414,-238.94280537151744,-91.76249962391938,-189.2602313338527,160.913576080353,-234.19719992388204,264.39621248273875,543.8539180427728
730,-22.367412446775408,-240.1432520307405,-90.88064273836144,-191.66983880887568,132.25900079267402,-251.59365884887686,264.3946611776247,530.0322700977308
731,-23.483518070037732,-241.07963992693033,-90.1019151581301,-190.34137082291127,102.07562155301827,-267.04131593379674,264.21769262181556,517.6440843374249
732,-23.876802234429583,-241.70852973707747,-89.39530699990924,-185.45126708478753,70.5753142363918,-280.6521203232162,263.8226570627626,506.8910263623785
733,-23.554300011110644,-241.99972177082796,-88.72993201553103,-177.28471064896414,37.96998494417393,-292.5384183810636,263.17801104230386,497.952104384549
734,-22.540623627692217,-241.93661463518694,-88.07610626348153,-166.2220593861685,4.468528294270701,-302.80570421291446,262.2639506077404,490.9784370299416
735,-20.876709492561908,-241.51611457115072,-87.40630207902875,-152.72217587142904,-29.725369860487035,-311.5467687302184,261.0726124285948,486.0884846492832
736,-18.6181503003363,-240.74811276657076,-86.69595275175591,-137.30343318552232,-64.41465746741028,-318.8374450900078,259.6078514124314,483.36405352699194
737,-15.833184523231331,-239.65456125902762,-85.92409003544893,-120.52325201054754,-99.40968493470528,-324.7340415288511,257.88461763390166,482.8473454882437
738,-12.600421010639737,-238.26819036874383,-85.07380313326276,-102.95705039142824,-134.52846473845833,-329.272447059709,255.92796834300984,484.5392485118329
739,-9.006379007630859,-236.6309213576162,-84.13251433922967,-85.17746282754608,-169.59658705287075,-332.46879920857003,253.77176214192687,488.398962444523
740,-5.142924115806189,-234.79203674576996,-83.09207313651834,-67.73461696932482,-204.44696008812414,-334.3215222856553,251.45709182258318,494.34495087784256
741,-1.1046787808610148,-232.80617727944886,-81.94867713819838,-51.13815510791346,-238.91953391995338,-334.81448346545926,249.0305197365957,502.25712479356093
742,3.0135181148697257,-230.7312388903318,-80.70263458533225,-35.8415663420131,-272.8611446933593,-333.9209735945518,246.54218487332122,511.98010334128134
743,7.119033939095358,-228.62624495072046,-79.35798887234301,-22.229265247704678,-306.125584445274,-331.6082000646399,244.04385385334456,523.3273603294161
744,11.123686353029244,-226.5492684454288,-77.92203037146696,-10.606722740050232,-338.57396343759916,-327.84197951051766,241.5869884893193,536.086046864226
745,14.945756878224788,-224.5554752139113,-76.40472435481861,-1.193830045871739,-370.0753903332123,-322.5913370180167,239.22090024050857,550.0222768513776
746,18.511732212767647,-222.69535332490747,-74.81808590422564,5.878439892629396,-400.50795427181663,-315.83275332928946,236.99105691411003,564.8866695106022
747,21.757742002214936,-221.013185307348,-73.17553331788105,10.568116661007316,-429.759955007402,-307.5538485242059,234.93759966540804,580.4199587960807
748,24.630672066925207,-219.5458098163719,-71.49125064206898,12.919203428539776,-457.7312953816555,-297.7563455825351,233.0941190655515,596.3585010720132
749,27.088941842364168,-218.32170784905784,-69.7795875585302,13.055764824956404,-484.3349266313764,-286.4582157221329,231.48672815436794,612.4395372059166
750,29.102944076375188,-217.3604363962826,-68.05452102055592,11.173440949211514,-509.4982227743455,-273.69496532057633,230.13345855159878,628.4060912947883
751,30.655153890410602,-216.6724199965402,-66.32919797016709,7.528765756619339,-533.1641562189787,-259.52007803593835,229.04399351612093,644.0114138587139
752,31.739923140892042,-216.25909854078913,-64.61557258162313,2.426725347169946,-555.2921527329797,-244.00467284097078,228.21973988095888,659.02290152758
753,32.36298428415137,-216.11341817644185,-62.924145346017134,-3.792964252896144,-575.8585193249032,-227.236477382315,227.65422940447417,673.2254476700543
754,32.54069528239759,-216.22064137211132,-61.26380554225944,-10.77035094676581,-594.8563622518883,-209.3182454180261,227.33382940299,686.4241991802361
755,32.29906324335812,-216.55944218319405,-59.64177365576336,-18.139990076903214,-612.2949426273688,-190.3657667634821,227.23873264141955,698.4467141149632
756,31.67258921946505,-217.10324367815906,-58.06363632011747,-25.545419491853245,-628.1984519219884,-170.50562845255624,227.34418750588216,709.1445334680363
757,30.70297954234879,-217.8217466062036,-56.53346342594964,-32.652868999364266,-642.6042266102476,-149.8728872996181,227.62192164873645,718.3941982159126
758,29.43776989724887,-218.68259195736007,-55.053995125995485,-39.16374425988058,-655.5604576423243,-128.6088073659669,228.041705757363,726.0977595560705
759,27.928906949946548,-219.65309535266573,-53.62688551839433,-44.82547733774544,-667.1234836235653,-106.85880155984947,228.5729991104584,732.1828452515166
760,26.23132886680122,-220.70198847614287,-52.25298976750556,-49.440401308758375,-677.3547840827089,-84.77069536987702,229.18661546905102,736.6023571893826
761,24.40158082899318,-221.80110217485912,-50.932682183320615,-52.87238197779967,-686.3178089399404,-62.49340346025946,229.8563468028633,739.3338835251911
762,22.496495243827873,-222.92692739299707,-49.66619406969395,-55.05102274678919,-694.0747908196886,-40.17607783149862,230.56048338108994,740.3789120173976
763,20.571959765389693,-224.06199366258676,-48.45396168817401,-55.97334549930351,-700.6836875509231,-17.967751070107212,231.28317176590215,739.761928477123
764,18.68179038843419,-225.19601032686438,-47.29697618189966,-55.70293758284984,-706.1953932294869,3.9825383799329965,232.015557118004,737.5294751770657
765,16.87672216286361,-226.32672289990626,-46.197128396805944,-54.36663946188886,-710.6513385570439,25.525188195246358,232.75666279509628,733.7492286720785
766,15.203526302331296,-227.4604457940341,-45.15754183840034,-52.14892668601206,-714.0815766120287,46.50912459882227,233.51396825942624,728.5091356149112
767,13.704259222487957,-228.61224281371167,-44.18288635114543,-49.28421115413416,-716.5034212836572,66.7806580530444,234.30365552631125,721.9166204388865
768,12.41564602268732,-229.80573800515677,-43.27966372277924,-46.04734838399179,-717.9206753886966,86.18223823787764,235.1505045173958,714.0978526322004
769,11.36859805663756,-231.07255133598363,-42.4564547099339,-42.74268827033136,-718.3234572732983,104.55125909631307,236.08742849230157,705.1970367443332
770,10.58786175277205,-232.4513659306769,-41.72411524881831,-39.69204567088348,-717.6886112397317,121.71906968560302,237.15465196265862,695.3756681730979
771,10.091793995454125,-233.98664590563286,-41.09590799668333,-37.221993203740595,-715.9806697087079,137.51034168519772,238.3985448797051,684.8116840251307
772,9.892258077492317,-235.7270360071531,-40.58755407323187,-35.65089108241701,-713.1533231915142,151.7429310008786,239.8701382418293,673.6984313121515
773,9.994633110033732,-237.72348608412608,-40.217189387851036,-35.27606745395427,-709.1513466749013,164.22835070891014,241.62335748422225,662.2433741266276
774,10.397928513401565,-240.0271546664264,-40.00521075063164,-36.36154829421788,-703.9129269570052,174.77294689519934,243.7130209148306,650.666467074764
