time,ax,ay,az,gx,gy,gz,accmagnitude,gccmagnitude
0,-12.60740893688429,-244.88263536164519,-32.084089805955685,60.7958999790476,41.323512363608344,11.228188637250415,247.2946702464581,69.65406009565073
1,-12.37252899883656,-245.06404632012558,-32.16555668619201,57.62397010724342,43.48046255950858,10.649040423094933,247.47895208770157,69.56714659505585
2,-12.104155302912083,-245.25352125392794,-32.251116526814506,54.38083048223377,45.69676060410448,10.04393621537762,247.67020627385833,69.56232980709927
3,-11.805859012319194,-245.44773978186964,-32.341149842138066,51.06358661163406,47.981478389986265,9.42037096986271,247.86534315598587,69.66545742311
4,-11.481365821533315,-245.6435343997754,-32.435740563992134,47.66908179016337,50.34449862728574,8.78644785498268,248.06139610838636,69.9029077971606
5,-11.134466233862137,-245.83799075086512,-32.53462905324386,44.19421292069835,52.79627537894459,8.150773622108218,248.25561109891157,70.30111805324103
6,-10.768933813020436,-246.02853461578965,-32.63718059900055,40.63625365534366,55.347586250538946,7.522348600826184,248.44552537780535,70.88609887122927
7,-10.388453380588421,-246.21300289433026,-32.74237098781508,36.9931735392487,58.009284798027004,6.910452787564966,248.62903287863972,71.68294784780947
8,-9.996560393089917,-246.38969703205908,-32.84878940550686,33.26394382289743,60.792061184046915,6.324528902855485,248.80443490258781,72.71537427750094
9,-9.596592051467477,-246.55741835267028,-32.9546579807761,29.448822911338137,63.70621836076754,5.774062657427211,248.97047550520267,74.00524876465549
10,-9.191650152597651,-246.7154855738877,-33.057866703168685,25.549616686717744,66.76147006049743,5.268459903654141,249.126361712391,75.57219103206954
11,-8.784575239880361,-246.86373545370012,-33.15602207508236,21.569910769562565,69.96676565015673,4.816919904756257,249.27176927990146,77.43320844992051
12,-8.377931147721423,-247.00250802366094,-33.24650753204568,17.515272825266493,73.33014550250407,4.428303646319441,249.40683514644462,79.60239609842637
13,-7.973998517464324,-247.13261815701279,-33.32655332448872,13.393423130367518,76.85862902856795,4.1109959798353115,249.53213794643867,82.09070670661058
14,-7.574775353806653,-247.25531523603172,-33.39331322231658,9.214370922462756,80.55813601255582,3.8727605049281992,249.64866789612825,84.90579587624987
15,-7.181982378793881,-247.3722324625933,-33.44394517845222,4.99051289494159,84.43344052480654,3.7205865573500287,249.7577871037736,88.05194498620682
16,-6.7970710532037355,-247.48532707120185,-33.47569301918155,0.7366889378986747,88.48815554517246,3.6605285311093354,249.8611810664581,91.53006137395835
17,-6.421232761387138,-247.59681253285595,-33.485966239146826,-3.5298107762066686,92.7247454997501,3.6975390251179134,249.9608019726679,95.33775293197014
18,-6.055408608288944,-247.70908383236485,-33.47241500154929,-7.789293685482163,97.14456313411063,3.8352988879418985,250.05880446755984,99.46947213326517
19,-5.700300150816022,-247.82463706019684,-33.432997547401676,-12.019773612702219,101.74790645619197,4.076048953482565,250.1574747489205,103.91672265672456
20,-5.356381851793567,-247.94598490163983,-33.366037501298976,-16.197144928656826,106.5340908396533,4.4204298561938415,250.25915426203915,108.66832014180531
21,-5.023916104543893,-248.07557006676112,-33.27026902873714,-20.295424314315238,111.50153077304839,4.867337553439516,250.36615978479324,113.71069710913409
22,-4.702971524656359,-248.2156791044647,-33.14486837058304,-24.28705941493433,116.64782521927988,5.413802937597339,250.48070215962503,119.02824075669061
23,-4.393444937455967,-248.36835922559953,-32.989470881068826,-28.14330055548405,121.96984020363189,6.054904162154877,250.60480617899336,124.6036512703683
24,-4.095087080278346,-248.53534067725423,-32.80417332657289,-31.834628714925046,127.46378217648224,6.783720050378304,250.74023412220535,130.4183075920823
25,-3.8075315219462835,-248.71796690566956,-32.589521888866635,-35.3312303160016,133.1252560219224,7.591332224583472,250.8884152213134,136.45262741553367
26,-3.530325833975966,-248.91713432070577,-32.34648698849268,-38.60350711498925,138.94930246257397,8.46688237536504,251.0503829952933,142.6864087052497
27,-3.262963792566601,-249.1332430524838,-32.07642653894426,-41.62260762944858,144.930411133945,9.397689311634771,251.22672203459072,149.09914137593879
28,-3.004917379977529,-249.3661597419687,-31.781039478708713,-44.36096530884049,151.06250765117477,10.36942803076839,251.4175255014794,155.67027986289045
29,-2.7556674902338076,-249.61519313056962,-31.46231148462761,-46.79282830337491,157.33891524648308,11.366370075547325,251.62236434372778,162.37946991674116
30,-2.514732420313159,-249.87908299588545,-31.122454757052086,-48.89476641238583,163.75229365576007,12.371681107071604,251.84026900070754,169.20672576926538
31,-2.281693405028267,-250.15600282417637,-30.763843747976843,-50.646142557295526,170.29455963308035,13.367768254927116,252.06972422322102,176.1325565970971
32,-2.0562166179122943,-250.4435764750104,-30.388948738672557,-52.02953862177036,176.95679472614438,14.336666803366983,252.30867749888372,183.13804382368656
33,-1.838071183191889,-250.73890888564677,-30.00026928378902,-53.031128252956805,183.72914689390166,15.260453470446832,252.5545613820003,190.20487322916705
34,-1.6271428295941102,-251.0386305266465,-29.60026963669829,-53.64099173515868,190.60073334610456,16.121672105274218,252.80432970368489,197.31532807112572
35,-1.4234429167344929,-251.33895489833645,-29.191318258515462,-53.8533699879148,197.55955258502541,16.903757070405558,253.0545072150106,204.45225129177805
36,-1.2271126998354385,-251.63574794342395,-28.775633413089796,-53.66685594856779,204.59241378407205,17.59143978589795,253.30125178987845,211.5989860999751
37,-1.0384228274525447,-251.92460792246962,-28.35523674993244,-53.08452206881924,211.6848911391302,18.171124712604488,253.54042797397315,218.73930454961769
38,-0.8577681487063263,-252.20095409726216,-27.93191666906528,-52.11398250499591,218.82130969510328,18.631222262168848,253.76769045159867,225.85733321802806
39,-0.6856579355123176,-252.4601224967199,-27.507203002378112,-50.76738804337357,225.98476759127507,18.96242764257949,253.9785759010551,232.93748396444178
40,-0.5227016163113585,-252.69746705657087,-27.082354005409265,-49.06135116925999,233.15719792081825,19.157936495426068,254.1686016633449,239.96439631636653
41,-0.36959011352727716,-252.9084644233448,-26.65835588636717,-47.01679826950616,240.31947160780743,19.213590407352903,254.3333695611069,246.92289650332683
42,-0.22707294794516117,-253.08882059391695,-26.235934337970207,-44.65874604298894,247.45154093579484,19.127947983679107,254.46867299970413,253.7979766569377
43,-0.09593145589410637,-253.2345773451565,-25.81557702284219,-42.01600002397486,254.5326216733219,18.902280068973113,254.57060520763864,260.57479631539337
44,0.023051263080051225,-253.3422162127279,-25.397565765562618,-39.120774846206444,261.5414102042772,18.54049073602772,254.63566625474706,267.2387071844257
45,0.12912269907258955,-253.40875762684584,-24.982017161904164,-36.00823848165719,268.4563307375115,18.048968648531645,254.66086632966835,273.7753011372018
46,0.22159418061488467,-253.43185258623205,-24.568930167265066,-32.7159859583024,275.2558065537098,17.436376098987513,254.6438225159627,280.1704806244935
47,0.2998731860067481,-253.40986391100662,-24.158238857785044,-29.283451575013977,281.9185483263886,16.713385204205768,254.58284592788556,286.4105498954408
48,0.36349262237710056,-253.34193385303607,-23.749868081632226,-25.751271854347138,288.42385179649705,15.892372295937172,254.47701575440934,292.48232458183793
49,0.4121349370650168,-253.22803489732743,-23.343789319038397,-22.160613894825634,294.75189647325357,14.987082513096757,254.326236770107,298.37325622130464
50,0.4456490287877792,-253.06900099416788,-22.94007386321575,-18.552485075916323,300.88403657088395,14.012277067715841,254.1312772494636,304.0715671938013
51,0.46405810853345675,-252.86653707512656,-22.538940481230192,-14.967040245355296,306.80307502600544,12.983375652837617,253.8937848303236,309.5663903375214
52,0.4675569350105244,-252.62320540245648,-22.14079507663329,-11.442901977806665,312.49351110740145,11.91610598519792,253.6162785948646,314.8479062212361
53,0.45649728567906506,-252.34238804781913,-21.746260567985853,-8.016508802693444,317.9417518672417,10.826171530642366,253.30211644140704,319.9074698127418
54,0.43136123790451963,-252.0282255930892,-21.356196068263515,-4.721505810232676,323.13627771529826,9.728947054105777,252.95543769490072,324.7377173853766
55,0.392722901894741,-251.68553299608448,-20.971705190853317,-1.5881916810816197,328.0677530361422,8.639209787412852,252.58108182352777,329.33264428388173
56,0.3412005556143894,-251.3196944766078,-20.594133641981802,1.3569644127863092,332.72907421243394,7.570911774297423,252.18448507733,333.6876448345983
57,0.277402381104047,-250.93654023023166,-20.225056170792513,4.091723721032704,337.1153496232633,6.53699645045967,251.7715578157801,337.7995072018525
58,0.2018698641899899,-250.54220866042172,-19.866252760425407,6.598386013171746,341.2238088936426,5.549259925306665,251.34854616325538,341.66635811711586
59,0.11502318415950394,-250.14299848545375,-19.519674103076866,8.863996256362109,345.0536415540903,4.618254984236453,250.92188231530574,345.28755482840296
60,0.01711257084846716,-249.7452154615675,-19.187397071295525,10.880443410208011,348.60576809461804,3.753233786107517,250.49802826589936,348.66352410877596
61,-0.09182115143090236,-249.35501860965192,-18.871571811424374,12.64444712129917,351.88254906802666,2.962123793721696,250.08331795477358,351.79555063123894
62,-0.2119744552668649,-248.9782707863081,-18.57436285356645,14.157430593675958,354.88744042149887,2.251530712699334,249.68380285690637,354.6855194727347
63,-0.34379573397034857,-248.6203982311886,-18.297887021462948,15.425280774425241,357.62460565852615,1.6267620639369793,249.30510586441042,357.33561999478536
64,-0.4879854370783869,-248.2862634138761,-18.04415085033196,16.45800022701818,360.0984977150764,1.0918653524545907,248.95228800436007,359.7480208131477
65,-0.645480956881717,-247.98005513664222,-17.814989777850624,17.269258587004636,362.31342537768313,0.649675484587055,248.6297321448749,361.92452780213824
66,-0.8174261054407528,-247.70519937075028,-17.61201089166629,17.875855156808996,364.27312041397306,0.30186700062951033,248.34104733656525,363.86623879675426
67,-1.005125755728479,-247.46429365363568,-17.43654077681108,18.297107771532634,365.9803221432765,0.049007737523137765,248.0889967769453,365.5732096438107
68,-1.209986980986814,-247.25906709514283,-17.289579937845666,18.55418629277923,367.43639587342557,-0.109388335102622,247.87545160897727,367.0441464077975
69,-1.433448724117996,-247.0903672007863,-17.171765128796412,18.66941168866314,368.64100047323683,-0.17481020733551803,247.70137192156906,368.2761378315934
70,-1.6769025951601433,-246.95817379251218,-17.083340640338985,18.66554332146492,369.5918184541697,-0.14970090436921554,247.5668153788444,369.2644406730788
71,-1.9416077706553232,-246.86163925958996,-17.024139275728416,18.565077496923614,370.28435959655025,-0.03740985115319063,247.47097284182806,370.00232855953084
72,-2.228603144588201,-246.79915333371994,-16.993573485633377,18.38957944072755,370.71184678726644,0.15785450049599634,247.41222929699833,370.48101292532755
73,-2.538619883416864,-246.76842976642982,-16.99063695620665,18.15906887799101,370.8651906517725,0.43107276446852266,247.3882475842866,370.68964274828426
74,-2.8719974012646827,-246.76661173877963,-17.01391682877449,17.891476738344775,370.7330578158685,0.7764641057999043,247.39607186385035,370.6153882454079
75,-3.2286055803970832,-246.79039242092716,-17.061616549265608,17.602187644536833,370.30203602730563,1.187537305569626,247.4322473353378,370.24361225035256
76,-3.60777594821523,-246.8361467125011,-17.13158894310389,17.303680054031325,369.55689761743736,1.6571429997256373,247.49295230697348,369.5581313935392
77,-4.0082445399230355,-246.9000697810201,-17.22137848091434,17.00527327519751,368.48096067656627,2.1775261023123047,247.57413825263237,368.5415672294327
78,-4.428109237656205,-246.97831751843,-17.328271067804906,16.712987976823324,367.0565447894495,2.7403769959589304,247.6716729512036,367.17578503604466
79,-4.864804333821232,-247.06714349131076,-17.449349358628467,16.429524091858564,365.265515278158,3.3368799474705573,247.78148122868825,365.4424151940656
80,-5.315094805895499,-247.16302657805605,-17.581551687388163,16.15435701740079,363.0899067058115,3.9577574975389522,247.89967743527058,363.3234489128588
81,-5.775092260043289,-247.26278352151314,-17.721732985919584,15.883949619363921,360.5126129904353,4.593310313551566,248.02268382647526,360.80189669195494
82,-6.240293722511123,-247.36366119492826,-17.86672616757892,15.612073771246635,357.5181280256754,5.233453102646424,248.14732956933807,357.862494454457
83,-6.705643526346689,-247.4634044328695,-18.013402153060742,15.330231137008257,354.093317492576,5.867748482656712,248.2709260974579,354.49243905421605
84,-7.165617564994027,-247.56029670686732,-18.158726193071672,15.028158871454982,350.2281998952617,6.4854419686592255,248.39131589568788,350.6821321648051
85,-7.614328210368184,-247.65317259520688,-18.29980782171731,14.694402101278579,345.9167129728088,7.0755022204319316,248.50689340420277,346.4259096157587
86,-8.045647200215114,-247.74140269065276,-18.433941997712374,14.316931699927268,341.1574406007635,7.626671253621063,248.61659840185789,341.72273212352997
87,-8.453342757125297,-247.8248530515326,-18.558639801386462,13.883783190298804,335.9542751183356,8.127529394151644,248.71988370870187,336.5768130964423
88,-8.83122615139329,-247.9038224092596,-18.671648199750127,13.383690823789202,330.31699072439824,8.566579376880236,248.81666020020415,330.99815980875763
89,-9.173302031183868,-247.97896116952455,-18.770959489921108,12.806690282845334,324.2617051889615,8.932353207393188,248.9072229966359,325.0030057689432
90,-9.47391636563003,-248.05117687344625,-18.85481183530614,12.144664300579377,317.8112096404223,9.21354428495438,248.99216335537264,318.6141145842674
91,-9.72789596358769,-248.12153115728287,-18.921682809310965,11.391807785322555,310.99514965699314,9.399165926312111,249.0722711969266,311.8609390988124
92,-9.930674217169923,-248.1911332383831,-18.97027811236757,10.54499247084946,303.8500453184595,9.478735959220046,249.14843321854752,304.77962404907487
93,-10.078398718890664,-248.26103459609192,-18.99951760977063,9.604015344716302,296.41914309889535,9.442485550174206,249.22153121919337,297.41284576315036
94,-10.16801740442115,-248.33212903556569,-19.008520601568506,8.571719968731264,288.75209815103807,9.281588886494418,249.29234479417715,289.8094881670568
95,-10.197340768894378,-248.4050619075067,-18.99659201159697,7.453985135957012,280.9044912304367,8.988408707764034,249.36146215664786,282.0241601242637
96,-10.165078616913862,-248.48015190358842,-18.96321114822047,6.259580778598801,272.9371898871319,8.556751015474582,249.42920252148562,274.1165645506297
97,-10.07085083927634,-248.55732847479808,-18.908024728035883,4.9998962949585035,264.9155684048122,7.98212076414348,249.4955531605834,266.15073458129524
98,-9.915172743176132,-248.63608749386702,-18.83084570242594,3.688551306477471,256.9086051860751,7.261969175326427,249.5601238469101,258.1941562018903
99,-9.699416301867066,-248.7154672483539,-18.7316589857969,2.3409031849301964,248.9878797820599,6.395922618648505,249.622120876369,250.3168001059509
100,-9.42574936611371,-248.79404608643324,-18.610634564649146,0.9734693651904798,241.22649442093802,5.385982740343483,249.68034208042315,242.59008797596783
101,-9.097055638536313,-248.86996199823741,-18.46814780893189,-0.3967146559912003,233.69794654210332,4.236687672310495,249.73319319619284,235.08581974743504
102,-8.71683915693155,-248.94095325582418,-18.304806166745934,-1.752778706632419,226.47497936420828,2.9552247994667513,249.77872480551358,227.87508858900244
103,-8.289117934482642,-249.00441820318198,-18.121480811546675,-3.0787186588760918,219.62843692389816,1.5514867822437133,249.81468802640674,221.0272093556279
104,-7.818311928815106,-249.05749152443025,-17.919341259263536,-4.360090267161876,213.22614852590223,0.03806429970313184,249.83860636582617,214.60868437191868
105,-7.309130527006476,-249.09713381584663,-17.69989053629121,-5.584672698730379,207.33186543634358,-1.5698288281686457,249.84786061325752,208.68222788754653
106,-6.766464344509862,-249.12023101956973,-17.46499822622792,-6.743079914977458,202.00427015382883,-3.254500018695589,249.83978335656738,203.3058676530344
107,-6.195285505967328,-249.12370024083273,-17.21692870363821,-7.82930021855023,197.29607579597993,-4.995991115594623,249.8117596438313,198.5321388914714
108,-5.600559791844627,-249.10459858940473,-16.9583620530573,-8.841146811366283,193.2532300341947,-6.77235718936541,249.76133042403032,194.40738248983743
109,-4.987173108160726,-249.06023182628408,-16.692405489002702,-9.780604981679538,189.91423458662183,-8.560005445486714,249.68629553796478,190.97115550229208
110,-4.359873691673597,-248.9882597133089,-16.42259344791549,-10.65406444364464,187.30958760991393,-10.334086732938484,249.58481314742437,188.2557581289613
111,-3.7232304105498675,-248.88679511066593,-16.152874824855385,-11.472428255885148,185.46135257494353,-12.068930490076948,249.45549263496636,186.28587737774367
112,-3.081606615407041,-248.75449410374713,-15.887586040476053,-12.251092541819764,184.3828535786975,-13.738512673325124,249.29747823633414,185.07834385321814
113,-2.439148313932629,-248.5906348126075,-15.631408844135573,-13.009793948107326,184.07849377812016,-15.31694525475334,249.11052103636956,184.6419948087868
114,-1.799784937846573,-248.39518307084006,-15.389312158988842,-13.772324524450061,184.5436910057497,-16.778975199842925,248.8950375051664,184.97763404413536
115,-1.1672405502337444,-248.16884380656808,-15.166477942697572,-14.566116536668906,185.76492285145451,-18.100480464409905,248.65215343027774,186.0780776595091
116,-0.5450529576167038,-247.91309759979387,-14.968211885813409,-15.421702561935605,187.71987259477055,-19.258950538205713,248.38373279030665,187.92827412326795
117,0.06340211971488537,-247.63022238903818,-14.799840615831485,-16.37205896329427,190.3776671968275,-20.233939377036496,248.0923916640485,190.50548741131257
118,0.6548848311485826,-247.3233005087203,-14.666597804072472,-17.451843444345233,193.69919889366332,-21.00747905597183,247.78149752167374,193.779532904098
119,1.2262659353558982,-246.99621107274118,-14.573502165852947,-18.69653980035611,197.63752257029915,-21.56444302495581,247.45515411353105,197.71305705876546
120,1.774505335124127,-246.65360725625888,-14.525230769032836,-20.141525179030868,202.13832186117006,-21.892848465503928,247.11817173203505,202.26185342603654
121,2.2966369507796136,-246.3008774473451,-14.52599126512829,-21.82107717702817,207.14043769105317,-21.98408801168094,246.77602204971805,207.37520922782963
122,2.789762071517594,-245.94408869461924,-14.57939665144693,-23.76733999134064,212.57645371366053,-21.833082085051934,246.4347761853981,212.99627842287626
123,3.2510528720753826,-245.58991049996558,-14.688346084026596,-26.009270594005983,218.37333390055215,-21.438344414594454,246.10102426299994,219.0624790319859
124,3.67776733827115,-245.2455169586389,-14.854915212653927,-28.571587386584742,224.4531084792282,-20.801955158017762,245.7817746743632,225.50591455681393
125,4.067276381993415,-244.91846565082477,-15.080259513562805,-31.473744963683153,230.73360550920114,-19.92943857514197,245.4843316588429,232.25382158875263
126,4.417103335945547,-244.61655261688594,-15.364534054985992,-34.72895958517717,237.12922642770525,-18.829545444759525,245.21615073946498,239.22904796821598
127,4.724975231832732,-244.34764429906656,-15.706832939566377,-38.34331090337976,243.55176453168392,-17.513944252595486,244.984673092495,246.35056774334583
128,4.988884384023064,-244.11948941762375,-16.10515125578824,-42.3149464720678,249.9112651904077,-15.996829387331672,244.79714197733261,253.53404024926195
129,5.207158041099462,-243.93951590040967,-16.55637168390987,-46.633416395931455,256.11692537167977,-14.29445873530311,244.66040644342587,260.6924205504724
130,5.378533349522921,-243.8146196477495,-17.05627697596181,-51.279165756026906,262.0780278850126,-12.424636587597607,244.5807191107796,267.7366271766708
131,5.502234527188376,-243.75095284999145,-17.599588576796354,-56.22321173805864,267.70490293676005,-10.406160264922585,244.56353566668395,274.5762707405168
132,5.578048848053823,-243.75371983140016,-18.180030910820275,-61.4270304775396,272.90990661617343,-8.25825029493292,244.6133238971221,281.1204440623276
133,5.606397775448493,-243.82698813126734,-18.79042030003207,-66.84267551984861,277.6084032239315,-5.999984563098426,244.73338973709335,287.2785712844638
134,5.588399414233473,-243.97352198391607,-19.42277686311447,-72.41314548365213,281.71973623723113,-3.6497568645302234,244.92572720094873,292.96131046726083
135,5.525918396978367,-244.19464473940243,-20.068457037484972,-78.0730129336839,285.1681713591295,-1.2247798723102006,245.1908983593194,298.0815014846447
136,5.421599378345929,-244.49013614282256,-20.718303816196585,-83.74931958093232,287.88379460284386,1.2593483052208252,245.5279488486681,302.55514874443
137,5.278880627677378,-244.8581697037543,-21.362811484093235,-89.36273490423562,289.8033487666184,3.7889962325175333,245.93436368106885,306.3024264154746
138,5.101984999705172,-245.2952945687474,-21.992301351206695,-94.82896650318786,290.87099302345615,6.352754370648417,246.40606728211722,309.2486925741254
139,4.895886860048102,-245.7964653196205,-22.597104618476916,-100.06040141914441,291.0389726975372,8.941580960039442,246.93747067975667,311.32549809409056
140,4.666255146239551,-246.3551219282581,-23.167748265805596,-104.96794873524605,290.2681895193748,11.548830124636794,247.52156758010227,312.4715761975375
141,4.419374407213513,-246.96332068673382,-23.69513984798384,-109.46304533416233,288.5286665120046,14.170158658495511,248.150079685837,312.63379923966784
142,4.162047182127603,-247.6119153392331,-24.170747197769842,-113.45977904881532,285.7999058575916,16.803313599071718,248.8136500626419,311.76809032804533
143,3.9014822695942595,-248.29078596948483,-24.58676918235961,-116.87707685525763,282.07114232619864,19.44780874243544,249.50208172844384,309.8402785870486
144,3.645174147551727,-248.9891115540849,-24.936293945149654,-119.64090041473519,277.34149885850263,22.10450410590773,250.20461704642074,306.8268880782997
145,3.4007789589597053,-249.6956805865661,-25.213441558111427,-121.68638725015805,271.62005442819924,24.77510725124165,250.91025206104746,302.7158513631451
146,3.17599207420399,-250.39923289751093,-25.41348860688307,-122.9598732059984,264.9258369817088,27.461618631855753,251.60807870907308,297.50713912584905
147,2.978431338999959,-251.08882468416616,-25.532972805765695,-123.42073078658895,257.2877554583566,30.165744053674167,252.28764679932402,291.2132967308386
148,2.8155289475887826,-251.7542075703247,-25.569776247208438,-123.04295884908595,248.7444840795453,32.888295581197674,252.93933653804214,283.8598767792678
149,2.694433827723543,-252.3862110654438,-25.523186298042873,-121.81646232380521,239.34430933617085,35.62859841197546,253.55473100049477,275.4857540256227
150,2.6219257071264077,-252.97711627784918,-25.393933429442804,-119.7479663851462,229.1449462658618,38.383917152877075,254.1269765066528,266.14330650619013
151,2.6043414874964737,-253.52100763201233,-25.184205445080863,-116.86151782196684,218.21332666570947,41.14891228952699,254.6511178196037,255.89844550937357
152,2.6475138876769853,-254.01408896357145,-24.897637762338206,-113.1985370990551,206.62535816358294,43.91513681784878,255.12439477614603,244.83047742741962
153,2.756721498972125,-254.45495064171212,-24.53927967237728,-108.81739750516455,194.46564941579592,46.670583201667085,255.5464873086026,233.0317823227523
154,2.9366486460836825,-254.84477503336018,-24.115536798699164,-103.79252248315177,181.8271931744554,49.3992913274341,255.91969655628677,220.60729706685154
155,3.191352950801275,-255.1874686663237,-23.63409023194425,-98.21300812175795,168.81099605287494,52.08102892918333,256.24905087617884,207.67379524061053
156,3.524238256234526,-255.48971125086123,-23.103793112266896,-92.18079392996388,155.52564188848783,54.69105710909475,256.5423274306341,194.35896138520528
157,3.938030500543269,-255.7609145618555,-22.534545797938918,-85.80842037709579,142.08677454085793,57.19999457638051,256.8099829375134,180.8002628392136
158,4.434754197031136,-256.0130876817588,-21.937151018009622,-79.21642546438578,128.61648540191325,59.57379429672776,257.06499071441345,167.1436273581493
159,5.015707482242374,-256.26060847965505,-21.323150356921545,-72.53044438840107,115.24259069625295,61.77384505239524,257.3225845406844,153.54193855859432
160,5.681434384235791,-256.5199040533065,-20.704643163335437,-65.87808598586368,102.0977840616804,63.75720825589059,257.59991270821814,140.1533641296513
161,6.431694041663397,-256.8090453041633,-20.094088853680663,-59.385666909858735,89.31865139596182,65.47699777822672,257.91560807607897,127.13953413745278
162,7.265427876300865,-257.14726301672584,-19.50409382128679,-53.174889106886184,77.04453795703326,66.8829079725473,258.28928216421593,114.66358900950603
163,8.180726932082981,-257.55439478466946,-18.947184760114663,-47.35954797716454,65.41626236956917,67.9218928186108,258.7409533207508,102.88811923904517
164,9.174802531273183,-258.05027389409764,-18.43557110489276,-42.042357709675805,54.57467830221847,68.53899752245144,259.2904207908536,91.97302173515014
165,10.243963900600464,-258.6540729805894,-17.980900444389054,-37.311977118784824,44.65909154623665,68.67834325275919,259.956598235876,82.073301164629
166,11.383606379358254,-259.3836170645447,-17.594012087053603,-33.2403146552569,35.805547271060405,68.28426600916292,260.75682202958063,73.33684855257238
167,12.588213170377749,-260.254682458374,-17.284695254965047,-29.880186099328647,28.145008648593716,67.30261154059372,261.7061514948519,65.90223364962787
168,13.851372218748747,-261.280299919602,-17.06145944028883,-27.263393389829773,21.801453157391702,65.68218868421462,262.81668001280633,59.896551404195705
169,15.165807622698319,-262.4700820880126,-16.93132516148183,-25.399287821596804,16.88991573467437,63.37638112089247,264.09687742748355,55.433364545287205
170,16.523422358513066,-263.8295964030809,-16.899643736514054,-24.273874444168563,13.514507458442857,60.34490910099916,265.55098511866964,52.61078170423192
171,17.91534696496872,-265.35980510500576,-16.969954783435853,-23.849506027784702,11.766434633605165,56.55571648097404,267.1784853126066,51.50970307686942
172,19.331988007005766,-267.0565935820696,-17.1438898577547,-24.065204327053593,11.722038048997618,51.986936843887655,268.9736656620108,52.19225516966497
173,20.76307070149304,-268.910407481674,-17.421129846494036,-24.837634273688092,13.440868829794182,46.628871366953994,270.9252990915932,54.70042604156696
174,22.197671619106345,-270.90601784021675,-17.799422530042765,-26.062744325636814,16.96381790166166,40.485895895422544,273.01645756691505,59.05490595754005
175,23.62423946408134,-273.0224318881676,-18.274665136729833,-27.61807448199309,22.31132096711207,33.57820768074671,275.2244766911619,65.25413737297801
176,25.030604219987907,-275.23296477848663,-18.841054592460097,-29.365722242249,29.48166899068604,25.943322729668083,277.5210854773275,73.27358233842224
177,26.403977083629023,-277.50548393367984,-19.491305335106198,-31.155943948399017,38.44946378663743,17.637240565168035,279.87271191798993,83.06522282285327
178,27.73094540267396,-279.80283298303885,-20.216931074534113,-32.83135128414688,49.16426777626887,8.735202207747855,282.24097004608154,94.55731808351587
179,28.99746830367378,-282.08343666210476,-21.008582951411178,-34.23163790522707,61.549505156793295,-0.6680223415060889,284.5833283565356,107.65445172495883
180,30.188879899151228,-284.30208195423097,-21.856432355046,-35.19873939867244,75.50167780975264,-10.458369931650072,286.85395313555233,122.23790829005958
181,31.289907852241992,-286.41086443924485,-22.750582381764108,-35.58229363081857,90.8899626449972,-20.503285251208272,289.0047136940672,138.1664232842115
182,32.28471551953533,-288.36028238223884,-23.68148801572971,-35.24523196811595,107.55625713494993,-30.653117444352432,290.9863298433998,155.27734910272363
183,33.15697571309573,-290.1004545070192,-24.640362412369218,-34.06929894772505,125.31573603735151,-40.74313015906833,292.7496351869081,173.3882705013982
184,33.889983177461,-291.58243061622005,-25.619545969627602,-31.960272544026658,143.95797446769618,-50.59612786504158,294.24692295768745,192.29908673130015
185,34.466811121489314,-292.7595574606916,-26.612816486015547,-28.852642727132007,163.2486806479765,-60.025683298091295,295.4333344741671,211.79455530184484
186,34.870514634661994,-293.58885609394326,-27.615622274121073,-24.713505657216082,182.9320661832616,-68.83992974188574,296.26824438254545,231.64726856144475
187,35.08438068599376,-294.03236215815195,-28.625224928582966,-19.545446812804773,202.73386305337388,-76.84585796506062,296.7165924503903,251.62101330098676
188,35.0922208831757,-294.05837793651915,-29.64074386792436,-13.388219153081646,222.36497512018605,-83.85403188613925,296.7501095163604,271.4744482789066
189,34.87869959554044,-293.6425852026924,-30.663100251679968,-6.319070485089038,241.52572844152368,-89.68361069791021,296.3483858737176,290.9650252989625
190,34.42968678671472,-292.76897116910396,-31.694863036855605,1.548365937424408,259.9106599763596,-94.16753976579858,295.4997341136329,309.85307446250476
191,33.73262230209462,-291.4305259957426,-32.74000458045417,10.06663648450975,277.21375965586185,-97.15774986543248,294.2018050952951,327.9059708280958
192,32.77687672682197,-289.62967888923924,-33.80357728231259,19.05843713461896,293.1340577209258,-98.5301862362932,292.4619247939957,344.9022957927382
193,31.55409356519059,-287.3784503002479,-34.891326321072036,28.321869413271116,307.38142896204533,-98.18947762966825,290.29713084606243,360.6359011618222
194,30.058498539385198,-284.69830968649876,-36.00925655138436,37.63679997717171,319.6824690127794,-96.07305295951662,287.7339002487143,374.9197775078913
195,28.28716407429422,-281.61974123533633,-37.16317403223845,46.77208610121542,329.7862858981983,-92.15452072447731,284.8075733374488,387.5896224178851
196,26.240220104358126,-278.1815330175219,-38.35822432550933,55.493384666288904,337.4700432857336,-86.44614459955012,281.5614929736162,398.50700051230075
197,23.9210059514735,-274.4298171827819,-39.59845042816556,63.57123086299192,342.5440909356936,-79.0002768717552,278.0458906856999,407.5619876396586
198,21.336162177099254,-270.41689901867795,-40.88639270772542,70.78905646681736,344.8565232109063,-69.90964796586485,274.3165622964857,414.67519799251573
199,18.495665860910282,-266.1999204640176,-42.22275134244276,76.95081683950804,344.2970185023732,-59.30645284637999,270.43338377306856,419.7991061076955
200,15.412817097290667,-261.8394089641504,-43.606128633877866,81.88791035966953,340.7998310914966,-47.36022120149611,266.4587235489402,422.91859622359266
201,12.104187688915372,-257.39776556898113,-45.032864492338504,85.46510280072472,334.34583183794643,-34.274505740659,262.4558105000791,424.05069889827917
202,8.589544181033334,-252.93774705647297,-46.49697375319469,87.58521105191333,324.9635239977781,-20.28246953385291,258.48711722143935,423.2435078671119
203,4.891756105176025,-248.52099562712232,-47.99018898967168,88.19235394544948,312.72899368731714,-5.641496888664185,254.612816283173,420.57430670634295
204,1.0366967225923411,-244.20666632639046,-49.50210727866345,87.2736405862694,297.76478902784584,9.373009716184042,250.88936280135596,416.14697219995287
205,-2.9468618164720484,-240.05019684573367,-51.020434133610514,84.85923577843506,280.23775585290264,24.474454073008395,247.36825008531352,410.08875641945923
206,-7.02736336409692,-236.10225681992128,-52.53131286637657,81.02081516442779,260.3558891832333,39.37227885782664,244.09497652537888,402.54657980258304
207,-11.170603484638002,-232.40790432528735,-54.019723443579174,75.8684967811787,238.36428696598847,53.77938210095977,241.10825150165704,393.68299085537797
208,-15.339901827510861,-229.005966293212,-55.46993194871514,69.54640765711882,214.54031481397428,67.41949088132803,238.43945630791384,383.6719625928991
209,-19.49633010391281,-225.92864755920016,-56.865970349571406,62.22710977925074,189.18810710041012,80.03427103310376,236.1123635235156,372.6946994666287
210,-23.599015447811954,-223.20136113298437,-58.19212634960521,54.105164560062136,162.6325407256091,91.38996387190333,234.14310578523677,360.9356196495875
211,-27.605537440019475,-220.8427610171659,-59.43342426587262,45.39015417656972,135.21282393801906,101.28335937436836,232.54037342404985,348.5786560799906
212,-31.472433252366447,-218.86494944508752,-60.57607957984854,36.29949814239432,107.27584535761622,109.5469396057433,231.30581070473167,335.80398812155994
213,-35.15581947830279,-217.27382339408663,-61.60791169610017,27.051402309359613,79.16942965304266,116.05305603488321,230.43457296561255,322.7852789308037
214,-38.612131692513415,-216.0695210364341,-62.51870146529682,17.858255468599985,51.23564731527515,120.71703852543303,229.91600215339952,309.68745711169174
215,-41.798974106524135,-215.2469276486205,-63.30048220516432,8.92074811957694,23.80432649290364,123.49917020906935,229.73437631404488,296.6650491118674
216,-44.676062439435384,-214.79620246922735,-63.94775519865369,0.4229325651714895,-2.813086406851704,124.405498625258,229.86968957974125,283.86104283274807
217,-47.206234060727546,-214.70329282984048,-64.45762292875608,-7.471621988800746,-28.329175356395055,123.48748712640801,230.29842287429216,271.40624282742306
218,-49.35649137419613,-214.95040903525052,-64.82983581160111,-14.622496039058422,-52.48557992379283,120.84054004209062,230.99427153682223,259.41906205743857
219,-51.09903793057981,-215.5164422283507,-65.06675113804235,-20.913895234781048,-75.0572787338423,116.60145994295705,231.92880381528227,248.0056833789427
220,-52.41226240458605,-216.37731703344608,-65.1732063020399,-26.254988320699017,-95.85603190526015,110.94491591752545,233.07203306525258,237.26051523246161
221,-53.28162384839092,-217.50628025389545,-65.15631188521927,-30.579220857296672,-114.73290640022856,104.07901902820001,234.39289576133976,227.2668605138598
222,-53.700392789882805,-218.87413551249273,-65.02517343450816,-33.842768439505015,-131.57983482366663,96.2401161964255,235.8596363708641,218.0977156590421
223,-53.670206527948366,-220.4494408757082,-64.79055361651062,-36.02233219609089,-146.33018724462022,87.68692758741676,237.4401081661561,209.81661868044617
224,-53.2014028680782,-222.1986917310561,-64.4644888138516,-37.11250486242618,-158.95836566204633,78.69416550863242,239.10200567730024,202.47846978030813
225,-52.31310421516602,-224.0865140930152,-64.05987607751638,-37.12294586543678,-169.4784599910549,69.54578487280921,240.81304931436821,196.13025553453514
226,-51.03303330419982,-226.0758938990222,-63.59004743534825,-36.07559769534036,-177.9420312830407,60.52802619458971,242.54114548202926,190.81161729919367
227,-49.39705274717767,-228.12846577227106,-63.06834862891036,-34.00215355112116,-184.4351113607668,51.92242145800665,244.25454620404147,186.55521694846337
228,-47.44843264992237,-230.20488035334657,-62.50773842680673,-30.94194929128737,-189.0745277340427,43.99894015837922,245.92203091684465,183.38686883167577
229,-45.23686322443999,-232.26526297359803,-61.920423035193174,-26.94040405126523,-192.0036783411441,37.00945616524902,247.5131298465976,181.32542563266307
230,-42.81724171270157,-234.2697687326827,-61.317538051241144,-22.048077868316756,-193.38789210697865,31.181714496348153,248.99840350980918,180.38242621205185
231,-40.24827401478912,-236.17923059860337,-60.708887925983916,-16.320356193843093,-193.4095181217673,26.713969537366705,250.34978660805223,180.56153332214245
232,-37.5909403869728,-237.95588849043406,-60.102749997414705,-9.817714619287115,-192.2628878419562,23.77045180087126,251.5409971587917,181.85780606606463
233,-34.90688106372909,-239.56417889702252,-59.505746931996484,-2.6064659392052554,-190.14929075119176,22.477798377828822,252.54800354981538,184.25686461455703
234,-32.25676146959411,-240.97155702556418,-58.92278813534821,5.240151159568653,-187.27209476315588,22.92255271300974,253.3495340507575,187.73401255375543
235,-29.69867758901115,-242.14931749795858,-58.357077657908135,13.640713961416255,-183.83212933129747,25.149802936786642,253.9276060714882,192.25338572549634
236,-27.28665986577315,-243.07337590975453,-57.81018353162751,22.504377713896762,-180.02343295153347,29.16298621966355,254.26804699427908,197.7671963733063
237,-25.069328829102474,-243.7249725665467,-57.282161392648035,31.72984892743967,-176.02944849191115,34.92484164818634,254.36097534849785,204.21513873355528
238,-23.088748019198885,-244.09126150488262,-56.77172362806268,41.204746694323624,-172.01973030146894,42.35944872285275,254.2012107207217,211.52401753672459
239,-21.37951043018528,-244.1657522927338,-56.27644403952294,50.80549944276168,-168.14720694517243,51.35524604614732,253.7885830502393,219.60765419934862
240,-19.968084229772455,-243.94857867271617,-55.792987062513745,60.39788314861524,-164.54602320397072,61.7688884859033,253.12811652465373,228.36711610341817
241,-18.87243242926843,-243.44657624463002,-55.31734989329834,69.83825770206896,-161.32996513520584,73.42977385821264,252.23006959770848,237.69130129217535
242,-18.10190988761746,-242.6731603531094,-54.845105537952755,78.9755060857967,-158.59145308760552,86.14505360711867,251.10982001219364,247.457893600149
243,-17.657429972569666,-241.64800446682884,-54.3716350470512,87.65363156121956,-156.40107056601653,99.70493620870677,249.7875914961159,257.5346823531585
244,-17.531882863805194,-240.3965280322627,-53.892338330020735,95.71492532299378,-154.80758310788295,113.88809588207162,248.28802649353565,267.78121858560866
245,-17.710778413434735,-238.94921059121236,-53.402815061088,103.00358333964017,-153.8383921494632,128.46701092006998,246.63961644105476,278.05075955441305
246,-18.17307909811667,-237.34075562272395,-52.89901009418669,109.36962698284601,-153.50036470517668,143.213074275878,244.87400741193497,288.1924383773921
247,-18.892183063865634,-235.60913314045632,-52.37732109434454,114.67296732235972,-153.7809799256916,157.90134311927696,243.02520436895753,298.0535877947252
248,-19.837013638683697,-233.79453460881038,-51.83466930934811,118.7874470879556,-154.6497368876769,172.31482258025403,241.12870177375626,307.48214640310346
249,-20.973170073521647,-231.93827702775798,-51.268537155686204,121.6046965538731,-156.05977291020858,186.2482094468882,239.22057163694532,316.3290807342342
250,-22.26409469359369,-230.08169466580844,-50.676978318645176,123.03764900660342,-157.94964724072554,199.5110513658219,237.33654183763306,324.4507650606016
251,-23.672213948706368,-228.26505660585616,-50.05860720966846,123.02357675324056,-160.2452503494587,211.93030393559212,235.5110974139938,331.7112708148906
252,-25.160014807613393,-226.52654605090999,-49.412574820267075,121.52652841482082,-162.86180367603885,223.35229086179447,233.77663558370358,337.9845275134503
253,-26.69102328043659,-224.90133355100264,-48.73853736812829,118.53907130943065,-165.70591799708117,233.64409059065633,232.16270185417486,343.1563260378214
254,-28.230658278528857,-223.42077140835147,-48.03662291162369,114.08326828798901,-168.67768051030805,242.69438634988796,230.69533021422197,347.12614247047406
255,-29.746941276678907,-222.11173086056044,-47.3073995870345,108.21084603769499,-171.67274157692532,250.41382547349139,229.39650546509415,349.80876638934393
256,-31.21105008886342,-220.9960974708803,-46.55184748534966,101.00254127772456,-174.58437234178453,256.7349390536233,228.28376049896346,351.13572207797256
257,-32.59771312089622,-220.09043370424624,-45.771334582653566,92.56664190172782,-177.30546460840358,261.61167556612946,227.36991595215576,351.05647512178615
258,-33.88544816661239,-219.4058112354631,-44.9675957701178,83.03677102321628,-179.73044475624798,265.0186032848101,226.6629643560414,349.5394206725115
259,-35.0566566096152,-218.9478094237572,-44.1427131391345,72.56899148298969,-181.75707450500227,266.9498366453399,226.16609589712672,346.57265303104543
260,-36.097589350996536,-218.71667084741162,-43.299095438804336,61.33833453044758,-183.28811314691305,267.417741293863,225.87785836439616,342.164518311608
261,-36.99820467059551,-218.70760002004283,-42.43945499604224,49.53487690551258,-184.23281828259576,266.451471158189,225.7924399390613,336.34395185599624
262,-37.75194052665764,-218.91118752961748,-41.56678105926668,37.35950399336154,-184.50826452652248,264.09538851017174,225.90006022284055,329.1605993523059
263,-38.355424583994065,-219.31393891044405,-40.6843090951278,25.019502893108566,-184.04046156397288,260.4074149952894,226.18745230405884,320.6847158007553
264,-38.80814457573439,-219.89888564363721,-39.795485852548666,12.724128953077901,-182.76525451408156,255.4573581814725,226.638416776506,311.0068307516616
265,-39.11209958398282,-220.64625481579824,-38.90393005665036,0.6802836301013271,-180.62899190549763,249.32525367808347,227.234427529625,300.23716278345745
266,-39.271449917268036,-221.5341739893269,-38.01338841613906,-10.911569065925278,-177.58895107103586,242.09975611913077,227.95526874055693,288.5047617834484
267,-39.292180088364425,-222.53938848726037,-37.12768620004288,-21.861135771372513,-173.61351789504522,233.8766029153841,228.7796826473294,275.9563549529252
268,-39.18178634042082,-223.63796948997717,-36.2506711908253,-31.991584910592035,-168.68212682641024,224.75716386126766,229.6860083798535,262.7548725146854
269,-38.94899723314134,-224.80599316434115,-35.38614972865443,-41.14232754605324,-162.7849765464989,214.84707949986674,230.6527935166685,249.07763276751635
270,-38.6035328523611,-226.02017347047703,-34.53781391976309,-49.171244798215945,-155.92254550476537,204.25498332385405,231.65936209183587,235.1141738517432
271,-38.1559052547204,-227.25843413653996,-33.70915964128612,-55.95634367973824,-148.10493896718555,193.09129829143188,232.68632528098507,221.06373118833824
272,-37.61725997684136,-228.50040839139518,-32.903395494007704,-61.39684665660417,-139.3511047711511,181.46709691514042,233.71602376921862,207.13237435142014
273,-36.99925604192783,-229.7278582769864,-32.12334331223786,-65.41374107564386,-129.68795823807017,169.4930159573122,234.73289375304904,193.52983403635804
274,-36.31398001798094,-230.92500858487182,-31.371331374785466,-67.94983186685774,-119.14945733888077,157.27822066789417,235.72375155433542,180.46606733248413
275,-35.57388828108894,-232.07879355484383,-30.6490822258333,-68.9693540644955,-107.77566712209307,144.9294182877485,236.67799482431622,168.14762609438134
276,-34.791770580814806,-233.17901738107412,-29.95759802157662,-68.45721061451768,-95.6118478073141,132.54992504175553,237.58772121559414,156.77390753766522
277,-33.98072724871085,-234.21843223557784,-29.297047343364895,-66.41790594064082,-82.70759439201312,120.23879440159061,238.44776810310927,146.5333776094088
278,-33.15415199008113,-235.1927398444022,-28.666658128106132,-62.87424710722932,-69.11604798768103,108.09001680222667,239.25567930712336,137.59986597413513
279,-32.32571216792789,-236.10052454663955,-28.06462160666776,-57.865882174256356,-54.8931913450981,96.19180214036025,240.01160669991842,130.1290363625259
280,-31.509318781929117,-236.9431271520774,-27.48801204684584,-51.44773947580051,-40.097233906831335,84.62595618455283,240.71815599645615,124.25513718192063
281,-30.719078948595364,-237.72446972205955,-26.93272692869917,-43.688422487506195,-24.788085698501018,73.46736062838421,241.38018690084547,120.08813447133831
282,-29.969224649880534,-238.45084162100972,-26.393452106721792,-34.66860378816668,-9.026914674597249,62.78356431660357,242.0045781228897,117.711322580005
283,-29.274012904793416,-239.1306568780132,-25.863656535494016,-24.479449932256472,7.124221122808336,52.634490612415,242.59996765378787,117.1794975483796
284,-28.647594339139765,-239.7741921030561,-25.335621127689148,-13.221098259220549,23.60267704251983,43.07226328676106,243.17647812396075,118.5177641542394
285,-28.103849310701317,-240.39331294760325,-24.800506157645966,-1.0011975300050286,40.34547180662483,34.14115097538033,243.745436057582,121.7210299510215
286,-27.656193225662587,-241.00119546146684,-24.248461335173605,12.066483157102718,57.28949395418199,25.877628483546705,244.31909245293605,126.75421855023203
287,-27.317355396642768,-241.61204679136864,-23.66878235273769,25.863378732996786,74.37167254049535,18.310552332456925,244.9103504680409,133.55321049423154
288,-27.09913854966821,-242.24082758820032,-23.05011733383131,40.26739205924953,91.5291166438087,11.461448054099128,245.53250414209597,142.026494397697
289,-27.012168567369784,-242.90297638385258,-22.38072595900515,55.154106688624886,108.69922426900621,5.344907616752046,246.19899010985793,152.05748495046544
290,-27.065645988633676,-243.61413431574402,-21.64879288991069,70.39795868389255,125.81975711443306,-0.03090358766760559,246.92315235973345,163.50743928654586
291,-27.26711199628046,-244.3898671637011,-20.842795430538615,85.87337583196683,142.8288741200599,-4.663630279882072,247.7180184742462,176.2188805183772
292,-27.62224196458467,-245.24538084663183,-19.951923300021893,101.45588776568937,159.66511455636024,-8.556002112825006,248.59608460684515,190.0194181821453
293,-28.1346789924218,-246.19522636055387,-18.96654604595123,117.02320298443571,176.2673212802889,-11.715002638041144,249.56910575799242,204.7258409014982
294,-28.805918172073493,-247.25299068308138,-17.878720993658582,132.45623939580372,192.574496897828,-14.15093886917567,250.6478877865797,220.14834725314196
295,-29.63524965087658,-248.43097146595818,-16.68273165498471,147.64008512841772,208.5255897748444,-15.876423006481774,251.8420780893949,236.09477675914266
296,-30.619764893575265,-249.7398353494745,-15.375643172011728,162.46485755059385,224.0592128810089,-16.905284596719056,253.15995298503748,252.37470424138507
297,-31.754426122985937,-251.1882623121081,-13.957857701215119,176.826422216849,239.11330619377628,-17.251439630409727,254.60820143007453,268.80326770730295
298,-33.032194126228966,-252.7825813839623,-12.433648905599982,190.62693131310138,253.62476264921514,-16.92775236764676,256.19170659074774,285.2046127667544
299,-34.44420513168174,-254.52640601305563,-10.811651297818742,203.77514431610558,267.5290477580151,-15.94493508156485,257.9133287714772,301.41485516433374
300,-35.979983914708605,-256.4202800583782,-9.105277392175115,216.18650271419332,280.75985261006565,-14.310539090958281,259.7736950126496,317.2844863970106
301,-37.627677950527456,-258.4613475557119,-7.333033791830902,227.78294566936975,293.2488272430333,-12.0280960692278,261.7710021356777,332.68017396562186
302,-39.37429627647753,-260.64306098843036,-5.5187069100425274,238.4924736521498,304.92544487061616,-9.096470603193987,263.90084111533463,347.4859360079811
303,-41.20593674321935,-262.9549437598033,-3.691390481904846,248.24849104509403,315.7170469615466,-5.509482726694781,266.15605143684076,361.6036988183322
304,-43.10798662756966,-265.38242273124246,-1.8853306562858207,256.9889846150996,325.5491151562916,-1.255852600835827,268.52661446303824,374.9532741627498
305,-45.06528414675187,-267.9067458111322,-0.13957037020341476,264.65561995475605,334.3458089926199,3.680490933958762,270.9995946106219,387.4718197844622
306,-47.062231964735126,-270.5049975454008,1.5026170980666982,271.19285902566975,342.0307983565155,9.319709898104566,273.5591362132365,399.11286850018314
307,-49.082857807388976,-273.1502225793667,2.994505309393108,276.5472148627457,348.5284064754526,15.68495306196453,276.18652235489714,409.84502603473953
308,-51.110821246729316,-275.8116629476998,4.286891164515768,280.6667607810983,353.7650642703917,22.80085472339866,278.86029972414224,419.6504437868658
309,-53.129369113364056,-278.45511071357015,5.32924819121112,283.50099913716724,357.67106257763015,30.69166233411941,281.5564707477787,428.5231710047631
310,-55.121244664834,-281.0433729579944,6.071024443237476,285.0011693826046,360.18257768142973,39.379038206805674,284.24875119943835,436.46748385205274
311,-57.06855782763273,-283.5368419810434,6.463045404284102,285.1210397814508,361.2439379904139,48.87959822920457,286.9088886243186,443.4962783782653
312,-58.95262612106997,-285.89416011780634,6.458977148219354,283.81818616355366,360.81009286887866,59.202265718732775,289.507034731851,449.629600383586
313,-60.75379873361769,-288.07296587529544,6.016801810781005,281.0557190399311,358.849235001293,70.34553122473609,292.01216361825635,454.893366620538
314,-62.45127964074581,-290.0307061334698,5.100255763273562,276.80438100890177,355.3455134064225,82.29471970303777,294.3925272964016,459.31830880621555
315,-64.02296916330134,-291.72549789438807,3.680180539488103,271.0449020982644,350.30175627092245,95.01937542963033,296.61614041016054,462.9391464131412
316,-65.44534639087925,-293.1170224833024,1.735737613725193,263.77047314615515,343.7421037628767,108.47088222730552,298.6512870350386,465.7939690417967
317,-66.69341700192324,-294.16743510969667,-0.744559194170167,254.98917809442858,335.7144335951409,122.58044152121488,300.4670439149414,467.92378718157704
318,-67.74075191427958,-294.84227307057927,-3.7620352870181213,244.72621713991708,326.2924482663989,137.25753245228597,302.03381607249435,469.3721936798415
319,-68.55964161630233,-295.1113463473857,-7.307305621292847,233.02575622130468,315.5772838933655,152.38897541886965,303.323882112223,470.18506909660994
320,-69.12138869088945,-294.94959460843364,-11.360009534139452,219.9522560038445,303.6984974026895,167.83871145038546,304.3119473277213,470.4102636618165
321,-69.3967569441563,-294.33789424747,-15.888844741263418,205.59116597366435,290.8142925755977,183.4483932923201,304.9757024311715,470.0971974078526
322,-69.35658996898759,-293.26379755774025,-20.851902943087048,190.04891528087148,277.11085686082885,199.03885891854065,305.29638378234745,469.29633755711876
323,-68.9726049522534,-291.72218332120485,-26.19729756531571,173.45218756058796,262.8007005657332,214.41252395098687,305.2593271356224,468.0585357021044
324,-68.21835841649543,-289.7157946195476,-31.864064224791544,155.94652462918208,248.1199185824337,229.35668672087112,304.85450158876586,466.43423204730146
325,-67.07036849113499,-287.2556367757358,-37.783307518962744,137.6943536321016,233.32433300535806,243.6476904016883,304.0770047200196,464.47255479483186
326,-65.50936322079582,-284.36120722568046,-43.879563537871356,118.87256404715116,218.6845233679538,257.0558343350842,302.92749512015627,462.22035612710505
327,-63.52160774560366,-281.060530597775,-50.07234498208322,99.66976898694101,204.47980887419482,269.3508763019014,301.4125356569137,459.7212316922051
328,-61.10024728682902,-277.3899767042043,-56.27783353977701,80.28337011977511,190.9913107128302,280.3079247552937,299.5448204433298,457.0145701081399
329,-58.24659017652483,-273.3938464498005,-62.41068138351478,60.91651422416345,178.49428694936603,289.7134903158564,297.34326082077746,454.13467560663753
330,-54.97124758695303,-269.1237202752241,-68.38588031552047,41.77499239684175,167.24999134579093,297.3714528263176,294.83291049785583,451.11000266806207
331,-51.295045253645426,-264.63757468061704,-74.12065371287031,23.064100642533173,157.49735521091898,303.1087047210943,292.0447167189757,447.9625374144411
332,-47.24962764064786,-259.99868341472876,-79.53632347057432,4.985460725643695,149.4448239728168,306.7802506780449,289.0150921376709,444.70735656081615
333,-42.87768630622043,-255.27432986990118,-84.56010196804395,-12.266203231940365,143.26269495706353,308.2735720838866,285.78531003657383,441.35238958053105
334,-38.232760877127866,-250.5343651863632,-89.12675807969151,-28.50632363063226,139.07629866863942,307.5120968889942,282.40073294051865,437.89840170855206
335,-33.378581887303305,-245.84965216906738,-93.18010691016309,-43.56374816031043,136.9603432584349,304.4576474170314,278.90989118710655,434.3392041393241
336,-28.387948334851718,-241.29043860861887,-96.67427579207697,-57.28392865519284,136.93470283075706,299.1117707325219,275.3634337584837,430.6620851624325
337,-23.34115752460149,-236.92470566241636,-99.57470445617624,-69.53193687139931,138.96187756169581,291.5158907447685,271.8129789616635,426.84844519542156
338,-18.324029080562163,-232.8165382887663,-101.8588449949552,-80.19518001954216,142.94629024348103,281.7502607717609,268.3098975601753,422.87461263749316
339,-13.425587752207006,-229.02456559746662,-103.5165366637554,-89.18568046866038,148.73551280968687,269.93174044748827,264.9040654811483,418.7128178359311
340,-8.735489843823444,-225.60051906202992,-104.55004101109694,-96.44179311351972,156.1234400845248,256.2104700753578,261.6426266113312,414.3323089636097
341,-4.341294831137312,-222.58795515494103,-104.97373388011349,-101.92925788188055,164.85534825894374,240.7655655566107,258.56880769656516,409.7006036397708
342,-0.32569598962077917,-220.02118554768916,-104.81346229969925,-105.64151854492997,174.63469441433062,223.80000378182976,255.72082650460194,404.784879071057
343,3.2361693867606602,-217.9244524672916,-104.10558605521324,-107.59927712150784,185.13143400664882,205.53490784924767,253.1309313082887,399.5535060464771
344,6.279209295238763,-216.31137947960397,-102.89573548039888,-107.84929197739964,195.99156027341505,186.2034703903046,250.82460499006086,393.9777241099585
345,8.750551804262692,-215.18471937291883,-101.23732807957904,-106.46246508023427,206.84750841935528,166.04476947150343,248.8199613463041,388.033435243811
346,10.611305255966283,-214.53641133828745,-99.1898960681911,-103.53129864439286,217.32902317140216,145.29773390210406,247.12735495841727,381.70306372289053
347,11.83782417018516,-214.3479495158011,-96.81728407709636,-99.16683254604966,227.07406467677876,124.19550298370746,245.74921950238442,374.97739615315413
348,12.42242609305636,-214.59105428548733,-94.18578081559548,-93.49519960895022,235.73932694589433,102.96040010449968,244.68014255746536,367.857285592051
349,12.373532329230391,-215.2286265499974,-91.36225043747429,-86.6539537790354,243.00996549698155,81.79970136893469,243.90717771314948,360.35508421248323
350,11.715234223971056,-216.21595420962325,-88.4123286102178,-78.78833479367096,248.60817505492398,60.90233221817749,243.41038710191322,352.4956653367155
351,10.48631481604893,-217.50213017929167,-85.39874448564979,-70.04763227392559,252.30032084530924,40.43657018871507,243.16359976636664,344.3169099758704
352,8.7387815720718,-219.03163381477023,-82.37982271657408,-60.58180229187633,253.90240347318985,20.548773869920655,243.1353639398852,335.8695641447385
353,6.535987932232428,-220.74602283983592,-79.40820995677412,-50.53846881945978,253.28372192447603,1.363099462164235,243.29006447889114,327.21641736879957
354,3.950438229487088,-222.58568017945825,-76.52985910743033,-40.06040953957457,250.36868615657642,-17.01788995273757,243.58917007897648,318.43080473173546
355,1.061381168499221,-224.49155876234138,-73.78329280800436,-29.283582260132807,245.13681495438485,-34.51186719993393,243.99256838171985,309.59448890906856
356,-2.0476990774659383,-226.40686715553093,-71.19915556383368,-18.335700511248284,237.6210317722934,-51.05481938787983,244.4599409792412,300.7950291946106
357,-5.29158779275616,-228.27864010352312,-68.80005163502689,-7.335321596912373,227.9044371599232,-66.59876896948352,244.95212549739512,292.1227860577785
358,-8.585742848139422,-230.05914106741312,-66.60065397638633,3.608627634737322,216.1157877845173,-81.10935068698832,245.4324094350337,283.66773785062975
359,-11.84851164343381,-231.70704900441103,-64.60805903483974,14.396989687671784,202.42394715389233,-94.56344613632751,245.8677011195713,275.51629856239384
360,-15.003094614111548,-233.18838899407524,-62.82235392034353,24.940297337239475,187.03159195311736,-106.9470503941628,246.22952739515443,267.74832211920034
361,-17.979207357554426,-234.47717574564265,-61.237356785909796,35.158594393103854,170.1684620073883,-118.25350492893378,246.49481529796637,260.43446168959576
362,-20.714413263288026,-235.55575011751014,-59.84148813637617,44.98125965656188,152.08443320142516,-128.48218165263367,246.64642535215668,253.63402436225272
363,-23.155117495047886,-236.41480101255527,-58.61872997154666,54.34690968119203,133.04267233282795,-137.6376495790859,246.67341641279313,247.39342434852995
364,-25.257230111175105,-237.05307781582022,-57.54963086098675,63.20341832974082,113.313101158486,-145.72930466373796,246.57103535446032,241.74529313660892
365,-26.98651988394072,-237.47681139188583,-56.61231783733465,71.50804837049002,93.16635491083379,-152.77140108410734,246.34043854902947,236.7082553387237
366,-28.318690108418775,-237.6988740748254,-55.78347980803867,79.22764897422097,72.86837176328379,-158.78339130287128,245.98816524096057,232.2873282528747
367,-29.239213295025877,-237.73772050928446,-55.03929151791943,86.33884095153772,52.67569919601737,-163.79046206670006,245.52539495118182,228.47485644620312
368,-29.742963822120085,-237.6161609181658,-54.356251786870466,92.82809580539525,32.831555288934815,-167.82414279258407,244.9670313126659,225.25185613245552
369,-29.833687242625675,-237.36002558172345,-53.71191489790551,98.6916176391854,13.562640080874605,-170.92286182001504,244.3306626523337,222.58962376298538
370,-29.523342558464538,-236.99678343646005,-53.08549967416723,103.93495580455877,-4.923344216868159,-173.13233521121643,243.63545471319296,220.45146164775034
371,-28.831349843123583,-236.55417868090538,-52.45836681997979,108.5723048697851,-22.439533596329152,-174.50569094931663,242.9010330927826,218.79438806273518
372,-27.78377075718383,-236.05894741423862,-51.814361194230294,112.62548088751129,-38.82119147418182,-175.1032560099488,242.14641249584682,217.57072485216716
373,-26.41244459222249,-235.53567170203527,-51.14002142023052,116.12259458756186,-53.92654425742782,-174.9919625860473,241.38902675021163,216.72948714139457
374,-24.754098163070605,-235.00582068780838,-50.42466429810177,119.09647041745757,-67.63726157331327,-174.24436113274894,240.6439072942967,216.21753414691514
375,-22.84944443987939,-234.48701730458632,-49.66035578321303,121.58288378192904,-79.85867370281869,-172.93726021819887,239.92304834786557,215.98047454669526
376,-20.74228228387953,-233.99255556174504,-48.841783800262476,123.6187062344478,-90.5198081069137,-171.15004408075004,239.23498493930103,215.96335147970524
377,-18.478607935251404,-233.5311787560903,-47.9660507051121,125.24005887462404,-99.57331270984946,-168.96274563510732,238.58459671786267,216.11115791447338
378,-16.105747847227907,-233.10711467758907,-47.0324045305421,126.48057762448789,-106.99531672398999,-166.45397334761157,237.97313727549758,216.36925068691352
379,-13.67152183084042,-232.72035085181565,-46.04192813827029,127.36989114411335,-112.78526096403499,-163.69880378308505,237.39847635944392,216.68374012735777
380,-11.22344497709668,-232.3671216069645,-44.99720416898662,127.93240422971525,-116.96570945610799,-160.76675710716844,236.855531402444,217.00193190936912
381,-8.807976186613192,-232.04056968040618,-43.90197152929029,128.1864677938122,-119.58213357270431,-157.71996984482533,236.336855700952,217.27288883135898
382,-6.469820195701272,-231.73153856283497,-42.76078644778545,128.14400145110736,-120.7026402274449,-154.61166743298006,235.8333437933388,217.44816326386487
383,-4.251288734946168,-231.42944805463614,-41.578698303695404,127.81061617851218,-120.41759857326655,-151.4850192894302,235.33501046780745,217.48272753936504
384,-2.1917250309737697,-231.12320457799717,-40.3609479505964,127.18626223472462,-118.83910706454832,-148.3724335814397,234.8317984701819,217.336102679838
385,-0.3269945058989231,-230.80209946073592,-39.11269443540307,126.26640164874105,-116.1002363244919,-145.29532119041272,234.31437127384626,216.97365954383798
386,1.310956490497114,-230.45665242164182,-37.838774787677,125.04367563201865,-112.35398398450748,-142.26433219034104,233.77485096592008,216.36804431346863
387,2.694472626428967,-230.07936346457146,-36.543500610837924,123.51000594497611,-107.77188556373142,-139.2800459945245,233.20746698066412,215.50066418305957
388,3.800491174729319,-229.66534372020533,-35.23049433172962,121.65903667462277,-102.54223952261165,-136.3340789327118,232.6090884420196,214.3631590867134
389,4.6107726529983175,-229.2128037382979,-33.90256718750066,119.4887911027445,-96.86792289417524,-133.41055970843874,231.97962055890133,212.95877976235195
390,5.112061047140079,-228.72338578297857,-32.561640427946266,117.00439055088397,-90.96379389764492,-130.48791280549128,231.32225332991595,211.30358963811673
391,5.296176008300479,-228.20233452554555,-31.208710735274835,114.22066218738821,-85.05369740144829,-127.54088187183733,230.64355846629192,209.42740740037897
392,5.160041628853767,-227.65850793159615,-29.843860375919096,111.16445436165841,-79.36710647364404,-124.54271965055969,229.95343767828965,207.37440978631352
393,4.70565836106957,-227.10423679315952,-28.46631202109015,107.87648302684553,-74.13544772608317,-121.46746854576465,229.26493195497903,205.20332181905522
394,3.9400258093238105,-226.55504696814856,-27.07452750951254,104.41255075059638,-69.5881694557072,-118.29225605050095,228.5939068892024,202.98713499090843
395,2.8750242469348404,-226.02926283556735,-25.666349065850735,100.84400841058145,-65.94861990230619,-114.99953081736668,227.95863332689723,200.81231195094145
396,1.5272618064741328,-225.5475137936971,-24.239180537935088,97.25736630345183,-63.4298089072335,-111.57916698424425,227.37928568487115,198.77745778522416
397,-0.08210745683866572,-225.1321678800937,-22.79020499324259,93.75300403511807,-62.230130758167064,-108.0303663891021,226.8773822438024,196.9914622881406
398,-1.927591803872649,-224.806717819331,-21.3166336008431,90.44297549523816,-62.529129811359084,-104.3632914187072,226.47519264170194,195.57114432703673
399,-3.979596265454319,-224.5951451224549,-19.815979336001188,87.44795418870837,-64.48339392650132,-100.60036632130823,226.19513780685722,194.63845731918653
400,-6.204685995074666,-224.52128741279031,-18.286347827890783,84.89341204041537,-68.22266364611433,-96.7771919469246,226.0592068316674,194.31734144348246
401,-8.565883642945728,-224.60823291945954,-16.726736612559186,82.90516809033534,-73.84624683179564,-92.94302748105135,226.08841377536825,194.73033038217434
402,-11.023007665251138,-224.87776389766992,-15.137333131610381,81.60447959473365,-81.4198284024958,-89.16080237441275,226.302314919386,195.9950358270102
403,-13.533059423340507,-225.34986746056626,-13.51980116421209,81.10287533576884,-90.97276228718313,-85.5066327258654,226.71860344566684,198.2206410261094
404,-16.05066691446419,-226.04232787782456,-11.877545253825502,81.49694831113332,-102.49592738315714,-82.0688298749934,227.35279382042987,201.50453590171253
405,-18.528591949516258,-226.97040889532926,-10.215943312839956,82.86333145929713,-115.94022105495063,-78.94640545048665,228.21800244461315,205.92922150190702
406,-20.918305560270486,-228.14662845961803,-8.542538964324228,85.25407524537702,-131.21575232005804,-76.24709568508689,229.32482477928107,211.55960095180018
407,-23.17063353632482,-229.58062204778807,-6.867187037727195,88.69263043708378,-148.1917822422475,-74.08494647414514,230.68130280608278,218.44075759555577
408,-25.236470564412414,-231.27908518553733,-5.20214757838398,93.17061491281186,-166.69744164104455,-72.57751770779088,232.29297089302383,226.59629925161244
409,-27.067557788528458,-233.24578100586723,-3.5621254564939386,98.64551207008374,-186.52323722016476,-71.84278012525105,234.1629632218475,236.02732198089973
410,-28.617314945919183,-235.48159506358698,-1.9642540070949037,105.03941266783603,-207.42333818664085,-71.99579023875862,236.29216211408533,246.7120195288288
411,-29.841714694068003,-237.98461730539697,-0.42802200115482003,112.23887395977174,-229.11861773302041,-73.14523855448833,238.6793641218891,258.60593748137074
412,-30.700183453269464,-240.75023030811045,1.0248564347402302,120.09593166656519,-251.30040819717559,-75.38997276720033,241.321439862875,271.6428455136823
413,-31.156510156626087,-243.77118371808015,2.3706295606465173,128.4302631297448,-273.6349155868588,-78.81560015397886,244.21346438139625,285.7361779448075
414,-31.17974178374845,-247.03763721312285,3.5837546044580493,137.0324648841783,-295.7682283567668,-83.49127175415,247.3487972889232,300.7809730548019
415,-30.74504254941192,-250.53715816746615,4.637204859620575,145.66837557177152,-317.33184641434417,-89.46674517430935,250.71909599191738,316.65622588307775
416,-29.8344923013787,-254.25466535009696,5.502839017022415,154.08434601108902,-337.9486486531059,-96.76981319953452,254.31425079404235,333.22755764590823
417,-28.437799212386302,-258.17231607898435,6.151833841153927,162.01333235696134,-357.23921030515527,-105.40417219061612,258.1222372231827,350.35009731726126
418,-26.55290227896476,-262.2693408181791,6.555180079761865,169.18166524316842,-374.8283748841283,-115.34778828543656,262.12888810775223,367.87146716125363
419,-24.18644041050422,-266.5218358311329,6.684239808006206,175.31632706021844,-390.351979728333,-126.55180197191707,266.3175952788591,385.6347641528961
420,-21.354066964456305,-270.9025308825004,6.511361417773244,180.15255076065847,-403.4636297518167,-138.93999430765507,270.66895797195184,403.48143359307875
421,-18.08059162751044,-275.38055472289716,6.010546303517366,183.44153688473492,-413.8414116844403,-152.40882285230435,275.1604016566863,421.2539403157246
422,-14.399935874153183,-279.9212256415164,5.158159001332459,184.95807128277724,-421.1944414117581,-166.82802415700172,279.76579660059525,438.798157165912
423,-10.354893804606936,-284.4858972047897,3.9336700062735317,184.50781518628932,-425.26914001785025,-182.04177342054714,284.45510941078163,455.9654098142294
424,-5.99669624215068,-289.0318900932093,2.320417512115564,181.9340337068621,-425.85513860908173,-197.8703896940186,289.1941226552147,472.6141401811965
425,-1.3843815861737778,-293.5125394999805,0.30637059976701986,177.12353127321714,-422.79071542530664,-214.11257372538458,293.94425710319337,488.6111751029385
426,3.416018404906639,-297.8773837465386,-2.1151282485363168,170.01157521261416,-415.9676681700228,-230.54816149374454,298.6625279642636,503.83260897467903
427,8.332465763589248,-302.07251383352747,-4.944668780865433,160.5856115227332,-405.33551827455386,-246.94136754550766,303.30166099221157,518.1643260685322
428,13.288060487513867,-306.04109632899775,-8.176159458592961,148.88760694754978,-390.90493311584936,-263.0444789538809,307.81038723023755,531.5021988649197
429,18.202321950722165,-309.72407423252844,-11.796331394863913,135.01488495687857,-372.75024102303206,-278.6019455511094,312.1339274417906,543.7520042036725
430,22.992583944076138,-313.06104287688953,-15.784397656315706,119.11935811761013,-351.01090731607127,-293.3547977389131,316.2146695233522,554.8291022567746
431,27.575476491762966,-315.9912907646856,-20.11190368238595,101.40509652653965,-325.89184143981487,-307.0453114870142,319.99303467476165,564.6579273459428
432,31.86846544487791,-318.4549885855726,-24.742798748066704,82.12421417692839,-297.6624168380829,-319.4218318659467,323.40852095976834,573.1713462437057
433,35.79141999352107,-320.3945036900392,-29.633749175635398,61.571105082292924,-266.6541060283986,-330.24366169991606,326.40090634554906,580.3099488893901
434,39.26817849333882,-321.75581207557514,-34.73470194767873,40.07512028374121,-233.25666234911318,-339.2859203749215,328.91158744822707,586.0213474661443
435,42.2280842103599,-322.4899751772342,-39.98969335754635,17.99184561633833,-197.9128162061878,-346.3442790070995,330.885024731755,590.2595709952571
436,44.60746485617844,-322.5546439096975,-45.33788270714073,-4.306783522030892,-161.11149631860746,-351.23948129590053,332.2702592766309,592.9846514715435
437,46.35103313568136,-321.9155471099623,-50.71477763920849,-26.443214693783503,-123.37963362215191,-353.82156321981904,333.0224600961445,594.1624998375011
438,47.41318935787185,-320.547915887212,-56.053607340941845,-48.04546785884728,-85.27265458907641,-353.97368761917267,333.104454449947,593.7651602450302
439,47.759210216589295,-318.43779009380285,-61.286793874155954,-68.75833236870896,-47.36381929015479,-351.61550997658384,332.48818739231166,591.7715046383088
440,47.366308644698876,-315.58314938133407,-66.34747053372132,-88.25409070805597,-10.232605986927219,-346.7059882891019,331.1560520780495,588.1683868112231
441,46.224546952565625,-311.9948105051979,-71.17099852161404,-106.24229336121556,25.547612144256423,-339.24554293042195,329.10203043899685,582.9522222704632
442,44.33757892265753,-307.6970359405668,-75.69643759875483,-122.47815371744065,59.42231146441806,-329.27746327982527,326.3325857815448,576.1309080821038
443,41.72318721742341,-302.72780718198834,-79.86793086830211,-136.76921050244567,90.86865898925859,-316.8884493231131,322.8672551617268,567.7259545464228
444,38.41357285301446,-297.1387290884954,-83.63596733449278,-148.980005992413,119.40809293993632,-302.20817230247025,318.7388998643584,557.774671750962
445,34.455346828111594,-290.9945479160974,-86.9584884040037,-159.03463681153673,144.6182612973008,-285.40774396162914,313.9935859188417,546.3322381008361
446,29.909173308899152,-284.37228298466067,-89.80180698386997,-166.9171379334549,166.14392590561587,-266.6970046827491,308.6900817567802,533.4734738574386
447,24.8490210753894,-277.3599879757534,-92.14131153087116,-172.66975208002532,183.70644660056672,-246.32058088514168,302.8989754397677,519.2941518378566
448,19.360995672889764,-270.0551712218746,-93.96193326898836,-176.38921402356667,197.1114880411504,-224.552721013367,296.701428608704,503.9117018364532
449,13.54174740983042,-262.5629146605684,-95.25836300086448,-178.22124406688712,206.25464179189706,-201.69099113812845,290.1875980983843,487.46520453699793
450,7.4964766908591915,-254.9937388066842,-96.03501381082677,-178.35349991824532,211.12472449231026,-178.0489859093362,283.45476857248354,470.1146201002433
451,1.336583985311853,-247.4612670527574,-96.30573618179513,-177.00728278460204,211.80459353874573,-153.9482791535239,276.6052499739531,452.03924908976467
452,-4.822966481197413,-240.0797478670286,-96.0933011520075,-174.4283309976373,208.46940770692564,-129.7098948147751,269.74410167231474,433.43547184483384
453,-10.866484190242808,-232.9614985841387,-95.42867395675633,-170.87706008200084,201.38234623625567,-105.64562005550546,262.9767507995531,414.5138515192939
454,-16.680495646413497,-226.21433921438762,-94.35010465492653,-166.61861847057762,190.88788336308352,-82.04950604097735,256.4065752828243,395.495713030024
455,-22.156693134370244,-219.93908816734466,-92.90206393225554,-161.9131209628118,177.40279544798702,-59.1899061606863,250.13252234945455,376.609325201806
456,-27.19478750337356,-214.22719312003298,-91.1340527754116,-157.00639817734387,161.40515454867705,-37.302384722687485,244.24683091154498,358.0858189699514
457,-31.705166072787772,-209.15856897720704,-89.09931544344433,-152.12156316757748,143.42163453379126,-16.583791792194017,238.8329217957237,340.15497401187264
458,-35.611262815496154,-204.7997108121073,-86.85348704492948,-147.4516509854057,124.01352116596827,2.8122555619099523,233.9635139773012,323.04100210106446
459,-38.85155796291707,-201.20214283105256,-84.45320998853518,-143.15353796598316,103.76187225192645,20.778314435897038,229.69901826641535,306.9584483831392
460,-41.38113813756571,-198.40125491371168,-81.95475672417591,-139.34329829495326,83.2523131687519,37.25438609117245,226.08625243057642,292.10832056389796
461,-43.17276546927128,-196.41556641183732,-79.41269842700119,-136.09310789289907,63.059971565192036,52.227501797994634,223.15751347548618,278.6745392478229
462,-44.217423752774486,-195.24644298867352,-76.878659699015,-133.42976013983161,43.73504841334285,65.72968939609062,220.9300335300377,266.82078056768876
463,-44.5243301654485,-194.87827684254495,-74.40019741622355,-131.33481373390694,25.789489000672987,77.83445497219763,219.40583525321549,256.6877577752902
464,-44.12042110740221,-195.27912440741162,-72.01983739238645,-129.7463492107664,9.685158672066397,88.65197081232972,218.57199091625844,248.39096648404507
465,-43.04933937976869,-196.40177944747145,-69.77429585940904,-128.56226681906656,-4.176150469567801,98.32320266657126,218.401276674422,242.01890302408216
466,-41.369966452863935,-198.18524421040124,-67.69390450467209,-127.6450137328801,-15.460646328972508,107.01323676246689,218.85320055617976,237.63175822931396
467,-39.15455752661739,-200.5565476620512,-65.8022487093449,-126.8275818618286,-23.9082559507001,114.90408161294411,219.87536994566565,235.2605878424773
468,-36.48654831395021,-203.43284839488675,-64.11601938391433,-125.92056900330982,-29.336087457452464,122.1872230974843,221.40515252435281,234.90696152191387
469,-33.45811097468126,-206.72375114061984,-62.6450699940472,-124.72004886842646,-31.63966915006221,129.0562047465957,223.37157455521586,236.54309113255786
470,-30.167542183080368,-210.3337602479193,-61.392662587621125,-123.01595504890022,-30.79207341689079,135.69948976565274,225.6973926109592,240.11243305566956
471,-26.716568500087423,-214.1647909205507,-60.35588033364333,-120.60065581814915,-26.841093800944257,142.29383829614733,228.30126952612173,245.5307482280908
472,-23.207652750991514,-218.1186591092369,-59.526179492705175,-117.27738442403138,-19.904690482434418,148.9984038048515,231.0999824194435,252.6875892024051
473,-19.741380160158506,-222.0994734884648,-58.89005095309215,-112.86819448857632,-10.164952274867119,155.94971718313516,234.01059017660899,261.4481688553738
474,-16.41399520828438,-226.01585799064327,-58.429760533225014,-107.22113193294744,2.139157158863704,163.25768700946944,236.95249016477115,271.65555404286266
475,-13.31515041254796,-229.7829410622953,-58.12413801112556,-100.21635256416894,16.719992920159765,171.00270070839798,239.84929948504822,283.13312247462005
476,-10.525917356263918,-233.32405805023603,-57.94938689067934,-91.77096681134672,33.25008701322512,179.23386570468148,242.63050466981997,295.687223791112
477,-8.117099088134127,-236.5721254901039,-57.879889873631896,-81.84245770383794,51.37140286034045,187.96838396845524,245.23283491918747,309.10999535811953
478,-6.1478720608735316,-239.47065998093342,-57.88898866482355,-70.43059074976263,70.70473025416086,197.19200936316565,247.6013271277209,323.18229627688197
479,-4.664775442015228,-241.97442910495386,-57.94972082984393,-57.57780889990862,90.85898190851552,206.86049678853087,249.69006532615126,337.67673485486154
480,-3.701056044930993,-244.04973654273363,-58.03550053247759,-43.36817583674797,111.44017541948932,216.90191737327305,251.4625916999663,352.3607714457178
481,-3.2763682536732657,-245.67435711918137,-58.12073381600674,-27.92499092524985,132.0599131499724,227.2196872911796,252.8919999546434,366.9998789620939
482,-3.396820075594682,-246.83714940353033,-58.181362594290036,-11.407245524520533,152.34320681293474,237.69614128985853,253.96073384853432,381.3607391247563
483,-4.055348916947934,-247.53738355872815,-58.19533455409589,5.9948787301501465,171.9355312814125,248.19647666183954,254.66012401769933,395.2144463822031
484,-5.232403958749774,-247.78383032606672,-58.14299842789796,24.065253065707598,190.5090296820408,258.57289826605336,254.98970458541962,408.33968527946
485,-6.89690606666203,-247.59366312977716,-58.007425359509334,42.567566069070566,207.76782476799664,268.6688082850748,254.95635718932766,420.52584138751143
486,-9.007450849053402,-246.99122905314974,-57.77465746657072,61.25139570371416,223.45241662820052,278.3229037056676,254.57333373186228,431.5760008625609
487,-11.51371575883063,-246.00674566498833,-57.433884576897654,79.85838870368866,237.34316303518844,287.373068494897,253.85921021641613,441.3097898683669
488,-14.358028157167917,-244.6749792304433,-56.97754987491676,98.12836686223636,249.2628476371539,295.6599744392934,252.83682240591514,449.5660032830694
489,-17.47704823999026,-243.0339557970067,-56.40138510710895,115.8052036811686,259.07834569864673,303.0303323918819,251.53222985775955,456.2049727108866
490,-20.803518964003143,-241.12375036977318,-55.704376225029,132.64234087519125,266.7014003522038,309.33976176054176,249.97374856543647,461.1106265640999
491,-24.268034927271145,-238.98539146819755,-54.88866099385812,148.40784009391948,272.088526832334,314.4552684221657,248.19108462117848,464.19219933827264
492,-27.800783743675748,-236.65990944459034,-53.959361158782556,162.88888943836974,275.24006937858053,318.25733858562035,246.21459270494856,465.38555278671436
493,-31.33321668868783,-234.1875476321716,-52.92435308453749,175.89570645409415,276.19844585191055,320.6416678908946,244.07467438934833,464.65407835253956
494,-34.79960991109805,-231.60714613195682,-51.793982103414585,187.26479959815563,275.04562834480157,321.5205513276204,241.80132262575316,461.98915802986807
495,-38.13848279352252,-228.9556991483277,-50.580726879028866,196.86156926482943,271.8999236064427,320.8239612314995,239.42381056173068,457.4101701792983
496,-41.293845606468246,-226.2680784608148,-49.29882084413722,204.58224763904667,266.9121341079634,318.50033908269535,236.97051518371163,450.9640380732369
497,-44.21625412206656,-223.5769081466073,-47.96383835156806,210.35519371041846,260.26119768203944,314.51712364720765,234.46885945249846,442.7243318806799
498,-46.8636543031122,-220.91256946720404,-46.592253786373625,214.14157489687895,252.14941902647584,308.8610345761298,231.94535107285148,432.7899484449034
499,-49.202005702461754,-218.30331033280063,-45.20098254934013,215.93547868992405,242.79741802235642,301.5381277616372,229.4256922761879,421.28340599157985
500,-51.20567787121698,-215.77543112112363,-43.80691343871472,215.76350540402632,232.4389263054383,292.57363639931253,226.93493315681226,408.3488009495059
501,-52.8576197927882,-213.3535177422982,-42.42644252454454,213.68389583355184,221.315564267403,282.01160908649115,224.49764106804838,394.1494799033786
502,-54.14930799461999,-211.06069357649574,-41.075019143470854,209.78524556092395,209.67172611838296,269.9143532445808,222.13806020966697,378.8654812694863
503,-55.080484425236556,-208.9188641729245,-39.76671488219712,204.1848520427077,197.74969201513005,256.3616895917644,219.88023865661322,362.69080014936304
504,-55.658700314620766,-206.94893218203066,-38.51382596603991,197.0267334248455,185.78507490828548,241.4500225054919,217.74810438207265,345.8305281679336
505,-55.89868701350101,-205.17096459471995,-37.3265182569149,188.4793512364793,174.0026966089586,225.2912323643382,215.76547698801147,328.49791936491647
506,-55.82157925415073,-203.60429967576798,-36.21252240030254,178.73306383813036,162.61297266007227,208.01139853006666,213.9560076330331,310.91143311311714
507,-55.45402029070007,-202.26758657740208,-35.17688490439656,167.9973341266208,151.80886822531247,189.74936373822177,212.34304566100778,293.2918039227866
508,-54.827181549376526,-201.17875586777396,-34.22177938607783,156.49771353564051,141.76346693736886,170.6551509918874,210.94943600568513,275.8591844541595
509,-53.975731119976636,-200.354923530794,-33.34638112312817,144.47262478059983,132.628172417981,150.88824342064478,209.79725589134694,258.830402728122
510,-52.93678518377731,-199.8122342562293,-32.546807495446586,132.16996812064608,124.53154039999754,130.61573897013747,208.90750243284248,242.41637012960035
511,-51.7488744033495,-199.56565236047732,-31.816126766131973,119.84358021451524,117.57872059273923,110.01039809804426,208.29974476972552,226.81967600904161
512,-50.4509540461508,-199.62871080896724,-31.14443775060534,107.74958060241873,111.85147264358102,89.24861384557946,207.99175580401163,212.23240733581468
513,-49.08148282378592,-200.01323057634207,-30.519023039999773,96.14264720690213,107.40870887152789,68.50834638174517,207.999139589588,198.8342342862257
514,-47.677591303543075,-200.7290237704485,-29.924578341520846,85.27226703709978,104.28750642849216,47.96707409137525,208.33497075312616,186.7908001234499
515,-46.2743562014284,-201.78359441582288,-29.343519961594613,75.37900989059388,102.50452261301797,27.79981789271096,209.00946182556862,176.25244362697902
516,-44.90419190714497,-203.18185055384285,-28.756371419096176,66.69087100563799,102.05773969337261,8.177294392670866,210.029673036248,167.35326533633358
517,-43.59636543861892,-204.92584043068112,-28.142228707630277,59.419724377158204,102.92846052335358,-10.735752368416444,211.39927708243795,160.21052792839637
518,-42.37663598339206,-207.01452406332555,-27.47930197585711,53.7579234563795,105.08347381527253,-28.782000325829593,213.11838876570567,154.92435971498608
519,-41.26701551921417,-209.44358948937537,-26.74552951342824,49.87508173404981,108.47730810439376,-45.81275179182923,215.18346633877093,151.5777116328365
520,-40.28564287445033,-212.2053206722625,-25.919257965668667,47.91506323190665,113.05449595062139,-61.68887437254068,217.58728811676886,150.23650435429144
521,-39.44676012577848,-215.2885215034635,-24.979980614635217,47.99321241443083,118.75177455923622,-76.28148014441945,220.31900454346098,150.9498943428404
522,-38.760777704553156,-218.6784977034015,-23.909123330445034,50.19385409125324,125.50015562515112,-89.47235659038577,223.36426259913168,153.75058597501433
523,-38.234413352990444,-222.3570957227339,-22.69086533830172,54.568095897752215,133.22680567233664,-101.15417529279533,226.70539631064136,158.6551208409592
524,-37.87089023288952,-226.30279508967442,-21.312979087387127,61.13196838462432,141.85668822901067,-111.2305150224302,230.32167429022718,165.66408427538357
525,-37.67018059769927,-230.4908482762271,-19.7676701320896,69.86494021197198,151.3139305212731,-119.61574404009436,234.18959283445267,174.76218205282393
526,-37.629282748292276,-234.89346045138817,-18.05239407625389,80.7088481222691,161.52288966064705,-126.23481148530357,238.28320140356547,185.91815587973917
527,-37.742519966627306,-239.48000082042168,-16.170623404741562,93.56728312476706,172.40890627974912,-131.02299937727506,242.57444655546036,199.08452391466247
528,-38.00185062141653,-244.21723772875725,-14.132532690769182,108.30547576124408,183.89874705108838,-133.92568543004847,247.03352074287736,214.19715159640157
529,-38.39717882210127,-249.06959116723428,-11.955566716092457,124.75072460918985,195.92075139517132,-134.8981634195157,251.629203695476,231.1746783857447
530,-38.91665525453708,-253.99939848708794,-9.664853139388137,142.69341331111605,208.404711663563,-133.90556278366523,256.3291862448204,249.9178471437822
531,-39.546958710079295,-258.9671917747598,-7.2934202069507075,161.88866216667927,221.28152920231992,-130.92290246360562,261.1003693051798,270.3088034278931
532,-40.273550740389815,-263.93198817752034,-4.882181290499065,182.05866022469348,234.48269901403128,-125.93530536212323,265.90913415603836,292.2104496493897
533,-41.08089888864955,-268.851597134307,-2.4796522740554092,202.89572201471154,247.93968086610417,-118.9383889504887,270.721583884924,315.46595102179964
534,-41.95266781167339,-273.68295048203356,-0.1413751899784852,224.06610825065718,261.5832131677141,-109.93883455111093,275.50375938232185,339.89849439133314
535,-42.871881936856745,-278.38246233385746,2.0709681920730354,245.21464055114856,275.34261836338675,-98.95512311951576,280.22183613484066,365.3113969148641
536,-43.821067596332185,-282.90642520207916,4.090756455006186,265.9701253326222,289.145137635966,-86.0184098485563,284.84230983881105,391.4886505665879
537,-44.78238612921792,-287.2114470465305,5.847931626316294,285.9515810959104,302.915321838664,-71.17349504190389,289.3321793158759,418.195973131595
538,-45.73777131510245,-291.25493091625503,7.270779270204975,304.7752365242271,316.57449742494254,-54.47983639655095,293.6591342556918,445.1824189919351
539,-46.66908381772079,-294.99559485906536,8.287943768904537,322.0622345565627,330.0403216373511,-36.0125403291423,297.79175297712743,472.1825847238323
540,-47.558291678874554,-298.3940252371127,8.830621492447559,337.4469401087723,343.22643993065367,-15.863269222019182,301.6997119936087,498.91942509868323
541,-48.387679737276905,-301.4132522308565,8.834860719657549,350.5857065143993,356.04226003884656,5.858991643250899,305.35400536457416,525.1076739332752
542,-49.140083352592164,-304.019332921249,8.243886542152527,361.1659090200632,368.39286147277085,29.02734985457899,308.7271684588084,550.457841455805
543,-49.79913459603597,-306.1819253978078,7.010362651539061,368.91500556019344,380.17906666315315,53.49662837899981,311.7934985321386,574.6807361069333
544,-50.34950382655324,-307.8748369765695,5.098500069404304,373.6093399485392,391.29770859685516,79.10319977493126,314.52926386450565,597.4924340467302
545,-50.777117789708846,-309.0765307285287,2.485924975301702,375.0823652398425,401.64213533528317,105.66502156486513,316.9128943317745,618.6195931084218
546,-51.069337781390296,-309.77057681410577,-0.8347768765682011,373.23193899306636,411.1029896612799,132.98185413938594,318.9251491088742,637.8049789628886
547,-51.21508758873697,-309.9460380691616,-4.854913442700546,368.0263300632644,419.56929039550295,160.83564427445089,320.54926118445667,654.8130417430937
548,-51.20492949709932,-309.59778229558304,-9.549000566347534,359.508580760972,426.929822434449,188.99106893461752,321.77106270155764,669.4353560573619
549,-51.031095865183836,-308.7267163380087,-14.874586103883509,347.7988916974514,433.0748191062996,217.196253153455,322.5790990351927,681.4957219933314
550,-50.687491897671514,-307.3399390858603,-20.77261582066949,333.09474262810835,437.8978966849572,245.1836983887849,322.9647423876056,690.8547241173875
551,-50.16969101539349,-305.4508119253386,-27.168352711159578,315.6685337686841,441.2981792706672,272.6714792096264,322.9223170780507,697.4135622153566
552,-49.47494706134744,-303.0789456653258,-33.97283896411044,295.8626292127435,443.1825338703666,299.3647821431838,322.44924816853785,701.1170016747751
553,-48.6022473767476,-300.2501022934655,-41.08486632761275,274.08180456423025,443.467820645951,324.9578676089298,321.5462421417228,701.9553398894927
554,-47.55242737453196,-296.99600805819955,-48.39339793098736,250.78323719655276,442.0830520455674,349.1365322167393,320.21750285138745,699.9653412162315
555,-46.32836025615322,-293.3540717725858,-55.780364718424366,226.46431741694607,438.97134774439996,371.5811341793262,318.4709782922669,695.2301475902223
556,-44.93522485191074,-289.36699972646,-63.12374412994805,201.6486873113225,434.09157210868483,391.9702205240629,316.3186248843034,687.8782157016833
557,-43.38084093098815,-285.0822971632698,-70.30081812607983,176.8710169040634,427.41955018194886,409.98476344756455,313.77666733279193,678.0813587630377
558,-41.67604625375608,-280.5516468869784,-77.19150168200748,152.66109457669756,418.94877931594016,425.31297736484436,310.8658251477041,666.0519810982684
559,-39.83507503041527,-275.8301588853739,-83.68163049181081,129.52783732819483,408.6905866674467,437.65565115637673,307.61147263950335,652.039591957958
560,-37.87588530786507,-270.97549098628247,-89.6660968332481,107.94382004173492,396.67372494381897,446.731894864527,304.0436980606868,636.3266778304849
561,-35.82037518775305,-266.0468489434459,-95.05172483641945,88.33088941491945,382.9434444545497,452.2851687564626,300.19722939492664,619.2240047861785
562,-33.69442664595613,-261.1038839593212,-99.75978109000121,71.04737653642532,367.56012187090187,454.0894361950431,296.11119886904044,601.0654152036914
563,-31.527722512227392,-256.2055152979345,-103.72802488023602,56.377359054470716,350.5975587137506,451.9552605523281,291.8287256458144,582.2021756509554
564,-29.35329713197994,-251.40871414276785,-106.91221623978117,44.52235223982239,332.1410812469709,445.7356510877404,287.39630666807426,562.9969245442467
565,-27.206802961076885,-246.76729121722855,-109.28702073212283,35.59572656695914,312.28557706919287,435.33145438682305,282.8630192877196,543.8172620259334
566,-25.125501085286505,-242.33073438288022,-110.8462770964334,29.620054130685734,291.13359388780987,420.6960882145187,278.2795553230115,525.0290253370313
567,-23.147010227419997,-238.14314354584394,-111.60262487197707,26.527475218118933,268.79360563764726,401.8394253532981,273.69712276531226,506.9893059626313
568,-21.3078730577561,-234.24230903016843,-111.58651986857019,26.16305264758102,245.37852372864324,378.83065722173876,269.1662659313939,490.0392918504722
569,-19.642017437459085,-230.65897602626026,-110.84469216805458,28.29095415878357,221.00450121613335,351.7999995358313,264.7356646839908,474.49705559699225
570,-18.179201141146144,-227.4163312788569,-109.43812232813416,32.603184991406074,195.79005070992446,320.93914121656564,260.4509765865268,460.6504501954377
571,-16.943530958215455,-224.52973853468788,-107.43962664228026,38.73049580576649,169.85547807440798,286.5003785114447,256.35378242046653,448.75030987253604
572,-15.952142214190292,-222.00673690234262,-104.93115271749679,46.255022587726906,143.32262517062543,248.79441505383062,252.48068682079574,439.0041789371738
573,-15.214114924404189,-219.84730237026858,-102.0008932387256,54.72417643292992,116.31491227098418,208.18684284347293,248.8626138759976,431.5708026340103
574,-14.72968976271711,-218.0443586414597,-98.74032902166282,63.66528842897613,88.9576663365717,165.09334788470522,245.52432409114448,426.5556083137152
575,-14.489831661038536,-216.5845103863656,-95.24131220467054,72.60052176556569,61.3787075186789,119.97370838425228,242.48416534567892,424.00738252604714
576,-14.47617158176229,-215.44896106603545,-91.5932962581016,81.06158287112076,33.70914079108881,73.32467569143816,239.75405735317975,423.91631246047234
577,-14.661338393479877,-214.6145695137879,-87.88081098524557,88.60379070327772,6.084267320131879,25.67185175249246,237.33969747413988,426.2135126990148
578,-15.009673724580136,-214.05499493519935,-84.18126777148727,94.81909600862876,-21.355499454966857,-22.439296107532222,235.24096613024267,430.7721044767126
579,-15.478304284871985,-213.74187877301802,-80.56316329509662,99.3476806734364,-48.46384523160972,-70.45311161049744,233.45250269455443,437.4098576405205
580,-16.01852955723433,-213.6460133853389,-77.08472945580806,101.88781289769784,-75.08802468119485,-117.81391351118297,231.96441734128211,445.89334785626835
581,-16.577468874987233,-213.73845090972563,-73.7930547370065,102.20368852665483,-101.06870083564851,-163.97641344861677,230.76310052198102,455.9435257420467
582,-17.099901253495585,-213.9915103428698,-70.72367941305258,100.13105308114889,-126.24023183786234,-208.41612973538352,229.83208919802422,467.2425426357951
583,-17.530224131737878,-214.37964629727395,-67.90064565204773,95.58047212301297,-150.4314436669272,-250.63952292590213,229.15294759964806,479.4416315223021
584,-17.814453444947542,-214.8801489507318,-65.33696473248305,88.53819778618801,-173.46688955219642,-290.1935713397017,228.70612022310922,492.16980307979
585,-17.90218730158329,-215.4736515584009,-63.0354477653064,79.06466381265079,-195.16856550104143,-326.67450609504124,228.47171642153754,505.0430879618927
586,-17.74845906282402,-216.14442978703124,-60.989833777988004,67.29072614876948,-215.35803016985358,-359.7354378928622,228.4301897502044,517.6740401513786
587,-17.315412312962486,-216.88048596328068,-59.1861402550692,53.41184574562233,-233.85886775041814,-389.09263521801586,228.56288126961684,529.6812151864341
588,-16.57373878909411,-217.67342069882895,-57.60415680444892,37.68047974281742,-250.49943264675775,-414.53025616907,228.8524039158943,540.6983505183789
589,-15.50382987949951,-218.51810383040856,-56.219002724863955,20.39700437911988,-265.1158186839333,-435.9033883442308,229.28285436471265,550.3829975487107
590,-14.09660309503086,-219.41216578707358,-55.00267354389476,1.8995375300141872,-277.5549976290998,-453.139306330558,229.83984919795589,558.4243802296894
591,-12.353977318920132,-220.355338971722,-53.92550944102085,-17.446940607769147,-287.678070229633,-466.2369127799284,230.51039320594427,564.5502832906645
592,-10.288983746286165,-221.34868624474075,-52.957529103496725,-37.261756930262294,-295.3635689906528,-475.2643887457318,231.2825986929897,568.5328071714806
593,-7.92551201852116,-222.39375992456505,-52.069584958834554,-57.159599946759734,-300.51074584475134,-480.3551403170932,232.1452849410154,570.1928659403815
594,-5.297703040438536,-223.49173947675612,-51.23430863862782,-76.76108027198013,-303.04276927119196,-481.70218568192325,233.08749569287767,569.4033442901674
595,-2.449011840080657,-224.64259860535063,-50.42682804687397,-95.70245920772768,-302.9097461069522,-479.5511752016357,234.0979788181465,566.0908677738328
596,0.5690245815893993,-225.84435220196406,-49.62524943449797,-113.6442600533468,-300.0914774728148,-474.1922769763626,235.16467562556466,560.236178921053
597,3.698269037291638,-227.09243031077077,-48.810909745841556,-130.27853750314515,-294.5998593742187,-465.9511929926524,236.2742673560986,551.8731534561064
598,6.875661700086346,-228.37922001457858,-47.968416100758,-145.33464723713703,-286.4808470270756,-455.1795953383849,237.41182318443444,541.0865348742112
599,10.03503321096568,-229.69380717272082,-47.08549978654064,-158.58342805273415,-275.8159156847326,-442.2452856474266,238.56058753517476,528.0085085284232
600,13.108989024532246,-231.02193860987052,-46.152720479329695,-169.83977877918633,-262.72296688395363,-427.5223824792704,239.70193478554336,512.8142741392976
601,16.030798965792847,-232.34621229153956,-45.1630618066148,-178.96367718069376,-247.35664519001853,-411.3818315034279,240.81550702764955,495.71680546583156
602,18.73622719064108,-233.64648919533795,-44.11146145276534,-185.8597442076168,-229.90804485154058,-394.1825139811025,241.87953662583485,476.9610060563676
603,21.165242324330546,-234.90050721827652,-42.99431779911114,-190.4755020925557,-210.60379687239234,-376.2632015512953,242.8713413656902,456.81747934493836
604,23.26355543095002,-236.08466573483406,-41.80901090152613,-192.79850848485358,-189.70453411498974,-357.9355704748046,243.76796757288756,435.57612930787815
605,24.983943913023083,-237.17494015753198,-40.55346912625625,-192.85257197056148,-167.50273533937414,-339.47844706227266,244.5469467295656,413.53979504741994
606,26.287331301874318,-238.14787946300416,-39.22580497869358,-190.6932683826143,-144.31994970857002,-321.1334095424152,245.18712431698378,391.0181009219318
607,27.143605055217634,-238.98163637660554,-37.82403565548104,-186.4029835493208,-120.50340310627593,-303.10182231302286,245.6695160727804,368.32167583603666
608,27.5321661438296,-239.65697990022008,-36.34589651866959,-180.0857073880148,-96.4219887011199,-285.54332864581244,245.97814664585948,345.75686363900115
609,27.442214920070725,-240.15824293253348,-34.788749499591425,-171.8617969675352,-72.4616484792724,-268.5757793759572,246.10082851593833,323.62101335467605
610,26.87278718106011,-240.47416325431308,-33.149583424216694,-161.8629125659218,-49.02016152703793,-252.27652931624536,246.0298443466256,302.1984047516654
611,25.832562132978964,-240.59858329415556,-31.42509924622664,-150.22731115479257,-26.50136963939329,-236.68499125605942,245.76250276100217,281.7568327852498
612,24.339469800942517,-240.53098203679681,-29.611870092959933,-137.09565692160757,-5.308891276139747,-221.8063005678141,245.30154501171648,262.5448446924007
613,22.420129019709037,-240.27682060421688,-27.70656391003028,-122.60747969240403,14.160600341733652,-207.6159128962439,244.6553875754445,244.7895968359636
614,20.109148297696603,-239.84769119856733,-25.706215304899118,-106.89838092670507,31.52443223996392,-194.06493469376585,243.83819311461494,228.69527582896814
615,17.44832067952541,-239.2612671550189,-23.608532742063275,-90.09805463949134,46.421190128746254,-181.0859732962813,242.86976945124457,214.44201165335005
616,14.485740783312886,-238.54105947586592,-21.4122273086009,-72.32915816798774,58.518025775192626,-168.5992910814637,241.77530290383632,202.18520111257328
617,11.274868301733553,-237.71599182942907,-19.117349758051365,-53.70703567078171,67.51783814856319,-156.51905645498135,240.58493804481205,192.05515852186497
618,7.873558262659436,-236.81981124117476,-16.72562345027255,-34.34026546299832,73.16613888518309,-144.75949999016743,239.3332203422519,184.1570156909375
619,4.343074712537226,-235.89035572984534,-14.240762044736588,-14.331970255054367,75.25740684359609,-133.2408025225345,238.05842142048678,178.57080256386254
620,0.7471010956057115,-234.9687033543257,-11.668762152298381,6.218202757207579,73.6407405271782,-121.89455945489713,236.8017691959967,175.3516513786755
621,-2.849242993666362,-234.098229723835,-9.018162402397445,27.211555781535353,68.22463054517108,-110.66868057218853,235.60660708554425,174.53008041169753
622,-6.380372963660679,-233.323602780485,-6.300261490781596,48.54741947930189,58.98069520567152,-99.53159873157807,234.5175076422758,176.11232900147186
623,-9.781196407798346,-232.68974426061226,-3.5292888553062918,70.12001054585026,45.9462486817708,-88.47567637433272,233.57936604036752,180.0807342113862
624,-12.98805737613985,-232.24078653594637,-0.7225228867860862,91.81525715577443,29.225601607885583,-77.51971725477165,232.83649766652607,186.3941604581408
625,-15.939670246858412,-232.01905160499504,2.0996468987022374,113.50779064313451,8.990027757942737,-66.71051169388174,232.3317617645349,194.98851443865135
626,-18.57804552825173,-232.06407607479895,4.913715724121361,135.05830322029522,-14.523633100718676,-56.12336598274783,232.1057298362432,205.77739566204133
627,-20.849408229940565,-232.41170236454025,7.693118159054545,156.31146473155334,-41.01572818726938,-45.86158980487241,232.19591364658788,218.65294484825606
628,-22.70510643202688,-233.09325234786357,10.408341304886191,177.09457589805098,-70.12785464030237,-36.054939898263065,232.6360634921878,233.48695589374944
629,-24.102503648362397,-234.13479533842565,13.027095747006946,197.21711094458507,-101.44815001029899,-26.857043788321725,233.45554300096694,250.1323100747149
630,-25.00584403120119,-235.55651779061972,15.514542813257496,216.47126887795724,-134.5176940782901,-18.441854063060333,234.6787822456575,268.4247725880134
631,-25.387075096528193,-237.37219761675706,17.833576165988713,234.63361045273626,-168.83787616537828,-10.999211009225055,236.3248067158521,288.1851621541429
632,-25.22660908027227,-239.5887821370005,19.945155889652465,251.46780818505434,-203.87855874265816,-4.729619270276945,238.40683629114196,309.22186757802
633,-24.514001464967947,-242.20606594915105,21.808694357257536,266.7284817872973,-239.086853048472,0.16162800349598613,240.93194639087454,331.3336464235256
634,-23.24852344185849,-245.21646379893366,23.38249506743256,280.1660343523794,-273.8963166403295,3.4708177665568622,243.90078327939952,354.31260628911775
635,-21.43960394995526,-248.60487389906228,24.62424782349074,291.5323497778484,-307.7363858206365,5.002496451153943,247.30732707708796,377.94724325334204
636,-19.107116719270735,-252.3486289284031,25.49158565362163,300.58716390939367,-340.0418657759641,4.576262532710356,251.13869918029744,402.02539772521163
637,-16.281488861097,-256.41753492212985,25.942710512786476,307.1048847272317,-370.26231570472663,2.0334676590772944,255.37501529206244,426.3369866271684
638,-13.0036100908775,-260.7740021282527,25.93709581820926,310.88161327802794,-397.87118317334347,-2.7563764375257676,259.98929073846085,450.67638303614166
639,-9.324525296652688,-265.37327615508553,25.43627380410167,311.7421080250863,-422.3745599007665,-9.889678291287739,264.9474105723774,474.84433950279737
640,-5.3048974077628435,-270.1637817336494,24.40471397473161,309.54644035737994,-443.3194486495136,-19.423511674935288,270.20818237383685,498.6493871874075
641,-1.014232178095133,-275.08759449550905,22.810795229321755,304.1961063560509,-460.30144622406806,-31.371183047320745,275.7234938851158,521.9086861425754
642,3.470138178236914,-280.08105761833303,20.62786844569459,295.6393867928234,-472.97175926434903,-45.69875765740352,281.4385999699828,544.4483481849765
643,8.064309156355478,-285.0755593070014,17.835398258096426,283.8757804027301,-481.0434769717903,-62.32265739156201,287.2925632089589,566.1032986219607
644,12.679284974942941,-289.9984832489736,14.420161968194268,268.95937097569856,-484.29702855494344,-81.1084189327809,293.21886918638836,586.7167829030226
645,17.222666833258497,-294.77433717531494,10.377469849495549,251.0010221978672,-482.58475399060427,-101.87067480161275,299.1462309615787,606.1396553245205
646,21.60051924735743,-299.32605498610513,5.712355669227197,230.1693201905846,-475.8345156897246,-124.37439262505254,304.9995877775624,624.2296053956853
647,25.719374718501953,-303.5764568646216,0.4406714765801576,206.69019833363689,-464.0522769903629,-148.33737945412645,310.70129189637385,640.8504807213541
648,29.488325620250524,-307.4498409527729,-5.409990599106683,180.84518272817564,-447.3235724107915,-173.43402705471976,316.1724659588839,655.8718534434307
649,32.82114126835153,-310.8736706168027,-11.799632265176287,152.96819611880954,-425.81379521633784,-199.30023953606928,321.33450257090357,669.168953317032
650,35.63833983220999,-313.78031364982655,-18.675519441596354,123.44086347417003,-399.76722999356093,-225.53944672403847,326.1106686969444,680.6230581728307
651,37.869141323048744,-316.10878414935814,-25.972259649945524,92.68628312577958,-369.50476106675177,-251.72956807305684,330.4277705529574,690.1223952252076
652,39.45323066690292,-317.8064342849686,-33.61233874198927,61.16126920664843,-335.4201924836513,-277.4307570299019,334.21783050803305,697.5635679803216
653,40.34226882839585,-318.8305414831199,-41.50714422826299,29.347136227501526,-297.9751250142865,-302.1937289890863,337.41972600319684,702.8534878517808
654,40.50110416919375,-319.1497361786098,-49.55847282996252,-2.2608162343838507,-257.69235462484954,-325.5684603558191,339.98074095563857,705.9117611845649
655,39.908654234865146,-318.74521561719916,-57.66048877253398,-33.164856690442726,-215.147788836871,-347.11304280051587,341.8579813550623,706.6734623980389
656,38.55844778354632,-317.61168993419096,-65.70207018716418,-62.8770395191182,-170.96092328681954,-366.4024843940204,343.0196076471039,705.0922088876455
657,36.45883511522174,-315.75800820066667,-73.5694569120055,-90.93161045620634,-125.78397880778361,-383.0372647439424,343.4458366023364,701.1434362074393
658,33.632888383658496,-313.20741541674704,-81.14909619455189,-116.89704490517087,-80.2898654389121,-396.651469650125,343.12966546777835,694.8277464956825
659,30.118019930024957,-309.997398230608,-88.33057410310738,-140.38713062346918,-35.15920855153707,-406.9203464580008,342.07727327325824,686.17416829384
660,25.965344608458157,-306.17908911866016,-95.00951919071007,-161.0705309059999,8.933262251972373,-413.5671293667841,340.30806052846015,675.2431291324318
661,21.238802681918557,-301.81621652939765,-101.09036935077194,-178.67834984576712,51.332604415734224,-416.3689832190849,337.85430048568526,662.1289159723177
662,16.01404679640068,-296.98361115366,-106.48890085516254,-193.00935724470784,91.41743410855392,-415.1619094546127,334.7603921694975,646.9613936013428
663,10.377085294673757,-291.76530372858764,-111.13442909704969,-203.9326969106042,128.61315285103973,-409.84445848244724,331.08172562787183,629.9067710805869
664,4.422670179694435,-286.2522745168081,-114.97160361139441,-211.38807420803076,162.4041981884794,-400.38010778295705,326.88319099562943,611.1672472461819
665,-1.7475757295977385,-280.5399357024497,-117.96173595161133,-215.3835750179898,192.34490572660198,-386.79819786289835,322.23738268336325,590.9794199866459
666,-8.027282555517129,-274.72544313875517,-120.08361768225583,-215.9913940497964,218.0686136669234,-369.19336594039703,317.22256632498903,569.611403579005
667,-14.307677420450863,-268.90494236762976,-121.33380595056379,-213.34184006803218,239.29470818446083,-347.7234747402164,311.9204877192223,547.3586607321171
668,-20.480096085780527,-263.17085611033826,-121.72637449619963,-207.6160402311022,255.83339211703117,-322.60609584097585,306.4141094801514,524.5386202659693
669,-26.43858908714667,-257.60931744067784,-121.29214762641153,-199.0377891430635,267.5880524966517,-294.11366822935616,300.7853626648478,501.4842155742668
670,-32.08253340484333,-252.29784522050707,-120.07745312659227,-187.86498358429512,274.55519741523216,-262.56750753106763,295.11299754512993,478.53653924444694
671,-37.319151527431764,-247.3033464270195,-118.14244697860352,-174.3810534346785,276.8220237344787,-228.3308848902916,289.4706102534224,456.0368605824128
672,-42.06583798620025,-242.68051426806394,-115.55907781691462,-158.88674589458356,274.5617589254679,-191.80142250451232,283.92491095241644,434.31829037003064
673,-46.25219817828882,-238.47067245376786,-112.40877187813398,-141.6925491098601,268.02698876205676,-153.40306242957715,278.53428557907074,413.69739727017117
674,-49.82171452172461,-234.7010959482868,-108.77992917364232,-123.11196123299224,257.54123670447956,-113.57785644615825,273.34768844053804,394.4660827352868
675,-52.732970700248,-231.3848183717075,-104.76532780372644,-103.45573207755453,243.48910329671372,-72.77780162863053,268.4038884709516,376.88401023376946
676,-54.96038639140258,-228.52091737379584,-100.45953470832872,-83.02713582572048,226.30530848996116,-31.45691551936783,263.7310792198281,361.17186550881746
677,-56.49444156676225,-226.09525284733965,-95.95641704214955,-62.118279374532754,206.4630070781349,9.936287259201556,259.34685235798105,347.50569931297036
678,-57.34139819262663,-224.0816191276612,-91.3468388121459,-41.00741111047236,184.46176322400575,50.96578503635174,255.25852603784523,336.012569211155
679,-57.52255369592588,-222.44326090592048,-86.7166132996501,-19.957164666618034,160.81556820423046,91.21440108777895,251.4638111652924,326.76764761317355
680,-57.073081349144886,-221.13469281878517,-82.14476463918925,0.7863536644346913,136.04126240599663,130.2894385132859,247.95178906454888,319.79289869589167
681,-56.040526367842006,-220.1037543302072,-77.70213341847165,20.99375015197269,110.64767962575964,167.8275437254582,244.70416298778238,315.0573539205226
682,-54.4830336628609,-219.2938249135717,-73.45034261554835,40.451942687286035,85.12577412961929,203.49876801195146,241.69673455388738,312.4789446684757
683,-52.46738534193833,-218.64612018826836,-69.44112255509393,58.96333842373376,59.939925343025465,237.0098181348938,238.9010459818098,311.92778911855197
684,-50.06692452987148,-218.10198782616584,-65.71597780739084,76.34477412470697,35.5205475909339,268.10650505002974,236.28612097264542,313.23078186884766
685,-47.35943783471033,-217.6051226337953,-62.30616613695225,92.4264151606442,12.258068258458595,296.57541416519643,233.82023180316622,316.17729828577995
686,-44.425062570211196,-217.1036231071789,-59.23295062421492,107.05080985176842,-9.501718636913834,322.2448314519819,231.47261793870354,320.52579929606605
687,-41.34427712392973,-216.5518170724697,-56.50808142718111,120.07228235365635,-29.46096231671589,344.98496759112624,229.21508267149798,326.0111046518467
688,-38.19602379094222,-215.91179202579727,-54.13446326269518,131.35681718317687,-47.37180161110008,364.70752731080427,227.02339929896218,332.352092441761
689,-35.056003107715455,-215.15457658003254,-52.10696764605942,140.78254139644585,-63.03724374278803,381.36467364882117,224.87846712303747,339.2595794412117
690,-31.995167826961165,-214.26093293897094,-50.41335341993066,148.24084906649372,-76.31098424941656,394.9474383802653,222.76716960701094,346.44414106942617
691,-29.07843435853991,-213.2217363135956,-49.03526319936588,153.63814325016057,-87.0962818603354,405.48363160145425,220.6829017279525,353.62364098665444
692,-26.363620914754726,-212.03793512063396,-47.9492659925704,156.89810210173545,-95.34400286335162,413.03530541551805,218.62575018165157,360.53025716643396
693,-23.900615101437012,-210.72010472966315,-47.12791748405367,157.96431831071487,-101.04994905976233,417.69582787655924,216.60232776276908,366.9168120554754
694,-21.73076882727527,-209.2876262569381,-46.5408100746291,156.80312300657147,-104.25158331898454,419.5866236409068,214.6252809319263,372.5622395750921
695,-19.8865145371824,-207.76753906234785,-46.15558576854473,153.40639042930724,-105.02426630056543,418.85363844843505,212.71250610283934,377.27605336417855
696,-18.391193636363084,-206.19312974592978,-45.938887149221244,147.79412600323212,-103.47711518489608,415.6635874424087,210.8861242477346,380.90172030018556
697,-17.259085542027332,-204.6023304186644,-45.8572252241805,140.0166616934762,-99.74858878014808,410.2000532364568,209.1712739513634,383.31888962972585
698,-16.495623953132842,-203.03600438316408,-45.877747632668445,130.15631106750013,-94.00189341444343,402.6595074007559,207.59478954518653,384.44447672734447
699,-16.09778534124904,-201.53619834746033,-45.96889618494164,118.32836622507956,-86.42029259435232,393.24733602043233,206.18383354013673,384.23264624326544
700,-16.05463307558788,-200.1444374697774,-46.10094841458729,104.68134673474798,-77.20239318699304,382.1739535439432,204.9645516254344,382.67377816637764
701,-16.347998989584397,-198.9001334038847,-46.24644316268872,89.39643698013325,-66.55747397706259,369.65108783016586,203.96081431613655,379.7925304541162
702,-16.95328268813964,-197.83916656528106,-46.380494598920826,72.68607443599298,-54.70091974300738,355.88831301771876,203.19310219946337,375.6451334847044
703,-17.84034758592825,-196.9926927423436,-46.48100212008823,54.79167883332492,-41.849824977216116,341.08989656014484,202.67758216877468,370.3160655438758
704,-18.9744917376514,-196.38621174006414,-46.52876517755083,35.980541588341566,-28.218834430621293,325.4520140811002,202.42541079584723,363.91426578928525
705,-20.317471262935197,-196.03892259872916,-46.50751260540125,16.541925918962484,-14.016290691668258,309.1603720552784,202.44228879146567,356.56904208194726
706,-21.82855473268988,-195.9633764545217,-46.40385599462275,-3.217540583770203,0.5592400271935959,292.3882646256496,202.72827786120374,348.42582560784797
707,-23.465588074437076,-196.16542465017577,-46.20717649814779,-22.9790694977438,15.321995472265638,275.2950777588385,203.27787859872325,339.64191227019296
708,-25.18605099259326,-196.64444670622152,-45.90945433550045,-42.41737386211649,30.101537312985744,258.0252419590938,204.08035580608825,330.38231301550104
709,-26.94808725210693,-197.3938307382362,-45.505050262625474,-61.2066315768099,44.74471475443763,240.70762409938197,205.12028625884497,320.81581281313623
710,-28.711492140406488,-198.40166846387575,-44.990448446451076,-79.02657942148363,59.117039570821106,223.45533940686667,206.3782940040958,311.11131274806934
711,-30.438640767607957,-199.65161876614832,-44.36397057172351,-95.56856312943282,73.10346012457056,206.36595612691636,207.83193042091474,301.4345041045341
712,-32.09534067001116,-201.1238883854052,-43.625471533535766,-110.5413740398172,86.60854377285824,189.52205793657248,209.45665097788986,291.944900233776
713,-33.65159192976897,-202.79627592871904,-42.77602751751679,-123.67671648587836,99.55609939438031,172.99212267064513,211.22683813664784,282.79323362957615
714,-35.08223826325365,-204.64522602194356,-41.817627382891885,-134.73417093586056,111.88829286722434,156.83166995977362,213.11682021887884,274.11921301685135
715,-36.367493499646955,-206.646843920321,-40.752877881500055,-143.5055440689587,123.56432666076499,141.08462480403486,215.1018391394907,266.049628382693
716,-37.49332948276324,-208.77782691819323,-39.5847323791999,-149.81852567199715,134.55876917488598,125.78483963148177,217.15892541645977,258.69678994478295
717,-38.45171352777546,-211.0162770408083,-38.31625154381763,-153.53960003407153,144.85962935903407,110.95771554457461,219.2676464264761,252.1572886281377
718,-39.24068614121658,-213.34236913274984,-36.95040313450268,-154.5761834077726,154.46627702746954,96.62186573333146,221.41070293504734,246.51106905999086
719,-39.86427294511859,-215.7388585754724,-35.48990679203715,-152.87797784005528,163.3873088804432,82.79077079386315,223.57435860746247,241.8208099600669
720,-40.332228849753385,-218.1914223426526,-33.937128802363,-148.4375458589785,171.6384544041645,69.4743856684561,225.74869650041586,238.1316098911905
721,-40.65961748727718,-220.68883522855484,-32.2940313507625,-141.2901216035476,179.2406047917935,56.6806689412213,227.92770479118454,235.4709776393122
722,-40.86623443104011,-223.22298972876814,-30.56218081497769,-131.51268332961143,186.2180327943859,44.4170155190366,230.10920103555915,233.84912553515625
723,-40.975888375998416,-225.78877327079334,-28.742819916742924,-119.22232074867885,192.59685363455924,32.6915824984441,232.29460999529007,233.25956103290713
724,-41.015559964162584,-228.38382023674842,-26.837008581015706,-104.57393916103138,198.40375845860737,21.51450484253327,234.48861437358067,233.67996738535376
725,-41.0144630150556,-231.00815846356076,-24.845837627257435,-87.75735162351144,203.66503339564963,10.899001670487774,236.69870049444074,235.0733587462058
726,-41.003037034719725,-233.66377078407493,-22.77071766631234,-68.99382093611062,208.4058598643788,0.8623747002864293,238.9346220606578,237.38948871650362
727,-41.011902424454945,-236.3540919419409,-20.613742884308216,-48.53212483638953,212.6498760639401,-8.573102467045196,241.20780478565553,240.56648436035331
728,-41.070810633749595,-239.08346021823758,-18.378126000172717,-26.64422956452848,216.41896642893332,-17.37941114680046,243.53071327958065,244.53267014356038
729,-41.207621102872416,-241.85654176067038,-16.068696700281997,-3.620667777055423,219.73323578017977,-25.522144531816036,245.91619962195688,249.20853815866644
730,-41.44733587078751,-244.67774422423653,-13.692451329989877,20.23427426352153,222.61111799159445,-32.960016759849346,248.37685102914583,254.50881245008006
731,-41.81122130563405,-247.5506349888994,-11.259136804104704,44.607448850422664,225.0695649154786,-39.64455420913047,250.92435205143832,260.34454649425174
732,-42.31604410592632,-250.47737786784353,-8.781846980830924,69.18170369723343,227.12426002409055,-45.52000701927635,253.56887473584496,266.62518475123795
733,-42.97344500981084,-253.45820097685709,-6.277605321059061,93.64058974152395,228.78980348196893,-50.52352505561158,256.31850824112246,273.2605134716315
734,-43.789468376143816,-256.49090764410386,-3.7679034512217844,117.67281245664199,230.07982260669291,-54.58564511777572,259.17873782734597,280.1624252685623
735,-44.764259314178325,-259.5704421975047,-1.279161234907454,140.976332108,231.00697516800733,-57.63113331713882,262.15198230626964,287.2464289413557
736,-45.891933156961535,-262.6885231766581,1.1569295942325526,163.2620379257828,231.5828326188516,-59.58021748622831,265.23719902328787,294.4328517912154
737,-47.16061581620747,-265.83335772124894,3.5032187352540203,184.25694622238228,231.81765399768616,-60.35022980947006,268.4295660997373,301.6477049323624
738,-48.552648753403695,-268.9894522002944,5.717108875843592,203.70690110079093,231.72008479099233,-59.857660848942515,271.7202527139266,308.82320940781165
739,-50.04494936665846,-272.13753504948136,7.7508050253312195,221.37878657831308,231.29683328479575,-58.02060409648758,275.096289229607,315.89800774977465
740,-51.60951652291174,-275.25460766645415,9.551835794509397,237.06228890359603,230.552385040097,-54.76154619533842,278.54054948691345,322.8171078529893
741,-53.21407135492274,-278.3141375729682,11.06387120349251,250.57127567639634,229.48881137726534,-50.010432914741564,282.0318571060187,329.53162091506255
742,-54.82282444085824,-281.28640463821284,12.227847794052726,261.74488185460785,228.10571064859076,-43.70791578626535,285.545225886994,335.99836167045845
743,-56.3973608499245,-284.1390059074993,12.983394601431412,270.4484095813367,226.4002954519269,-35.808660560243716,289.0522410017682,342.1793777037571
744,-57.89763290084275,-286.8375175167302,13.27053414852662,276.5741569945574,224.36761104988886,-26.284578879280076,292.5215823210017,348.04146706818557
745,-59.28304581023394,-289.34630342739865,13.031612445658347,280.04228883437816,222.00084696930912,-15.127832361096996,295.9196836858658,353.555732256133
746,-60.51361349112128,-291.62945070292074,12.213392596165699,280.80184647172746,219.29169052881073,-2.353457496864829,299.2115124074319,358.69720632554237
747,-61.55115141786566,-293.65180067470936,10.76922995070143,278.83196498301044,216.2306708237583,11.998526619828812,302.3614426010323,363.44457604946297
748,-62.360462459089696,-295.3800360487982,8.661234841127044,274.1433201347255,212.80745468509159,27.861636754613123,305.3341857268526,367.78001919262545
749,-62.91046226019611,-296.78377740689695,5.862323232515462,266.7797722041248,209.01107949696444,45.142136711090664,308.0957339499776,371.68916851289305
750,-63.17518560202997,-297.83663989083897,2.3580565454750486,256.8201132596034,204.83013540520147,63.718956646739215,310.6142684943481,375.16121065372016
751,-63.13461612622684,-298.5172024610157,-1.8518213018599798,244.37976758594482,200.25293326178317,83.44428382533953,312.86098699171464,378.18911805655654
752,-62.77528972565071,-298.80984735104613,-6.752230262004526,229.61224766375688,195.2677078031107,104.14474371801084,314.81081063833676,380.76999225689934
753,-62.090636083425764,-298.70543499428834,-12.312050104368764,212.7101350090065,189.8629056946859,125.6230612500846,316.44294246726906,382.90546938288156
754,-61.0810413348617,-298.20178855054513,-18.483915449435422,193.90534015278874,184.02759778186754,147.6600824125864,317.74126045326193,384.60211202924626
755,-59.753635102467555,-297.3039712682737,-25.204540889874192,173.46840304143782,177.75203948852942,170.01704666153879,318.69454176675674,385.8716972297272
756,-58.12182506756519,-296.0243485026025,-32.395586791668734,151.70662726970272,171.0283879961236,192.4380273017125,319.2965258114013,386.7313163670738
757,-56.20462043939862,-294.3824335098779,-39.96505422231239,128.96089943944028,163.8515725089126,214.6524946409064,319.5458324843101,387.20323146277997
758,-54.02580108885203,-292.40452159654893,-47.809174556626786,105.60112535634951,156.2203040443012,236.37799755553115,319.4457574399065,387.31447813178966
759,-51.613000031522894,-290.1231208964502,-55.814737590939544,82.02031013473209,148.13820049385458,257.3229950437702,319.00396763408037,387.0962575704619
760,-48.99677102262585,-287.57619091610314,-63.861783613979796,58.62740784817452,139.6149878410176,277.18989357695614,318.2321186743034,386.58320445753526
761,-46.20970841217564,-284.8062034017143,-71.8265711892415,35.83915391017152,130.6677190616781,295.67835508097687,317.1454120618556,385.812642045079
762,-43.28567294707729,-281.85904506919394,-79.58472335025752,14.071156814485411,121.32193195327667,312.48893426771014,315.7621070229823,384.8239333428802
763,-40.25915664595114,-278.78278844003887,-87.0144493717797,-6.2714417859844716,111.61265154627984,327.3270852325396,314.1029992771703,383.65801044402986
764,-37.164795305967715,-275.62636473015704,-93.99973604539998,-24.803426146542986,101.58513659687456,339.9075489211302,312.1908776994902,382.3571223736879
765,-34.03701240609745,-272.4381801772535,-100.43340101642399,-41.168787149538346,91.29527522077791,349.95909842258436,310.0499685574079,380.9647967197433
766,-30.90975710425064,-269.2647229755009,-106.21990169381911,-55.049547842582626,80.8095519750805,357.2295816733457,307.70537498096644,379.5259699452003
767,-27.81628545067197,-266.1492112099047,-111.27779753741207,-66.17387360254023,70.20453566378424,361.491165427563,305.182516614646,378.08720982518327
768,-24.788930793677036,-263.1303327420378,-115.54177245814736,-74.3232163023512,59.565869527582706,362.54565410425425,302.50657238364744,376.6969316877428
769,-21.858817423351052,-260.24112623457324,-118.96413904270712,-79.33824823017522,48.9867771262513,360.22973375118755,299.7019299253568,375.40549657626514
770,-19.05548841597758,-257.50804869403174,-121.51576803832276,-81.12335389751135,38.5661231204246,354.41997411884427,296.79164947909254,374.26507335662745
771,-16.406439818269114,-254.95026920997574,-123.18641378470078,-79.6494777101043,28.40608743609812,345.0374104939358,293.7969570026087,373.32915167454837
