time,ax,ay,az,gx,gy,gz,accmagnitude,gccmagnitude
0,6.896043311734058,-254.70056773401896,9.896644373982978,-18.089611409996984,69.4194715851996,-0.3891294353530758,254.98753500999837,71.4632402610596
1,6.425313834932003,-254.55533822140038,9.868693023792604,-17.729525502714267,69.35597578331897,-0.3377570222266609,254.83503232736342,71.36910411119693
2,5.959618392661713,-254.42193715389854,9.83893815651986,-17.320989975042824,69.24450161393004,-0.2975905767098318,254.694364526955,71.22630672596162
3,5.501855756908785,-254.30173774475927,9.808494955539631,-16.85469390419694,69.07804146369169,-0.2681427944476839,254.56698408758123,71.02680233379643
4,5.054882413129452,-254.19602589865113,9.778557606440303,-16.322393974514878,68.84995621195309,-0.24917802203459924,254.45425834159386,70.76304664474381
5,4.62147854423178,-254.10598016209187,9.750380800078046,-15.717259603342416,68.55415407470015,-0.2407644223778391,254.357448371397,70.4282198584876
6,4.2043160944474485,-254.03264821833838,9.725258286872055,-15.034179218965098,68.1852690111734,-0.2433066672249161,254.27768435020698,70.01644056171126
7,3.805928139767831,-253.97692033244368,9.704498133979149,-14.270015881232558,67.73883380655776,-0.2575563911368687,254.2159376959848,69.52296390181286
8,3.4286786068772925,-253.93950070093243,9.68939460668635,-13.423802538762931,67.21144261691182,-0.28459889740816907,254.17299096822157,68.9443577090037
9,3.0747318619926878,-253.92087804706856,9.68119717545743,-12.496869664572923,66.60089760171492,-0.3258160717325237,254.14940686283379,68.27865074712582
10,2.7460223841350704,-253.9212969604077,9.681077736200342,-11.492900747914863,65.90633428313193,-0.38282702797676593,254.1454978619625,67.52544798625227
11,2.444225199957823,-253.94073153561425,9.6900974245284,-10.417914005965631,65.12832048520708,-0.45740954083349716,254.1612981761565,66.68600867917945
12,2.1707278754694,-253.9788629401463,9.70917443386439,-9.2801715093634,64.26892419196389,-0.5514066617317268,254.1965396932684,65.76328408768754
13,1.9266048135256495,-254.03506257780677,9.739054228920876,-8.090019530092869,63.331746489912405,-0.6666239425432451,254.25063367947513,64.76191295964287
14,1.7125945958935271,-254.1083823949186,9.780283540670773,-6.859666263138534,62.32191691618487,-0.8047233267278577,254.32265985124224,63.68817428312616
15,1.529081169128815,-254.19755355267964,9.833189429977757,-5.60290510876333,61.24604990801967,-0.9671199985529877,254.4113641051137,62.549898338857844
16,1.3760797232689723,-254.30099421356397,9.897864481423564,-4.334793323570953,60.11216250783353,-1.1548883609488259,254.51516570294234,61.356338507092055
17,1.2532281095666384,-254.4168266622194,9.974158947359197,-3.071296920180685,58.929554953728186,-1.3686828864648797,254.63217416798216,60.118007598106054
18,1.159784635841288,-254.54290347090088,10.06168048893797,-1.8289131465714095,57.70865727241054,-1.6086788348439118,254.76021562533904,58.846483683996375
19,1.094633114500196,-254.67684194671207,10.159801979425364,-0.6242817355501397,56.46084644828904,-1.8745367164582831,254.8968678380722,57.5541915116871
20,1.056296057475506,-254.81606570611143,10.267677523328976,0.5262045047731136,55.19824003430802,-2.1653929306540394,255.0395027866099,56.25416648003865
21,1.0429567646663098,-254.95785196999404,10.384266433888609,1.6067801301422846,53.93347302201564,-2.4798773447596902,255.1853353719803,54.959808724261705
22,1.0524906725624856,-255.09938306230322,10.508364541313156,2.602670006206602,52.67946528203428,-2.816156875970518,255.33147669769664,53.68463496692891
23,1.0825058306731856,-255.23780058980995,10.638641910675565,3.5004273641560006,51.44918690930154,-3.1720025424557843,255.47499036496754,52.44203545921834
24,1.1303919203641333,-255.37026084611074,10.77368573230433,4.288240585839695,50.25542842443086,-3.544876045351782,255.61295026437222,51.24504261264786
25,1.1933768732951218,-255.49399006511115,10.912046743798216,4.9562031937500155,49.110582067606124,-3.932030775525966,255.74249840936918,50.10611688886074
26,1.2685898248072622,-255.60633820718704,11.052287141385955,5.496542249367527,48.02643943378979,-4.330621264823256,255.86090139605392,49.03695424369113
27,1.3531288157367158,-255.70483003722572,11.193027728301619,5.903801003417629,47.014009521543926,-4.737814596102395,255.96560413898456,48.048318009188755
28,1.444131371710567,-255.7872123986356,11.33299212892678,6.174972196029511,46.08336004337232,-5.1508972140496105,256.0542796788395,47.149896698570565
29,1.538845873155527,-255.85149674260182,11.471046168320157,6.309578906202933,45.24348372130551,-5.567370965083958,256.12487402125555,46.35018800152481
30,1.6347014847844696,-255.89599604885004,11.606230813305414,6.309700385340621,44.50219034350341,-5.9850330176680835,256.17564505276266,45.6564082978921
31,1.7293743793749694,-255.91935530164832,11.737787363854041,6.179940957561223,43.866024609316746,-6.4020355236242725,256.20519461797727,45.074426393609706
32,1.8208481162568462,-255.92057477614966,11.86517394738845,5.927340893648919,43.340209309730064,-6.816922412511614,256.2124929496136,44.60871994727298
33,1.907466286234556,-255.89902560514508,11.988072839820795,5.561229260480214,42.92861328053066,-7.228642451496477,256.1968948804337,44.262353306438456
34,1.9879758140186075,-255.85445737890342,12.106388682789106,5.093020206011646,42.633743812313284,-7.636539463466026,256.15814757576885,44.03697617113366
35,2.0615595448366983,-255.78699776521196,12.220238196684182,4.535955971174912,42.45676360793139,-8.040322171905645,256.0963897861781,43.932843409422205
36,2.1278569156765728,-255.69714427085697,12.329932357977874,3.9048020299114645,42.39753270740824,-8.440017398992447,256.0121427729723,43.94885717900469
37,2.1869716399766417,-255.58574836985517,12.435952133305351,3.2155019565227603,42.45467591589576,-8.83591124181112,255.90629317095116,44.082633065259465
38,2.2394654623509838,-255.4539924063837,12.538918840512764,2.484801623904781,42.6256761167615,-9.228483397768139,255.78006823620433,44.33059210952181
39,2.28633725344917,-255.30335998242666,12.63956022258171,1.7298538385120634,42.90699340007881,-9.618340005597961,255.63500423245992,44.688080286460895
40,2.328987108137733,-255.13560089931775,12.738673468213895,0.9678153012020522,43.29420919430333,-10.006150193657247,255.47290908045434,45.14951618314782
41,2.3691656912724484,-254.952691987637,12.837086664798115,0.21544779398935882,43.78219360798692,-10.392590973546916,255.2958206792879,45.70856641271771
42,2.4089097672594453,-254.75679519757813,12.935620408847285,-0.5112651856546707,44.36529302952283,-10.77830421071243,255.1059623669012,46.35834677895936
43,2.4504655881130124,-254.55021416250295,13.035051361784891,-1.1974763576879668,45.03753373584488,-11.163868207367459,254.90569684047617,47.0916454975138
44,2.496202543866111,-254.33535024843715,13.13607934773253,-1.8297988583727847,45.792835855260954,-11.549785049191453,254.6974796580278,47.901162961210815
45,2.548520080578613,-254.11465892920262,13.23929924505736,-2.3965904242695792,46.62523057308419,-11.93648343170788,254.48381325967216,48.779760710154946
46,2.6097512456817853,-253.89060710019052,13.345178566151642,-2.8881934505424565,47.52907209350829,-12.324335330766342,254.26720220573807,49.720710575766425
47,2.6820663213798914,-253.66563162623638,13.454041266117148,-3.297128874986709,48.499234801286995,-12.71368371724286,254.0501099930963,50.71793362112521
48,2.7673799292525723,-253.44209913739982,13.566057918636174,-3.6182435674112714,49.531285566731356,-13.104877612425215,253.83491750659866,51.76621774283968
49,2.867264786541875,-253.22226701508154,13.681241957324216,-3.8488121794140335,50.62162140336206,-13.498310199108904,253.62388306512358,52.86140282629599
50,2.9828749974209003,-253.0082457335276,13.799451243541231,-3.9885952052330276,51.76756375395282,-13.894455484981906,253.41910421725464,54.000523205264294
51,3.1148814167899896,-252.80196319460003,13.920393791808914,-4.039855346105232,52.967402416453155,-14.293899150025107,253.2224818871249,55.181898751429614
52,3.263421247139066,-252.60513222634958,14.04363614146436,-4.007334222980923,54.22038432907653,-14.69735963586924,253.0356879812749,56.405168017066686
53,3.4280635815633977,-252.41922274213965,14.168612821735051,-3.8981911434751817,55.52664497510059,-15.105696179332742,252.86013788793645,57.671259336127925
54,3.6077920632449803,-252.24544004813458,14.294635727825776,-3.7219051348920615,56.887082977184086,-15.51990131244284,252.69696930761913,58.982298594675704
55,3.801005230318199,-252.08471052835654,14.420902802296307,-3.4901409900619034,58.30318142222981,-15.941076325216718,252.5470286215273,60.34145541693508
56,4.0055345122992945,-251.93767554840318,14.546505847854643,-3.216579830630435,59.77678236312777,-16.37038928140516,252.41086563242678,61.7527325641797
57,4.218679272593962,-251.8046939399685,14.67043743101106,-2.916714785229304,61.309823505162946,-16.809016345235868,252.28873703176023,63.22070614067134
58,4.43725776908983,-251.68585290557522,14.791596833861288,-2.607612782078533,62.90404810815696,-17.258068376947175,252.18061841498832,64.75022654742006
59,4.657672470777266,-251.5809867322884,14.908795160557862,-2.307644063533317,64.56070054938621,-17.718505941241105,252.08622421814064,66.346091935443
60,4.875987855454393,-251.48970241819868,15.020760104690988,-2.0361817647613543,66.28022078999985,-18.191046976405996,252.00503468161048,68.01270715573399
61,5.088018574636722,-251.41141117034,15.126141328435702,-1.8132747120419435,68.06195117469319,-18.676072286247734,251.93632882297155,69.75374185609962
62,5.289425622490547,-251.34536462358997,15.223517622710125,-1.6592974057388312,69.90386858176377,-19.173534596953925,251.8792222985682,71.5718013989498
63,5.475817898623086,-251.29069450029345,15.311406974456991,-1.5945818504960172,71.80235394637766,-19.68287702109791,251.8327088970895,73.4681236378437
64,5.642856410863401,-251.2464543189667,15.388280502865642,-1.6390364313777945,73.75200963508686,-20.202966330803743,251.7957042876056,75.44231330414394
65,5.786358380641233,-251.2116617406504,15.452580977254359,-1.8117574529244147,75.74553311679871,-20.73204553216117,251.7670906152042,77.49212389934031
66,5.90239867510389,-251.1853402484587,15.502746224878075,-2.1306393428591037,77.77365296930898,-21.26770899452099,251.74576062782026,79.61329471303675
67,5.987406259657509,-251.1665590735858,15.537237205727747,-2.611989928300312,79.82513066216583,-21.80690195688331,251.73066021109696,81.79944809863704
68,6.0382536699308735,-251.15447056140954,15.554570002715746,-3.2701576054696155,81.88682897412987,-22.34594474228107,251.7208284621035,84.04204966566421
69,6.052337734259046,-251.14834442396568,15.5533505454922,-4.11717757849907,83.94384547117255,-22.88058061273261,251.71543466155856,86.33043174604322
70,6.02764986887574,-251.147598406927,15.532310601039702,-5.1624445963296,85.97970720741459,-23.406045032522098,251.71381156746602,88.6518784027203
71,5.962834254636959,-251.1518247043965,15.49034347124615,-6.412419811403006,87.97662071002674,-23.9171532487623,251.71548424987145,90.99176837461852
72,5.857232222587626,-251.16081105287532,15.42653797272629,-7.8703796116187394,89.9157694329358,-24.408402529480462,251.72019329295776,93.33377073926934
73,5.710911388318021,-251.17455506872136,15.340209582375893,-9.53621455158018,91.77764931858037,-24.874085068234532,251.7279108498313,95.66008679691366
74,5.524678531528387,-251.19327029910204,15.2309279678307,-11.406286675939825,93.54243196222335,-25.308407454991613,251.7388479760036,97.9517307769959
75,5.300075780783815,-251.21738269620658,15.098540394360803,-13.47335332821354,95.19034416217119,-25.705612735626243,251.75345193981124,100.18884144234762
76,5.039360134299477,-251.24751667722398,14.943190709544812,-15.726564779390623,96.70205240282826,-26.06010141946056,251.77239268398714,102.35101652290052
77,4.745466662805702,-251.28447044778275,14.765333712684273,-18.15154166505544,98.0590410880074,-26.366548318639804,251.79653813743255,104.41766215204913
78,4.421956014955181,-251.3291808054384,14.565744640513048,-20.730536382686903,99.24397407346439,-26.62001279865212,251.8269186101798,106.368350043356
79,4.072947228954921,-251.38267824295974,14.345523251452036,-23.44268037458829,100.24103012660488,-26.81604082923798,251.8646810932113,108.18317589745934
80,3.703037377150209,-251.4460338171406,14.106091634867907,-26.264316645147538,101.03620428038755,-26.950758025456263,251.91103491255637,109.8431133383322
81,3.317210115898734,-251.52029982169205,13.849184526795314,-29.16941395427018,101.61756860391287,-27.02095352613531,251.96719074316238,111.3303584578542
82,2.92073561557566,-251.60644670676746,13.576830839134956,-32.13005598954096,101.97548759081884,-27.024154989560454,252.03429538893892,112.62866069332244
83,2.519064537836026,-251.7052989195124,13.291325578037252,-35.11699561077531,102.10278498976655,-26.95869517277455,252.11336499219726,113.7236361181105
84,2.117718796542203,-251.81747244605194,12.99519229757341,-38.10026111395552,101.99486031025516,-26.82377052120499,252.20521949285737,114.60305917100598
85,1.722181914569957,-251.943316867379,12.691137302702005,-41.04979849060654,101.64975441579124,-26.619491972648206,252.3104212445363,115.25712842372609
86,1.3377918926439258,-252.0828647350081,12.381997531869672,-43.93613109029341,101.06816468365203,-26.346927820960882,252.42922072079588,115.67870140553151
87,0.9696395535121828,-252.23579100464002,12.070684249943008,-46.73101629233386,100.25341128002769,-26.00813802744802,252.56151217899279,115.86349303485316
88,0.6224752296724307,-252.4013850383196,11.760124567724423,-49.4080780773555,99.21135716464674,-25.60619885686738,252.70680190398733,115.81023201329104
89,0.30062638068980435,-252.5785371719354,11.453202717998519,-51.94339486226318,97.95028541330403,-25.145216227476453,252.86419112352493,115.52076966659952
90,0.007928254262064,-252.76574101535635,11.152703089829837,-54.31602354237011,96.48073828567833,-24.6303257922249,253.03237485009203,115.00013621097429
91,-0.25233088291790806,-252.9611116728619,10.861257059211818,-56.508443226075165,94.81532320336349,-24.067677582715042,253.209656918156,114.25654035445618
92,-0.47744900394879664,-253.1624192153642,10.58129540319073,-58.506905467350975,92.96849147825569,-23.46440310176183,253.39398061265945,113.30130954595427
93,-0.6653336629703565,-253.36713615799778,10.315007530204616,-60.30168165441943,90.95629622151505,-22.82856307791884,253.58297367820666,112.14876997905296
94,-0.8145095493357201,-253.57249733296743,10.064308099398966,-61.88720230610717,88.79613630031709,-22.16907467638986,253.77400610367692,110.81606746679788
95,-0.9241109906124018,-253.77557022735778,9.83081103589096,-63.26208705754694,86.50649344152826,-21.49561771580106,253.9642587327869,109.32293232158989
96,-0.9938607750611569,-253.9733334693423,9.615810589393957,-64.42906781422799,84.1066695833099,-20.818520270991637,254.15080035298016,107.69139321495445
97,-1.0240372051966171,-254.16276072065597,9.42026897674965,-65.39481074140589,81.61653130477384,-20.148624852795447,254.3306704907227,105.94544649895903
98,-1.0154316569414812,-254.34090687852304,9.244810258075859,-66.16964539409378,79.0562675533615,-19.49713705821392,254.50096479762874,104.11068854333577
99,-0.9692991081354726,-254.5049933000843,9.089720301726041,-66.76721143408265,76.44616591447996,-18.87545913045621,254.6589197359415,102.2139192693544
100,-0.8873041408626579,-254.6524887784903,8.954952864588732,-67.20403507210978,73.80641139884578,-18.295011269528814,254.80199329973203,100.28272531090751
101,-0.771464820103738,-254.78118324446086,8.840141869159721,-67.49904862510789,71.15691028511881,-17.76704381845572,254.92793875916368,98.34505119345269
102,-0.6240966107394871,-254.88925165180746,8.744619882496721,-67.67306742726637,68.51714002813006,-17.30244361962372,255.0348689008918,96.42876665997625
103,-0.44775814021700794,-254.97530616914355,8.667442635636904,-67.74823887751586,65.90602463629821,-16.91153788041038,255.12130889904876,94.56123784226918
104,-0.2452002174970549,-255.03843547521856,8.607419204884456,-67.74747872234114,63.341833269044876,-16.603898825546477,255.18623662252517,92.76890943082739
105,-0.019319167934657856,-255.07823047820494,8.563147205566763,-67.69390972889192,60.84209823804094,-16.388152306906843,255.2291097016298,91.07690439213087
106,0.22688474970524353,-255.0947961236031,8.533052012833897,-67.6103175794376,58.423547305774854,-16.271793470450895,255.24987901371486,89.50864715489622
107,0.4903433545033611,-255.08874920144297,8.51542866017299,-67.51863799376554,56.10204432288326,-16.261012608619296,255.2489884837947,88.08551554805915
108,0.7679507417884278,-255.06120229467123,8.50848477558987,-67.43948770872862,53.89253191755344,-16.36053448249177,255.22736131879495,86.82652612156474
109,1.0565876303133432,-255.01373429449632,8.510382814170686,-67.39175007062748,51.80897015596239,-16.573474660469667,255.18637307407383,85.74805683170116
110,1.353140064906453,-254.9483482977386,8.51927997578335,-67.39222378233359,49.86426578275946,-16.901216705105202,255.12781234283418,84.86361045937961
111,1.6545130902639773,-254.86741819392952,8.533364497414743,-67.45534097318782,48.07018773729289,-17.34331423560304,255.05383035954955,84.18362157473224
112,1.9576405761352969,-254.77362576858314,8.55088740346384,-67.59295836591035,46.43726601950711,-17.897421947735264,254.9668813374498,83.7153093642109
113,2.2594929297670916,-254.66989057448873,8.57018924409695,-67.81422301066647,44.974672532959346,-18.559259616944498,254.86965579595343,83.46257819223798
114,2.5570847617029524,-254.55929506893347,8.589721789995517,-68.1255119425149,43.69008413867966,-19.322612981171584,254.76500938713383,83.42596737127211
115,2.847484547473189,-254.44500759308315,8.608064977951935,-68.53044324861432,42.58952972396013,-20.17937516241508,254.65588980798867,83.602651232813
116,3.1278280056118337,-254.3302057630987,8.623939549703023,-69.02995438754976,41.67722461591177,-21.119631841324082,254.54526436822385,83.98649018687625
117,3.395336467421844,-254.2180027870118,8.636215820444836,-69.62244215300741,40.95539720049331,-22.13179264849888,254.43605070984273,84.56813301888958
118,3.6473410638385855,-254.11137903410685,8.64391895212769,-70.30395742020677,40.42411417733172,-23.202770142081114,254.33105296723937,85.3351702214554
119,3.8813131052435073,-254.01312076733166,8.646231100673601,-71.06844675703674,40.0811124586292,-24.318206341256683,254.2329052220195,86.27233769069024
120,4.0949005907982094,-253.92576735876224,8.642490886001772,-71.90803210423786,39.921647207164455,-25.462745153138233,254.1440235010378,87.36176958550496
121,4.28597043024825,-253.8515677234865,8.63219073572631,-72.81331904758727,39.938366741631036,-26.62034724116337,254.06656696730096,88.58329850939735
122,4.452655734299417,-253.79244626183512,8.61497270861813,-73.77372379309304,40.12122581539355,-27.774642017981705,254.00240849340142,89.91480042110867
123,4.593407321517303,-253.74997832446493,8.590623371688052,-74.77780887436501,40.45744891530654,-28.9093095958737,253.9531145157389,91.33258081808427
124,4.707048194418592,-253.7253750847846,8.559068157835547,-75.81361786248009,40.931554640272886,-30.008483776534227,253.91993391809925,92.81179776486131
125,4.792829075080324,-253.7194776490062,8.520365410101942,-76.86899987082815,41.52545091882111,-31.05716558718702,253.90379561592272,94.32691628157706
126,4.850482360132491,-253.73276017950678,8.47470015721806,-77.93191543899518,42.21860885407669,-32.04163556689802,253.9053144383594,95.85218753846549
127,4.880271388393388,-253.76534174458143,8.422377679313966,-78.99071646419199,42.98832034077209,-32.94985208882427,253.9248048353116,97.36214531009243
128,4.883031873314636,-253.81700656285074,8.363817106196654,-80.03439421419192,43.81004127408698,-33.77182257527493,253.96230190015376,98.83211127776478
129,4.860202608783509,-253.88723222954067,8.29954554900122,-81.05279100058529,44.65781826120393,-34.499934600292846,254.01758913731373,100.23870002659447
130,4.8138428782231655,-253.97522527562234,8.230193494413285,-82.03677266669463,45.50479249951395,-35.12923461580244,254.0902321914347,101.56031395513831
131,4.746634314139948,-254.0799630078227,8.156492275231654,-82.97836052986992,46.32377024021632,-35.65764336307863,254.17961737567754,102.77761782503326
132,4.661865388641487,-254.20024018617346,8.079274235743236,-83.87082272869695,47.08784536446543,-36.08609889644203,254.28499346863114,103.87398237966026
133,4.56339736271337,-254.3347189078679,7.999475672566992,-84.70872599451194,47.77105635347346,-36.41862053942277,254.405515085139,104.8358864220294
134,4.455611327067154,-254.48198008838145,7.918141904769825,-85.48794966190268,48.3490575243765,-36.66229001157741,254.54028597568308,105.65326703317727
135,4.343336802375077,-254.64057504203313,7.836433233635847,-86.20566427157418,48.79978293337676,-36.827149306696434,254.68840075567059,106.31980827816501
136,4.231763152721381,-254.80907577766337,7.755630307189918,-86.86027742939243,49.10408086939718,-36.926018453651885,254.84898372623053,106.83315977619048
137,4.126335777185687,-254.98612271936597,7.677137442133237,-87.451349677361,49.24629737564945,-36.97423980642725,255.02122359743026,107.19507784312887
138,4.0326396530653925,-255.1704686559861,7.6024825913210385,-87.97948303030272,49.21478866563414,-36.98935877945829,255.2044030758926,107.41148347364263
139,3.9562733001242387,-255.36101788569468,7.5333128077459355,-88.44618463389378,49.00234449379454,-36.99075378500312,255.39792249847613,107.49243317049584
140,3.9027166548613654,-255.5568598276282,7.471384284066742,-88.85370788921216,48.60650731622876,-36.99923039256579,255.60131705767623,107.452000566609
141,3.8771966891778495,-255.75729678716695,7.418546346484679,-89.2048735707107,48.02977525759964,-37.03659631251469,255.81426763821545,107.30806897134775
142,3.8845547950695063,-255.96186592756257,7.376719106098054,-89.50287404578282,47.279680351769116,-37.12523461719272,256.0366057068226,107.0820374070817
143,3.9291199104323407,-256.1703556834387,7.347864798521363,-89.75106462382723,46.368737184071655,-37.28769256786196,256.2683129306253,106.79844529110025
144,4.014591089893357,-256.382816853522,7.333953191378777,-89.95274714432117,45.31426093060436,-37.546302469030934,256.5095162456946,106.48452351729715
145,4.14393280225199,-256.5995685128901,7.336921786689644,-90.11095195719214,44.13805783506067,-37.922849110501076,256.76047903684395,106.16968213265064
146,4.319285779965128,-256.82119872419554,7.3586317957343015,-90.22822526128888,42.865995246813895,-38.43829557423015,257.0215889547941,105.88494685903531
147,4.541895879232538,-257.0485597334584,7.4008209451252105,-90.3064291872087,41.52746225168578,-39.112575544303375,257.293342615987,105.66235815159197
148,4.812063151825779,-257.28275682362084,7.465054115690605,-90.34656198464734,40.1547355025139,-39.964456007553515,257.5763269180465,105.53434723395613
149,5.129113046407266,-257.52512935472043,7.552672687668248,-90.34860528312251,38.782268043052724,-41.01146975091536,257.8711960452641,105.5331037278199
150,5.491391196762837,-257.77722201951224,7.664743287556423,-90.31140480419529,37.4459216550405,-42.269912709604306,258.178642706504,105.68994928965824
151,5.896282637936709,-258.04074420177193,7.802006422620522,-90.23259029748223,36.182165418274344,-43.754897239991436,258.4993619558509,106.03473123751205
152,6.340255673366551,-258.31751551217684,7.964825319766248,-90.1085399931229,35.02726463686202,-45.48044894870077,258.83400606788473,106.59524961657914
153,6.818930086916364,-258.6093959300087,8.153135231453785,-89.93439455562545,34.01648500373688,-47.45963197035536,259.1831292137183,107.39673060534918
154,7.327168930624737,-258.9181993882439,8.366393557303839,-89.70412533716153,33.18333685827245,-49.70468569504671,259.5471210017143,108.46135864158892
155,7.859192700423575,-259.24559008877765,8.603531346685761,-89.410661544625,32.55888364351894,-52.22715495492562,259.92612829235384,109.80787910798765
156,8.40871435453749,-259.5929613229769,8.862907061861502,-89.04608056849014,32.17113714661637,-55.03799556914922,260.3199650699411,111.45128273449187
157,8.9690933346719,-259.9612971021592,9.142263823414622,-88.60186492412952,32.044559762024065,-58.1476379299586,260.72801055562235,113.4025818913941
158,9.533506509009786,-260.35101756672066,9.438691669002365,-88.06922780203568,32.19969091290432,-61.56599305631159,261.1490962703345,115.66868758271784
159,10.095133765576689,-260.7618100935524,9.7485966315079,-87.43950702312073,32.652911076970575,-65.30238828078164,261.5813835572143,118.25239424921749
160,10.6473557926102,-261.1924492517152,10.067678688537823,-86.7046243171703,33.41635277672835,-69.36542338839804,262.0222341443797,121.1524775608103
161,11.183961283599807,-261.64061004350907,10.390920819601316,-85.85760343886656,34.49796355032336,-73.76274236996923,262.4680774470106,124.36390827731577
162,11.699360376515834,-262.1026800276731,10.712591531405279,-84.89313688260282,35.9017214299299,-78.50072065915657,262.91427929154486,127.87818295519192
163,12.188800708449469,-262.57357697531893,11.02626334281297,-83.80818706168199,37.62799893863734,-83.58407244298532,263.35501762770974,131.68376972563854
164,12.64858215369118,-263.04657971946176,11.324849886861887,-82.60260404823921,39.67406722519645,-89.01538708203408,263.7831716472765,135.7666645816895
165,13.076266044294835,-263.51318074594315,11.600664382015662,-81.27973866040811,42.03472784265715,-94.79460763103651,264.1902314698333,140.11105068049523
166,13.470874266683241,-263.9629696838002,11.845502068344768,-79.84702719565607,44.703055924938425,-100.91846772204232,264.5662360235584,144.70005020127365
167,13.833073005448643,-264.3835571089428,12.050748695347444,-78.31652277222992,47.671235138285155,-107.37990550332552,264.89974686361916,149.51655539881259
168,14.16533516961925,-264.7605480071418,12.207516321980028,-76.7053482632709,50.93146182470946,-114.16747485990696,265.1778654739699,154.5441227677906
169,14.472074872528353,-265.0775739039738,12.306806612340443,-75.03604720212729,54.4768933471489,-121.26477485058994,265.386301158412,159.76791180285687
170,14.759746875105174,-265.31639201753836,12.339700500049918,-73.3368116068746,58.30261398322021,-128.64991832271377,265.5094959126757,165.17564777470463
171,15.036903704013394,-265.4570586860865,12.297571602520636,-71.6415691002205,62.40659097012633,-136.29506010464561,265.5308115531902,170.7585862307778
172,15.3142032576419,-265.4781826886581,12.172319252586306,-69.9899156555836,66.79059357019855,-144.16600406381846,265.43278279390097,176.51245551680353
173,15.604360117469229,-265.3572619975318,11.956615655580933,-68.42688447128461,71.46104925982395,-152.22190673746937,265.1974380038801,182.43835248357493
174,15.922034452023132,-265.0711051275409,11.644160555714933,-67.00254557723801,76.42981312409252,-160.41509337198227,264.80668719864656,188.5435657195693
175,16.283653319582083,-264.5963356269148,11.229935913979698,-65.77143458199617,81.71482889565907,-168.6910002245488,264.2427744665356,194.84230014636998
176,16.707160393140214,-263.9099753267535,10.710452457987156,-64.79181234657644,87.34066239711605,-176.98825495821006,263.48878945311526,201.356276594558
177,17.211691751804462,-262.9900987484955,10.083979556074048,-64.12476034880659,93.33889011558513,-185.23890484875875,262.5292297468734,208.115180007857
178,17.81717751638226,-261.81654776737116,9.350749695792445,-63.833119268367106,99.74832711361209,-193.36880023351353,261.3506032419849,215.15693025654687
179,18.543871749577715,-260.3716924864843,8.513128955701118,-63.9802811647132,106.61507947409416,-201.29813815077773,259.9420570377125,222.52775035977078
180,19.41181599550316,-258.6412213716343,7.575745320550848,-64.6288487715247,113.99240710658941,-208.94216852611734,258.2960172290509,230.28200847598367
181,20.440244815147985,-256.61494099937227,6.545567526908789,-65.8391789813736,121.94038321818465,-216.21206264796177,256.40882198515186,238.48181254187497
182,21.646944511934137,-254.28756328933497,5.431928268029736,-67.66783151755168,130.52533737716573,-223.01594102476182,254.2813285812996,247.1963400314904
183,23.04757893898817,-251.65945589816232,4.246486909937641,-70.16594801416468,139.81907023871034,-229.26005489743775,251.91947360152983,256.500889978188
184,24.65499888886396,-248.73732966264765,3.0031282927233467,-73.37759117005145,149.89783003929384,-234.85011254702673,249.33476446615452,266.47565014228405
185,26.478554018406747,-245.53483578329656,1.7177957107518276,-77.33807825114005,160.8410442291822,-239.69273800372665,246.54467992730844,277.20417903234085
186,28.523428351529855,-242.07304504318617,0.4082578089692217,-82.07234798229837,172.7298043071672,-243.69704579573332,243.57295738606874,288.77161039913784
187,30.79002191167674,-238.38078190129409,-0.9061891019330893,-87.59340477948612,185.64510812281443,-246.77631096470375,240.4497459169771,301.2625967572036
188,33.273401817883126,-234.49478788072122,-2.205079947146591,-93.90088917089298,199.66587160605513,-248.849708752015,237.21160580284416,314.7590183160595
189,35.96284615817525,-230.45969133592962,-3.4671957249893706,-100.97982775751179,214.8667309811376,-249.8440932523603,233.90133820363846,329.33749422309944
190,38.84150309262495,-226.3277643282993,-4.671027051830608,-108.79961959367279,231.31566683040054,-249.69577921466603,230.56763218480998,345.0667439999391
191,41.88618590864188,-222.15845177020614,-5.79527715566514,-117.31331775525737,249.07149261154987,-248.35228645150016,227.26452049662083,362.00485824537213
192,45.06732216181027,-218.01766313730596,-6.819392854340547,-126.45726441346646,268.1812620087619,-245.774002409991,224.0506401340617,380.19654872828045
193,48.34907169981826,-213.97682300751293,-7.724109710168432,-136.15113427613989,288.67766121484556,-241.9357156715438,220.98829892321982,399.6704583144752
194,51.68962449403795,-210.11168359424656,-8.491995274939928,-146.29843420720854,310.57646305819975,-236.82797168549365,218.1423553142776,420.43661992156814
195,55.041684953698784,-206.50091026105846,-9.107972386058986,-156.7874957560581,333.87412884539674,-230.45820202791174,215.57892518301526,442.4841599116851
196,58.35314476937778,-203.22445946730934,-9.559803049173999,-167.49298202792707,358.54564998573017,-222.8515799912121,213.3639364834822,465.77934409074885
197,61.56794126352412,-200.3617772988067,-9.838512701494189,-178.27791089272372,384.54272415518994,-214.05155839500867,211.5615596574918,490.26406300012866
198,64.6270927694211,-197.98985533483102,-9.93873476870832,-188.99617337459568,411.79235938902184,-204.12005013836244,210.23254847633456,515.8548468401108
199,67.46989683598261,-196.18118888854792,-9.858956611917895,-199.49549999622843,440.1959937042128,-193.13721809918252,209.43253230969992,542.4424887448071
200,70.03527106907266,-195.00169043059557,-9.601650337593924,-209.62080013236422,469.6292075373073,-181.2008484324163,209.21030651466688,569.8923381712539
201,72.26321010362088,-194.50861789726193,-9.17327549178322,-219.21777178434996,499.94209169933004,-168.42529003326533,209.60617236434857,598.0453043259587
202,74.09632563751082,-194.74858308955876,-8.58414527912252,-228.1366538097522,530.9603153323968,-154.93995280758483,210.65038123910736,626.7195838671964
203,75.48142994163956,-195.75570899383177,-7.8481534861691165,-236.2359720432932,562.4869172453411,-140.88736838717102,212.36173928272805,655.7130990502218
204,76.37111717593386,-197.550006190812,-6.982365444563948,-243.38611739669838,594.3048205395446,-126.42082919574678,214.74642807680667,684.8066036056978
205,76.7252916134072,-200.136037219358,-6.006482693418438,-249.4725899774377,626.1800449113865,-111.7016356271375,217.79709388096418,713.7673854766397
206,76.51258802312778,-203.5019334857889,-4.942197074412713,-254.39875007187666,657.8655637877991,-96.89599680147039,221.4922524786912,742.3534695731072
207,75.71162760821949,-207.61882174938356,-3.8124555654189516,-258.0879356418543,689.1057252124461,-82.17164788805721,225.79604863899766,770.3182014846802
208,74.31205367401135,-212.44070622714173,-2.6406620929637574,-260.48483751106653,719.6411272922861,-67.6942658126524,230.65839885843374,797.4150761904095
209,72.31529514829145,-217.90483817806827,-1.4498466834254806,-261.55606762143583,749.2138125355434,-53.62378415166248,236.01553391759435,823.4026655232883
210,69.73501346199578,-223.93258809765604,-0.2618353162551834,-261.289910962553,777.5726222679052,-40.110725303166376,241.79094463764957,848.0494949826509
211,66.59719899180539,-230.4308172498556,0.9035446122890846,-259.69531383806634,804.4785344100906,-27.292681161727234,247.89672077484892,871.1387238454549
212,62.93989673359416,-237.29372611209536,2.029188441854843,-256.8002232201219,829.7097974476244,-15.291079856019142,254.2352597471541,892.4724911034734
213,58.81255630171986,-244.40513834585596,3.1013350938118447,-252.6494457535862,853.0666726904321,-4.208373533745612,260.7013091776626,911.8758023427785
214,54.27501768177088,-251.64116100429962,4.110055196628326,-247.302232622612,874.3756074110102,5.874230108544977,267.18429524785154,929.1998486375802
215,49.396160150524,-258.8731455939213,5.049582214936917,-240.8298122961706,893.4926831367967,14.898391180903003,273.57087765055525,944.3246676613716
216,44.252256227407294,-265.970861006884,5.918468953233239,-233.3130846634785,910.3062146625781,22.829543044090116,279.7476616983591,957.1610794522154
217,38.92508467235047,-272.80577888273245,6.719559585372999,-224.84065827592593,924.7384136683146,29.657040388603708,285.6039893353834,967.6518543345998
218,33.49986611253543,-279.2543651169388,7.459775736233936,-215.50736153022828,936.7460732531414,35.39354580368672,291.0347240241847,975.7720976882363
219,28.063091792387866,-285.2012682909741,8.149723637589334,-205.4132952646836,946.3202733278191,40.073685176928265,295.9429403197951,981.5288642987098
220,22.700320055077892,-290.5422969853176,8.803137610771362,-194.66342633496745,953.4851488918779,43.752033518939896,300.2424279532995,984.9600421683684
221,17.494016207593198,-295.18708344583507,9.436182697160952,-183.36765746563492,958.2958012380267,46.500519170474846,303.85992290650677,986.1325700062473
222,12.521509171059646,-299.0613408947246,10.06664576895596,-171.64125542431208,960.8354640571486,48.40535514820277,306.73698452609284,985.1400727128206
223,7.8531328840858015,-302.10863560594544,10.713049617199431,-159.605482850332,961.2120610518593,49.563621767905865,308.8314481640436,982.1000145041302
224,3.5506124068433724,-304.29161220805474,11.393728197372651,-147.3882615326686,959.5543085576325,50.079635022599746,310.11839688499646,977.1504800738164
225,-0.3342550830036661,-305.592630996213,12.125903363172672,-135.12469602937693,956.0075256950234,50.06124051659037,310.5906130855974,970.4467005579022
226,-3.7605851409356212,-306.013798734755,12.92480392376717,-122.95730335378961,950.7293155654477,49.61617266177337,310.2584909467893,962.1574427327274
227,-6.699029579933347,-305.57639867888884,13.80286648182971,-111.03582327183254,943.8852738509584,48.84861284425078,309.1494127383935,952.4613762615879
228,-9.132024899900061,-304.31975010280536,14.769053973037055,-99.51652097839064,935.6448663132087,47.8560682137807,307.30661493910384,941.5435247016019
229,-11.053666324625734,-302.2995509076913,15.828322031367097,-88.5609361986783,926.1775954424337,46.72667499897472,304.7875923438034,929.5918919740182
230,-12.469222885354496,-299.58577727686446,16.98125556878526,-78.33407667619096,915.6495510816484,45.53700763487311,301.66210810636966,916.7943384307748
231,-13.394322935118074,-296.2602305604003,18.2238890284189,-69.00209609196436,904.2204128449076,44.350448700587414,298.00989357969644,903.3357612554671
232,-13.853851703516211,-292.41383280980693,19.547714482312635,-60.72953359125066,892.0409459759073,43.21614623820074,293.918132909292,889.3956144487784
233,-13.880612413031978,-288.1437782778139,20.939872715453287,-53.67622195490036,879.2510088118244,42.16855628951894,289.47883312347136,875.1457855712872
234,-13.513809783734786,-283.55064875880436,22.38351408374189,-47.99399267515028,865.9780704475011,41.22754138120181,284.7861808810475,860.7488309691315
235,-12.797419325601563,-278.73559621816867,23.858308645289647,-43.8233182085937,852.3362221578741,40.398971963981055,279.9339824089471,846.3565592653376
236,-11.778507605420332,-273.79768732931353,25.34107923527714,-41.290034538801166,838.4256556846818,39.67575879621413,275.01327409003284,832.1089448977797
237,-10.505567706532965,-268.8314920582051,26.806527048865522,-40.5022814951466,824.3325751712556,39.03923078090616,270.11017845498634,818.133349374468
238,-9.026930523973542,-263.924983217592,28.22801699479619,-41.54778512309408,810.1295065138806,38.46076520456758,265.3040649920183,804.5440272200908
239,-7.389306644387479,-259.1577969695741,29.578389561907414,-44.4915872575288,795.8759671594011,37.90357572928247,260.66605833273235,791.4418954923443
240,-5.636505733743354,-254.59988657295307,30.8307670862836,-49.37430413439732,781.6194597571138,37.32456756171908,256.25791907424417,778.9145491496141
241,-3.808370986411957,-250.310584123506,31.959324855807505,-56.21097040539141,767.3967533309643,36.6761782570471,252.13130566956528,767.0365081095744
242,-1.9399556373796507,-246.33806838753597,32.940001112377296,-64.99049922301234,753.2354146385183,35.90813554062781,248.32741022353818,755.8696841859255
243,-0.060957216463294765,-242.71922170993452,33.75112447320739,-75.67576474084005,739.1555493739775,34.96907914804967,244.8769472658848,745.4640561915929
244,1.8045863223548053,-239.47984577922352,34.37394247491564,-88.20429161567361,725.171707643863,33.80801081670074,241.8004629709036,735.8585388549923
245,3.638345607155939,-236.63519499803192,34.79304069039225,-102.48951759974703,711.2949009633063,32.375553941525865,239.10892300345589,727.0820258044378
246,5.427511202740723,-234.19077770141445,34.99664778171536,-118.42258014345553,697.5346695272586,30.625020570751165,236.8045304037613,719.1545791072554
247,7.164393399827004,-232.1433699616718,34.97682732572046,-135.87456559823187,683.9011297163356,28.513296887437292,234.8817209702555,712.088728478632
248,8.845843754257796,-230.48218440165041,34.72956177645322,-154.69914950049755,670.4069240737252,26.001567974402295,233.3282825066656,705.8908335221358
249,10.472537010351347,-229.190136931236,34.25473735789892,-174.73554831306865,657.0689908536128,23.05590794550478,232.1265456495696,700.5624537389601
250,12.048155363840522,-228.24515692294173,33.55604112765341,-195.811697157966,643.9100690411855,19.647762405064263,231.25459712534874,696.1016650319893
251,13.578518463383471,-227.621490469692,32.64078302091078,-217.74756491166636,630.9598585612132,15.75434691714858,230.6874706742334,692.5042593450155
252,15.070702215795725,-227.29095168661084,31.519656306931026,-240.3585178820411,618.2557650334338,11.358978179682094,230.39827621782504,689.7647670008112
253,16.53218726984611,-227.22408326062782,30.206449507096067,-263.45864629370874,605.8431740759173,6.451344775764781,230.3592338836337,687.8772496970271
254,17.970073942691396,-227.3911943301451,28.71772170763563,-286.8639737351529,593.7752208888477,1.0277133234276685,230.54258599864204,686.8358252818407
255,19.390394616557856,-227.76325108929416,27.072451902441824,-310.3954777411348,582.1120448509618,-4.908944205294034,230.9213669977228,686.6349015846633
256,20.797547928548802,-228.31260311806375,25.2916718928794,-333.88185855763015,570.9195441907556,-11.348923172947657,231.47001826952146,687.2691136762255
257,22.193872012747637,-229.01353608258816,23.398091339576492,-357.1620017175716,560.2676709494208,-18.275882771444067,232.16484202211686,688.7329753712625
258,23.57936692738978,-229.84264874344495,21.415722669427346,-380.0870877621403,550.2283302989973,-25.66708815131145,232.9842948947567,691.0202705341918
259,24.951569384332224,-230.77905884511188,19.36951263580398,-402.5223094092658,540.87296976348,-33.49381378630403,233.9091279644713,694.1232221719295
260,26.305576269899507,-231.80444830450642,17.284986379260694,-424.3481633592116,532.2699618888153,-41.72191390480274,234.92238487770499,698.0314870022071
261,27.634207522409238,-232.90296313341582,15.187908771444583,-445.46129156631497,524.4818972366767,-50.312553577942616,236.0092740555524,702.731029910536
262,28.928293907138976,-234.06098770619465,13.103966603060202,-465.77485587076177,517.5629121052119,-59.22308071068114,237.15693428593593,708.2029362903078
263,30.17707113659221,-235.26681632608842,11.058473834659743,-485.2184406875183,511.55617625200534,-68.40800629168429,238.3541155611464,714.4222206805703
264,31.368658599440973,-236.5102475738956,9.076100773814291,-503.7374909071876,506.49165978482057,-77.82004941417124,239.5907988026565,721.3566876240897
265,32.49059871931238,-237.78212867190229,7.180626824339001,-521.2923059021568,502.3842855923757,-87.41119614886208,240.857779208373,728.9658958164559
266,33.530431697387,-239.07387805275573,5.394715523902581,-537.8566249188126,499.2325550528099,-97.13371812942435,242.146238383583,737.2002700689277
267,34.47628001945613,-240.3770143832449,3.7397100048948255,-553.4158531832776,497.0177115957257,-106.94109778010663,243.44733008724367,746.0003978756072
268,35.31741751351989,-241.68271932451242,2.235446691641219,-567.9649905190381,495.7034807100714,-116.78881202425703,244.7518032144356,755.2965387920775
269,36.04479892941908,-242.98145928443984,0.9000848157295099,-581.5063341653226,495.2363980261542,-126.63493437390844,246.04968353254674,765.0083657630084
270,36.65152806697662,-244.26268843474082,-0.25005094316732535,-594.0470344487034,495.54671079796435,-136.44052572574546,247.33003281987513,775.0449485412629
271,37.13324544602534,-245.51465145885254,-1.200617698268452,-605.5965862809968,496.5498137340089,-146.16979612942808,248.58080057399545,785.3049811093285
272,37.48842029687692,-246.7242999767153,-1.9393946496348407,-616.1643416606709,498.1481585538134,-155.79003244977164,249.78877946597729,795.6772481388449
273,37.7185360215383,-247.8773314944323,-2.4564193338645803,-625.7571288367413,500.23355849435455,-165.2712995591919,250.9396713104315,806.0413203343752
274,37.828162962371316,-248.95835427401627,-2.744121876956359,-634.3770626721317,502.689794773659,-174.5859349259209,252.01826566565273,816.2684650809394
275,37.82491710586399,-249.95117597266997,-2.7974579622409492,-642.0196278760261,505.3954222777113,-183.7078676736245,253.00872848098544,826.2227570582899
276,37.71930808670919,-250.83920843914873,-2.614039738758311,-648.6721118041498,508.22666692839914,-192.61180281580317,253.89499360166764,835.7623731099565
277,37.52448438873801,-251.60597576909427,-2.1942625981709374,-654.3124559896637,511.06030745335704,-201.27231885443356,254.6612454748173,844.7410561326153
278,37.2558878188275,-252.2357077967172,-1.5414247021599896,-658.9085851235493,513.7764393592063,-209.662931811981,255.29247721898614,853.0097334530059
279,36.93083300191774,-252.71399700579917,-0.6618351328229685,-662.4182588097128,516.2610283114309,-217.75518077150957,255.77510465211054,860.4182755982946
280,36.56803058974076,-253.02849374929247,0.4350945225839145,-664.789475255819,518.4081732327826,-225.5177891191292,256.0976142423908,866.8173812156853
281,36.187074829698446,-253.16961282225964,1.7367812130947524,-665.9614373036278,520.1220154860581,-232.91595215722683,256.2512213584157,872.0605727994279
282,35.807916927507954,-253.1312237767757,3.2274305773692977,-665.8660700464504,521.3182485946627,-239.91079601502602,256.2305145698732,876.0062854366076
283,35.45034526085131,-252.91129776906564,4.888032663839504,-664.4300562893592,521.925202172166,-246.4590453638421,256.0340619744338,878.5200268804707
284,35.13349206794234,-252.512485047604,6.69639929064695,-661.5773325246879,521.884493365985,-252.51292897243687,255.6649564928332,879.4765824310402
285,34.87538382790091,-251.9425992959015,8.627248435864717,-657.2319657533607,521.1512585890206,-258.0203432420898,255.13127868073522,878.7622333973289
286,34.69254923913242,-251.21498785269196,10.65234009114685,-651.3213122476551,519.6939968206952,-262.9252848981075,254.44645779068864,876.2769542250379
287,34.5996946489241,-250.3487702867569,12.740666850827486,-643.7793444063424,517.494072028531,-267.16855485710727,253.62951454859763,871.9365507041961
288,34.60945229959597,-249.3689317866386,14.858701255403414,-634.5500213939481,514.5449347614829,-270.6887255322349,252.7051723090728,865.674699126781
289,34.732202247881354,-248.30626212415947,16.970700649231052,-623.5905729160327,510.85113050581407,-273.4233532355173,251.70382675728843,857.444842839661
290,34.975964695693186,-247.19713531609966,19.039069062719417,-610.8745630749787,506.4271646025707,-275.31040604533155,250.66136792929393,847.221898102287
291,35.34635605040192,-246.08312933893893,21.024774366419308,-596.3946031350514,501.29629093115096,-276.2898660911366,249.61885186702136,835.0037163502136
292,35.846599475030104,-245.01048918330014,22.88781762839041,-580.1645889573921,495.48928530381033,-276.30545452577974,248.62202257373403,820.8122464593848
293,36.477579009066496,-244.02944000394794,24.58775016938667,-562.2213516425394,489.0432558527266,-275.306418421873,247.72068794078183,804.6943400821077
294,37.23792547361235,-243.19336004926558,26.084232227025687,-542.6256289740193,482.00053256305927,-273.2493121206576,246.9679559078962,786.7221467138692
295,38.124122269059924,-242.55782551180965,27.33762551088331,-521.4622902782655,474.40766697746466,-270.09970152442065,246.4193393860588,766.9930530215338
296,39.13061980791176,-242.1795415162587,28.309610426873625,-498.8397771779339,466.3145612191826,-265.8337186251942,246.13174052854066,745.6291324724787
297,40.24994869541841,-242.11517514953056,28.96381750045785,-474.888755844907,457.77373328371954,-260.43939537223144,246.16232680785973,722.7760855537264
298,41.47282386088672,-242.42010773170767,29.26646156493785,-449.7600111367837,448.83971375109485,-253.91771098198987,246.56731305295722,698.6016670976913
299,42.78823451193544,-243.14712450424545,29.186966557543805,-423.62164784611605,439.5685584442807,-246.28329509007088,247.40066518053695,673.293614740337
300,44.183517730464544,-244.34506077122595,28.698568287432185,-396.65569754324673,430.0174526926863,-237.56474067851224,248.7127429621102,647.0571104730623
301,45.64441644442062,-246.0574246086369,27.77888241600623,-369.05425933061036,420.2443760777417,-227.8044952272654,250.54890108869085,620.1118245056558
302,47.15512519625487,-248.32101790925563,26.41042516263436,-341.0153273355188,410.3077919442302,-217.0583155810187,252.94807033152975,592.6886059771302
303,48.6983294514803,-251.16457987585594,24.581074827875057,-312.73847517605327,400.26632360017356,-205.39429099905908,255.94134381488658,565.0258973337394
304,50.255246001695866,-254.6074799494762,22.28446311549064,-284.4205766356358,390.1783791829962,-192.89145902776522,259.5505971108223,537.3659578403256
305,51.805673157777115,-258.6584903018936,19.520286557722745,-256.2517416713966,380.10168989750383,-179.6380591300426,263.7871747470224,509.9509865625023
306,53.32805981619934,-263.31467117458493,16.294530015015976,-228.4116372792419,370.0927317081192,-165.72948789614622,268.65067948709856,483.0192361184506
307,54.799602201586126,-268.56040521876184,12.619595848223357,-201.06634332896166,360.20600811972935,-151.26603547559492,274.12790406330294,456.80120526311737
308,56.19637634740526,-274.36661927680245,8.514333668758972,-174.3658644279928,350.4931807903593,-136.35049437300967,280.19194759973493,431.51599105380217
309,57.49351332882118,-280.6902334550475,4.0039666295001615,-148.4423816215954,341.0020450335747,-121.08573838877221,286.80156049422163,407.367871072669
310,58.665422956358185,-287.47387754812297,-0.8800887858063043,-123.40928515928309,331.77535873925825,-105.57237117373892,293.90076172940803,384.5431748426488
311,59.68607010905503,-294.64591352728746,-6.100511496957153,-99.36098515895156,322.84954582028837,-89.9065407212733,301.41877111209436,363.2074930089009
312,60.52930619357198,-302.12079960404276,-11.614473950293512,-76.37345412747146,314.25330868601236,-74.17800838789547,309.27029550936066,343.50326425904
313,61.16925639464049,-309.7998261490219,-17.374148961233708,-54.50541680180613,306.0061978736105,-58.468549136793655,317.3562025920541,325.54777378605473
314,61.58076137516412,-317.5722463876217,-23.32732252620768,-33.80007076844099,298.1171999890556,-42.850744267388805,325.5646078046648,309.43159319108133
315,61.73986976570498,-325.3168152477665,-29.418107258346428,-14.287196911678228,290.58341637372473,-27.387209742499536,333.77239016807914,295.21748931064525
316,61.624375047550856,-332.90373799687103,-35.58774807687257,4.014497861060578,283.38891297538396,-12.1302832047275,341.8471400572436,282.9398272252535
317,61.21438727789403,-340.197016447793,-41.77550837277891,21.094972192527955,276.50382518290877,2.877828413277333,349.64952735345815,272.6044890618699
318,60.49292666405337,-347.0571646679358,-47.91962128088531,36.95054429515768,269.8837986012271,17.60446062908729,357.0360615320452,264.1893237741597
319,59.446522513653186,-353.3442484878599,-53.95828743398265,51.581850293815805,263.4698375159188,32.02550442836426,363.86219661780996,257.645133403396
320,58.06579786023208,-358.92118408630654,-59.83069831689835,64.9922135235153,257.1886180039144,46.12408371213838,369.98571407596717,252.89718919661235
321,56.346017372442965,-363.65721142680525,-65.47806336929884,77.18654558498186,250.95330419309718,59.88897936782326,375.2702965976676,249.84725816856186
322,54.28757427777176,-367.43143992219694,-70.844618921982,88.17086252039243,244.6648862404395,73.31289716972793,379.58918695044156,248.376109000575
323,51.89639123075035,-370.13634854752155,-75.87859716334431,97.95245151096503,238.21403875000814,86.3906857367033,382.8288106291714,248.3464560367987
324,49.18421053468319,-371.681112857988,-80.53313319238208,106.54066914024361,231.48347902211643,99.11761221006121,384.8922310220973,249.60629009836535
325,46.16875106082588,-371.9946284510209,-84.76708796748763,113.94829793366038,224.35078531172616,111.4877964964144,385.70230265584365,251.99253240556573
326,42.87371285481684,-371.0281048000918,-88.54576516113615,120.19334017380588,216.6916158838072,123.49289058610402,385.2043923745067,255.3349317197354
327,39.328616081211855,-368.75711487491736,-91.8415012371032,125.30109164172103,208.38325065179703,135.12106985816067,383.368549992702,259.4601062574702
328,35.568468706301786,-365.1830040560207,-94.63411086868459,129.30631521206215,199.3083598941464,146.35638166439216,380.19102863650386,264.1956147366341
329,31.633266675880794,-360.333585759057,-96.91117396636936,132.2553256579742,189.3588903576636,157.17847595966225,375.69507976791056,269.37392939152795
330,27.567340211870075,-354.26307967595784,-98.66815552629569,134.2078022625055,178.43994903228938,167.56272497788697,369.9309773092407,274.83618103050003
331,23.418568824962772,-347.0512799856182,-99.90835468836285,135.23816380370573,166.4735598778701,177.4807234528725,362.97525746443165,280.43555319329107
332,19.23749449776881,-338.8019733228854,-100.6426844721829,135.4363690022481,153.40216954989145,186.90114552395568,354.9291936769776,286.0402180183556
333,15.07636653032773,-329.6406574495967,-100.88928844581125,134.9080413818727,139.19178498107928,195.7909171508195,345.9165574025957,291.53572777734354
334,10.988152590361844,-319.71163908462336,-100.67300491323931,133.7738572284581,123.83463792266868,204.11664331757612,336.08074274870495,296.8267999777664
335,7.025548822322785,-309.174611331564,-100.02469301185042,132.16817621885417,107.3512878596574,211.8462096484478,325.58135480620064,301.8384581241875
336,3.240018021821573,-298.20082672021226,-98.9804384900262,130.23693477599156,89.79209348103777,218.95046164615073,314.5903769718656,306.51651367774815
337,-0.31912033312805055,-286.96899118324586,-97.5806600779512,128.13486137997083,71.23800274576934,225.40485447679882,303.2880420134877,310.8273973429063
338,-3.6055301930183776,-275.6610079492203,-95.86914034053011,126.02210952409682,51.80063156869854,231.1909636471018,291.8585357573495,314.75736938680393
339,-6.576616912534973,-264.45769904710966,-93.8920074898221,124.0604351888029,31.621620583252984,236.29775259081146,280.48566171644035,318.3111586381244
340,-9.194195990431107,-253.53462660446885,-91.69669638991091,122.40906852289352,10.871277817116006,240.72250693973777,269.34859027404775,321.5100973172349
341,-11.425069761719799,-243.0581271803887,-89.33091750071608,121.2204418384251,-10.253467936656104,244.47136619915642,258.6178078004234,324.38983348969845
342,-13.24151242766284,-233.18166082821418,-86.84166162908379,120.6359382626731,-31.531763029035133,247.5594099474516,248.45137001308092,326.9977147874878
343,-14.621665820226632,-224.04256317115394,-84.27426622048925,120.78181970289853,-52.72212074799136,250.0102851536026,238.99155071094575,329.38994627243045
344,-15.549849115686031,-215.75927413021117,-81.67156581364341,121.76548213331519,-73.566244149026,251.85539114600775,230.36196238676362,331.62863174515195
345,-16.016785474664214,-208.42910159367582,-79.07314547702889,123.6721729216123,-93.79330551999396,253.13266678884864,222.66520972366462,333.7788108630973
346,-16.019747607493667,-202.12656264707007,-76.51471181292695,126.56228998753376,-113.12460030391331,253.88504861725482,215.9811210551676,335.90560339045146
347,-15.562622944894688,-196.9023292657263,-74.02759172995924,130.46936587204942,-131.27848712445027,254.15868765924824,210.36558686584868,338.0715661200098
348,-14.655897821805382,-192.7827898464747,-71.63836492164417,135.3988205126889,-147.97552077626972,254.00102557778115,205.8500186516603,340.334357200226
349,-13.316559170875875,-189.77022282006925,-69.36863200328132,141.32754386941252,-162.94368160781605,253.45883733387464,202.44142618445719,342.7447870845837
350,-11.567911799848536,-187.84356391407005,-67.23491653330483,148.20434315806634,-175.9236027433856,252.57634810154016,200.12309647632068,345.3453160282321
351,-9.439309301204895,-186.95973436085643,-65.24869558675155,155.95125956753884,-186.67369608642156,251.39352732539655,198.85584338409785,348.1690362189896
352,-6.9657969092152925,-187.05548346772866,-63.41655016532873,164.4657267945453,-194.97507877549265,249.9446533203408,198.57978279992207,351.239153333071
353,-4.187665252679143,-188.0496858088023,-61.740423664535996,173.62350994583747,-200.6362033609742,248.25722820810404,199.21657507366598,354.56895833661673
354,-1.1499151031536579,-189.84602150422086,-60.217974043342544,183.28233036139343,-203.49709720508912,246.3513056392113,200.6720643605248,358.16225641281443
355,2.0983650501089524,-192.33595831312667,-58.84300336272982,193.28605215222478,-203.43311953816968,244.23927306009477,202.83923465490972,362.0141969323049
356,5.504704498700938,-195.40194707410132,-57.60594705213194,203.4692821161103,-200.3581486388181,241.92610691742084,205.60139483507,366.11242782610833
357,9.014032105447383,-198.9207376304245,-56.49440470272415,213.6622180320283,-194.22711750290134,239.41009422092498,208.8355003579512,370.4384814109906
358,12.569524734558957,-202.7667208963746,-55.49369435101711,223.69557213024717,-185.0378250324998,236.68398876915737,212.41551742581566,374.96928851072596
359,16.11350990762956,-206.81520423399692,-54.58741293914033,233.40539686508518,-172.83196189394968,233.73654668478002,216.21573654080555,379.6787148552538
360,19.58840788651768,-210.9455318319941,-53.757986784742556,242.63764825146436,-157.69530592790088,230.5543651236184,220.11394637586005,384.5390183996136
361,22.937696501127213,-215.0439691443497,-52.98719750548001,251.25233668753506,-139.75706097213921,227.12393109969793,223.99438571138842,389.52213749009644
362,26.106880608165167,-219.00628022032606,-52.256670986938474,259.12713486150227,-119.18833447587639,223.43377486744865,227.75040045619818,394.60073613515624
363,29.044446962344207,-222.7399382907029,-51.54831954098188,266.16033554521596,-96.19977249159972,219.47661454624532,231.28674386801416,399.74895221910043
364,31.702784435650045,-226.1659225835685,-50.84473014357892,272.273077526195,-71.03839455484942,215.25137590742665,234.5214703229457,404.9428156352566
365,34.039048960640756,-229.22006748022656,-50.12949440232797,277.41078463242417,-43.983694448847785,210.7649736774949,237.38738581275558,410.1603245768891
366,36.01595244209849,-231.85394345650744,-49.38747857912342,281.5437900498757,-15.343094579991423,206.03374850292315,239.83303146586823,415.3811885220086
367,37.602455422488276,-234.03526259138505,-48.60503446369036,284.6671453629378,14.553139646320547,201.08446693781636,241.82318962525045,420.5862650684777
368,38.774344715885846,-235.74781453222957,-47.77015403914411,286.7996403806549,45.35740452492998,195.9548102828088,243.33891516822945,425.7567342765917
369,39.5146795747525,-236.99095136664454,-46.872572597775665,287.98208513496047,76.71055125248286,190.69330121338712,244.37710751101707,430.873068209844
370,39.81409305843831,-237.7786515930896,-45.903826176621514,288.2749286162786,108.2478328681831,185.35864377123056,244.9496508121864,435.9138645581865
371,39.67093888608584,-238.13820419418897,-44.85726985851235,287.75530902048337,139.60487173381577,180.01848097697805,245.08216112463913,440.8546212282894
372,39.09127797846929,-238.10856365076302,-43.7280636119366,286.5136469570852,170.4235212967658,174.74760347987728,244.81238955871422,445.66653342928237
373,38.08870297833662,-237.7384353946411,-42.513131936322694,284.64990610016764,200.35750702769027,169.62567078214016,244.1883396833216,450.3153961913078
374,36.68400316767728,-237.08415825916583,-41.2111027762365,282.26965533869236,229.07774526329396,164.73453224239867,243.26616497712723,454.7606936827312
375,34.904676330831165,-236.20745544701384,-39.822230172302675,279.48007268761756,256.277253916946,160.15525689519615,242.1079176671045,458.9549522534222
376,32.78429828397949,-235.17312803957535,-38.348304023636366,276.3860337723719,281.67558468130864,155.96499781500802,240.77922341351174,462.8434266662999
377,30.361764956389386,-234.04676500911907,-36.792549198481304,273.08642600022534,305.0227216327741,152.23382720339288,239.34695688562763,466.36417816852025
378,27.68042581989759,-232.89254114287235,-35.15951524217923,269.6708229233074,326.1024053230102,149.02168186402722,237.87699135644016,469.44858867586737
379,24.787130804591108,-231.77116939143747,-33.45495731803439,266.21664131632474,344.73485395275844,146.37555499966118,236.43209112101655,472.0223375326501
380,21.73121537932615,-230.73806705856896,-31.685708768852923,262.7868860585921,360.77886383224933,144.3270594958597,235.07000889749517,474.0068466799047
381,18.56345008494695,-229.84178617442646,-29.859545626259205,259.4285653809519,374.1332800949512,142.89047060814488,233.8418415623429,475.3211776021798
382,15.334981461337035,-229.12274771974293,-27.985043445480876,256.1718321402642,384.7378357355336,142.06133324920054,232.79068696567404,475.88434024758664
383,12.09629108569139,-228.61230758097588,-26.07142705966319,253.02987658672262,392.5733627857465,141.8156923883296,231.95063268484083,475.6179513963015
384,8.896198427340147,-228.33216971266657,-24.128414215673384,249.9995640255786,397.6613843303787,142.109976253556,231.34609493337902,474.4491589602274
385,5.780931477859609,-228.29414945749937,-22.16605446146298,247.06277856254906,400.06310078712704,142.88153288847926,230.9915129587097,472.3137307309498
386,2.7932867057637485,-228.5002778036974,-20.194565077184386,244.18840355881048,399.87778907449706,144.04979275883815,230.89139164494452,469.15919225779413
387,-0.028103094439602197,-228.9432259526461,-18.224166376858303,241.33484215220298,397.24063937335603,145.51800486651928,231.04067315317016,464.947889572717
388,-2.6493779462230895,-229.60701931049178,-16.264919368356054,238.45295854223437,392.3200612803666,147.17547232509293,231.42540770881718,459.65984876406026
389,-5.041925542617604,-230.46800131435077,-14.326569343543541,235.4893036448998,385.31449916988754,148.90019647334566,232.02368450356082,453.29530606135256
390,-7.1827146047156365,-231.4960006964975,-12.418399211715444,232.38947791700394,376.44880523232223,150.56182699276977,232.80677645752678,445.87678908037043
391,-9.054483756792253,-232.65565106770575,-10.549096174242298,229.1014801784499,365.97022746034065,152.02480947647348,233.7404474860756,437.45064199239505
392,-10.645787067817956,-233.90780917037603,-8.726634730281956,225.57889434170787,354.1440783004927,153.15162136806873,234.78636805560717,428.0879042542924
393,-11.950901302511266,-235.21101785613453,-6.958178134597347,221.78377572122167,341.24915741296144,153.8059915800144,235.9035842493058,417.8844735754563
394,-12.969603531983601,-236.5229616598976,-5.249999409991304,217.68911411935872,327.57300873707794,153.8560075336255,237.0499871854335,406.960508167036
395,-13.70683109123474,-237.80186650251682,-3.6074219416846813,213.28077105658915,313.40709753902064,153.17702488425357,238.1837331719674,395.4590500072526
396,-14.172238851933091,-239.00780025813154,-2.034778698101656,208.55881231470107,299.0419968948003,151.65430889500823,239.26457013554867,383.5438787892339
397,-14.379671202218303,-240.103837333424,-0.5353884445270443,203.53818344811194,284.76267469812154,149.18535147928992,240.25503227511493,371.39663433749246
398,-14.34656777434276,-241.05705760996233,0.8884529174857693,198.24870412775616,270.84397147284034,145.68182366762431,241.1214721257316,359.2132726283256
399,-14.093322713447938,-241.83935774594838,2.23546759650861,192.73438616632993,257.5463558981133,141.07113912193446,241.83490690614502,347.19994631885805
400,-13.642617181572732,-242.4280607505834,3.5053791010840913,187.05210885337803,245.11203904804552,135.2976198066245,242.37166398649725,335.568424097401
401,-13.01874403311578,-242.80631780505902,4.698884361675637,181.26971259645052,233.76151996057922,128.32326948850078,242.71381842448895,324.53118322228914
402,-12.246942407832154,-242.96330422825613,5.817615498320524,175.46359634883297,223.6906243212671,120.1281738524275,242.84942350421642,314.2963250828091
403,-11.352758519248312,-242.8942188786895,6.864091799462257,169.71592443374848,215.0680849510655,110.71055722915254,242.77254268086836,305.06247330963936
404,-10.361447238034863,-242.6001028101457,7.841662421644361,164.11156295757218,208.0336979157097,100.08653480938705,242.4830979480899,297.0138170512299
405,-9.297427199174317,-242.0874984483328,8.754440275801384,158.73487425520227,202.69707221331402,88.28960531920214,241.98655519065665,290.3154581320824
406,-8.183800092499474,-241.36797482978005,9.607227448291402,153.66649943436715,199.1369750448518,75.36993206297194,241.2934714579599,285.10921001859595
407,-7.041942531889198,-240.45754752070027,10.40543227867306,148.9802542786028,197.4012594556885,61.393459860745814,240.41893226768963,281.5099794515115
408,-5.891176474523941,-239.37602371433624,11.15497792487887,144.7402530364186,197.50734728547846,46.440911963484105,239.38190902474253,279.6028392872972
409,-4.748521632500287,-238.14630367081887,11.862201981737241,140.99835864775835,199.44322834687094,30.606704998950118,238.20456740132053,279.4408748496605
410,-3.628530833638568,-236.79366910322867,12.533746631179842,137.79203781243578,203.16892698135376,13.99781181064269,236.91155707098312,281.04385756038783
411,-2.543207205254698,-235.34508737286168,13.176439158116644,135.14267696790978,208.61837960245558,-3.2674076978391198,235.5293115923138,284.3977705161349
412,-1.5020006873146288,-233.8285575357611,13.797163652315154,133.05439385488822,215.70166025481163,-21.060397327358608,234.08538462089655,289.4551821206145
413,-0.5118804700294199,-232.27252051875004,14.402725999207956,131.51336218687314,224.3074833442611,-39.24361374959457,232.60784511484042,296.1364360677947
414,0.4225212140974783,-230.70535117021876,14.999715052573558,130.48765507683706,234.30590281304214,-57.671754037598916,231.12474990342312,304.33159915469014
415,1.2987002448669187,-229.15494483674624,15.594362759078713,129.92760403784948,245.55111793715324,-76.19300214601604,229.6637070641303,313.90308414775694
416,2.1160149395398746,-227.64840566479486,16.192405362677118,129.76666111590174,257.8842920848587,-94.6502961589537,228.25153820077418,324.6888458140392
417,2.8753734505639104,-226.21183819106682,16.79894728570272,129.92274050677975,271.136294710103,-112.88262176722795,226.9140421412188,336.5060362209849
418,3.5788854987279652,-224.87023817607994,17.41832909909825,130.3000036458512,285.13028797579335,-130.72634274387013,225.67585701619976,349.1550007473081
419,4.229490832733214,-223.64747334145127,18.054001061977164,130.79103956927497,299.68409554461795,-148.01658409896072,224.5604124380269,362.4234976555844
420,4.830577687857875,-222.56633994545447,18.70840391625328,131.27938105269504,314.6123100051629,-164.58868629041228,223.5899588201134,376.09102964617983
421,5.385605014069121,-221.64867707574143,19.382858916843176,131.6422869411668,329.7281152901659,-180.27974841199614,222.78565685967519,389.9331837849055
422,5.897742191398348,-220.91551719385194,20.077469382382198,131.7537125117265,344.8448198750221,-194.93027458066067,222.1677068737772,403.72588532682045
423,6.369539305593664,-220.38724903028773,20.7910362434577,131.48738312007725,359.77711446801516,-208.38593120918796,221.7554952153449,417.24948050296695
424,6.802639990229145,-220.0837677841645,21.520990161965845,130.71988234829448,374.3420836031662,-220.49941404471735,221.56773378554297,430.29257294094725
425,7.197547621736139,-220.0245880315092,22.263342996777006,129.3336650564667,388.3600135819469,-231.1324133580576,221.62256902638896,442.65554799416236
426,7.553454422726291,-220.22889677926912,23.012661805150756,127.21990883432207,401.65504931267685,-240.1576540983276,221.93763872271984,454.1537289868956
427,7.868141678395014,-220.71552746734812,23.76206902332225,124.2811248363122,414.0557595757822,-247.46097589334275,222.53005820017262,464.62011942098025
428,8.137957515465565,-221.50284015878015,24.503272681030495,120.43346085328247,425.39567394649583,-252.9434063000312,223.41632179016864,473.90769561854745
429,8.35787628740957,-222.6084984838452,25.226630308908888,115.60864503128684,435.5138549178442,-256.5231705729423,224.61211054524574,481.8912249851629
430,8.521640554057441,-224.04913992713645,25.92124953659354,109.75553660449796,444.25556564457435,-258.1375732648461,226.13200293599348,488.46859577966
431,8.621983158843419,-225.8399424947848,26.575127163835,102.84126879659067,451.47308726822456,-257.74468193441606,227.9890913688767,493.56165464524224
432,8.650923226595303,-227.99409730017146,27.175326568815453,94.85198709548092,457.0267302426115,-255.32474174459267,230.1945134534888,497.11655797945104
433,8.600126233690082,-230.52220271567126,27.708190644118336,85.7932018976628,460.786071872909,-250.8812523201608,232.7569125752036,499.1036524404478
434,8.461314940268261,-233.43160106319823,28.15958428724897,75.68978657372554,462.6314379998026,-244.44164520910084,235.6818471306245,499.5169085648952
435,8.226715257228607,-236.72568315721077,28.515157422242357,64.5856591643757,462.45563115081575,-236.05751160819463,238.97117161407303,498.3729397494291
436,7.889519209883079,-240.4031893168754,28.760617193604773,52.5431877441193,460.1658913320863,-225.80434517612187,242.62241560887028,495.709646863834
437,7.444346011863608,-244.4575376749795,28.881996636748394,39.64235641137691,455.68605966179706,-213.78078284980285,246.62818862257205,491.58453653645466
438,6.887681810021823,-248.87621163778962,28.86590686365499,25.979721947176873,448.9588998925235,-200.1073463212984,250.9756395514997,486.0727684876118
439,6.218278954098362,-253.64023810804176,28.699760712536992,11.6671819184811,439.94851911344165,-184.9247066846487,255.64599932655477,479.26499376683176
440,5.437496785274624,-258.72378653612424,28.371957940066114,-3.1694348254221647,428.6428170296103,-168.39151315352487,260.6142339715702,471.26505080375557
441,4.549567925604128,-264.0939160800388,27.872025151193196,-18.391952810571247,415.0558834917475,-150.68184238425783,265.84883293882126,462.1875892402871
442,3.5617768179981213,-269.71049433509296,27.19070734665961,-33.85161279722612,399.23025657982635,-131.98233701730734,271.3117543118352,452.1556921589107
443,2.4845408112624696,-275.52630646812236,26.320011895486765,-49.391017301412504,381.2389486722775,-112.4891103995494,276.958544461153,441.29856540990795
444,1.331388382784943,-281.4873682275507,25.253209694278453,-64.8462602435437,361.18714571844623,-92.40449954357524,282.73864503776196,429.7493584040878
445,0.11883389065785449,-287.5334501032956,23.98480196087651,-80.04923522916042,339.2134854925579,-71.93375105598894,288.5958946363838,417.64317422484027
446,-1.133846932878028,-293.5988128363018,22.510464157500497,-94.83010717762339,315.4908238741254,-51.28172564116184,294.4692259347436,405.1153182724298
447,-2.404932173436221,-299.61314666425505,20.826980699465434,-109.01992106061482,290.2264038166006,-30.64970586388935,300.2935517003822,392.29982360470757
448,-3.670647400048988,-305.5026983562217,18.932185239917143,-122.45331132261035,263.6613490973291,-10.23238867709205,306.00082496496833,379.3282773619846
449,-4.905622753710119,-311.19156149159846,16.824921230507456,-134.9712679228412,236.06941380231098,9.784861698167239,311.52125017189513,366.32895633560906
450,-6.083396448088189,-316.60309705358173,14.505035970978765,-146.42391102814784,207.75492890076836,29.228433895672435,316.7846137091253,353.4262618524283
451,-7.176946702904177,-321.66144403939063,11.973418564479017,-156.67322619910067,179.04990003734733,47.938507931844704,321.72169479533767,340.7404263611715
452,-8.159234166216493,-326.2930743372621,9.232088366554185,-165.5957138979623,150.31022747523033,65.7706724882568,326.26571214922694,328.3874483023783
453,-9.003737785383127,-330.42834318807076,6.284335854533954,-173.0849084834441,121.91104223723283,82.59709842064562,330.35375889086964,316.4791996128958
454,-9.684968695552701,-334.0029862709461,3.1349124801985493,-179.05371977028543,94.24118388933353,98.30726388022327,333.9281778610133,305.12364236364635
455,-10.17894897468203,-336.9595165916965,-0.2097396829606319,-183.43654375347072,67.69688540105452,112.80824333457241,336.93783177625136,294.42508720198254
456,-10.463645127625455,-339.2484785190508,-3.741233239562711,-186.1910798852156,42.674776887468845,126.02458704313949,339.3392269748513,284.48442504747396
457,-10.519349849932812,-340.8295221412333,-7.4489751508140785,-187.29978393465538,19.56436837625246,137.89782843460003,341.0974555657838,275.3992632037833
458,-10.329009667312892,-341.6722683418944,-11.319923502193596,-186.77088199834324,-1.2597834039961429,148.38566477008558,342.18692827168616,267.26389702378293
459,-9.878499981861548,-341.7569434112192,-15.338385511411714,-184.63887582152287,-19.445983114715226,157.46086263805125,342.5918789003777,260.1690495927315
460,-9.156852610271645,-341.0747712804045,-19.4858800480517,-180.9644835670669,-34.673115510290955,165.10994533875208,342.3066308302029,254.20131704355907
461,-8.15644438135373,-339.6281209107482,-23.741084126384244,-175.83398241790582,-46.65790319030719,171.3317247261078,341.3356254961413,249.44226877375363
462,-6.873159222526311,-337.43041500547986,-28.079875982119276,-169.35794618047484,-55.161442886300016,176.13574634582048,339.693221699555,245.9671721817283
463,-5.306539469597749,-334.505813357669,-32.47547883433408,-161.6693968909789,-59.99479138235294,179.54072494957174,337.40328195820194,243.8433419301804
464,-3.4599421840172564,-330.8886899357375,-36.898701734851834,-152.92140946527138,-61.02342368546733,181.5730571813395,334.498568121739,243.12815292713557
465,-1.3407111160933607,-326.62292779549415,-41.31826859110632,-143.28422097477707,-58.17045042412799,182.26550444342777,331.01997355373567,243.86679794291743
466,1.039634204436514,-321.7610601656516,-45.70122321809716,-132.94190286600707,-51.41854663144659,181.65613402439027,327.01562333322306,246.08990524493578
467,3.665200785532751,-316.3632889988555,-50.01339618997902,-122.08865833318073,-40.8105997915488,179.78758635082784,322.53987657646576,249.81115135468892
468,6.515532834748583,-310.49641329249795,-54.21991806964529,-110.92481053216515,-26.449127690387844,176.70670339439192,317.6522655714458,255.02500802016792
469,9.565453479805726,-304.23269837731647,-58.285763565246555,-99.65255229270213,-8.494547987893405,172.46451472827343,312.41640486304436,261.7047547502264
470,12.784963228363859,-297.648714407009,-62.1763122969251,-88.47153618882194,12.837595397881735,167.11654023561601,306.89890003822023,269.80087375399427
471,16.139221229628845,-290.82416802623953,-65.85791365220211,-77.57439617738302,37.28032699068775,160.7233366241776,301.16828127856377,279.2399262918263
472,19.588633692163548,-283.84074635794576,-69.29844499778565,-67.14230758314278,64.51972173087958,153.35119130425676,295.2939814086121,289.92398968251894
473,23.089070589272005,-276.78098767476945,-72.46785384707265,-57.34070809076523,94.20003382020387,145.0728531078705,289.34537274720077,301.730712671953
474,26.59222756345181,-269.727188822011,-75.33867532916953,-48.315314571801075,125.92933069486011,135.96818513700507,283.39087195966664,314.51402369627976
475,30.046145083361996,-262.7603558395628,-77.88651658475118,-40.18857513664028,159.28549456865372,126.12463041558095,277.4971175308021,328.1055028367844
476,33.39589152208518,-255.9592013591245,-80.09049976229336,-33.056690214244774,193.8224635207721,115.63739505476428,271.7282205536935,342.31640584201944
477,36.584410802297896,-249.39919026390848,-81.93365532114497,-26.987320328123804,229.0765978782792,104.60927484986108,266.14508633913897,356.9403092197064
478,39.55352840864496,-243.1516338569462,-83.40325748721311,-22.018073252884,264.5730738001484,93.15007775706871,260.8048019856759,371.7563297834335
479,42.24510188152482,-237.28283249156308,-84.49109401275203,-18.15583230225932,299.83222258914384,81.37562447771889,255.76008362867,386.53285968336695
480,44.60229373170173,-231.85326730806472,-85.19366289777648,-15.376953668824333,334.3757498862076,69.40634019390518,251.05877667232625,401.0317476170914
481,46.57093670746009,-226.9168432857291,-85.51228942120066,-13.628326585781,367.73278261674574,57.36548009131197,246.74340283208508,415.01284726963297
482,48.10095415177928,-222.52018807526815,-85.45315766443072,-12.829257509763933,399.44570278855383,45.37705750876841,242.85074914199657,428.2388441085257
483,49.147792266503714,-218.70201386140266,-85.0272517440575,-12.874109821872135,429.07573559470586,33.563564445144635,239.41149614188637,440.48026105967654
484,49.67381680683694,-215.49255261972343,-84.25020338513872,-13.635604723472488,456.208264507689,22.04358819778041,236.4498852082649,451.5205324941524
485,49.64962435769465,-212.91307822129556,-83.14204440812092,-14.968668126791426,480.45784817278013,10.929434210946726,233.9834282351799,461.1610251191449
486,49.05521802874356,-210.97553143126342,-81.7268651523141,-16.7146934797934,501.4729132401355,0.3248637910996125,232.02266622481392,469.2258750061934
487,47.880999107487916,-209.68226550551256,-80.03238268999098,-18.70608230541725,518.9400943374513,-9.676952939265435,230.57098639419198,475.56650347472066
488,46.12852992547189,-209.02593045082855,-78.08942571921008,-20.770922768154815,532.588187758147,-18.995182331051847,229.62450978828238,480.0656720433213
489,43.811029081192835,-208.98951278767316,-75.93134600238636,-22.73767114256161,542.1916797161143,-27.562702288157784,229.17206281447815,482.64093893136095
490,40.953568300224916,-209.54654472455815,-73.59336886720799,-24.439710541099167,547.5738037834063,-35.32705960586435,229.19524637793702,483.2473869584114
491,37.59295030042732,-210.66149220527797,-71.1118974723593,-25.71967426633371,548.6090760066251,-42.25098442897531,229.66861538511975,481.8795051225812
492,33.77725848373126,-212.29032575534688,-68.52378726702733,-26.433436110209268,545.2252510405415,-48.31245918988712,230.5599794405194,478.5721235504566
493,29.565081455071716,-214.38127189361126,-65.8656083294452,-26.453685298457785,537.4046396093572,-53.50436072775375,231.83083272969958,473.4003239530009
494,25.02442760717132,-216.87573646653414,-63.17291401418829,-25.673018444373373,525.1847279457271,-57.833713328663826,233.43691741558672,466.4782752656115
495,20.231356601990566,-219.70938494951506,-60.47953460240776,-24.006494389687237,508.6580444869366,-61.32060616281026,235.32892045261096,457.9569765925806
496,15.268364923494346,-222.81335888389256,-57.81691448867089,-21.39361035466083,487.9712283920729,-63.99684025233843,237.453298727757,448.0209262318022
497,10.222571389430405,-226.11560247646568,-55.21351081901064,-17.79966989152004,463.323268155146,-65.90437723843182,239.75322212818875,436.8837752080499
498,5.183755319849709,-229.542269195583,-52.69427033956144,-13.216525269775797,434.9628960192451,-67.09366477008368,242.16961880200182,424.78306473117163
499,0.2423046712584319,-233.0191750840812,-50.28019946457495,-7.66268957448376,403.18514405207156,-67.62191161707942,244.64230180438125,411.9741873833213
500,-4.512866340640998,-236.4732635579235,-47.98804018528304,-1.1828272733577307,368.32708948092403,-67.55138021347027,247.11115179262632,398.7237495342957
501,-8.996370696185886,-239.83404573755647,-45.83006147106975,6.1533536331747385,330.76283899169323,-66.94775604626503,249.51732677312148,385.3025452977467
502,-13.12831573338384,-243.0349808538645,-43.81397245226673,14.2527697596813,290.8978230362567,-65.87864297404283,251.8044673801929,371.97837813414344
503,-16.836130321678297,-246.01476284358475,-41.94296006849102,23.001137551528963,249.1624909020812,-64.41222203497657,253.91986487592118,359.0089830953199
504,-20.0562033737806,-248.7184817341016,-40.215849983834,32.26558797180499,206.00551483393096,-62.61609931840884,255.81555897655835,346.63530914668445
505,-22.735291165474848,-251.09863170558677,-38.62738538066219,41.897640553406276,161.88662648033872,-60.55635656435585,257.4493337058932,335.0754157111594
506,-24.831657990791243,-253.11594170438045,-37.168613973711736,51.73644729167972,117.26922093659901,-58.29680664935713,258.7855817114499,324.519219454068
507,-26.315922476243646,-254.74000904903312,-35.827369638794856,61.61221157642316,72.61287217866503,-55.89844525020556,259.7960108002608,315.1242956611885
508,-27.171590311721054,-255.94972158686124,-34.58883173517144,71.3496867616576,28.36590842545338,-53.41908005804461,260.4601708521911,307.01289360613856
509,-27.39526314847458,-256.73345964444314,-33.436142641763794,80.77166295616325,-15.041803014380953,-50.91311042695879,260.7657847526244,300.2702689019852
510,-26.996522803136248,-257.0890751563238,-32.35106226407949,89.70235868300026,-57.205714333603694,-48.431423892654614,260.70887338105666,294.94437168008625
511,-25.99749940004427,-257.02365167017007,-31.314637353336924,97.9706455249473,-97.7529580167565,-46.02137214058524,260.293671629101,291.04686278352665
512,-24.43214133290493,-256.5530551114897,-30.30786349903243,105.41304792943893,-136.34807778007885,-43.726788034170255,259.53233949950015,288.55536689466334
513,-22.345213600553375,-255.70129096809615,-29.312318661642834,111.87647598795438,-172.69801016605626,-41.588007173288574,258.4444791781932,287.41681686274364
514,-19.79105880842761,-254.49968863564965,-28.310749001580437,117.22066506900127,-206.55621316841257,-39.641861765183656,257.05647517215687,287.55170095811235
515,-16.832161448498802,-252.98593785000762,-27.287590284512188,121.32031143982692,-237.72585727557166,-37.92162079288295,255.40067983040618,288.85899587510033
516,-13.537560500734633,-251.20300539277193,-26.22941106219432,124.06690624664535,-266.0620161386385,-36.45685795133709,253.51447067209762,291.2215529991601
517,-9.981157740137567,-249.19796265473693,-25.125267009342114,125.3702803213373,-291.4728181064361,-35.273237013245634,251.43920895325067,294.51170265288846
518,-6.2399695609456565,-247.0207562219841,-23.966959145251582,125.15987836955898,-313.9195451422346,-34.39221268098923,249.2191308825316,298.59684889998505
519,-2.392369004242234,-244.7229544060903,-22.749192061734007,123.38578277994905,-333.4156908641101,-33.83065315745493,246.90020389345324,303.34484380216327
520,1.4836377120156619,-242.35650248921723,-21.46963161093678,120.01950486177546,-350.02501351163056,-33.60039825238345,244.52898036249556,308.6289527648453
521,5.312059363152291,-239.97251825856318,-20.128864713150573,115.05455567480723,-363.85864190639205,-33.70777346879636,242.1514800386188,314.3322502477053
522,9.020456308152498,-237.620157121063,-18.730266944984685,108.5068010045671,-375.07131261684424,-34.15308588245024,239.8121302171874,320.351316404788
523,12.541334597068438,-235.34557286959233,-17.27978623644337,100.41459670192249,-383.8568341490298,-34.93013156465181,237.55278952938383,326.59913877912453
524,15.813372637238087,-233.19099624702457,-15.785653219407827,90.83869257850753,-390.4428885211789,-36.02574673391323,235.41187736829957,333.00715745551054
525,18.782461543931447,-231.19394901562364,-14.258030459116211,79.86188621268496,-395.0852917110839,-37.419435676976356,233.4236266199656,339.52642572446666
526,21.402546122599066,-229.38660649199704,-12.708613960247847,67.58840332617655,-398.06184238810374,-39.08310763716022,231.61747270769024,346.1278905718447
527,23.636258824983894,-227.79531670693683,-11.150201041842996,54.142979787988835,-399.6658936183764,-40.98095226869212,230.01758725401035,352.8018278702115
528,25.45534406338263,-226.44027971347003,-9.596239027510421,39.66962230383531,-400.19978522723363,-43.06947905320571,228.64256016154872,359.55649552504786
529,26.840875040959048,-225.33538626315658,-8.060369240674667,24.330030263344984,-399.9682750255208,-45.297740695221925,227.50522979587436,366.4160929644519
530,27.783269633373404,-224.48821127072375,-6.555980451424435,8.301669415058285,-399.2721046759569,-47.607754470629686,226.61265736557803,373.4181359474972
531,28.282115554905904,-223.90015428949286,-5.095785066933993,-8.224501532712493,-398.4018304564881,-49.93512904911738,225.96623858423214,380.61037086888206
532,28.34581792791938,-223.56671654248657,-3.6914299617242943,-25.046637916164684,-397.63204111340855,-52.209897314342165,225.56194315623662,388.0473625696897
533,27.99108460190842,-223.47790171639556,-2.3531520314815073,-41.954922240362606,-397.2160752900195,-54.3575479480103,225.39067039206495,395.78689465861476
534,27.24226638054588,-223.61872563293196,-1.0894865089064671,-58.734740963416904,-397.3813402842758,-56.300240165352754,225.4387072635361,403.8863219178277
535,26.13057085675902,-223.96981811331366,0.09296606988345874,-75.17006771654418,-398.3253220997298,-57.958177653483865,225.6882735161073,412.3990104978052
536,24.693169872994,-224.5080989736111,1.1897105467421762,-91.0469825913634,-400.2123634042507,-59.251110477023964,226.11813718284355,421.3709930986839
537,22.972221684336123,-225.20750924130792,2.1984638963603405,-106.15724686464428,-403.17127059412735,-60.099928402050914,226.7042830842621,430.8379532888743
538,21.01382963412803,-226.0397783715847,3.1191983768143947,-120.30184605575349,-407.29379347089235,-60.42830613401976,227.4206166291504,440.8226361312379
539,18.866959536591214,-226.9752083494165,3.9541229183577995,-133.294412067322,-412.6340011437828,-60.16436008810243,228.23968532318014,451.33276232287614
540,16.582338032723047,-227.98345595198992,4.707605739233362,-144.96443752548947,-419.20855593946465,-59.24227692732678,229.13340070742782,462.3595011684947
541,14.211353964403342,-229.03429508033102,5.3860420655849115,-155.1602020312113,-426.9978638829828,-57.60387577039723,230.07374395902747,473.87653500969094
542,11.80498430611294,-230.09834204264106,5.997671585040923,-163.75134014025346,-435.9480566307744,-55.20006848859665,231.0334391913464,485.83972536821705
543,9.412765411006085,-231.147728110889,6.552350942669128,-170.6309936101022,-445.97373675927014,-51.99218574736291,231.98657972597488,498.18737010665774
544,7.081829264008779,-232.15670561252244,7.061287167758819,-175.71750503612444,-456.9613972012642,-47.95314017565229,232.90919431719348,510.84102224930655
545,4.856023099749264,-233.10217615017135,7.536738354271281,-178.95562594793475,-468.7734072934319,-43.06840199284072,233.77974239163973,523.706825339921
546,2.775129158690466,-233.9641320861839,7.991688303500088,-180.31722920665086,-481.25244288909,-37.336766466936844,234.57952966274974,536.6773075134537
547,0.8741994781210912,-234.72600509040143,8.43950241771082,-179.801532069994,-494.22622652398144,-30.770896803031665,235.29303791908845,549.6335664940445
548,-0.8169816968902515,-235.37491832090632,8.893573013440784,-177.4348509299333,-507.51243602314315,-23.397630468047215,235.9081653756375,562.4477700416683
549,-2.274298162916288,-235.90184163039316,9.366963122175374,-173.26991982428908,-520.9236370633363,-15.258041098204673,236.41637665747453,574.9858910281891
550,-3.4795582835928713,-236.30165192917738,9.872058262589865,-167.38481138210113,-534.2720981591158,-6.407251247184713,236.81276410595547,587.1105939851614
551,-4.420604946469226,-236.57310336998574,10.420235301924803,-159.88150076443185,-547.3743557039708,3.086007105318835,237.09602452814195,598.6841910915609
552,-5.091279559980482,-236.71871425822545,11.021556429518522,-150.8841110451231,-560.0554112222833,13.140086812935287,237.2683576562285,609.5715898267291
553,-5.491243764769353,-236.74457940817086,11.684494608235457,-140.53687362613675,-572.1524610937868,23.661376646084364,237.33529431575386,619.6431608624113
554,-5.625664992066772,-236.66011791554362,12.415694799840729,-129.00183175316846,-583.5180782549613,34.54550903918969,237.3054634832386,628.7774616329446
555,-5.504774180203948,-236.47776695893413,13.219773198215028,-116.45631185883659,-594.0227828778259,45.67881768033152,237.19030805504394,636.8637565237935
556,-5.143306828156029,-236.2126324638062,14.099155385323893,-103.09018904232018,-603.5569528708976,56.94002505989752,237.00375950763456,643.8042777056803
557,-4.5598427138669635,-235.88210764289786,15.053954144532872,-89.10297992714375,-612.0320364181274,68.202122405246,236.76188207924554,649.5161725927042
558,-3.776064332437464,-235.5054708548764,16.081888175330125,-74.70080527921525,-619.3810417357735,79.33438792312721,236.48249781352553,653.9330879669222
559,-2.8159580803941253,-235.10347481283742,17.178243313660733,-60.09327125724766,-625.5582973778597,90.20447961609983,236.18480455619041,657.006349633811
560,-1.7049846847965262,-234.69793951001168,18.335877600874795,-45.490319073310616,-630.538499939332,100.68053761224935,235.88899932809926,658.7057100706862
561,-0.4692463720211124,-234.31136086331276,19.545270734311384,-31.099088825276347,-634.3150921231652,110.63323572178612,235.61591900507258,659.0196527868194
562,0.86532196543265,-233.96654577272753,20.794617416578003,-17.120837131257467,-636.8980395165797,119.93772990503405,235.3867087447337,657.9552585345479
563,2.2737116503351853,-233.68628214170263,22.069963225547863,-3.747942572390574,-638.3110967157388,128.47546062431962,235.2225262501526,655.537653324954
564,3.7325254684220046,-233.4930497416994,23.35538099121999,8.83897082382196,-638.5886714625171,136.13577568917933,235.14428712360652,651.8090705015752
565,5.220568723445173,-233.40877500398008,24.63318521723451,20.473763524831778,-637.772408782756,142.81734965118739,235.17245362738151,646.82756860118
566,6.719329340191539,-233.45463010175106,25.884181674343314,31.007335266518023,-635.9076256796851,148.42938472354552,235.32686635374898,640.6654533852168
567,8.213334522788895,-233.6508741263068,27.087948830493183,40.30997469642061,-633.0397308430788,152.89258634009968,235.62661569441238,633.4074564109814
568,9.690376008630261,-234.01673179102633,28.22314725099913,48.27347163899694,-629.2107633254024,156.13991363032477,236.0899476209225,625.1487241057232
569,11.141600567448853,-234.57030292181847,29.267852500116206,54.81295692647721,-624.4561795743577,158.11711121641406,236.7341961428315,615.9926709228654
570,12.5614668972091,-235.32849400441305,30.199906406829832,59.86843188370758,-618.8020100257525,158.78303399324105,237.57573288573192,606.0487483038784
571,13.9475743125192,-236.30696128242542,30.997280923442606,63.405947211001354,-612.2624951513868,158.10978120978874,238.62992255592667,595.4301784218407
572,15.300372478423235,-237.52005341613489,31.63844844648853,65.4183897846424,-604.838297064968,156.082660483376,239.91107173225808,584.2516987280187
573,16.62276475487107,-238.9807406414764,32.1027525861609,65.9258365074222,-596.5153672557419,152.70000649550965,241.43235757761497,572.627360896916
574,17.91962033510618,-240.70051689868362,32.37077386536655,64.97543762346355,-587.2645343749366,147.97288302766873,243.20572284895982,560.6684264335005
575,19.19721228895698,-242.68926182758574,32.42468532495676,62.64079859966209,-577.0418585431065,141.92470042516285,245.2417242473724,548.48140109628
576,20.46260007285357,-244.9550511583241,32.24859316287084,59.02084010521981,-565.7897802640007,134.59078298761364,247.5493229592879,536.1662509647016
577,21.72297630768136,-247.50390697849787,31.82885731089451,54.23812954425919,-553.4390722897008,126.01792153938675,250.13560932139083,523.8148435283599
578,22.984998771346227,-250.33948351432403,31.15438649022359,48.436694193797344,-539.9115811191467,116.26394502322253,253.00545781084466,511.5096564341385
579,24.254129538535803,-253.46268919853614,30.216901979319637,41.779344020702126,-525.1237207055506,105.39734107060416,256.1611138077594,499.3227932766981
580,25.53400393155282,-256.8712516429902,29.011164055965377,34.444550241010894,-508.9906540965136,93.49694893025293,259.60171951857865,487.31533899243465
581,26.82585261228645,-260.5592383289005,27.535154736534516,26.62294219515488,-491.4310692802931,80.65173866126716,263.3227927489054,475.53707639404115
582,28.12800127460896,-264.5165518561143,25.79020998732801,18.5134987140397,-472.37242397717057,66.96067747312522,267.31567844644695,464.02657000044735
583,29.43547397202065,-268.72842383840583,23.781094182237513,10.319519173207576,-451.7565009141333,52.53266599349542,271.5669985448823,452.8116034933628
584,30.73972656209253,-273.17493556300246,21.516009745863037,2.244462177399946,-429.545080961238,37.486502925898215,276.0581300963069,441.9099332692313
585,32.028533879467304,-277.8305963693672,19.006536265805696,-5.512263837140192,-405.72550928119415,21.95080856808746,280.7647447963362,431.3302953792346
586,33.28604752298238,-282.6640125496059,16.26749595426522,-12.759480679030467,-380.31590535823494,6.063813332939006,285.6564448658093,421.07358253983267
587,34.49303207375841,-287.63768019545904,13.31674559523672,-19.3183184261911,-353.36975811581345,-10.027095240224078,290.6965306452876,411.13409836552404
588,35.62727802760782,-292.7079340336177,10.174898329893107,-25.02611717424269,-324.97965605533614,-26.1661707761123,295.8419334719981,401.50080097542457
589,36.66418079524782,-297.82508019698463,6.864981451108965,-29.74007095198691,-295.2799290730262,-42.19053852333109,301.0433427860071,392.1584667460602
590,37.577467184452196,-302.933734012721,3.412038741123372,-33.340523102651886,-264.448019987732,-57.93191718411466,306.24554892589487,383.0887330726759
591,38.340043946727775,-307.97337481317834,-0.15731218019108337,-35.73381656924763,-232.70445498839797,-73.2188568082081,311.38801332475146,374.2710108166215
592,38.9249373536534,-312.87911936858546,-3.8153554716471656,-36.854603790438084,-200.3113380389507,-87.87947989499635,316.40566672466184,365.68328681677923
593,39.306288540319734,-317.58270475947154,-7.533772335960221,-36.66753089727993,-167.5693503969192,-101.74467559310123,321.2299246043095,357.3028597554584
594,39.46036661227677,-322.01366124490755,-11.28414153013876,-35.16822909828684,-134.81328993407735,-114.65166250172005,325.78989819578817,349.1070659618381
595,39.36656015285942,-326.10064663854143,-15.03842991673783,-32.383570613325176,-102.40623467239963,-126.44780584011687,330.0137699679807,341.0740544018977
596,39.008307626635855,-329.77290637723286,-18.76945752023104,-28.37117435761326,-70.73246107206039,-136.9945507892371,333.8302947824394,333.1836625255308
597,38.37392826608557,-332.96181817818115,-22.45132192828974,-23.21817419411355,-40.18929122473518,-146.1713163126871,337.17038244346526,325.41842805827355
598,37.45731755762831,-335.6024769651146,-26.059768267473054,-17.039286398038882,-11.178085284373811,-153.87918324948416,339.9687141783787,317.76474792406924
599,36.258475595884065,-337.6352743343374,-29.572493643988977,-9.974230769730793,15.905364015803862,-160.04420748524623,342.1653445043747,310.2141661892564
600,34.783842344867296,-339.0074268998984,-32.96937885016597,-2.184571768160538,40.68074156219679,-164.6201941100901,343.7072406634021,302.76474047039335
601,33.04642102752167,-339.67440920482954,-36.232644868009096,6.149945475256565,62.7931038358085,-167.59078200074663,344.5497140876291,295.4224037082656
602,31.0656791333959,-339.6012493592318,-39.34693647452396,14.835481285832344,81.92242119106957,-168.97071006775914,344.65770192046665,288.2022098620297
603,28.867225513932464,-338.7636489700167,-42.29933918617542,23.668517084985652,97.7924346068902,-168.8061656499746,344.00686110674684,281.1293328501661
604,26.48227136509554,-337.14889312448935,-45.07933830238151,32.44049682100183,110.17851165809031,-167.174150690395,342.5844427092454,274.2396819988524
605,23.946892231480085,-334.7565212161561,-47.67872993885915,40.942579653531766,118.91422100550412,-164.18084040736483,340.3899198738285,267.5800062681958
606,21.301117102411666,-331.5987353823808,-50.09149408499757,48.970381090803464,123.8963931299201,-159.9589501595571,337.4353493524237,261.2073833266906
607,18.587878691233335,-327.7005302815261,-52.31363923854615,56.32857615256167,125.08849451742161,-154.6641673563403,333.74545369521746,255.18802629864072
608,15.851865494211806,-323.0995357333969,-54.3430272299521,62.83524061908698,122.52220973892655,-148.47074514485172,329.35741896716115,249.5953878827838
609,13.138320664074923,-317.84557219549,-56.17918555464446,68.32581574255957,116.29719717428583,-141.56639183200488,324.320410936484,244.5075948717389
610,10.491834751168573,-311.9999279216251,-57.823113089407364,72.6565978475038,106.57905540613501,-134.14662306020193,318.69482095047647,240.00430138912216
611,7.95517885194659,-305.63437550498844,-59.27708379123604,75.707676097468,93.59560409094983,-126.40877097614111,312.5512608258924,236.16310117803658
612,5.568221721343224,-298.82995363326665,-60.54445215356631,77.38526749439838,77.63164113143517,-118.54586432846726,305.9693334656899,233.05568255855258
613,3.3669691621370395,-291.6755465143855,-61.62946391395817,77.62342508498367,59.022383948942995,-110.74060419650715,299.0362119157806,230.74393924790652
614,1.3827569206121855,-284.2662980122002,-62.537075601232324,76.38511994784754,38.1458347684941,-103.15966108162796,291.84506368931,229.2762622588999
615,-0.35838004759337627,-276.70189986913084,-63.272786703980664,73.66271665196324,15.414327706043704,-95.94851038414897,284.49335922215863,228.6842304571922
616,-1.8361482084754188,-269.0847936967202,-63.84248833986181,69.47787354148231,-8.73447999630165,-89.22700560264067,277.08110347712466,228.97989051443963
617,-3.0362416527847365,-261.51832520059196,-64.25233221563083,63.88090320210683,-33.84691700263515,-83.08586307589066,269.70902846726835,230.1537746020985
618,-3.9503986290753175,-254.10488695480737,-64.5086233241344,56.949626364544756,-59.46266698117332,-77.58419979162534,262.47678233703203,232.1737527898943
619,-4.576281271757667,-246.9440834025955,-64.61773914543392,48.78774721209389,-85.12397868252752,-72.74822748417323,255.48114799078493,234.9847644150092
620,-4.917198042812769,-240.13094898802262,-64.58607705097303,39.52277301604597,-110.38452210632414,-68.57116267453964,248.8143213793245,238.5094249479452
621,-4.981693360702985,-233.75424778917358,-64.42003016388333,29.303499232195318,-134.81772100407886,-65.0143645827017,242.56227678767561,242.64946540604296
622,-4.783032054499639,-227.89488105538163,-64.1259901982746,18.297084483825543,-158.02441659054227,-62.009662742247436,236.8032441463805,247.2879306150484
623,-4.338607663230591,-222.6244277541827,-63.71037400745317,6.685748453361111,-179.63974053992436,-59.46278614146292,231.606321675566,252.29203921133245
624,-3.6693032773863825,-218.00384247050454,-63.17966905551173,-5.336861737446738,-199.33909656168905,-57.25775866596321,227.03024603230696,257.5165900450228
625,-2.7988317232367383,-214.08233452719537,-62.5404920423919,-17.56957682614283,-216.84316883697068,-55.26208432057724,223.1223414123124,262.80778467600925
626,-1.7530786614816884,-210.89645175320342,-61.79965440599112,-29.807808872142544,-231.92189260322402,-53.33251252370989,219.9176685061301,268.00732319041
627,-0.5594679984059504,-208.46939161465863,-60.96422812549684,-41.84776787297379,-244.39733799802406,-51.321150440402995,217.4383934757383,272.9566212631008
628,0.7536356597111652,-206.81056105123184,-60.041604993662034,-53.49069800361897,-254.14547401394123,-49.08167689386822,215.6933957772259,277.50099183742566
629,2.157477539390623,-205.91540387837398,-59.039542385369444,-64.54703454466512,-261.09679613855377,-46.475411199254296,214.6781312927161,281.4936366809934
630,3.6234107470560173,-205.7655106987255,-57.96618866533422,-74.84038013559397,-265.2358197526906,-43.3770000200309,214.3747635602755,284.79930258481204
631,5.123340235474187,-206.32902083695282,-56.830081834733406,-84.21119944101574,-266.5994620550451,-39.679505334736284,214.75257083765612,287.29747449204547
632,6.630114073406448,-207.56131898467848,-55.64011591241037,-92.52013474756443,-265.2743581110499,-35.298705715263395,215.76863042773667,288.88500288843153
633,8.11786536692096,-209.4060212147516,-54.405470994768386,-99.65085163804908,-261.3931809352163,-30.176459808257913,217.36877434654156,289.4780939578972
634,9.562309181128903,-211.79623608921509,-53.13550497656387,-105.5123338777987,-255.13006008976993,-24.283023175854638,219.48880231423522,289.0136260819086
635,10.94099900178973,-214.65607716923043,-51.83960747332568,-110.04055998718466,-246.69521656090458,-17.618255178025933,222.05592957651123,287.4497925285977
636,12.23354683085278,-217.90239388513197,-50.52701939243458,-113.19951052716902,-236.32895205977601,-10.21169894405409,224.99043867992992,284.76610486815406
637,13.421810069082797,-221.4466790602033,-49.206624604362,-114.98147465326272,-224.29514701345536,-2.1215623354223485,228.20749653819465,280.96282229134664
638,14.49004708293696,-225.197104024759,-47.886723025382146,-115.40664659724634,-210.87443242034405,6.5673308874627425,231.61909146717974,276.05989670328296
639,15.425042085483973,-229.06062675023978,-46.57479690226358,-114.52202684904336,-196.35720599064945,15.746514115189823,235.13603982282385,270.09554107269014
640,16.21619901426251,-232.94511516548735,-45.2772838735707,-112.399668152196,-181.03666248335705,25.287638813640616,238.67000879600346,263.1245385123421
641,16.855603643733712,-236.7614269621932,-43.999371128533056,-109.13433154925191,-165.20200215402787,35.046862136637664,242.13550094726173,255.21641154547217
642,17.338053183828418,-240.42538865883307,-42.744824522353326,-104.84064000180916,-149.13197061485798,44.869681595495415,245.4517471228164,246.45356435731463
643,17.66105288066779,-243.85962013340583,-41.51586495881878,-99.64983342144582,-133.08886968104432,54.596025740630935,248.5444572117678,236.92949521671272
644,17.824779434684185,-246.99515585004337,-40.31310201098378,-93.70623752499031,-117.31316346730763,64.06540577529846,251.34738246907708,226.74715273613876
645,17.83201131466911,-249.77282033281128,-39.13553181623757,-87.16356063391213,-102.01878785939326,73.12193620409948,253.80364864895407,216.01748102289685
646,17.6880263303803,-252.144322961498,-37.98060277594132,-80.18112992679276,-87.38925424875004,81.61904254839038,255.86682588124862,204.85816872205845
647,17.400467163835557,-254.0730457076881,-36.84434860894403,-72.92017395625999,-73.574619303733,89.42369032163329,257.5017089316474,193.39258881894727
648,16.979175882763624,-255.53450670200223,-35.72158421725341,-65.54025221592136,-60.689371032510195,96.41999137268557,258.6847899629189,181.7488924302425
649,16.43599866646731,-256.5164922363719,-34.6061560668391,-58.19592470140781,-48.81125765460555,102.5120708578842,259.40441491518175,170.05920253334673
650,15.784562033832387,-257.01885974225735,-33.49123563715962,-51.03374388139325,-37.98106071732892,107.62610980001205,259.66062395886706,158.4588438866328
651,15.040021863986686,-257.0530242131931,-32.36964208277519,-44.18963777999053,-28.20328877196595,111.71151343140748,259.46468592915494,147.08554375135972
652,14.218786611039935,-256.6411501407814,-31.23417872032884,-37.786736206305136,-19.447744120177326,114.74119289378983,258.83834593211793,136.0785440163113
653,13.338216486650918,-255.8150799226231,-30.077967404765086,-31.933673453744337,-11.651893624368656,116.71098554767809,257.81281405461476,125.57757760746645
654,12.416301071341747,-254.61503743395474,-28.894765250107792,-26.72338120262125,-4.723955694107182,117.63827504173997,256.42753086494923,115.72167861891782
655,11.471318781471723,-253.08815159204815,-27.67924938634139,-22.232365912914123,1.4534006265734811,117.55990445588586,254.72875170668223,106.64781422134905
656,10.521482777331906,-251.28684903311276,-26.427257471165703,-18.520446473835687,7.018861677550402,116.52950278287283,252.76799640065488,98.48934511567907
657,9.584579101782492,-249.26716749628633,-25.13597437756847,-15.630911067966837,12.127906831178318,114.61436572994783,250.60041388141806,91.37433843008338
658,8.677603893221326,-247.08704231547287,-23.80405857073548,-13.591038036826212,16.94800910483927,111.89204553035984,248.28311259351344,85.42377104280393
659,7.816407272669028,-244.8046176048594,-22.431704854311235,-12.412914868965474,21.65373009476808,108.44681062040092,245.87350715076985,80.74967120441808
660,7.015351955543029,-242.47663123541645,-21.02064327543447,-12.09448276665292,26.42183589441301,104.36613462898082,243.42772974375555,77.4532515628056
661,6.286994937184555,-240.15691855730415,-19.57407704897689,-12.62073168234634,31.426551554853745,99.73736571892789,240.9991510941418,75.6230876518616
662,5.641800926424607,-237.89507424619916,-18.09656526450586,-13.96497222843003,36.83505891356878,94.64471266130604,238.63705061058508,75.33339347807139
663,5.0878965043537745,-235.73530503096816,-16.593858472797194,-16.09011645309925,42.803327759062576,89.16666352114689,236.38546914039554,76.6424408892716
664,4.630873921668325,-233.7154988203164,-15.072696668612817,-18.949908939032667,49.47235507975542,83.37392682317424,234.28227070922551,79.59116275439186
665,4.273652687683477,-231.86652821372203,-13.540579751432183,-22.490062361300645,56.96487270710828,77.32795468133031,232.35843222396335,84.20197263547541
666,4.016405656612899,-230.2117987610483,-12.005520543816871,-26.649266561340234,65.38257020163921,71.08007478158866,230.63757252501543,90.47782663424832
667,3.8565544341052505,-228.76704478093566,-10.47579000938505,-31.360056436985772,74.80386720717891,64.67122576405426,229.1357246011257,98.4015471206559
668,3.788836729816331,-227.54036823842807,-8.959663401490745,-36.54954077117356,85.28225788301889,58.13226046221993,227.86134741620066,107.93542331977478
669,3.805445590626353,-226.53250935006776,-7.465174736261873,-42.140010625659784,96.84523957967279,51.484755320615804,226.8155668939508,119.02110006453344
670,3.8962370801538078,-225.73733153930834,-5.999885464994773,-48.04946053468097,109.49382767602297,44.74224428074862,225.9926294976855,131.57976274095907
671,4.04899930431549,-225.14249842768373,-4.570671906126335,-54.192066084860194,123.20264591997669,37.9117840333855,225.38054687184868,145.51262238622473
672,4.24977281647554,-224.73031682670032,-3.1835352343220427,-60.47866540506401,137.9205645845138,30.995755762639547,224.96190629744902,160.70169882160877
673,4.483211359799043,-224.47871691918942,-1.843437645392894,-66.8172893004985,153.5718386704473,23.993813716075692,224.71481897683586,177.01089126232984
674,4.732972473847009,-224.36233852046462,-0.5541683170457149,-73.11377716595788,170.0576804679667,16.904897889622784,224.61397591183632,194.287316320155
675,4.982128587968801,-224.35369025219984,0.681757576264973,-79.27250593862664,187.2581901004416,9.729232872834208,224.63177910166058,212.36288509442042
676,5.21358990522253,-224.42434683145947,1.8631644853545746,-85.19724873319208,205.03456540079128,2.4702373097309778,224.73951413319853,231.0560859989873
677,5.410530516225115,-224.54614889137866,2.990245760581847,-90.79216908480333,223.2315164639171,-4.863729151637087,224.90852939460817,250.173938480554
678,5.5568091227658325,-224.69237015881023,4.064556911680862,-95.96294650347411,241.67981795504394,-12.257849987516012,225.1113874820204,269.5140843279033
679,5.637375858581916,-224.83881851446827,5.088974202489112,-100.61801989297825,260.1989423495515,-19.68962817773261,225.32295599591535,288.86698725660847
680,5.6386571687775895,-224.9648402667083,6.0676204918845515,-104.66992742998191,278.59972911354964,-27.128006157413658,225.5214076540594,308.01821733019204
681,5.548911536226327,-225.05420054778043,7.005760324796316,-108.03671448787087,296.6870579231249,-34.53286908068847,225.6891031439373,326.7508039382521
682,5.358549837019869,-225.09581678076268,7.909666016817662,-110.64337503006561,314.26250778768315,-41.8549585074143,225.8133340810259,344.8476488708429
683,5.060415073986104,-225.08432643541673,8.786456081236112,-112.42328694424349,331.1269976459498,-49.03621056340176,225.8869075939895,362.0939988916217
684,4.650017071267666,-225.02047465812876,9.643907088189245,-113.31959867029484,347.0834167409082,-56.01051978638741,225.9085582911741,378.2799844716119
685,4.125718307599028,-224.91131181766573,10.490240141633794,-113.28652365115896,361.9392637838098,-62.70491777350012,225.8831776702624,393.2032371698944
686,3.4888672080241143,-224.7701955808561,11.333883657318522,-112.29050054723191,375.50932109224857,-69.04114417542468,225.82185544047175,406.671601141734
687,2.743874694222028,-224.6165967396132,12.183214885290155,-110.31118026185868,387.618391280448,-74.93757500281446,225.7417316512509,418.50595212461286
688,1.8982288140241625,-224.4757125570053,13.04628341967411,-107.34220500547355,398.10411699381103,-80.31145709407579,225.66566287086843,428.5431272336339
689,0.9624417192452233,-224.37789598837747,13.930520562832855,-103.39174955513995,406.8198869672133,-85.08137638021186,225.62171005047512,436.63894934254915
690,-0.05007581435390717,-224.35791398408867,14.842438724665154,-98.48280058600172,413.6378057186738,-89.16986329069601,225.64246037928638,442.6713021801012
691,-1.123214509662389,-224.45405318845448,15.787325049054166,-92.65315669281989,418.4516743384218,-92.50601724261422,225.76420037465448,446.5431816156604
692,-2.2384400204830635,-224.70709633441643,16.768933334098367,-85.9551397109697,421.179902398452,-95.02802039865632,226.02596225416912,448.1856217228646
693,-3.3751349596571742,-225.15919691957663,17.789178283053687,-78.4550172775215,421.76825071168935,-96.68541238819492,226.4684697173373,447.5603764320446
694,-4.511002136147728,-225.85268285256774,18.84783637319867,-70.23214706418477,420.192293264854,-97.44101167923819,227.1330121507467,444.66223090356795
695,-5.622519679951265,-226.8288214815142,19.942258274843525,-61.377864204179,416.4594836592406,-97.27239212353426,228.06027779591224,439.5208201905057
696,-6.685437256855415,-228.12657883731185,21.06709886319111,-51.99414422777911,410.6107155706829,-96.17285069025402,229.28917669656101,432.2018440333464
697,-7.675301287595389,-229.78140523495424,22.214072442687698,-42.19208328312382,402.7212769950755,-94.15183134528739,230.8556834905611,422.8075836553657
698,-8.567995984238323,-231.82407776526762,23.37174273763878,-32.09024454748759,392.90111364443857,-91.2347983878315,232.79172853413456,411.4766478011436
699,-9.34028628082407,-234.27962785267306,24.525359240357748,-21.812923619883357,381.2943371833923,-87.46257887621856,235.12416361190716,398.3828999725915
700,-9.970348445620601,-237.16637915886156,25.656753211758293,-11.488385644472116,368.07793827867147,-82.89021677474614,237.87382576770628,383.73354589100353
701,-10.43827420049425,-240.4951179686527,26.744307490023456,-1.2471227562159792,353.4596917132253,-77.58540009325918,241.0547198279952,367.7663886896657
702,-10.726534405866934,-244.26841502678704,27.763013982147,8.779827388086032,337.6752700473721,-71.62653598042205,244.6733371798934,350.74628839385514
703,-10.820388877699576,-248.48011448818588,28.68463133623571,18.462471807536282,320.98461238706074,-65.10055731447306,248.72812521604845,332.9608911104922
704,-10.708229962505463,-253.11500191894086,29.477953058758626,27.673343129999644,303.6676244633854,-58.10054797461392,253.20911833769807,314.7157210982101
705,-10.381849306120479,-258.14865920564586,30.10919347427699,36.28886588345752,286.01931396151036,-50.72327311477892,258.0977376153257,296.3287543434367
706,-9.836619769576652,-263.54751021232863,30.542495530741665,44.19061467861916,268.34448939419934,-43.06669616218874,263.3667625641098,278.1246142028327
707,-9.071587514882124,-269.26905735577,30.740560545336695,51.26648106575974,250.95217053960442,-35.22755700855968,268.9804752742875,260.4285470153502
708,-8.089472702976186,-275.2623059352284,30.665395594240717,57.411773682909754,234.14987246053212,-27.299077180269197,274.8949743079752,243.5603473569577
709,-6.896580654891692,-281.46836992970526,30.279169449655438,62.53028104634718,218.23793232202982,-19.36884871354322,281.0586531789105,227.82840774848617
710,-5.502628295567179,-287.8212499674149,29.545162837065693,66.53532730419244,203.50404768341517,-11.516954647092007,287.4128357325691,213.5240650970657
711,-3.9204930340156046,-294.2487712141138,28.428793471236897,69.35084802721833,190.21818620507844,-3.8143606904407545,293.8925582577108,200.9164053640412
712,-2.165893031796474,-300.6736660185731,26.898691166359733,70.9125057096646,178.62801008533705,3.678390288700467,300.4274856989776,190.24766913602096
713,-0.2570092271660559,-307.0147833747166,24.92779380790271,71.16885378928485,168.95493502958993,10.91215687369621,306.9429470115469,181.72937499114838
714,1.785939431131365,-313.18840474764704,22.49443157517718,70.08254481271271,161.39091456882474,17.849833982173724,313.3610726561201,175.5392464289123
715,3.941155348658928,-319.10964371534806,19.58336462778127,67.63156413314258,156.09600766937666,24.466634186151808,319.60201561108005,171.8189935723763
716,6.185743692116048,-324.6939052929779,16.186738247811434,63.810456298930376,153.19675247771636,30.75001236963965,325.5852361262577,170.67296482148305
717,8.496203236938886,-329.85837972072136,12.304918873741213,58.63149775779003,152.7853335726537,36.6992372022407,331.23082969815715,172.16764807793407
718,10.848914156212352,-334.52354480931433,7.947174641452416,52.12575704123765,154.91949638127642,42.32461952108001,336.4608772839953,176.33196802225874
719,13.220610288588503,-338.6146505076012,3.132165383159379,44.343972587743906,159.62313272915986,47.64641471330761,341.2007964460479,183.15829715736663
720,15.58882328837351,-342.06315908788554,-2.111789993959918,35.35716947925891,166.88743792324317,52.69342406966149,345.38067183141567,192.60407577988357
721,17.932285806489386,-344.8081142898128,-7.746695901397983,25.256930693298088,176.67252383782588,57.50132928318106,348.936543185469,204.5939211587559
722,20.231280632798036,-346.7974130745886,-13.725132393303229,14.155237538914319,188.9093649556972,62.110804865894735,351.81162909761406,219.0220997946333
723,22.467922768987194,-347.98895439556924,-19.990788601814586,2.1837996255552765,203.50195527008,66.56546466222781,353.95746493061694,235.75523880417202
724,24.62636201565469,-348.3516405306354,-26.479277799773385,-10.507191015328768,220.32956300263336,70.90970955809463,355.3349337992216,254.63516282125815
725,26.692895206448778,-347.8662079371414,-33.11922277253699,-23.750922576736578,239.24898658339754,75.18655213957022,355.91516990167304,275.4817605729848
726,28.65597990766138,-346.52586620935483,-39.833587889822304,-37.36644879954244,260.0967381240521,79.43549861226757,355.68031387358394,298.09580901748967
727,30.5061452124154,-344.336725609496,-46.54122239479968,-51.161759308833766,282.69110758000414,83.6905674206615,354.62410020153834,322.261709767395
728,32.23580015255853,-341.3179960969734,-53.15856900830608,-64.9373501811935,306.8340886493731,87.97851732970437,352.7522574682347,347.75011803177415
729,33.83894624915708,-337.5019441964658,-59.60148406826478,-78.49016686664655,332.31317224691395,92.31734591466792,350.08270385785767,374.32046368798854
730,35.31080769890976,-332.93359871639757,-65.78711085501818,-91.6177609412676,358.90303162558865,96.71510376144272,346.64552340659606,401.7233744291888
731,36.64740001071562,-327.67020234041166,-71.6357465207495,-104.12249036338336,386.36713308897754,101.16905159101985,342.4827131217773,429.70301280191455
732,37.84506421350804,-321.78041324937556,-77.07264435399637,-115.81560060426347,414.45930802850864,105.66516854846387,337.6476970272162,457.99933536328444
733,38.89999754915992,-315.34326845118767,-82.02969600042466,-126.52104411232415,442.92531696583995,110.17800291661035,332.20460961102646,486.35027528839834
734,39.80781254164103,-308.4469272057299,-86.44694273157432,-136.0789171395118,471.5044256080245,114.67084585626881,326.2273571500855,514.4938397264392
735,40.56315573579504,-301.18721786281213,-90.27387190657834,-144.34841054194325,499.9309996511244,119.09620702761596,319.79847055338183,542.1701021627568
736,41.159416145439366,-293.66601445930223,-93.47046460030195,-151.2101894881507,527.9361157116789,123.3965754433492,313.0077676771475,569.1230649811935
737,41.58855070595084,-285.98947105975606,-96.00797130550164,-156.568144240415,555.2491866406677,127.50545354439774,305.9508463656021,595.10237534591
738,41.84104851776106,-278.26614261972617,-97.8694026764819,-160.3504918719009,581.5996108584903,131.3486533228048,298.7274316141488,619.864898185757
739,41.90604746245824,-270.60502154481145,-99.04973087042511,-162.5102506264056,606.718471452933,134.84584064673456,291.4396015812047,643.1761760246453
740,41.77160707953775,-263.1135196499149,-99.55580456707382,-163.02514664161959,630.3403248363992,137.91230969210142,284.1899184749919,664.8118281448236
741,41.4251316782386,-255.89542653849858,-99.4059875414944,-161.89704171541322,652.2051264852972,140.46096459022698,277.0794924012696,684.5589556790612
742,40.85392841958944,-249.04887804024162,-98.6295367739357,-159.15098813239814,672.0603409230515,142.40448008263417,270.20600959373115,702.217622450978
743,40.04587710141033,-242.66437235644787,-97.26574151318664,-154.8340211796427,689.6632745356401,143.65760681860897,263.6617611436317,717.6024735666606
744,38.990181912678025,-236.82287645433235,-95.3628494928377,-149.01379191737092,704.7836540490529,144.1395796026992,257.5317139216916,730.5445362538068
745,37.67817058799825,-231.59407006935947,-92.97681061895291,-141.77712338054553,717.2064523559277,143.77657822066826,251.89167093173558,740.8932226652494
746,36.10410316788607,-227.03477836498791,-90.1698718570423,-133.22854530301075,726.7349389967989,142.5041807532293,246.80657283322253,748.5185252570195
747,34.265950916818355,-223.18764593442484,-87.00905968272232,-123.48882934511235,733.1939070763975,140.2697395274216,242.32899491495672,753.3133648726476
748,32.16610589634149,-220.08010372614788,-83.56458824760298,-112.69351294707769,736.4330036136541,137.03460149325437,238.49789372628058,755.1960224823264
749,29.81198337158319,-217.72367628726863,-79.90823236458492,-100.99136969258936,736.3300679941598,132.77608920223994,235.3376545739356,754.1125599631599
750,27.216482789313652,-216.11366941862468,-76.11170469022463,-88.54276139853053,732.7943649031473,127.48915665227625,232.8574852198705,750.0391154049927
751,24.398278447537624,-215.2292680943463,-72.24507616411638,-75.51779515077834,725.7695852836204,121.18763660745411,231.05119252697926,742.9839459325632
752,21.38191785624938,-215.03406161637022,-68.37527769475822,-62.09420909540865,715.2364825567978,113.90500292722001,229.89736761303527,732.9890872233603
753,18.197713722980854,-215.4769979555705,-64.56471900679938,-48.454924436634045,701.2150120779729,105.69458313165522,229.35999152508663,720.1315042957796
754,14.881424070537104,-216.49375290893323,-60.870057398029516,-34.7852267063141,683.7658495345904,96.62917285530479,229.3894581467169,704.5236223816325
755,11.473723820043917,-218.00848315422434,-57.34114499125566,-21.269574449256872,662.9911783359088,86.8000245355325,229.9239949285089,686.3131486532155
756,8.019479850178357,-219.93591654502947,-54.020178088765874,-8.08807442054763,639.0346564800931,76.3152065847149,230.89144604488564,665.6821235961403
757,4.56684970023014,-222.18371890031656,-50.941066684271945,4.5872950016666945,612.0804992712841,65.29735487735397,232.21136757871454,642.8451729207774
758,1.1662314092555586,-224.6550648265135,-48.12903630788344,16.596590517052288,582.3516446525474,53.88086403493122,233.79737113104613,618.0469649156715
759,-2.1309018148890932,-227.25133142134908,-45.600468321726915,27.795785509553433,550.107001444106,42.208590397578305,235.55964162198742,591.558911871093
760,-5.273243611300057,-229.8748285406612,-43.36297854561589,38.06044718742316,515.6378156360678,30.428160800957862,237.4075476037161,563.6751855854204
761,-8.210931508631841,-232.43147786385885,-41.41572759905405,47.289017286424944,479.26322403147,18.68800066898453,239.25225847946248,534.7081442491659
762,-10.896815853010983,-234.8333551224124,-39.74994959320676,55.40550498368351,441.32509591442766,7.133210944929453,241.00928261268226,504.98328989561264
763,-13.287677640114401,-237.0010151373688,-38.349678986613675,62.36141550525871,402.1822901732123,-4.098564560040701,242.60084315359515,474.8338914356925
764,-15.345353967616756,-238.86552725353215,-37.192648922311164,68.1367669659565,362.20447589873646,-14.881132411791391,243.95801415563884,444.59541797349016
765,-17.037732934427986,-240.3701589821702,-36.25132862840794,72.74009000225999,321.7656778498817,-25.103452428528428,245.02254793437746,414.59993106487855
766,-18.33958425154219,-241.47165791843776,-35.49406284045246,76.20735725333925,281.237713935318,-34.67290349730532,245.7483354594182,385.1705836692394
767,-19.233197574182938,-242.14109599022103,-34.88627299775229,78.59984916791936,240.983690263998,-43.51797680282953,246.1024546329735,356.6163686368946
768,-19.708807576166798,-242.3642553603964,-34.39167850842859,80.00102456251724,201.35171119595026,-51.59027910872682,246.06577618937717,329.22725116376085
769,-19.764792874809135,-242.14155127306063,-33.97349693851447,80.512523830855,162.66894864818232,-58.86575332604576,245.63311310036167,303.26980771253216
770,-19.407644683903186,-241.48750320792283,-33.59558457889412,80.24948473817244,125.23619868218668,-65.34505351681447,244.8129161527534,278.98347820070285
771,-18.651709979448952,-240.4297812364862,-33.22348317001535,79.33539124844238,89.32303611365623,-71.05304533656714,243.62653501427263,256.57751862310414
772,-17.518722429363418,-239.0078687767317,-32.8253441208258,77.8967022148217,55.16366086193343,-76.03743912736441,242.10707978030936,236.2287177816143
773,-16.037141892436132,-237.27139545686146,-32.372707904134465,76.05751791506434,22.953513411065245,-80.36659964616874,240.29793199455446,218.07991490862628
774,-14.241329659197476,-235.27820417162218,-31.84112311481179,73.93453845060071,-7.153279131837797,-84.1266119019139,238.25096600298485,202.23932575591778
775,-12.17059163685599,-233.09222439268547,-31.210596580564328,71.63254995423706,-35.04558077237876,-87.41771493349434,236.0245508890125,188.78065485516757
776,-9.868125187784607,-230.7812290664434,-30.465872506524985,69.24064402998668,-60.65601892779006,-90.35024271505146,233.68140974579842,177.7439432090823
