time,ax,ay,az,gx,gy,gz,accmagnitude,gccmagnitude
0,9.976241562069855,-249.70571080488162,-66.57177667721578,36.30433410858779,-132.55605850747742,-37.78297427107525,258.66399004315116,150.3142109511696
1,10.272112197113751,-250.60239805467904,-65.67591268768146,43.85757176111843,-129.44648496442494,-37.859272504561424,259.3305877827642,149.65641382867014
2,10.514379774248685,-251.46303911213207,-64.79965676335115,51.52913485890253,-126.6688987339575,-37.86124969850055,259.96369100239383,149.02239454506616
3,10.697025056958958,-252.27340091840253,-63.95364286784963,59.228621979594294,-124.29743315151639,-37.79769988725543,260.5517306257463,148.4422353001697
4,10.815406297760074,-253.0200056719316,-63.1483340579589,66.85940442379733,-122.40377610321693,-37.68044930257032,261.08391108806677,147.95021939470158
5,10.866497568697374,-253.6904608704831,-62.393833465640434,74.31964920643726,-121.05537688276225,-37.524430478430354,261.5504992145432,147.58458498593882
6,10.849094005758065,-254.27376349849837,-61.69970212018435,81.50340495435559,-120.31360135268265,-37.34770405177194,261.9430881325215,147.3871397145196
7,10.763975705096586,-254.760568695778,-61.07478759120994,88.30173830529102,-120.23187480652987,-37.17142255432185,262.2548273326423,147.4027317193162
8,10.614023042688382,-255.14341435807287,-60.527066990310516,94.60391339169082,-120.8538552516234,-37.019731175902,262.48061099285144,147.67857691994666
9,10.404277393794763,-255.4168945573057,-60.06350730215497,100.29861195191565,-122.21168232279875,-36.91960108558598,262.6172179764204,148.26344717028272
10,10.141942601544015,-255.5777764139736,-59.68994528763007,105.27519589895019,-124.32434886521747,-36.90059132186051,262.6633984896642,149.20672893448454
11,9.836324095023485,-255.62505716600867,-59.410988418844376,109.42501721738634,-127.1962435189589,-36.99453553605404,262.61990431999516,150.55736739419777
12,9.498704229204387,-255.55996057912606,-59.22993763556932,112.64278129118517,-130.81591330825614,-37.23515013750011,262.48946182873794,152.3627160234413
13,9.142154111343434,-255.38587430892642,-59.14873217371919,114.82796878033002,-135.15509495853482,-37.65756086225823,262.27668922558644,154.6673162019374
14,8.781283849908501,-255.10823211815136,-59.16791613843452,115.88631792910493,-140.16806206023864,-38.29774572385167,261.98796183242035,157.51163506572445
15,8.431934816357838,-254.73434677410256,-59.28662574787301,115.73136408769246,-145.79133205145268,-39.191893936383806,261.63123083079716,160.93079253189543
16,8.110819121859661,-254.27320085740783,-59.502595337354464,114.28602682489685,-151.9437722498144,-40.375682841042654,261.2158022543158,164.95331046296286
17,7.835113061810395,-253.73520358841932,-59.812179445713134,111.48422772657106,-158.52713776225627,-41.88347804905988,260.75208375054945,169.59991825313102
18,7.622012829370128,-253.13192221581423,-60.210387698808155,107.2725141068288,-165.42706584890396,-43.74746574513758,260.251307010779,174.88244947021633
19,7.488262437664585,-252.4757965947014,-60.69092885315315,101.61165588748347,-172.51454104899244,-45.996730178144205,259.72523385476654,180.80286339549747
20,7.449665531545982,-251.77984532781983,-61.24626043842685,94.47817561359925,-179.64783318007858,-48.656293649191824,259.1858538236944,187.35242352688402
21,7.520594476052265,-251.05737126263438,-61.86764108454718,85.86576578208113,-186.6748965456129,-51.74614062562634,258.6450808166763,194.51106266425614
22,7.7135115151492375,-250.32167330508,-62.54518379382389,75.78654383731937,-193.4362037476067,-55.28025171220034,258.1144558597251,202.2469611862643
23,8.03851763593719,-249.5857706133934,-63.2679098907214,64.27209337419437,-199.76797182489108,-59.26567677160048,257.6048626371557,210.516361381182
24,8.5029449280954,-248.86214449827762,-64.02380487301433,51.374240111454945,-205.5057226177591,-63.701679183596816,257.12626209217694,219.26363605998847
25,9.111007718661487,-248.16250288718052,-64.79987870193725,37.16551297652265,-210.48810416071288,-68.57898484220459,256.68745227542485,228.42162433235768
26,9.863526625641608,-247.49757193928414,-65.58223414776909,21.739244330024817,-214.5608864908238,-73.87916993544154,256.29585960713626,237.91224183398936
27,10.757737899954767,-246.87691914606788,-66.35614770516675,5.209269226039535,-217.58103429981725,-79.57422083024149,255.9573676627679,247.64736729660916
28,11.787198036054136,-246.30881182435368,-67.10616833560876,-12.290808193474616,-219.4207507408901,-85.62629742935312,255.67618930934037,257.53000223734267
29,12.941790748067422,-245.80011415016645,-67.8162397678173,-30.60880259714689,-219.97138145817183,-91.98772799267354,255.45478733042245,267.4556953953944
30,14.20784020550437,-245.35622472250455,-68.46985211231176,-49.575598541596726,-219.14706542724483,-98.60125839161637,255.29384746610165,277.31421788816135
31,15.568331079560362,-244.98105509356068,-69.05022803403288,-69.00725934096383,-216.88801945509226,-105.40057191871136,255.1923060431556,286.991468560037
32,17.003232646349534,-244.67704782657032,-69.54054771151068,-88.70757296615531,-213.1633463334188,-112.31108709404029,255.14743215630483,296.37158159749765
33,18.489921060774495,-244.445230629992,-69.92421536937178,-108.47099873671482,-207.97326295928482,-119.25103065619882,255.15496188313674,305.33920045673875
34,20.003690978192147,-244.28530127150623,-70.18516831857278,-128.0859641140556,-201.35065459107065,-126.13277166454938,255.20927957134145,313.781874097039
35,21.51834490696838,-244.19573657080008,-70.30822708693356,-147.33844828083886,-193.3618750828887,-132.86439113628492,255.3036390700339,321.59252419668314
36,23.006846006658225,-244.1739179360227,-70.2794822874203,-166.01577869274956,-184.10673048570592,-139.35145068422509,255.43041599501973,328.6719260922912
37,24.44201760291297,-244.2162657038132,-70.08671044027237,-183.91055836189616,-173.71760455788268,-145.49891388188402,255.58138080865044,334.93114198969437
38,25.79727065446754,-244.3183750212466,-69.7198072938616,-200.82463521609023,-162.35770891936704,-151.2131660880842,255.74798178961805,340.2938426598454
39,27.047338918033393,-244.47514713497506,-69.17122357686776,-216.5730206334839,-150.21846694437298,-156.404072675034,255.92162692045474,344.6984533536105
40,28.169000620574142,-244.68091153236384,-68.4363848692062,-230.9876624804956,-137.51606795274765,-160.98701245076109,256.09395422416463,348.1000610235602
41,29.14176501743822,-244.92953614627382,-67.51407475653488,-243.92097878121027,-124.48725575369964,-164.88482280604376,256.2570809742693,350.4720230200075
42,29.948502308479338,-245.21452460075182,-66.40675900095901,-255.249061055894,-111.38444213150757,-168.02959567099265,256.40382341015965,351.80722182534305
43,30.575996084164014,-245.52910115410756,-65.12082844366418,-264.874460457781,-98.47026046722834,-170.36426835977107,256.52788013866336,352.1189153762489
44,31.015398835940253,-245.86628551888765,-63.66674005070897,-272.7284744150098,-86.01169626521326,-171.84396028629914,256.6239743333296,351.4411374485841
45,31.26257309168377,-246.2189609683914,-62.05903915520951,-278.7728568299305,-74.27394870855116,-172.43701478254988,256.6879521131038,349.82860747090984
46,31.31830343743131,-246.5799398304622,-60.31625148226,-283.00088235983594,-63.51418946036897,-172.12571433498198,256.71683686130234,347.3561149989587
47,31.18836812381893,-246.9420303026357,-58.46064038972794,-285.43770671717743,-53.97539109238351,-170.9066471283064,256.708841278541,344.1173526514781
48,30.88346317376192,-247.29810741332633,-56.51783193387343,-286.1399816681687,-45.88039752834801,-168.79071270714599,256.66334027787906,340.22318428717136
49,30.418976817104063,-247.64118943595872,-54.51631691142411,-285.19470570783386,-39.426402922823165,-165.80276485795136,256.58080862390364,335.7993534617454
50,29.814617426160055,-247.96452004329538,-52.48684432351338,-282.7173180207862,-34.77999405444512,-161.98090055509633,256.4627281291948,330.983660245944
51,29.0939035648611,-248.26165643529146,-50.46172455015976,-278.8490718563558,-32.07289553595643,-157.37541495599572,256.3114705961544,325.9226604342146
52,28.283529960362557,-248.52656430081225,-48.47406312073208,-273.7537509255885,-31.39853794616137,-152.0474536392808,256.1301642787913,320.7679673158206
53,27.41262792657365,-248.75372118724044,-46.55694779220339,-267.6138164221319,-32.80954711889842,-146.06740396565408,255.92255297512244,315.67225987948297
54,26.511942875535965,-248.9382301489493,-44.74261311325345,-260.6260915437319,-36.31622860505698,-139.51307689268035,255.69285756294275,310.785120806552
55,25.612954965403926,-249.0759450469704,-43.06160785806275,-252.9971049096893,-41.886094848702335,-132.46773810486889,255.44564952543894,306.2488420800293
56,24.746971622553303,-249.16360734260863,-41.541991505015986,-244.9382245287773,-49.444454092059104,-125.01805239556579,255.1857445318345,302.19434517150256
57,23.944222591619827,-249.19899171656903,-40.20858607281696,-236.66072032177624,-58.87604992903935,-117.25200760431237,254.91812145895028,298.7373661826465
58,23.232989155675476,-249.1810547537732,-39.0823088935145,-228.37089558785198,-70.0277094775839,-109.25688410573895,254.6478687245232,295.9750533749263
59,22.638799018231385,-249.11007790531028,-38.17961017869143,-220.2654258490518,-82.71192720797397,-101.1173330342438,254.38015607200683,293.9831143821881
60,22.183716904808737,-248.9877936375114,-37.51203651348911,-212.52703675457076,-96.71128154280193,-92.91362129983253,254.12022667870642,292.8136322711584
61,21.88575815865639,-248.81748256183366,-37.08593771430419,-205.32064091594825,-111.78355354142263,-84.72009423882719,253.87340215367163,292.49364317226673
62,21.758448434941265,-248.6040295586808,-36.90232978356683,-198.7900368137408,-127.66739256675258,-76.6038977906165,253.64509184254268,293.0245340767406
63,21.8105470270179,-248.35392839460562,-36.95692100077198,-193.0552518753289,-144.0883543437372,-68.62399181486357,253.4407978362199,294.3822795289353
64,22.045944431958528,-248.07522690116673,-37.24030174887551,-188.21058758146643,-160.76512398851656,-60.83047497461729,253.26610805541233,296.51849366854645
65,22.463736662775766,-247.7774081375664,-37.73829199197907,-184.32339858964227,-177.41573188892798,-53.264229883754616,253.12667151372275,299.36223363404747
66,23.058469976663737,-247.47120671191195,-38.432433913877716,-181.4336121418773,-193.7635744107357,-45.95688531606316,253.02815200604564,302.8224557962135
67,23.8205407955164,-247.16836320628792,-39.30061143800283,-179.55396996600862,-209.543063984103,-38.93108058861755,252.97615866886628,306.7910004843368
68,24.736727402452537,-246.88132312081336,-40.31777337131356,-178.67095338796122,-224.50475324739477,-32.20100617399635,252.9761538169018,311.14596503308354
69,25.790823182351268,-246.62288968831487,-41.4567329054759,-178.7463337833245,-238.41980439284237,-25.773184547250132,253.0333399872223,315.7553190736878
70,26.964336295904065,-246.40584220803808,-42.68901336502697,-179.71927489151898,-251.0837063266931,-19.647446571422815,253.1525291968318,320.48061918048865
71,28.237218118223577,-246.2425332141966,-43.9857086617104,-181.5089010039665,-262.3191771406293,-13.818051727611287,253.33799817554146,325.18069091244064
72,29.588582651342413,-246.1444788476433,-45.318327091668344,-184.01723582229278,-271.9782257826573,-8.274895663071575,253.59333391663498,329.71516320511455
73,30.997381307341254,-246.1219572007533,-46.659588912623356,-187.13241110712957,-279.9433825165122,-3.0047463690737355,253.92127435552584,333.9477609110409
74,32.44300166220803,-246.18362915454472,-47.984151369088394,-190.7320423429357,-286.1281405160373,2.0075488507980728,254.32354937253515,337.749283935838
75,33.905764580038415,-246.33619541064735,-49.26923911733314,-194.68667067848813,-290.47667886399444,6.777939599568975,254.8007276522591,341.0002240588287
76,35.36730104208026,-246.58410216054833,-50.49516286215485,-198.86317623024075,-292.96295913557117,11.32217922681201,255.35207522160988,343.5929918675777
77,36.81079769858268,-246.92930619694826,-51.645714101643385,-203.128076922801,-293.5893032212588,15.655001021839658,255.97543169334313,345.4337454663197
78,38.22110823480404,-247.3711082142755,-52.70842907462643,-207.35063861429248,-292.38456915828385,19.789492236323557,256.66711025318017,346.44382924878175
79,39.58473565589095,-247.9060604854567,-53.67472026435401,-211.40573554907883,-289.4020447173863,23.73668325540653,257.42182707183383,346.5608446975677
80,40.88969808344265,-248.52795208588137,-54.53987893880837,-215.17641446220506,-284.71717548038475,27.505357827513258,258.2326649969451,345.7393854731916
81,42.12529729296283,-249.22787158945593,-55.30295693690959,-218.55613010573066,-278.425235282578,31.102079106616205,259.0910751639281,343.95147550122743
82,43.281814758923225,-249.9943439962304,-55.96654003256642,-221.45063373118882,-270.63903256898783,34.53141566470477,259.98691875376886,341.18675104279583
83,44.35016408248796,-250.81353589284672,-56.53642860975182,-223.77950851151277,-261.4867272673354,37.7963418696775,260.90854974376634,337.4524259970062
84,45.32153095969171,-251.66952080130957,-57.02124398787719,-225.47735664045118,-251.1098105480427,40.898778502908435,261.8429383566859,332.77307458489025
85,46.18703202023477,-252.54459551887888,-57.431980377309245,-226.49465158535844,-239.66127600469528,43.84023271105396,262.7758341208474,327.190258000502
86,46.93742188060506,-253.41963797392032,-57.7815228250337,-226.79827538665856,-227.3039871261933,46.62249177547318,263.6919669474525,320.76201254445556
87,47.56287379615427,-254.2744975545286,-58.08415047312483,-226.37176492798696,-214.20922411084598,49.24832300097009,264.5752842781894,313.5622072302374
88,48.05285374896935,-255.08840976878176,-58.35504223947549,-225.21529296655018,-200.55537453470367,51.72213237160114,265.4092220494966,305.6797699886452
89,48.39610120351655,-255.84042817980693,-58.60979917765209,-223.3454096521221,-186.52671825126174,54.050537483457695,266.1770068671002,297.2177743081011
90,48.58072266324853,-256.509867553534,-58.86399478165808,-220.79456835989555,-172.31224785390305,56.24281556683698,266.8619862894425,288.292372955654
91,48.59439706932303,-257.0767528874025,-59.132761667339466,-217.61045604176806,-158.10446226000906,58.3111949582308,267.44798342616366,279.0315625061983
92,48.42468546660459,-257.52226938155684,-59.43042052941155,-213.85514341986936,-144.0980721772004,60.27096772033928,267.9196711803171,269.57376178082933
93,48.05943167512722,-257.8292084463295,-59.77015510070022,-209.604065039178,-130.48856174555434,62.14041146982787,268.26296044600457,260.06618890899085
94,47.48723623671816,-257.9824044801102,-60.16373503590459,-204.94483443943412,-117.47055976522628,63.94051894243918,268.4653954279852,250.66302550591877
95,46.69798265325814,-257.969156345499,-60.62128721700062,-199.97589632368494,-105.23598593480796,65.69454360257296,268.5165479291529,241.52336229421527
96,45.68339271531752,-257.7796262287553,-61.15111493998728,-194.80501609187294,-93.97195181387687,67.42737818184266,268.4084009444641,232.80892821210674
97,44.43758641381645,-257.4072070821933,-61.75956374090173,-189.54760763452921,-83.85841210740541,69.16479021624534,268.135710364268,224.68161431467473
98,42.95762153533258,-256.84884845948426,-62.450932149324586,-184.3249027566284,-75.06557862185004,70.93254449329203,267.6963323262776,217.30081415687786
99,41.24398858594201,-256.10532955105157,-63.22742531558265,-179.261969804087,-67.75112615882442,72.75544701065739,267.09150301682433,210.82061340967218
100,39.30103811614858,-255.18146774234117,-64.08914914932565,-174.48559467253983,-62.05723604081547,74.65634880182846,266.3260575941645,205.38687275230774
101,37.13731971638019,-254.08625108691226,-65.03414225908894,-170.122043905186,-58.107538302409054,76.65515088257338,265.4085753746851,201.13425902867553
102,34.76581480400725,-252.8328837511558,-66.05844261738397,-166.29473640390177,-56.00402730025734,78.76785344919948,264.3514394998444,198.18328952909212
103,32.2040487373749,-251.43873479713636,-67.15618566266785,-163.12185681979145,-55.82403711940384,81.00569295989271,263.17080104561074,196.63746236590754
104,29.47407169728586,-249.92518261736564,-68.31973063204565,-160.7139496876787,-57.617372181978624,83.37440949888479,261.88643994898297,196.58055180616455
105,26.60230212225951,-248.3173498669659,-69.53981214837786,-159.1715388341144,-61.40369435064635,85.87368365360943,260.5215181019712,198.0741509343713
106,23.61923122221598,-246.64372682733725,-70.80571414494031,-158.58282151743936,-67.17027003906335,88.4967769847735,259.10222338442446,201.15554502330372
107,20.558992119371126,-244.93568477083588,-72.10546306996426,-159.0214908796137,-74.8701789587133,91.23040311249795,257.65730723621834,205.83599720159685
108,17.458802288086115,-243.22688498775796,-73.42603730133611,-160.54474313002595,-84.42107983897249,94.05484764621445,256.21752257244293,212.09952301188946
109,14.358292937370761,-241.55259345001778,-74.75359006263994,-163.19152706537534,-95.704617649195,96.94434493620068,254.81497322852496,219.902221989018
110,11.298743479193488,-239.94891527017677,-76.07368374869897,-166.98109295033817,-108.56654173812113,99.86770839585257,253.4823902962765,229.1722225359135
111,8.322242883224973,-238.45196683172853,-77.37153413213416,-171.91189546638526,-122.81758548322105,102.78919966361303,252.25235425683957,239.8102814915939
112,5.470802255390289,-237.09700654867225,-78.63226315237274,-177.96090127776466,-138.23513642074874,105.66961102985476,251.15648450101182,251.69106227713587
113,2.785444316597234,-235.91754769173258,-79.84115869861341,-185.0833454572452,-154.5657024639401,108.46752615753216,250.2246196647222,264.6650957272731
114,0.3052956585804516,-234.94447867447764,-80.98393894138387,-193.2129722266933,-171.52815580675914,111.14071671106758,249.4840133134525,278.5614061058106
115,-1.933293204917002,-234.2052175689664,-82.04701750647395,-202.26278408750653,-188.8177125722837,113.64762728524309,248.9585699329967,293.19076208760094
116,-3.8975768189393016,-233.72292818647887,-83.01776446970679,-212.12630970720122,-206.11058432304662,115.94889796254932,248.66814585900616,308.34948977380793
117,-5.5591723479474755,-233.5158245372544,-83.8847571567867,-222.6793855425779,-223.06921823759868,118.00887281799334,248.62793859866474,323.82376351033133
118,-6.89472862540485,-233.5965887298055,-84.6380142606113,-233.7824299844285,-239.3480268418996,119.79704367407587,248.847985918754,339.39427186108276
119,-7.886493220625636,-233.9719244459697,-85.2692068126994,-245.28317257698475,-254.5994959735959,121.28938129868536,249.3327931520462,354.84114158320784
120,-8.522767514868251,-234.64226422591707,-85.77183998823901,-257.0197850846822,-268.48055087455003,122.46951075345251,250.0811035603087,369.9489921192017
121,-8.798242786862764,-235.6016441164882,-86.1414005992363,-268.82434616192546,-280.6590541920436,123.32969323402126,251.08582246713235,384.5119865466916
122,-8.714212717994442,-236.83775388220923,-86.37546640304369,-280.5265574837299,-290.82030532919566,123.87158291670673,252.33410130766893,398.33874147913144
123,-8.278659536974313,-238.33216498081677,-86.47377476479319,-291.9576168279229,-298.673407376881,124.10673353149555,253.80758265231177,411.25695760920445
124,-7.506212314527801,-240.06073198496793,-86.43824935926376,-302.95414307675327,-303.95736556353273,124.0568352450504,255.48280159783107,423.117634179927
125,-6.417976759141147,-241.9941564402213,-86.27298418835016,-313.36203964246903,-306.44677993227856,123.75366776579588,257.33173288687243,433.7987346306693
126,-5.0412363204756465,-244.09869575250795,-85.98418426452102,-323.0401767824291,-305.95699521100266,123.23876043217919,259.3224671488231,443.20817729264326
127,-3.4090247224670684,-246.33699392339994,-85.58006221169549,-331.863770362646,-302.34857320167737,122.5627547562319,261.41999417560726,451.2860350094319
128,-1.559570734997082,-248.66900597715946,-85.07069005678082,-339.7273357887759,-295.53095835591347,121.78447005991941,263.5870664353153,458.0058419909624
129,0.4643823992312975,-251.05298403636138,-84.46780564929944,-346.54710193273274,-285.4652166634272,120.9696791729161,265.7851123707373,463.3749262647448
130,2.616377664478095,-253.44649064897288,-83.78457346209697,-352.26278162965633,-272.1657427205884,120.18960924893652,267.9751668477288,467.43371276833255
131,4.847155982033859,-255.8074044706603,-83.03530024335438,-356.83861324392086,-255.70085055174715,119.51919279519197,270.118785782518,470.25397587951664
132,7.105665192383248,-258.0948848021705,-82.23510740270245,-360.2636123240958,-236.1921902123831,119.0351056079799,272.1789136042613,471.9360606220262
133,9.34014773262042,-260.27026465496596,-81.39956418040936,-362.5510035754671,-213.81296329308532,118.81364053511038,274.1206756866356,472.6051375969253
134,11.499283831475186,-262.29784675174807,-80.54428840836022,-363.73684057049724,-188.7849445304322,118.92847758169556,275.9120729382648,472.40660561305947
135,13.533362921706452,-264.1455827779615,-79.68452478304253,-363.877861854779,-161.3743521102758,119.4484204907918,277.5245619359637,471.50080483087766
136,15.39545239891733,-265.78562275926373,-78.83471375275306,-363.04867417180276,-131.88664438721966,120.43517633459403,278.9335107466502,470.0572479847054
137,17.042529956320447,-267.1947280903521,-78.00806704263302,-361.33839238751034,-100.66035427315983,121.94125697169046,280.11852730958594,468.24861344377814
138,18.436543759918216,-268.3545479774838,-77.21616811208891,-358.846897285356,-68.06010317210625,124.00807917449535,281.0636633819957,466.24476721352283
139,19.54536407227121,-269.25176447275743,-76.46861701420647,-355.6808934935767,-34.46896279669076,126.66433412940614,281.75750213060576,464.20708808128967
140,20.34359104184383,-269.8781155445258,-75.77273879196895,-351.94995859066853,-0.2803543344739703,129.9246875255179,282.19314113776846,462.2833591256974
141,20.813186650341894,-270.23030847858877,-75.13337249609502,-347.76277064895777,34.11031061656993,133.7888592645197,282.3680846720383,460.6034597409391
142,20.943904336803968,-270.30983725302804,-74.55275426717502,-343.22368608701345,68.3140344440659,138.2411175447469,282.2840595719487,459.27604701555526
143,20.733497260806566,-270.12271757872855,-74.03050310443093,-338.42981442706036,101.95646795362966,143.25020631248756,281.9467683221624,458.3863571085808
144,20.18769494755049,-269.6791524085076,-73.56371250181684,-333.46870351864277,134.68576236328175,148.76970859176103,281.36559130022795,457.99519060443544
145,19.31994757892943,-268.9931392509107,-73.1471455876919,-328.4167104317916,166.1798335450849,154.7388318702838,280.5532481297907,458.13907574705803
146,18.150946945796555,-268.0820290152912,-72.77352611257653,-323.33809225142784,196.15284434893331,161.08358635019277,279.52542600566244,458.8315352318588
147,16.707942569329262,-266.96604492973523,-72.43391281087514,-318.2848101818367,224.36072644988784,167.71831312126133,278.3003812648752,460.06532094469725
148,15.023880146226414,-265.6677697862035,-72.11814050883544,-313.29700218562425,250.6055843234717,174.5475077440387,276.8985197712476,461.81543110101103
149,13.136396606080982,-264.2116104798088,-71.81530805325339,-308.4040458687224,274.73885184605166,181.46787594440096,275.3419619159443,464.04268905651605
150,11.086711147204527,-262.62325023425694,-71.51429085605852,-303.62610603443306,296.66310721357866,188.37055275350136,273.65409893572775,466.69764468394476
151,8.918454381418274,-260.9291005675058,-71.2042547311146,-298.976041363931,316.3324938345648,195.14341491117764,271.85914841764674,469.7245580439269
152,6.676478169633555,-259.1557664887655,-70.87514784449932,-294.46153277983177,333.75174181896296,201.6734186352802,269.9817179491306,473.0652398750123
153,4.405687029099929,-257.329539282841,-70.51814898720141,-290.0872926976864,348.97383397860636,207.84890034371668,268.0463866371448,476.6625516797968
154,2.149928403334068,-255.47593130480732,-70.1260528307059,-285.8572196270587,362.0964087896924,213.56178565584486,266.07731448193243,480.46340659690884
155,-0.04902602059852632,-253.61926635497815,-69.69357609421849,-281.7763756640466,373.25703748992817,218.70966095526092,264.09788923462764,484.4211570196113
156,-2.1523818927295757,-251.7823374463146,-69.2175724203121,-277.8526834868499,382.6275507692113,223.19767095558532,262.1304193890762,488.4973020042375
157,-4.125087246788744,-249.98614127239838,-68.6971480274114,-274.098261979375,390.40762052787767,226.94021419855744,260.1958804661218,492.66249311068964
158,-5.9364482640753815,-248.24969561093167,-68.13367467302373,-270.53034300944785,396.8178229938265,229.86241568794648,258.3137198483838,496.89685845085194
159,-7.560589455068494,-246.58994236312975,-67.53070093816889,-267.1717342838164,402.0924208613103,231.90136183033812,256.5017231533638,501.1896994929371
160,-8.9767579365886,-245.02173509582656,-66.89376718913121,-264.0508136581967,406.4721041475807,233.0070877349303,254.77594258806909,505.5386426734293
161,-10.169476744043541,-243.55790617250844,-66.23013360906498,-261.2010586476113,410.1969225222151,233.14331104893273,253.15068516696556,509.94834793805046
162,-11.128556473161739,-242.2094052457603,-65.54843417990689,-258.66013138667125,413.49962663986946,232.28791023064323,251.63855639760345,514.428889321046
163,-11.848977951885486,-240.9854982662056,-64.8582722307943,-256.4685542006598,416.5996135146189,230.4331488123156,250.25055319507456,518.9939292078527
164,-12.330661168328879,-239.89401426119406,-64.16977508101601,-254.66802438830192,419.6976424378895,227.585650965627,248.99619838042133,523.6588086696761
165,-12.578137354134125,-238.94162590424958,-63.493126448613516,-253.29942871020913,422.9714547199966,223.7661375797922,247.88370812727112,528.4386717998881
166,-12.600141899292248,-238.13414922457417,-62.83809576928061,-252.40062823072105,426.572394060238,219.00893599782827,246.9201830691397,533.3467328718143
167,-12.409145648408717,-237.47684744664923,-62.21358345959847,-252.0040923195462,430.6230860494426,213.36128027577902,246.11181325256965,538.3927818662909
168,-12.020841221575019,-236.9747236712111,-61.627200519174785,-252.13446644193465,435.2161966085433,206.88242192302906,245.46408651787507,543.5820069361913
169,-11.453599584641802,-236.63278695565361,-61.084899678900236,-252.8061615389032,440.4142515826659,199.64257316555194,244.98198926551646,548.914192334998
170,-10.727910552014219,-236.456276618672,-60.59067348293143,-254.02105329742764,446.25046480774745,191.72170571228872,244.6701882061683,554.3833283302471
171,-9.865819566431558,-236.45083055834283,-60.1463322261938,-255.76637776336796,452.73049113297685,183.20822794928986,244.5331818763745,559.977647077342
172,-8.890371990789957,-236.6225851574061,-59.75137169060515,-258.01290594831346,459.83499511496007,174.19756276205516,244.57541158245647,565.6800767189042
173,-7.825075062718565,-236.9781969556615,-59.402937330864425,-260.71347446477733,467.52290595417395,164.79064720922696,244.8013230549444,571.4690861277276
174,-6.693386506422566,-237.52477960372596,-59.09588815506347,-263.8019417608351,475.7352148587565,155.09237454703603,245.21537240470894,577.3198754013295
175,-5.518237713478729,-238.26975349548434,-58.822960233822094,-267.19263038963936,484.3991621205089,145.20999915018342,245.82197284340305,583.2058528680251
176,-4.321598593365376,-239.22060966923598,-58.575026705650664,-270.7803054714918,493.4326571441434,135.25152592206345,246.62538186945872,589.1003281471069
177,-3.1240906967575763,-240.3845938075402,-58.34144834739396,-274.44072866561504,502.74877471968523,125.32410753282086,247.6295319781359,594.978342592761
178,-1.9446548771308996,-241.7683202353177,-58.11050621885146,-278.03181577392166,512.2601743811508,115.53247462297887,248.8378112110792,600.8185529721596
179,-0.8002793278422105,-243.3773295635634,-57.869905606406824,-281.3954143049906,521.8832965133785,105.97742543772301,250.25280287767336,606.6050813411082
180,0.2942069319723858,-245.21560689364287,-57.60733850231018,-284.35970450977896,531.5421989997596,96.75440198084321,251.87599641158894,612.3292438977072
181,1.3262713228259255,-247.28508010295684,-57.311090031076574,-286.7422132152638,541.171911781681,87.95217957369192,253.70748337557475,617.9910743597815
182,2.2857437316071247,-249.58511955316197,-56.970672399296376,-288.35341395416077,550.7212037376362,79.65169552941423,255.7456539493777,623.6005632581099
183,3.164811472396474,-252.11206153933347,-56.57746814779325,-289.00086914533665,560.1546765263976,71.92504043519433,257.9869097900836,629.1785433213896
184,3.957945567046775,-254.85877786890427,-56.125362988198766,-288.49385028494635,569.4541229608034,64.83463235143,260.42540893677136,634.7571624951371
185,4.661762801896007,-257.8143130603145,-55.61134748966149,-286.648350531585,578.6191124964056,58.4325902327008,263.0528574216214,640.379899749517
186,5.274830005810435,-260.96360879445695,-55.03606629233323,-283.29238149900584,587.6667930284872,52.76031817889913,265.8583604548631,646.1010945381843
187,5.79741909896263,-264.28733251491553,-54.40429326367805,-278.27142367919316,596.6309259830759,47.84830687806696,268.8283435363158,651.9849785603516
188,6.231223746765534,-267.76182352882716,-53.72531114230141,-271.4538790429674,605.5602001854219,43.71615304779787,271.94655070075584,658.1042182665806
189,6.579050709276042,-271.35916569812986,-53.013174901048714,-262.7363563980669,614.5158983657698,40.37279213377269,275.19412344396545,664.5379978895947
190,6.84450082016463,-275.047391021564,-52.28683941937256,-252.04860644204695,623.5690170024295,37.816934211640074,278.5497598959377,671.3696946447534
191,7.0316555927575894,-278.790813371384,-51.570134129043055,-239.35791547523723,632.7969635214904,36.0376880181705,281.98994977651535,678.6842185194149
192,7.1447855076801785,-282.5504866471474,-50.89157020621602,-224.67276558508425,642.2799724672624,35.015353297726605,285.48927688151224,686.5651068715207
193,7.188095070786888,-286.28477690502166,-50.28396985077091,-208.0455756296423,652.0973922639421,34.72235728431726,289.0207776099361,695.0914772209663
194,7.165517906156067,-289.95003391162237,-49.78391233902749,-189.57435201583016,662.323995575969,35.124307374272824,292.55634166981616,704.3349491048797
195,7.080572690664214,-293.50134437247937,-49.430997700004845,-169.4031012025873,673.0264590487182,36.18112908659033,296.0671398554377,714.3566474196017
196,6.93628784416133,-296.8933469962787,-49.26693574678164,-147.72088694460447,684.2601433615804,37.848256306166334,299.52406378459426,725.2043957743
197,6.735199742020471,-300.0810885697067,-49.334475569364116,-124.75945427513395,696.0662838059154,40.07783948002143,302.8981636471869,736.9102000982788
198,6.479425960499434,-303.0209001617956,-49.67619827199832,-100.78938855517411,708.4696771690537,42.81993679040654,306.1610721196663,749.4881113491726
199,6.170811729492852,-305.67127314246085,-50.33320332868751,-76.11483043389207,721.4769247379473,46.02365331206099,309.2854052406565,762.9325427209134
200,5.811144208079997,-307.9937154571615,-51.34372585498929,-51.066824386042654,735.0752656656776,49.63819384393327,312.2451336576737,777.2171019039754
201,5.40242519594994,-309.95356915231264,-52.74172788356253,-25.995437201998357,749.23201129657,53.613796796813105,315.0159197388742,792.293983018397
202,4.94718834831563,-311.52077033368,-54.55551118993907,-1.260840732983787,763.8945702435857,57.90251969157633,317.57541738531955,808.0939458400392
203,4.448842028649324,-312.67053266159166,-56.806402242082505,22.77639255318204,778.9910361555018,62.45885163974047,319.9035320404493,824.5268914764631
204,3.912014077614016,-313.383935376397,-59.50756130792487,45.765485204509226,794.4312945001335,67.24013414801259,321.9826385531648,841.4830229448844
205,3.34287069621773,-313.6483969828704,-62.66296756570715,67.37580787103342,810.1085903492468,72.20677810671265,323.7977544330104,858.8345556214535
206,2.7493789954187133,-313.45801641254866,-66.26663016715196,87.30702985694599,825.901485588362,77.32227199322814,325.3366659087037,876.437916786745
207,2.1414820016814007,-312.8137650718082,-70.30207139304294,105.29869262427333,841.6761215429531,82.55298477564259,326.5900043636543,894.1363472297124
208,1.531156424943095,-311.7235160256972,-74.742121920299,121.1388285045591,857.288692780468,87.86777691301643,327.5512714809234,911.7627935656997
209,0.9323277127934185,-310.2019009401972,-79.54905941707901,134.67125518794796,872.5880313548269,93.23744355628345,328.2168130318472,929.1429603556692
210,0.3606239968586698,-308.26999140392064,-84.67511003872413,145.8011979165189,887.418199767779,98.63402458175774,328.58574377410804,946.0983792213716
211,-0.16703979055478538,-305.95480877923325,-90.06331799069974,154.4989280292426,901.6209969696247,104.03002562370253,328.6598292884534,962.4493507202279
212,-0.6330446295476511,-303.2886754427956,-95.64877146583197,160.8011609499521,915.038295512969,109.39760209353081,328.44333442405735,978.0176257803033
213,-1.0198008199719153,-300.30842935818146,-101.36015461676895,164.81003054963597,927.5141488706585,114.70776342529744,327.9428515451883,992.6287175339558
214,-1.3106021775940941,-297.05453218122113,-107.12157598829472,166.6895502203351,938.8966337996648,119.92965645754028,327.16712385559555,1006.1137699775961
215,-1.490557722476557,-293.5701074204227,-112.85460573129895,166.6595819135339,949.0394201670516,125.02998401151937,326.12687881346073,1018.3109535022693
216,-1.5475457866515598,-289.8999488341706,-118.48043887037083,164.9874583933767,957.8030861851834,129.972606867653,324.8346837060087,1029.066403973756
217,-1.4731266255633912,-286.08953978340276,-123.922091558823,161.9775346735657,965.0562174739013,134.718364721497,323.30482999675223,1038.234766193526
218,-1.2633449424615906,-282.18412142493935,-129.10653277922128,157.9590741468726,970.6763418927726,139.22513533239302,321.55324570609827,1045.6794390249786
219,-0.9193542906304545,-278.22784164232934,-133.96665600885234,153.27299376926968,974.5507579552024,143.44813264255455,319.59742707649366,1051.2726436269768
220,-0.44780189918787,-274.26300828690654,-138.443004206423,148.25808961553696,976.5773130690078,147.3404262939416,317.4563738982739,1054.8954446126595
221,0.1390746689629754,-270.3294607617443,-142.48517672679415,143.2374270341573,976.6651797949769,150.8536489187048,315.1505088336423,1056.437845287522
222,0.8236690912417443,-266.4640642477261,-146.0528672768566,138.50559741788007,974.7356653060558,153.9388455760919,312.70156073755936,1055.7990546958708
223,1.5835535597673231,-262.70032182784394,-149.11650586415138,134.3175089785109,970.7230732568995,156.5474127159016,310.1323951566077,1052.8879921464716
224,2.392334853695784,-259.06809231214123,-151.65750241272104,130.8792908474904,964.5756206888535,158.63207225574277,307.4667809730373,1047.6240625480496
225,3.2207787053368744,-255.59339657681912,-153.66811271331025,128.34175493909888,956.2563978470386,160.1478293988011,304.72908930967185,1039.9382105957877
226,4.038141502941068,-252.29829331540327,-155.15096631736182,126.79669210075792,945.7443477995004,161.05286995972392,301.9439281061537,1029.7742467754447
227,4.8136328599382745,-249.200806326564,-156.118309334136,126.27609644666023,933.0352361587437,161.30936322490876,299.1357222684241,1017.090431226624
228,5.517922902296842,-246.31488925124685,-156.59102238561778,126.75423312405582,918.1425779591392,160.8841486262053,296.3282543981223,1001.8612970530796
229,6.124604436134211,-243.65041901838757,-156.59747576832274,128.15230527145113,901.0984863888391,159.74929759372472,293.5441846262877,984.0796863758491
230,6.61152231227514,-241.2132151451871,-156.17228132548573,130.34534529438648,881.9544036992152,157.8825546470356,290.8045701269411,963.7589558651905
231,6.961890050470421,-239.00508762345777,-155.35499495706705,133.17085844123122,860.7816661208644,155.267672716906,288.128405724178,940.9352823885635
232,7.165126636989312,-237.02392066738125,-154.1888163318619,136.43868423714892,837.6718418619806,151.8946654962961,285.53220681062976,915.6699659692586
233,7.2173635615160325,-235.26380240739644,-152.71932437083981,139.94151294188637,812.7367665747277,147.7600032754162,283.0296546159112,888.0515917713832
234,7.121592538699077,-233.71521121568423,-150.99327940368826,143.46549795670518,786.1081884395959,142.86677778689133,280.63132171449485,858.1978826574925
235,6.887446617193361,-232.36526777079723,-149.0575160786637,146.80043808282622,757.9369304634919,137.22485627348428,278.3444926217581,826.2570565859155
236,6.530629877838325,-231.19805881125453,-146.95794509939032,149.74906172342017,728.391485109179,130.85103611436546,276.1730905453231,792.4085044939983
237,6.072031944946475,-230.19503463572934,-144.7386763154867,152.1350236273107,697.65597808705,123.7692003141288,274.1177169847832,756.8626268158062
238,5.536581620757446,-229.33547846184314,-142.4412702677997,153.80931822681873,665.9274732233358,116.01046270766152,272.1758060153445,719.8597091617027
239,4.951908051870725,-228.597042112617,-140.10411990396594,154.6549166156993,633.4126352870054,107.61328143833595,270.34188988654813,681.6677755886388
240,4.346887270988274,-227.95633922097053,-137.761959151558,154.58954144961925,600.3238172750745,98.62351120945468,268.60796726631116,642.5794249587158
241,3.750156440618714,-227.3895840804064,-135.4454910166596,153.56660008838261,566.8746870947707,89.09435967446295,266.963960422907,602.9077248767461
242,3.1886777708432823,-226.87326123677641,-133.18112550680667,151.57439512963865,533.2755505639939,79.08621164327397,265.3982432503352,562.9813014469445
243,2.6864292312450413,-226.38480785329523,-130.9908172047752,148.63381657504397,499.72855925016165,68.66628690156215,263.8982186133454,523.1388153243029
244,2.2632901901304145,-225.90328787276354,-128.89199349097967,144.79478509469786,466.42301042618476,57.90810338006856,262.45092115574704,483.7230505255578
245,1.9341774003711445,-225.41003425923583,-126.89756660099839,140.13175703449318,433.53095101497723,46.89072668502242,261.0436204649861,445.07485946629413
246,1.7084709695578486,-224.8892335527324,-125.01602509523507,134.7386179325082,401.2032873944335,35.69779854143707,259.66439929082327,407.5272051896779
247,1.589752131327205,-224.32842622361383,-123.25160213014874,128.72328459789816,369.56657892741106,24.416348947833185,258.30268242338695,371.3995213530468
248,1.5758560743624055,-223.71889739578847,-121.60451862013984,122.20231065217794,338.72065692279796,13.135408289897862,256.9496938861872,336.99257560343733
249,1.659225169707258,-223.05593566770756,-120.07129877089723,115.29575203259114,308.7371656925378,1.9444456687917773,255.59882325296624,304.58397721603353
250,1.8275319770999783,-222.33894296797735,-118.64515367269868,108.1225023594595,279.65907284007983,-9.068331388175121,254.2458860601025,274.4244207468124
251,2.064528440363829,-221.57138535327556,-117.31642599851571,100.79625771473692,251.5011466359164,-19.817772378247415,252.88926830142998,246.7347092026168
252,2.3510682311318556,-220.7605828594261,-116.07308576731228,93.4222198698933,224.25135349418048,-30.22362348213318,251.5299506010014,221.70355702154404
253,2.6662432947950534,-219.91734527142947,-114.90126404287308,86.09459897820639,197.87309119934744,-40.21235441246135,250.1714135406636,199.4861377450188
254,2.9885730412132485,-219.05546924284837,-113.7858087745785,78.89493288533053,172.3081452414328,-49.718911437633444,248.8194314099515,180.20331503244046
255,3.297184996536008,-218.19111980084847,-112.71084510299309,71.89120139616011,147.48023655509175,-58.688334192125595,247.48176691402475,163.94147872533043
256,3.5729288614842596,-217.34212526126782,-111.66032158929274,65.13768044816089,123.29901822595298,-67.07717543231075,246.16778373389397,150.7528990870359
257,3.7993716699590134,-216.52721860766914,-110.61852410267468,58.675453298201724,99.66437499483304,-74.85466692998827,244.88799712470592,140.65651055971045
258,3.9636298434888464,-215.76526042876284,-109.5705404709301,52.53347353979034,76.47088127416255,-82.0035800790189,243.65358497919874,133.6390395663108
259,4.057003739879539,-215.07447858373695,-108.5026613054101,46.73005814425647,53.612279405718915,-88.52073576954986,242.4758829266545,129.65639741442067
260,4.075390884056877,-214.4717578334435,-107.40270550793885,41.27467815769532,30.985848237334075,-94.41712544881223,241.36588692938753,128.63526839667966
261,4.019464710632044,-213.9720087948282,-106.26026270452475,36.16991069243922,8.49654084815961,-99.71761615700201,240.33378539750504,130.47483493643063
262,3.8946160701494192,-213.58764005348507,-105.06684895416761,31.413418580113955,-13.939221805080344,-104.46022818844037,239.38854017262364,135.04859656309128
263,3.710665001387137,-213.3281506362928,-103.81597619844763,26.999833081378707,-36.39020699311242,-108.69499367384358,238.53753211836386,142.2062569474102
264,3.4813603092537546,-213.19985294588568,-102.50313975713594,22.922429699156126,-58.90757268702883,-112.48242419035347,237.78628289469694,151.77567103262342
265,3.223693909698052,-213.20572927448956,-101.12573151952472,19.174506883990222,-81.52270053154558,-115.89163213966685,237.1382601255313,163.56486018798768
266,2.9570650465850234,-213.34541854263614,-99.68288911644305,15.750401783531782,-104.24572688552041,-118.99816310908899,236.59476876849888,177.3641161561874
267,2.7023357282923617,-213.6153242249257,-98.1752930576435,12.646105346715416,-127.06481945843669,-121.88160548503122,236.1549271718328,192.94822396518572
268,2.480822682024992,-214.00882981773358,-96.60492445886517,9.85946962507044,-149.946224589525,-124.62304987740242,235.8157222831272,210.0788391622539
269,2.3132726397215544,-214.51660493968816,-94.97479569500284,7.39003115749358,-172.8350862769982,-127.30247453394195,235.57213512730186,228.507054604614
270,2.218866920005669,-215.12698334610576,-93.28866546157943,5.238503865282345,-195.65701367959525,-129.99613417675863,235.4173253413577,247.97618612792613
271,2.214298288236776,-215.82639370155962,-91.5507486891834,3.406020861661978,-218.3203499570435,-132.77402925879244,235.34286240996985,268.2247951616637
272,2.312958290511838,-216.59982469174457,-89.76543083025707,1.8932248929981623,-240.71907263686958,-135.69753071671477,235.33899128256894,288.9899505149946
273,2.524267027452377,-217.43130768320978,-87.9369954484939,0.6993198013990384,-262.7362345175422,-138.81723104822314,235.3949211219742,310.01071182588544
274,2.8531700423258304,-218.30440224997258,-86.0693738414299,-0.17880107596662484,-284.2478348683142,-142.17108465570735,235.4991276828848,331.0317947570946
275,3.29981906179355,-219.20267201670396,-84.16592529162617,-0.7472399678897523,-305.12699418305084,-145.7828881633908,235.63966168421453,351.80735508991796
276,3.859445107806294,-220.11014013986338,-82.22925578988568,-1.0154993029481758,-325.24829316259957,-149.66113566209788,235.80445700423343,372.1048082911589
277,4.522424243584872,-221.0117153950998,-80.26108120350062,-0.9965353720561773,-344.4921294928629,-153.7982678072881,235.9816334334406,391.7085863066665
278,5.2745283007128805,-221.8935813634934,-78.2621382167938,-0.7064184505267608,-362.7489461539976,-158.17032272109518,236.15978924785915,410.4237278005094
279,6.097346122182182,-222.7435424730853,-76.23214393836084,-0.16358588045537711,-379.92319329750444,-162.736994619244,236.32827916942955,428.07920344847093
280,6.968855968054697,-223.5513214398801,-74.16980342160127,0.6122980436768678,-395.93690053085186,-167.44211075848176,236.4774733144794,444.5308913193286
281,7.864126951257763,-224.30880309391137,-72.07286318990074,1.6018369229806746,-410.7327541344718,-172.21454078125734,236.59899252867498,459.6641324277572
282,8.756126087493477,-225.01022015180172,-69.93820776118253,2.7876908884190543,-424.2765913643018,-176.96954794813342,236.6859154095519,473.3958082073484
283,9.616606839523344,-225.65227758827433,-67.76199516558309,4.1565771883117595,-436.5592409517671,-181.61057834885943,236.73295271985876,485.6758893782768
284,10.41705424140601,-226.23421383474403,-65.5398267486097,5.701382358204435,-447.5976559335273,-186.03146565480785,236.73658584030065,496.48841155749756
285,11.129660629594717,-226.75779880240987,-63.26694610479096,7.423271061908633,-457.4353025684302,-190.11900908837603,236.69516711173318,505.85183876081936
286,11.728304917909732,-227.22727047489388,-60.938461756496665,9.333667550511958,-466.1417874454926,-193.75586328573297,236.6089811595327,513.8187825757963
287,12.189507513617205,-227.6492135201543,-58.549588536623396,11.455982587974487,-473.8117240547953,-196.8236623217994,236.48026766149655,520.4750530807797
288,12.493332489892456,-228.03238505191354,-56.09590390525382,13.82696176835665,-480.56286022103006,-199.20628837167584,236.31320763690445,525.938028630542
289,12.624208605995884,-228.38749420694697,-53.57361726419544,16.49754025367161,-486.5335088528792,-200.79319010153702,236.1138769848022,530.3543463132495
290,12.571641461807241,-228.72694338764347,-50.97985184960622,19.533103590482497,-491.87934599630387,-201.4826571978173,235.890172247369,533.8969331805126
291,12.330790729758274,-229.06453981780504,-48.3129394406051,23.013073495364004,-496.76966109298314,-201.18496381531108,235.6517142569237,536.7614188703164
292,11.902889044076566,-229.41518669805504,-45.57272795680069,27.029760325634626,-501.3831630513867,-199.82530301099206,235.40973569302767,539.1619908919885
293,11.295482657746383,-229.7945638561063,-42.76090127045027,31.686449875827158,-505.9034609411468,-197.34644560585872,235.17695884312627,541.3267732908164
294,10.522478402484275,-230.21880811429858,-39.88130947674121,37.09472119022592,-510.5143492865123,-193.7110706743971,234.96746986318107,543.4928274378251
295,9.603986892663091,-230.70420326131708,-36.940306657971654,43.37102375408432,-515.3950348854326,-188.9037303878932,234.79659527506482,545.9008898496045
296,8.565958336246013,-231.26688840713732,-33.94709184462762,50.632574763041234,-520.7154444855158,-182.93242668510842,234.68078523478255,548.7899745304292
297,7.439614588596149,-231.92259177974506,-30.91404715471717,58.9926675402101,-526.6317501267102,-175.8297881361827,234.6375063713015,552.391974228828
298,6.260688785818987,-232.68639488698417,-27.857064705082596,68.5555091669094,-533.2822414791958,-167.6538409584082,234.68514484521017,556.9263953005619
299,5.068491438397251,-233.5725295691548,-24.79585082887123,79.41072968521834,-540.7836624879568,-158.48836925564444,234.84291780783727,562.5953553772054
300,3.9048286428571535,-234.59420796125733,-21.754192697094542,91.62772849027989,-549.228113798057,-148.44285813055632,235.13078880509602,569.578963452437
301,2.8128035852012054,-235.76348292312002,-18.760169087440623,105.25004667618191,-558.6806036348407,-137.65201097543388,235.56938005750663,578.0311898454356
302,1.835536577278057,-237.0911341848851,-15.846284309164885,120.28997637896241,-569.1773090056638,-126.27482979589529,236.17987213404265,588.0763197145802
303,1.0148416182647706,-238.58657336355398,-13.049502757482074,136.7236373120064,-580.7245872419522,-114.49324533590129,236.9838794933189,599.8060688210676
304,0.3898990528019042,-240.25775926096284,-10.411161694975668,154.4867635570834,-593.2987558593812,-102.51028268641979,238.00328891406588,613.2774242550877
305,-0.00403574255310889,-242.1111136880274,-7.976741755467269,173.47144693087537,-606.8466371895952,-90.54774880189778,239.26004725676813,628.5112559606405
306,-0.1368486250550928,-244.15142777286587,-5.795478101096946,193.52407422984436,-621.2868438977243,-78.84343172247935,240.77588558323825,645.4917274409416
307,0.015329063222280587,-246.3817495920584,-3.919799841555364,214.44467304901957,-636.5117629843214,-67.64780792851222,242.57196868283867,664.1665165558092
308,0.4691622830363023,-248.80324620235012,-2.4045910502988987,235.98784479890426,-652.390179725177,-57.220264546189895,244.6684626844738,684.4478404928848
309,1.2333305756367752,-251.41503669124987,-1.306273188630894,257.865415152645,-668.7704696897842,-47.8248572127184,247.08401858219588,706.2142633792342
310,2.3079492823424865,-254.21399733622408,-0.6817154984317023,279.7508731301209,-685.4842768231432,-39.72564190273466,249.8351757325766,729.3132508722983
311,3.6842157829340914,-257.19454477896335,-0.5869865891615084,301.2856024115299,-702.350588514446,-33.18163878227904,252.9356960525272,753.564423123399
312,5.344297961170184,-260.34840767648234,-1.0759669411500707,322.08683474814933,-719.1801139562953,-28.441506567798314,256.3958461194163,778.7634447887145
313,7.261476565043231,-263.66440104863733,-2.198848388633144,341.757178491669,-735.7798688078419,-25.738025373780385,260.22165009129907,804.6864770158371
314,9.400546811785697,-267.128220083569,-4.000552864783068,359.8954986694508,-751.9578661074969,-25.282503478993842,264.41414087046064,831.0951006039795
315,11.718477541782653,-270.72227127106436,-6.519108884159055,376.10885216610666,-767.5278099793763,-27.259238013290503,268.96863996250374,857.7416017409241
316,14.165318664269941,-274.4255584300357,-9.784030375430392,390.0251157383286,-782.3136852726135,-31.820170642334453,273.8740979849662,884.3744929392661
317,16.685339889713863,-278.21363969556126,-13.814748171907453,401.30588872395344,-796.1541340321361,-39.07988640763887,279.1125278645153,910.7441241161241
318,19.218376172892615,-282.0586692070674,-18.619149129105008,409.65920884528515,-808.9065102550934,-49.11110657448886,284.65856168674003,936.6082247692199
319,21.701348273675848,-285.92953455520046,-24.19228099870161,414.85159045019617,-820.4505093005577,-61.94082436603142,290.4791602953396,961.7372103640321
320,24.069920817151385,-289.79209835385603,-30.51528255468113,416.7188817067885,-830.6912785275347,-77.54722563545205,296.53350236796933,985.9190861953389
321,26.26025554753574,-293.6095497236839,-37.55459773678594,415.1754425507563,-839.5619311085916,-95.85752480228757,302.7730768865269,1008.9637909919516
322,28.2108140364485,-297.34286897951125,-45.261529310352614,410.2211704359378,-847.0254041433404,-116.74682985234932,309.14199957185633,1030.7068401573133
323,29.864161496030192,-300.95140624483525,-53.57218129524696,401.9459476056344,-853.0756228121238,-140.03812896910935,315.5775697221235,1051.0121535103385
324,31.168721346370962,-304.3935715887594,-62.40783002034924,390.53115234942015,-857.7379515859174,-165.50346528366543,322.01107843815157,1069.7739827481635
325,32.08042901121901,-307.6276298086497,-71.6757513353267,376.2479672746177,-861.068928990351,-192.8663348973037,328.3688716284416,1086.917887438027
326,32.564233391735506,-310.6125864425914,-81.27051672918346,359.4523288014747,-863.1552925825665,-221.80530645084917,334.57366073533535,1102.4007431872612
327,32.59539578737807,-313.30914277332687,-91.07575436897443,340.5764916300026,-864.1123052593834,-251.9588185005826,340.5460605972739,1116.2097999586556
328,32.16053880825259,-315.68068709738066,-100.96635269730109,320.1173262301881,-864.0813933308434,-282.93106544788344,346.2063178750607,1128.3608403440944
329,31.258402200604518,-317.6942789103997,-110.81106423370976,298.6216212770785,-863.2271020761865,-314.2988368081186,351.4761765449815,1138.8955145201016
330,29.900268735166517,-319.32157402677933,-120.47544562184778,276.6688196644459,-861.7333672324223,-345.6191323424093,356.28081124382845,1147.87794780082
331,28.110031726839175,-320.5396341516734,-129.82504740518473,254.85176864080807,-859.7990931146488,-376.4373414231725,360.55074702066474,1155.3907260117267
332,25.923886631876297,-321.33156569363524,-138.7287453710464,233.75620382845642,-857.6330231101133,-406.29575256884374,364.22367731964374,1161.5303631434397
333,23.38964241477779,-321.68694031532857,-147.06208760851578,213.9398050865884,-855.4478913879954,-434.7421503795923,367.2460921640045,1166.4023477675823
334,20.565663268093523,-321.60196323437356,-154.71052101888301,195.91174935737223,-853.4538632201217,-461.33826234034507,369.57463590872015,1170.1158556973976
335,17.519466387631937,-321.079372856739,-161.5723603657234,180.11372905126703,-851.8513135043463,-485.66783580875824,371.17712792859413,1172.7782153463938
336,14.326015094857649,-320.128074786685,-167.5613728817498,166.90338974076803,-850.8230647778637,-507.34415347365274,372.0331989318544,1174.4892292441316
337,11.065757311434266,-318.762532645268,-172.60887109070094,156.54105580398667,-850.5263063097019,-526.0168300564909,372.13451870660657,1175.3354974523324
338,7.822467034895989,-317.00195582783647,-176.6652337279417,149.18045319675852,-851.0845330651434,-541.3777694764339,371.4846163051968,1175.3849548801627
339,4.680952068169337,-314.86933892451384,-179.7008065836657,144.86391331289428,-852.5799541712684,-553.1661954244597,370.09831891386943,1174.681910868892
340,1.7246961663460945,-312.3904177025061,-181.70616849917076,143.522272016316,-855.046895334893,-561.1726959807658,368.0008585112008,1173.2429418113757
341,-0.9664916557982431,-309.59261122900875,-182.69177937442413,144.97939243459479,-858.4667326658051,-565.2422438162531,365.2267133437249,1171.054010616676
342,-3.318744808550674,-306.5040183129585,-182.6870542250535,148.96096972024756,-862.764834672494,-565.2761693312407,361.81826221084367,1168.0691540865673
343,-5.266248090337854,-303.15252901519773,-181.73892851822586,155.10704759626444,-867.8098612274819,-561.233077505803,357.8243326379381,1164.2109889425758
344,-6.753116503989639,-299.5650992531053,-179.90999497630497,162.98750844156154,-873.4155945603799,-553.1287125629312,353.29871966583573,1159.3731519961075
345,-7.734980526597096,-295.7672199563966,-177.27630144950865,172.11969724489515,-879.345286558833,-541.0347892242487,348.2987417988652,1153.4246323555935
346,-8.180225179689959,-291.7825938872507,-173.92490423376148,181.9872994638375,-885.3183265288366,-525.0768260608768,342.8838868712656,1146.2157989306809
347,-8.070842954198024,-287.63301541267174,-169.9512719312099,192.05960168705815,-891.0188851249779,-505.43103513004627,337.11458544727964,1137.5857959990813
348,-7.402874916426016,-283.33843315992493,-165.45663182312438,201.81031067152693,-896.1060853864465,-482.32034196173976,331.05113462888613,1127.3708866842198
349,-6.186429742068712,-278.9171638838884,-160.54534393687243,210.7351838554416,-900.2251935897215,-456.0096299293279,324.7527820243126,1115.413274435251
350,-4.445286317954155,-274.3862187012909,-155.3223781063728,218.3678290991966,-903.0193064111307,-426.8003220518586,318.27696899977263,1101.5699249975958
351,-2.21610105089076,-269.76170025220637,-149.8909573510123,224.29315932654012,-904.1410276903415,-395.02443031219104,311.6787247794925,1085.7209398167067
352,0.4527447248122941,-265.059230891588,-144.35041801417964,228.1581325924877,-903.2636679192409,-361.03821645015904,305.01019857106496,1067.7770870978097
353,3.502609576484747,-260.2943767050582,-138.79432444488864,229.6795607678298,-900.0915541913971,-325.21561754471435,298.32031523406897,1047.6861687685823
354,6.866311674779052,-255.48303879921454,-133.3088645344101,228.64891980885318,-894.3691022935618,-287.9415933372558,291.6545403895026,1025.4379813640335
355,10.470039315178783,-250.64179086300558,-127.97154264858959,224.93423118301297,-885.8883727848844,-249.60554960616366,285.05474254601774,1001.067709530557
356,14.235384746765309,-245.7881494809225,-122.8501782304029,218.47919959991853,-874.4949071882658,-210.59498326594903,278.55914192960387,974.6576679112788
357,18.081433484555813,-240.94077024993925,-118.00221088691538,209.29988275466619,-860.0917165733548,-171.28948119201883,272.2023373037278,946.3373780020656
358,21.926843709181302,-236.11956782852403,-113.47430551097021,197.4792342875175,-842.6413701070866,-132.05518732583744,266.01540249725645,916.2820297849931
359,25.691854905108745,-231.3457614707713,-109.30224382868114,183.15990426425756,-822.1662027278995,-93.23983265714133,260.02604352858305,884.7094328868144
360,29.300170985331665,-226.64184956441963,-105.51108208792516,166.5357057225174,-798.7467265619086,-55.1684013161739,254.25880551995246,851.8756083708795
361,32.6806704688998,-222.03151753393402,-102.11554887378475,147.84216430106187,-772.5183883925253,-18.139484156485587,248.73531659044352,818.0692099501937
362,35.76890468207985,-217.53948353920939,-99.12065247332744,127.34656296623396,-743.6668644198172,17.57765032951561,243.47455406878683,783.6049924203537
363,38.508354206938556,-213.19128604201748,-96.52246380338283,105.33787705867793,-712.4221230364334,51.745258325258376,238.49311700154357,748.8165654715441
364,40.85142336372658,-209.01301686138206,-94.30903862297892,82.11696750433141,-679.0515157523437,84.1586052041168,233.8054882589444,714.0486826202431
365,42.76016179338465,-205.03100312648135,-92.46144163746149,57.98736282248907,-643.8521749487112,114.6467568457194,229.42426976791396,679.6493174971687
366,44.20671094152412,-201.27144191839315,-90.9548353490726,33.24691410593942,-607.1430041346714,143.0727147028707,225.36037586474532,645.9617729391115
367,45.173481416263186,-197.75999266297924,-89.75959833010118,8.180552353754518,-569.2565416520813,169.33294044599756,221.62317278898303,613.3170526746104
368,45.653074649240025,-194.52133447208217,-88.84244094884556,-16.945683959111243,-530.5309630387015,193.3563216670042,218.22055684048448,582.0267022253681
369,45.647968700259106,-191.57869815620558,-88.16749096930752,-41.889248950810284,-491.3024620779012,215.10263335983785,215.15896896440032,552.3762971442228
370,45.169993143054505,-188.9533848574656,-87.69732616027909,-66.43428190829519,-451.89821794345204,234.56055203180887,212.44334851543695,524.6197253777858
371,44.23962167638679,-186.66428470103318,-87.39393564853226,-90.39342214000212,-412.6301178253005,251.74528173338186,210.0770330370247,498.97437859770247
372,42.885113509747946,-184.72740953143602,-87.21959615098588,-113.60833531945583,-373.78936288814344,266.69585481334275,208.06161402879886,475.61733628957154
373,41.141535890794906,-183.15545401476302,-87.13765332397263,-135.94909137941767,-335.6420422163662,279.47217455420594,206.39676113281863,454.68259690044306
374,39.04970058842164,-181.9573994424778,-87.11320206171969,-157.31257370116472,-298.4257163716088,290.15187097894096,205.08002913256982,436.2593825070736
375,36.655046773852554,-181.1381744828974,-87.11366265388445,-177.62012626583584,-262.3470109451375,298.82704414798286,204.1066636299109,420.39151726523244
376,34.006501506438546,-180.69838668883028,-87.10925248937589,-196.81465926236402,-227.58018230232938,305.6009712463059,203.46942212815242,407.07785579904396
377,31.155347000340946,-180.63413756291277,-87.0733555338989,-214.8574352065275,-194.266583876901,310.58485546105805,203.15842733163646,396.2737167057153
378,28.154121227547172,-180.93693227676948,-86.9827939404981,-231.7247482456875,-162.51493355375064,313.89469634910716,203.1610686151177,387.89325928412995
379,25.05557533801324,-181.59369271581932,-86.81800772853906,-247.40469033122463,-132.40226259319095,315.648362134551,203.4619657700447,381.8127281520198
380,21.911707737883113,-182.58687947109206,-86.56314945237764,-261.8941709240619,-103.97541519755596,315.96294243915446,204.0430063726254,377.874479271644
381,18.772890206382222,-183.8947248935969,-86.20610119143117,-275.19632402751427,-77.25296547340807,314.9524535822661,204.88346458930832,375.89169043733347
382,15.687096117793788,-185.49157553515002,-85.73842112573345,-287.3183998737203,-52.22742522122318,312.7259563825166,205.9602051481184,375.65364808271966
383,12.699235123328988,-187.3483383818482,-85.15522655524556,-298.2702001510325,-28.8676311833276,309.3861281006193,207.24797182038571,376.93148951094753
384,9.85059339240167,-189.43302147946636,-84.45501951269232,-308.06307636583944,-7.121222212512268,305.02830765923505,208.7197553760388,379.48426556927353
385,7.178374522335936,-191.71135612541698,-83.6394601559333,-316.70947216670874,13.082857990712657,299.74000999667396,210.34723190583273,383.06517471214784
386,4.715333787182737,-194.147484847689,-82.71309222392554,-324.2229543136027,31.831872053293996,293.60088440135723,212.10125886108906,387.427807165615
387,2.4894972832046305,-196.70469682818597,-81.6830244354414,-330.61864595705083,49.22683202994048,286.6830744065695,213.95241323287726,392.3322293719919
388,0.5239574321934857,-199.3461903300453,-80.55857198902306,-335.91395226290757,65.3800764084961,279.05192350994594,215.87155410188006,397.55073577655355
389,-1.163262943729738,-202.0358403514287,-79.35086319315552,-340.1294536704228,80.41287320489013,270.7669612398712,217.83039056034303,402.8730987007428
390,-2.5592843379567416,-204.73894934596328,-78.07241750200667,-343.28983677236187,94.45303750173127,261.88309727197765,219.80203582571923,408.111158245284
391,-3.656386618262381,-207.42295930034234,-76.73670259966103,-345.4247366799386,107.6325531489786,252.45194677775254,221.76152901311443,413.10261283850053
392,-4.451970014493968,-210.05810444857096,-75.35767946835972,-346.5693767577565,120.08519429875025,242.5232079684364,223.68630715974774,417.71389670161017
393,-4.948461541477725,-212.6179852876392,-73.94934547751767,-346.764910232534,131.94415281282767,232.146013991523,225.55661153492915,421.8420626892841
394,-5.1531652761988385,-215.08004657949408,-72.52528627811519,-346.05839188669955,143.3396921430085,221.37018754147485,227.35581421176673,425.41562732593434
395,-5.078053278454845,-217.42594514149752,-71.09824750856119,-344.5023358403428,154.3968656588621,210.2473379779995,229.07065371650137,428.39437825783256
396,-4.739493391336987,-219.6417975858377,-69.67973705756756,-342.1538463870188,165.23335431445634,198.83175487942694,230.69137247198748,430.76818965180433
397,-4.157910934230488,-221.71830323228107,-68.27966816603966,-339.073341301842,175.95749082470417,187.18106483549698,232.21175330956981,432.5549335182578
398,-3.357383105555209,-223.65074229620427,-66.90605326348212,-335.3229185475761,186.66654223401252,175.3566277654637,233.62905678339132,433.79761043107237
399,-2.3651672028245616,-225.438853573369,-65.5647582222005,-330.96444563956805,197.44531941401834,163.4236564985437,234.94386485844885,434.5608502190241
400,-1.211166219100557,-227.08659927082098,-64.25932648362367,-326.0574748011565,208.365171863966,151.45105201562365,236.1598397574087,434.9269526829904
401,0.07266193989119007,-228.6018278030963,-62.99088180580197,-320.65710583528295,219.48341081483898,139.51095894239631,237.2834096293602,434.99165127924283
402,1.4529422543189987,-229.9958485359258,-61.75811684595929,-314.81193163655223,230.84318429605432,127.67806151421976,238.32339539123078,434.85978874838344
403,2.895554563134937,-231.28293537868933,-60.55737255541026,-308.562207170153,242.4738054276903,116.02865689527107,239.29059538133004,434.64109105433045
404,4.366323490452521,-232.47977833237638,-59.38281077566472,-301.93837989922054,254.39151087847569,104.63955683809799,240.1973459747668,434.4462124155013
405,5.831707459267956,-233.604903379872,-58.22667953291698,-294.9601067594913,266.60060209326963,93.58687723838545,241.05707684550663,434.3831986892787
406,7.259466567972797,-234.6780816282094,-57.07966718390046,-287.63585964893633,279.09490022037244,82.94477729369807,241.88387925422984,434.55448065336816
407,8.61928928095091,-235.7197486264054,-55.93133792434466,-279.96318926425806,291.8594292918879,72.78420691799768,242.6921048862167,435.0544670443159
408,9.88335944250431,-236.75045432093896,-54.77063772034041,-271.92967848741995,304.8722327640814,63.17171475132664,243.49601151821227,435.96776464214554
409,11.026847667546908,-237.79036297519554,-53.58645685384042,-263.51457447195145,318.1062262639751,54.16836104542756,244.3094700625758,437.368013381348
410,12.028314354621342,-238.85882032366615,-52.36823304067748,-254.6910459550516,331.5309934466939,45.828770841342504,245.14574510100462,439.3172908236278
411,12.870015271065503,-239.97400213276956,-51.10657734229174,-245.428971545343,345.11444078462137,38.20035402735832,246.0173577343176,441.8660132665867
412,13.538104812932843,-241.15265420653634,-49.793903756882216,-235.69812816170506,358.8242393928862,31.322711005394083,246.93603542720317,445.05324058028475
413,14.022736449280796,-242.4099287583487,-48.425042490315306,-225.47161906678176,372.62899663818416,25.227236579233903,247.91274856104178,448.90727905317806
414,14.318064116065148,-243.7593160739457,-46.99781659755377,-214.72936077156143,386.49911691532117,19.936930629625557,248.95782771506,453.4464719917287
415,14.422151884388612,-245.21266381535358,-45.513562068861745,-203.46143957533369,400.40732937627234,15.466421716037825,250.08114954019646,458.68007218708
416,14.336801669451757,-246.78026971246268,-43.97757259467664,-191.67115234181634,414.3288797172452,11.822207532561134,251.29237298331293,464.60910301663057
417,14.067310058395348,-248.47102745821846,-42.39945219298069,-179.3775613702633,428.24140191933,9.003112273655073,252.60120224052895,471.22713390268
418,13.622165883021491,-250.2926010931587,-40.79336146877876,-166.61741786643887,442.1245028021184,7.00095426404505,254.01764887379926,478.5209186747846
419,13.012700409318972,-252.25160070174846,-39.17814613421544,-153.44634007123358,455.9591066771904,5.801407833823582,255.5522636268674,486.4708698978912
420,12.25270228008778,-254.35373229130357,-37.577339146869484,-139.93916790580678,469.72661885276455,5.385032426251867,257.2163090078455,495.05136637000794
421,11.358009637600768,-256.6038973001325,-36.019030232430495,-126.18945337646706,483.40797479731776,5.728430625604924,259.0218466595724,504.23091266813066
422,10.346091867306072,-259.00622179587924,-34.5355987213174,-112.30808268729467,496.9826460553641,6.805486571320445,260.9817184529112,513.9721870714021
423,9.235632859107483,-261.5640012831835,-33.163307706023666,-98.42106052562511,510.4276743908168,8.588628514587057,263.1094063649456,524.2320263659531
424,8.046126678396378,-264.2795534065831,-31.94175963652434,-84.66651847351837,523.7168022114967,11.05005532325444,265.4187628587644,534.9614025929891
425,6.797495489913185,-267.15397724541714,-30.913215781331118,-71.19103737250849,536.8197604459756,14.162867220554485,267.923610257002,546.1054479302722
426,5.509738796754518,-270.18682408779193,-30.12178478147386,-58.14539718158283,549.7017653264934,17.9020457959217,270.6372142968491,557.6035802025463
427,4.202622506170265,-273.3756903483195,-29.61248910187688,-45.67988716397495,562.3232637843083,22.245236506315994,273.57164352571266,569.3897739253376
428,2.895415786724855,-276.7157485341126,-29.430222616915824,-33.9393244731295,574.6399542180259,27.173297335720004,276.7370323268353,581.3930114345923
429,1.6066829217272518,-280.19923681351275,-29.618617644097057,-23.057941196839707,586.6030961281314,32.6705888254958,280.14077106576735,593.5379368079269
430,0.3541361061247333,-283.8149317285712,-30.218845049780793,-13.15430947077149,598.160109513829,38.72499228104727,283.7866519868117,605.7457232471854
431,-0.8454470513687252,-287.54763177951867,-31.26837609001496,-4.326481862171636,609.2554539255209,45.327653796472084,287.67400385908644,617.9351534749254
432,-1.9762410061039906,-291.3776819355962,-32.799738924204114,3.352470227794365,619.8317681349394,52.47246142767148,291.79685184847614,630.0239030868628
433,-3.0233290502689374,-295.28057066404773,-34.83930592826012,9.838334727833544,629.8312443388306,60.15527151730732,296.14314169881044,641.9300086238426
434,-3.9726090298720327,-299.2266318283475,-37.40615000692205,15.11886995320754,639.1972049398246,68.37290836424015,300.69406902960776,653.5734948441299
435,-4.810663132214991,-303.1808835643872,-40.511009231712876,19.215972713857028,647.8758443513078,77.1219698170846,305.423555164174,664.878128665655
436,-5.524612085650544,-307.1030346230417,-44.15539941046053,22.186742690092245,655.818092120104,86.39748061969836,310.2979099891099,675.7732600266547
437,-6.101978749853701,-310.9476853199216,-48.330913418558666,24.123304927602845,662.9815461940537,96.19144576965385,315.27571949910765,686.1957020544523
438,-6.5305896418456095,-314.66474490695975,-53.018743820377146,25.15128266136949,669.3324156032015,106.49136706422763,320.3079905457565,696.091593878841
439,-6.7985446418590145,-318.2000796921207,-58.18946106581029,25.42685148235079,674.8473995973376,117.27879531853488,325.33857760936803,705.4181787245125
440,-6.894284015740004,-321.4963965174956,-63.80307325059602,25.13235426774209,679.5154156832077,128.52799572710515,330.30490604895544,714.1454179139389
441,-6.806777248184783,-324.49435452582895,-69.8093852190959,24.470514666234628,683.3390737408968,140.2048024066325,335.1389935517625,722.2573496739592
442,-6.525849771158417,-327.13388526161566,-76.1486648597761,23.65735372580058,686.3357804091147,152.26572953255476,339.76875721356396,729.7530925284744
443,-6.042651893258146,-329.35568820204776,-82.75261298368491,22.913986080476576,688.5383505823312,164.65739129997004,344.11957898968285,736.6473889072636
444,-5.350260101131923,-331.1028569252362,-89.54562052066987,22.457544716027904,689.9950041046728,177.31626313853602,348.1160882591441,742.9705871765448
445,-4.4443858523713935,-332.32258111304714,-96.44628362324573,22.491552556742707,690.7686375476832,190.16879502316024,351.6841077091102,748.7679706726248
446,-3.324152610745589,-332.96786196217465,-103.36913473771635,23.196121038067126,690.9352841336494,203.1318671855116,354.75269820170473,754.0983608588684
447,-1.992889748360171,-332.9991736463501,-110.22653706851442,24.718406020810434,690.5817092107316,216.1135610605159,357.2562301849188,759.0319481749202
448,-0.4588833989588004,-332.386001354749,-116.93068224936464,27.16378416021899,689.8021333546562,229.014204881922,359.13640394696296,763.6473380351733
449,1.2639797015210747,-331.10818721582046,-123.39562703176381,30.588221563609714,688.6941290229217,241.72764417168122,360.3441389717629,768.02784065226
450,3.1557385671504696,-329.1570194112496,-129.5393041952561,34.99228554948592,687.3537982961215,254.14268213418563,360.8412542991448,772.2570822945949
451,5.190112189223471,-326.5360074211999,-135.28544478721759,40.3171970926177,685.8704064351257,266.1446330843095,360.6018675112704,776.4140722583384
452,7.334529458691968,-323.26129771704205,-140.56535217578823,46.44323834834182,684.320714962475,277.61693292834804,359.6134497109203,780.5679222050377
453,9.550468812172445,-319.36169876809544,-145.31947268042845,53.19072317671111,682.7633222496867,288.4427539586945,357.8774870317153,784.77247678639
454,11.794124423892166,-314.8783007788686,-149.49871295077733,60.32361803852522,681.2333695673793,298.50657657545446,355.409714878564,789.0611668142833
455,14.017395887762747,-309.86369269263713,-153.0654615553274,67.55577509460419,679.7379950603315,307.6956780129851,352.2399082178771,793.442427122284
456,16.169176987867836,-304.38079550569466,-155.99428204103575,74.55961562175396,678.2529079611157,315.90150799835976,348.4112289423899,797.8960217880289
457,18.19689813185585,-298.5013462394245,-158.2722570347704,80.97698389230322,676.7204071138691,323.02093371273133,343.9791490069573,802.3705866754705
458,20.04825848072671,-292.3040808592473,-159.89897716405014,86.43178169338148,675.0490855255682,328.95735090378287,339.00998520934303,806.7826367394204
459,21.673069725506473,-285.8726768520934,-160.88618353232994,90.54389456477429,673.1153563283902,333.6216726590309,333.5790975357116,811.0172003753993
460,23.025125019206197,-279.293526716211,-161.25708653450917,92.94383805341259,670.766818041645,336.93321944378005,327.7688169260638,814.9301433885439
461,24.064003887069138,-272.65342186046644,-161.04539526115835,93.28749379094076,667.8273600205883,338.8205410825315,321.6661791539285,818.3521389181976
462,24.756726302338517,-266.0372319281398,-160.29409975065454,91.27027915167676,664.1038006788101,339.2222023190287,315.360548661269,821.0941352703632
463,25.079175620450513,-259.52566677301587,-159.05405313189627,86.64010585650476,659.3937563521632,338.0875587980824,308.9412194320744,822.9540798257615
464,25.017220163189563,-253.19320660030536,-157.38240310156178,79.20853251131156,653.4943608060514,335.37754102729326,302.49507939316396,823.7245818527698
465,24.56747679800586,-247.10627984441044,-155.3409230538257,68.85959924580935,646.211397608842,331.0654516634516,296.1044207643604,823.2011455115637
466,23.737676666765086,-241.32175832360565,-152.99429301299082,55.55594177142815,637.3683733581836,325.1377679289831,289.84497172089607,821.1905788267436
467,22.54661251622146,-235.88582547954874,-150.40837938350705,39.341909012593554,626.8150519296105,317.59492762221555,283.78421496241265,817.5191846390646
468,21.02366747956909,-230.83325668826419,-147.64856034831413,20.343545652479726,614.4349899814371,308.45206539135995,277.9800464413088,812.0403636557018
469,19.207945015545324,-226.1871316337053,-144.77814055205886,-1.2345576743248863,600.1516615752932,297.73965681127123,272.47981287643506,804.6413047581328
470,17.147037603218674,-221.95897873429283,-141.85689468273253,-25.11540380587383,583.9328327156718,285.5040221894738,267.31975035076573,795.2484996033229
471,14.895486817193888,-218.14933186929238,-138.93977491879377,-50.95844244072022,565.7929407037117,271.807640448362,262.52482909772647,783.8318918528582
472,12.512999234665319,-214.74866136483746,-136.0758120669943,-78.37074220267743,545.79334264178,256.72922591584296,258.1089924805053,770.4075495744336
473,10.06249123607262,-211.73862538423617,-133.3072346174761,-106.91998632918792,524.0404153691661,240.36352694299427,254.07576209539073,755.0388256423089
474,7.6080411683241875,-209.09357530957288,-130.66882389642652,-136.14872318740717,500.6816082559283,222.82081422131074,250.41916670646273,737.8360392415443
475,5.21282948109683,-206.78223996292505,-128.18751703568685,-165.58925959242663,475.8996633222333,204.22603773406405,247.12494104910763,718.954767452117
476,2.937146232378757,-204.7695088865006,-125.88226260779206,-194.77857410202395,449.905317032262,184.71764369218727,244.17193192786414,698.5928769440602
477,0.8365407923128927,-203.01823432845865,-123.76412639309488,-223.27264830200463,422.9288783269997,164.4460557854072,241.53364365107132,676.9864515059384
478,-1.0398191376031356,-201.49097471184504,-121.83663679058039,-250.659663520942,395.2111326649012,143.57183787723466,239.17985258622653,654.4047826812888
479,-2.6505225006512774,-200.15160872040047,-120.09635113948914,-276.57158378744214,366.9940487310034,122.26356728133129,237.07822135389077,631.1445912163906
480,-3.962979692952605,-198.9667582652387,-118.53361637514426,-300.69373767765325,338.5117623726969,100.69545853638665,235.19584687415963,607.5236407743723
481,-4.954146909331477,-197.9069701004224,-117.13349079571341,-322.7721161785609,309.982283067969,79.04478697594419,233.50068310320964,583.8738972856448
482,-5.610894189656024,-196.94761934814065,-115.87678879096816,-342.6182149002179,281.600315598171,57.48916960741445,231.96278865120482,560.5343812939146
483,-5.930015767358661,-196.06951322102432,-114.74120722895508,-360.11136113203935,253.53151847591272,36.20376825598969,230.55536108476846,537.8438588249741
484,-5.917895297045127,-195.25918907547745,-113.70249052321674,-375.1985741101674,225.9084362548511,15.35848637611981,229.25553275218158,516.1335188237191
485,-5.589851639921348,-194.50891650328643,-112.73559095487732,-387.8921059063818,198.8282500334784,-4.884764809463168,228.04491628036544,495.7197906218716
486,-4.969202634523508,-193.81642724595045,-111.81578157710366,-398.2648965007326,172.3523938437083,-24.374654588396094,226.9099003257639,476.8974605572465
487,-4.086094160780289,-193.18440837982735,-110.9196811379693,-406.4442461880075,146.50798863239987,-42.97280297866108,225.84170694286047,459.933249519666
488,-2.976149435869165,-192.6198030010785,-110.02615417829756,-412.6040587611291,121.29095453577459,-60.55586825408046,224.83623080013723,445.06000996020265
489,-1.6789986867491709,-192.13296833772083,-109.11705504612793,-416.9560388681784,96.67058014739796,-77.01729824947363,223.8936874682459,432.4716901847405
490,-0.23675199003517688,-191.7367437567211,-108.17779203024327,-419.7402373669249,72.59525798414154,-92.26870563452812,223.0181032044111,422.31919568312526
491,1.3075220748865635,-191.44548055886824,-107.19769674748996,-421.21533155295276,48.99904140398357,-106.24084302572467,222.21668202557547,414.7072532993813
492,2.9112523886705106,-191.27408196900976,-106.17019357263285,-421.6490055573864,25.808642880422436,-118.88416992586134,221.4990872933033,409.6923562678721
493,4.533702112050026,-191.23709579110255,-105.09277343490636,-421.3087627570005,2.9504797734775257,-130.1690173833996,220.87667452981253,407.28183852419113
494,6.137140645948438,-191.34789454148614,-103.96678506981974,-420.4534592529848,-19.6426167769546,-140.08536577342284,220.36171002798298,407.434097112911
495,7.687814655165135,-191.61796938441418,-102.79706443638744,-419.32579774189924,-42.02538236192062,-148.64225631926126,219.9666065258785,410.0599536898725
496,9.15669271737999,-192.05635572251313,-101.59142921665159,-418.14596674100613,-64.23509086441081,-155.8668599331186,219.70320331640775,415.02512119762116
497,10.51996927467309,-192.66920051100428,-100.36006973788751,-417.1065532615418,-86.28775350972049,-161.80322980837562,219.58211398684574,422.1537196847365
498,11.759324717138934,-193.45947463713495,-99.11486995168586,-416.3687994357503,-108.17570746716366,-166.5107680620449,219.6121606414256,431.2327645576944
499,12.861949235269213,-194.42682809248538,-97.86869226736431,-416.0602169236238,-129.86667755022978,-170.0624416581774,219.79990899811514,442.01752939577653
500,13.820348151929137,-195.56758105766755,-96.63465849612689,-416.27351900975077,-151.3043164130583,-172.54278822334436,220.1493142879886,454.2376625091324
501,14.631955342410292,-196.87484032094412,-95.42545646188317,-417.06678142491216,-172.41015464490962,-174.04575731622444,220.66148359332766,467.6039117166711
502,15.298588623775643,-198.33872764741648,-94.25269833129164,-418.4647015127627,-193.08682543023002,-174.67243643282697,221.33455627689864,481.8152868402989
503,15.82578626374662,-199.94670478380397,-93.12635261425885,-420.460793423978,-213.22237146987104,-174.52871296642957,222.163700549225,496.56646657090045
504,16.222066731334976,-201.68397857006,-92.05426732672278,-423.02033574815397,-232.69539650859915,-173.7229232523624,223.1412209683368,511.555238328561
505,16.498154308884466,-203.53396886545676,-91.04179728137656,-426.08387765243424,-251.38079124900088,-172.3635377938599,224.2567686804789,526.4897488664561
506,16.666211236372305,-205.47882148692912,-90.09154411467082,-429.57110964236284,-269.15574424029967,-170.55692832959537,225.49764346131542,541.0953414121582
507,16.739112993335574,-207.4999480288201,-89.20321360339673,-433.38491436593995,-285.9057427772333,-168.40525871221527,226.84917414877103,555.1207632702946
508,16.729797739143162,-209.57857422293642,-88.37359110339179,-437.41542994358304,-301.53027681937607,-166.00453881455115,228.29516186895788,568.3435464454482
509,16.65071442964231,-211.6962783610709,-87.59663248346898,-441.54398132057844,-315.94797957384606,-163.4428789607702,229.8183685022048,580.574392192402
510,16.513387101149345,-213.83550132115505,-86.86366462916729,-445.6467620187466,-329.10096998887195,-160.7989805933747,231.40103116656758,591.6604264690593
511,16.328105619486255,-215.98001013010784,-86.16368647232309,-449.5981772153806,-340.9582028404081,-158.1408959663983,233.0253823203219,601.4872345445276
512,16.103746349157483,-218.11529810153706,-85.48375870460313,-453.2737873186068,-351.5176789071576,-155.52508510988312,234.67415476625087,609.9796269584176
513,15.847720150448513,-220.22890682093816,-84.8094679681519,-456.55281765733724,-360.80741833051957,-152.99579178982913,236.33105180160075,617.1011332871162
514,15.566039953253728,-222.3106588285868,-84.12544942755304,-459.32022367499826,-368.8851525786071,-150.58475173949546,237.981165206804,622.8522631277585
515,15.263495743953868,-224.35279449011026,-83.41595028804377,-461.4683217169672,-375.83674326533713,-148.3112370948287,239.6113274598929,627.2676147360553
516,14.94392097871321,-226.35001158417973,-82.66541616523186,-462.89801304633215,-381.77338836377635,-146.18243210697855,241.21038891870455,630.4119505228281
517,14.610531058105616,-228.29941097679338,-81.85908231798622,-463.5196431599261,-386.82772638353623,-144.19412741270764,242.7694151877017,632.375394225498
518,14.266311497583363,-230.2003561619386,-80.9835525515618,-463.25354986858474,-391.14899451796987,-142.33171315243183,244.2818042302132,633.2679355009068
519,13.914431030551931,-232.05425845776222,-80.02734983726467,-462.0303619866582,-394.8974352722227,-140.57144468659064,245.74332694721804,633.2134523539039
520,13.558653603094008,-233.86430322025961,-78.98142415184412,-459.79111585997487,-398.2381758465749,-138.88194859883984,247.15209882828313,632.343479054471
521,13.203723499719006,-235.6351353060162,-77.8396046862543,-456.48725929180875,-401.3348245004704,-137.2259313771756,248.50849364886335,630.79095634634
522,12.855699684856184,-237.37252379295327,-76.59898550546649,-452.0806114860254,-404.34303790775886,-135.56204890250083,249.81501271100595,628.6842015171526
523,12.522218453057976,-239.0830263922247,-75.26023598812498,-446.5433430730808,-407.4043132807872,-133.84689169952625,251.0761245420117,626.1413281705206
524,12.212667127679623,-240.77367308754512,-73.8278298461189,-439.85803186098815,-410.64024915915854,-132.03703859115407,252.29809023608317,623.2653293169064
525,11.938255476151422,-242.45168656869325,-72.31018904843872,-432.0178377258215,-414.1474997029189,-130.09112958468066,253.48878888924045,620.1400129199924
526,11.711975634251024,-244.124254219744,-70.71974131753767,-423.02682447909666,-417.9936198138169,-127.97190727450716,254.65755597123902,616.8269469556793
527,11.548445687103255,-245.79836289125592,-69.07289177541809,-412.90043834481014,-422.21396357052953,-125.64817481884978,255.815045024867,613.3635325017839
528,11.463636584195246,-247.48070349545154,-67.38991061708877,-401.66613273187943,-426.80975785217015,-123.09661786934011,256.9731197883513,609.7622798955883
529,11.474486617242743,-249.17764771039253,-65.69473939237906,-389.36410832830444,-431.7474283933234,-120.30343788459658,258.1447797872924,606.0113162861371
530,11.598412163593114,-250.89529386548682,-64.01471882565873,-376.04811726028913,-436.9592086227416,-117.26574505188835,259.3441178070333,602.0761046749159
531,11.852727777222967,-252.6395735324608,-62.380241472807,-361.78626113834764,-442.3450141216821,-113.99266051360304,260.586302672685,597.9023063285354
532,12.253992952496256,-254.41640470306672,-60.82433314765082,-346.6616960925744,-447.77551881506974,-110.5060797678446,261.88757573790815,593.4196716161066
533,12.817306853448544,-256.23187205983,-59.3821678698972,-330.77314418571,-453.0963243202053,-106.8410522472555,263.2652447406508,588.5468002043115
534,13.555575721282484,-258.0924101331514,-58.090521887760886,-314.235100812533,-458.13307263217666,-103.0457371081226,264.73765453643466,583.196571912915
535,14.478780154682507,-260.0049614832801,-56.98717309731059,-297.1776230445517,-462.6973165769589,-99.18090414799117,266.3241110295547,577.2820171494291
536,15.593270739130562,-261.9770799798488,-56.110253055885664,-279.74558581254945,-466.5929348675317,-95.31896355047382,268.0447329367089,570.7223741347431
537,16.901120699021856,-264.01694955495185,-55.49755973267319,-262.09730264414907,-469.622861567778,-91.54252863842638,269.92020661127555,563.4490717222073
538,18.3995636219725,-266.13329227934554,-55.18583985573753,-244.4024259666741,-471.5958946344535,-87.94253867791383,271.9714227756571,555.4113821009773
539,20.08054285324667,-268.3351465886968,-55.210049946395884,-226.8390683722293,-472.3333550970223,-84.61598987331976,274.21898093934675,546.581506046928
540,21.930396694425028,-270.63150655812296,-55.60260497174322,-209.59011966162677,-471.6753863557178,-81.66333992184396,276.6825571398131,536.9588829637278
541,23.929700068304587,-273.03082522516934,-56.392623385323,-192.83877361116578,-469.48670967203816,-79.18566484614888,279.3801424683998,526.5735563920791
542,26.05327907817597,-275.540397609247,-57.60517760952946,-176.76332202090308,-465.661683460917,-77.2816566478213,282.3271722672834,515.4884695889643
543,28.270410180629124,-278.16565065936334,-59.2605600719746,-161.53132073375437,-460.1285461375811,-76.04455663653104,285.5355773900068,503.8006112587814
544,30.545210663246564,-280.9093765334117,-61.37357681763083,-147.2932818377688,-452.8527513331507,-75.55912236868478,289.0127981931644,491.6409749856457
545,32.83722167362496,-283.7709516206046,-63.95288316450173,-134.1760961066998,-443.83932838786376,-75.89872683312922,292.76080815474285,479.1733348696993
546,35.10217885822891,-286.74558649062857,-67.00037825242798,-122.27643648438669,-433.13422076776135,-77.12268777076831,296.7751969737062,466.59187333708263
547,37.292958481564554,-289.8236518671289,-70.5106771564315,-111.65443283223595,-420.8245732997079,-79.27392310188878,301.0443629377352,454.11772584437614
548,39.36067882933493,-292.990123255415,-74.47068039973249,-102.32793613351355,-407.03795972246934,-82.37702467874185,305.54886168998144,441.9945333402599
549,41.25592833433678,-296.22418236379445,-78.85926141529484,-94.26770364033898,-391.9405679291348,-86.43683536590461,310.2609536993652,430.48311910488644
550,42.93008412469664,-299.4990071909101,-83.64709300690896,-87.39383293175986,-375.734391761999,-91.43760168230453,315.1443860919428,419.85543276815395
551,44.336678561525886,-302.78177487265583,-88.79663420805377,-81.57375150798043,-358.65351243541176,-97.34275424927552,320.1544363870827,410.3879293893885
552,45.43276751904709,-306.03389250649434,-94.2622988493127,-76.62202938302656,-340.9595843494066,-104.09534084359939,325.23823652670035,402.35457201396736
553,46.18025297961079,-309.21146175205087,-99.99082599205511,-72.30222614150856,-322.9366635437493,-111.61910365951724,330.3353858436704,396.01965826788427
554,46.54711396738112,-312.2659736159071,-105.9218694195379,-68.33091310764111,-304.8855282950048,-119.82015681034716,335.3788516955848,391.63067280773396
555,46.508503766795194,-315.1452209990144,-111.98881804522753,-64.38392858089564,-287.1176391830429,-128.58918633705576,340.296146781679,389.41135765799925
556,46.04767752418329,-317.79440875008993,-118.11985122833201,-60.10483296908476,-269.9488720838054,-137.80406708990952,345.01076301694457,389.5551738600913
557,45.15672223731569,-320.1574342502749,-124.2392227806476,-55.11543449789687,-253.6931359400023,-147.33277199980913,349.4438333307158,392.2193042912639
558,43.83706989970807,-322.17830566389426,-130.2687553642355,-49.02815797353743,-238.65596283467343,-157.03644133992364,353.51598451752193,397.51932332852294
559,42.09978304760275,-323.8026595042183,-136.1295136866213,-41.45993124614418,-225.12813560780478,-166.772482954708,357.1493358011667,405.52463778022667
560,39.965609222776884,-324.9793339156825,-141.7436114111905,-32.04716866848342,-213.3794014902018,-176.3975879651054,360.269588994689,416.25478689908533
561,37.464806430554574,-325.6619492464412,-147.03609439820542,-20.461340470917385,-203.65231079261062,-185.7705677809865,362.8081475548312,429.6766767129499
562,34.63674547824482,-325.810443411773,-151.93683322793214,-6.424535479952781,-196.15621813332714,-194.75494415621287,364.70419427785333,445.70281273341067
563,31.529297329955426,-325.39250652070547,-156.3823520370246,10.275642040503307,-191.06149017170242,-203.22125079149617,365.9066516881677,464.1905818816171
564,28.198014639325617,-324.38485751636506,-160.31751909129005,29.772544587080386,-188.49397877592955,-211.04902875570673,366.3759460194231,484.94261686651487
565,24.705116908700372,-322.7743056328599,-163.69702729306334,52.10903829889513,-188.52984270652044,-218.1285154153515,366.085495776319,507.70825499993964
566,21.118289062953508,-320.55854214542876,-166.48659966406586,77.2288329803258,-191.19083445658205,-224.36203584584382,365.0228500469115,532.1860830889503
567,17.509304652663076,-317.7466142175064,-168.66386522556326,104.97120071768083,-196.44021027059244,-229.66510733315513,363.1904108841944,558.0275472881013
568,13.952488314873753,-314.3590433751142,-170.21886407397295,135.0695772622827,-204.17946600012036,-233.9672639990234,360.6056887347392,584.8416066648338
569,10.523037886732828,-310.42756628705166,-171.1541563294031,167.1543734815009,-214.24614156068847,-237.21260296089736,357.3010598996694,612.2004215204436
570,7.295234393503771,-305.99449415094415,-171.48452752386063,200.7601201073392,-226.41296248165565,-239.36004848516464,353.32301928665663,639.6460856147751
571,4.340577178918975,-301.1117072238234,-171.236302335162,235.33684101174285,-240.38858883818415,-240.38332810998926,348.7309483032794,666.6984240848019
572,1.725890509166769,-295.8393205918174,-170.4462984495444,270.265314876091,-255.82021317830484,-240.27065562150972,343.5954441181467,692.8638731058377
573,-0.48854420286555983,-290.24407415166166,-169.16047108083396,304.87566082532226,-272.2981885070036,-239.0241202508249,337.99628001130424,717.6454218341877
574,-2.2507707103687897,-284.39751283344685,-167.43231412891316,338.46848908553443,-289.36277951652335,-236.65878922665533,332.02008499744704,740.5535260376689
575,-3.5187916773944488,-278.3740319716914,-165.32109448761793,370.33770923675246,-306.51302443431723,-233.2015413871924,325.75784319184527,761.1178004867423
576,-4.261990080179734,-272.2488674158384,-162.890001041556,399.7939965064264,-323.2175822815699,-228.68966224630938,319.30231926859045,778.8991798938953
577,-4.462276836829362,-266.0961105108406,-160.2042894727389,426.18788376737496,-338.92733060695855,-223.16924460974997,312.7455160302459,793.5021286784428
578,-4.114909185387403,-259.98682460256924,-157.32949830028417,448.93147096138034,-353.0893780777926,-216.69345199242738,306.1762639302576,804.5863982494823
579,-3.228934185097001,-253.98733253173108,-154.32980103553828,467.51781980344145,-365.16206771281736,-209.32071299984062,299.67803100465244,811.8777888535042
580,-1.8272252593818448,-248.15773417765809,-151.26654500076563,481.537224606086,-374.6304715696128,-201.11292192071915,293.3270261292643,815.1773754454337
581,0.05390377087991162,-242.55070018684302,-148.19701087039127,490.68971383314107,-381.02181847939227,-192.13372275584013,287.1906501938378,814.3687023509389
582,2.365504347378877,-237.2105734006765,-145.17341025390414,494.79333324366877,-383.92025718371457,-182.4469501145687,281.3263301336961,809.422535049086
583,5.047197102069236,-232.1727941104538,-142.24212347652818,493.78797867059086,-382.98034435037397,-172.11529113707485,275.78075115088893,800.3988718770531
584,8.028735516633027,-227.46365006970197,-139.44316758376908,487.73476998118144,-377.93866712359903,-161.19921911707343,270.58948409799626,787.4460544086136
585,11.231876441808712,-223.10033810581632,-136.80987632891228,476.81117136669815,-368.62306712121006,-149.75623352707902,265.7769889277998,770.7969618912276
586,14.572493541463198,-219.09131210733088,-134.3687695201381,461.30225139936346,-354.9590261178681,-137.84042408298214,261.3569621636532,750.7624212830962
587,17.96286193255087,-215.43688294843142,-132.13958784071806,441.5886274637712,-336.9728968330121,-125.50235908765148,257.33298698712616,727.7221000477421
588,21.31403766814761,-212.13002994031254,-130.1354699384014,418.1317470565043,-314.79180582939654,-112.78928106372052,253.69943867191844,702.1132665066833
589,24.5382541605457,-209.15738035718016,-128.3632501934625,391.4572226984498,-288.64020930907407,-99.74557643139129,250.44259509425862,674.4178978688012
590,27.551258982018727,-206.50031269207545,-126.82385754716472,362.1369613848283,-258.83323691368645,-86.41347200606316,247.54190112914074,645.1486865441544
591,30.27451844380479,-204.13613978310246,-125.51279780690967,330.77081863464343,-225.7671045194584,-72.83390078398578,244.97133624941614,614.8345385025416
592,32.637223678201885,-202.03932928513728,-124.42070363785895,297.96846647360263,-189.9070060882898,-59.04747365664071,242.70083611236763,584.0061698959643
593,34.57804037480227,-200.18272082007152,-123.53393765175889,264.33209951190884,-151.77299946844835,-45.09549210504896,240.69772098606734,553.1823862441967
594,36.04655446951591,-198.53870133353144,-122.83523438213001,230.44051972944467,-111.9244758297993,-31.02093851709099,238.92808628927568,522.8575694439435
595,37.00437744372936,-197.08030269684042,-122.30436653916036,196.8350451867296,-70.94384371605308,-16.86938442474308,237.35811325864233,493.49080191229916
596,37.42588702637133,-195.78218863167243,-121.91882012381386,164.0075868070187,-29.420065845686146,-2.689762126015252,235.9552611066421,465.4969304771763
597,37.29859178338071,-194.62150199235487,-121.65446231603977,132.3911354718784,12.06733820994376,11.465048098447651,234.6893065512752,439.2397295139232
598,36.62312111053295,-193.57854863419772,-121.48618611295505,102.35280194617427,52.96326350346622,25.537854362410048,233.5332027548293,415.02718345839105
599,35.41285499500059,-192.63730051389174,-121.38851686454211,74.18945597657707,92.75048139339742,39.46704174837008,232.4637375137038,393.10879177389273
600,33.69321979090294,-191.78570796749298,-121.33616823127697,48.12591890372383,130.96120024730413,53.18672932978963,231.46197952180583,373.6747147919201
601,31.500686443465217,-191.01581885274112,-121.30453840851918,24.315577187844912,167.18643701657476,66.6271983790312,230.5135109903214,356.8565271672639
602,28.881515664145567,-190.32371004561028,-121.27014111194474,2.843204222235039,201.0830185383108,79.71558076242923,229.60845411812153,342.72932187431974
603,25.89030035632091,-189.70924426184814,-121.2109690989433,-16.27029254444239,232.37813689328016,92.37678380013557,228.74130718221036,331.3149050369422
604,22.588359145221006,-189.1756719648765,-121.10679050682621,-33.061539725037285,260.8714825759313,104.53461749156973,227.91061288882497,322.5858341576627
605,19.042036240900153,-188.7291040232016,-120.93938001168674,-47.61716347309746,286.4350685988455,116.11308245916894,227.11848699724706,316.47007368486646
606,15.320962081365284,-188.3778856302339,-120.69268798634106,-60.06545669237228,309.0109342128078,127.03777106717062,226.3700391612751,312.8560668753152
607,11.496326360990029,-188.1319054089619,-120.35295173410066,-70.56765271926612,328.6069761500919,137.2373281703908,225.67272032405418,311.5980476612048
608,7.6392104800700755,-188.0018751289866,-119.90875365911192,-79.30918873517011,345.2911978995886,146.644911529526,225.03563164412492,312.5214395666775
609,3.8190206357080156,-187.99861486111547,-119.3510319310768,-86.49130180557613,359.1846948996948,155.1995866309124,224.46882877626336,315.42821150782504
610,0.10205609533349921,-188.13237579572694,-118.67304976040487,-92.32324565221214,370.4537073945471,162.84758865505745,223.98265253634423,320.1020836012845
611,-3.4497600748548836,-188.41222863929056,-117.87032970917905,-97.01535151614462,379.3010744992358,169.54338757555433,223.58711278087483,326.3135003283238
612,-6.779967997249174,-188.8455398486326,-116.94055938560021,-100.77308628936147,385.9574143201529,175.25050228100258,223.29134698266668,333.8243136221226
613,-9.838462834437967,-189.4375514411969,-115.88347436870255,-103.79219063001172,390.6723376217702,179.94202682803407,223.10316884932894,342.39214445124185
614,-12.582184699825604,-190.19107340757967,-114.70072338503093,-106.25491456838974,393.7059781908052,183.60085561159934,223.02871600622268,351.77441728107993
615,-14.975605110485985,-191.10629169050202,-113.39571963816817,-108.32731270052768,395.32109242620874,186.21962131112727,223.0721999629485,361.7320848477421
616,-16.99101360265761,-192.18068992275386,-111.97348071809469,-110.1575173402407,395.77594317819916,187.80038447982278,223.23575681532685,372.0330764769088
617,-18.608613399943867,-193.40907968846744,-110.44045785683207,-111.87487494518012,395.3181376948803,188.35413051402787,223.51939352417378,382.4555070684016
618,-19.816440063847796,-194.78373157127416,-108.80435384518907,-113.58980676745105,394.179537831907,187.9001351406959,223.92102196941377,392.7906746123466
619,-20.610121289786846,-196.29459726040164,-107.0739279371627,-115.39423821339963,392.57230605001513,186.4652546135182,224.43657101916733,402.8458553735068
620,-20.99249916213649,-197.92961128215865,-105.2587855475449,-117.36243324790986,390.68609757332973,184.0831853676254,225.0601653475868,412.4468836802043
621,-20.97313830632328,-199.6750593582509,-103.36915048283056,-119.55207048826527,388.686360797301,180.79372381246716,225.78435852678493,421.44048251845106
622,-20.567744537777063,-201.51599882582693,-101.4156179888698,-122.00540556724101,386.71366663716543,176.6420429316439,226.60040694846884,429.69629463487803
623,-19.797518662686944,-203.43671498947947,-99.4088883142214,-124.75037876033153,384.8839541140724,171.67799010031493,227.4985704993471,437.10855295518604
624,-18.6884688582155,-205.421195865169,-97.35948291351119,-127.80154716193681,383.2895547892992,165.95540119536236,228.46842578617657,443.59732477853316
625,-17.270702622644443,-207.45360667626161,-95.27744864418236,-131.16074687355925,382.0008433239616,159.5314206202915,229.4991781073578,449.1092674914611
626,-15.577715952983596,-209.5187448356036,-93.17205882228691,-134.81742274858118,381.06835601620367,152.46581586629316,230.57995920739054,453.6178453691642
627,-13.645693544148914,-211.60245624890936,-91.05152321652166,-138.74860046173018,380.5252234724692,144.8202781427225,231.7000991044546,457.12297704121164
628,-11.512829765643026,-213.6919948136581,-88.92272153453497,-142.91851609975248,380.38977615334403,136.6577055288722,232.8493619681483,459.65010905926266
629,-9.218676351986076,-215.77630897826725,-86.7909764054147,-147.27795927760565,380.66820014827067,128.04147000915896,234.01813807993364,461.2487393494341
630,-6.803519528706699,-217.8462421190201,-84.6598821094807,-151.76342397350845,381.35714313308296,119.03467424617276,235.1975862771998,461.9904424789856
631,-4.307786933312081,-219.89463734578888,-82.53120432192623,-156.29619417502508,382.4461953617118,109.69940906719707,236.37972406503445,461.96647490882356
632,-1.7714831936552866,-221.91634223719757,-80.4048641155179,-160.7815167384351,383.92019569815653,100.09602887145043,237.55746596205384,461.2850607941082
633,0.7663477834444083,-223.90811481061445,-78.2790167512309,-165.10802963492256,385.76133553185633,90.28246828607205,238.72461466400418,460.06847472581836
634,3.2681360490106526,-225.86843835511021,-76.15023259557655,-169.14761864963947,387.9510516100086,80.31362763992352,239.87581398813,458.45004469132954
635,5.698276354187733,-227.79725901782336,-74.01378377595671,-172.75586918951493,390.471711017116,70.24085646516365,241.006476761069,456.5711955910591
636,8.023597453635912,-229.6956656551702,-71.86403575998541,-175.77326247301872,393.30809744683063,60.111563733922814,242.1127042502157,454.57864153245094
637,10.21380942259771,-231.565535969351,-69.69493800859298,-178.027237577627,396.44870813456197,49.96898163982155,243.1912159936772,452.6218154336671
638,12.241926293397094,-233.40917596154094,-67.5006026446003,-179.33520314358384,399.8868666768171,39.85210683401705,244.2393097058016,450.85059937266124
639,14.08465878814277,-235.22898091597563,-65.27595525349349,-179.5085357060662,403.62165019414766,29.795839072291717,245.25487015374762,449.4133910538502
640,15.722769176740691,-237.0271452757052,-63.017437876243186,-178.3575469598206,407.65862150211325,19.831331920977263,246.2364434195836,448.45551298204094
641,17.14137757429615,-238.80544580484155,-60.72374111224601,-175.69734203938958,412.0103491852038,9.986563224796848,247.1833887564391,448.1179430702777
642,18.33020664453461,-240.56511729285427,-58.39654003595893,-171.3544286546901,416.69669120405086,0.28712444788846664,248.09611427793453,448.5363194785281
643,19.283750005715177,-242.30683271466054,-56.041207295520024,-165.17387710935088,421.7448110940486,-9.242781931408048,248.97639497320492,449.8401491827591
644,20.00134896098063,-244.03079050091543,-53.66747620712618,-157.02677828813074,427.18889012632604,-18.57915861748105,249.82776230916798,452.1521298607022
645,20.48716295397033,-245.7369012000005,-51.2900267707201,-146.81770421600515,433.06949457033966,-27.69687625864592,250.6559447819841,455.5874793594583
646,20.750021831169093,-247.4250554967405,-48.92896819822797,-134.49184632471503,439.4325558982176,-36.56822721832385,251.46932938261546,460.25315840762335
647,20.803152642585772,-249.09544654351825,-46.61019258575039,-120.0414918315498,446.32792609590314,-45.16142596540903,252.27940624035685,466.24687351592655
648,20.663779917143533,-250.74891303266912,-44.365575552684724,-103.51149954788308,453.8074835819696,-53.43912184307778,253.10115375160856,473.6557616407792
649,20.352605511260865,-252.38726635974137,-42.233000991042445,-85.00345312621552,461.9227902133147,-61.35699812814095,253.95332014476688,482.5546884517567
650,19.893181798057242,-254.01356606128283,-40.256188826812895,-64.67820190030086,470.7223366095733,-68.86253646711175,254.85856013420224,493.0041375621883
651,19.31119978670512,-255.63231213795197,-38.48430729491202,-42.75654646035045,480.2484580890913,-75.8940275121443,255.84339180816852,505.04772495142925
652,18.63372105283507,-257.2495298505171,-36.97135495925991,-19.517886718588326,490.53405004263107,-82.37990712354377,256.9379481466938,518.7094338076319
653,17.888387895887004,-258.87273080532293,-35.77530288755166,4.7032775725404266,501.5992510324397,-88.23849326217598,258.1755082502512,533.9907210780618
654,17.102648660030738,-260.51074258604604,-34.95699440011781,29.52302255027641,513.4482865583267,-93.37819150714503,259.59180443465675,550.8676896031745
655,16.303034143689697,-262.1734072432583,-34.5788087485919,54.51579298531883,526.0666715548311,-97.69822619032011,261.22411224264965,569.2885429143465
656,15.514516885468565,-263.87115634138195,-34.70310550976736,79.22416123316351,539.4189544337148,-101.08993856570473,263.11014085063806,589.1715408904168
657,14.759978751341789,-265.6144768503171,-35.39047764819553,103.17031036190005,553.4471524668552,-103.43867288983054,265.2867510984409,610.4036535216183
658,14.059804594790624,-267.4132879386296,-36.697852336374076,125.86891341860913,568.0699825957188,-104.62624614189453,267.78853728652996,632.8400694611678
659,13.431611587889291,-269.2762537820222,-38.6764890619716,146.8410048851784,583.1829399347888,-104.53396833185649,270.6463169142857,656.3046609063528
660,12.890115678624506,-271.21006196852494,-41.369933768774374,165.62837866927498,598.6592253738543,-103.04614947537117,273.88557964670144,680.5914441704034
661,12.447128853469632,-273.21870093906983,-44.8119953653937,181.80800266982425,614.3514801450629,-100.05399846081981,277.524952849781,705.4670148434459
662,12.11167366985939,-275.3027729208945,-49.02481656755874,195.0059154650284,630.0942533804929,-95.45979065732152,281.5747456960341,730.6738855325373
663,11.890195036020165,-277.4588806325293,-54.017114460123814,204.91006756620214,645.7071098578465,-89.18115760501219,286.03563666246123,755.9346176328887
664,11.78684360211273,-279.6791263016955,-59.78266721403039,211.2815884001427,660.9982772288528,-81.15533535417113,290.89756978489515,780.9566171589669
665,11.803800462620536,-281.95075997589475,-66.29912198207512,213.96399986993805,675.7687303227651,-71.34319903662379,296.1389229577269,805.4374554785875
666,11.941609227673908,-284.25601055158137,-73.52719499165062,212.8899560923958,689.8166089504415,-59.73291034120562,301.726006630144,829.0705740289696
667,12.199479120445872,-286.57212724951495,-81.41032792477917,208.0851643979985,702.9418602989603,-46.34301150447118,307.6129432006772,851.5512330644168
668,12.575522046728144,-288.8716512604827,-89.87485425633791,199.66923285243985,714.9509850844881,-31.224813774155123,313.7419659900868,872.5825651542855
669,13.066888230448075,-291.1229268903688,-98.83071472465475,187.8532929276253,725.6617484151126,-14.463949516494171,320.04416173780004,891.8815936306498
670,13.669769781201225,-293.290848803423,-108.17274234505862,172.93436133720786,734.9076944557015,3.8190152816032428,326.4406622248197,909.1850753314247
671,14.379250092047874,-295.3378271601245,-117.78251482725875,155.28653090199356,742.542282663001,23.46897771090576,332.8442693049016,924.2550274393885
672,15.188989602285426,-297.22493626494855,-127.53074704068725,135.34921377923465,748.442447403119,44.29773398376001,339.1614742608173,936.8838013688179
673,16.09075512962476,-298.91319621354944,-137.2801697306583,113.61279659428037,752.5113770654206,66.08644074058022,345.294808637267,946.8985730129313
674,17.073819907534794,-300.3649231175664,-146.888814391938,90.6021989852582,754.6803178638053,88.5890410193791,351.1454417368558,954.1651279874688
675,18.12428288740479,-301.5450740982487,-156.2135992888032,66.85894671623655,754.9092348590423,111.53654933174865,356.61592196583257,958.5908324003293
676,19.224376083397527,-302.42251001843596,-165.11408949749801,42.9224701841543,753.1862098388071,134.642051106639,361.61294671019306,960.1266940810156
677,20.351844638996845,-302.9711023585713,-173.45628636459307,19.311412762094264,749.5255211625157,157.60624179619867,366.05003916900444,958.7684361566778
678,21.479493031670057,-303.1706201665813,-181.11629099302985,-3.4942238150333402,743.9644300593415,180.12331219501684,369.850010916384,954.5565239664048
679,22.574990327072154,-303.0073473689083,-187.98368433396467,-25.069262953594052,736.558784554984,201.88697946846327,372.9470962603478,947.5751069713032
680,23.601016555306337,-302.47439837558386,-193.96447486808304,-45.05706718770557,727.3776391103407,222.59646714270292,375.2886591685769,937.9498603033142
681,24.515811098962793,-301.5717193898636,-198.98348443836903,-63.18007023648765,716.4971690694312,241.96225012951916,376.8363958809349,925.8447396924951
682,25.274153739814032,-300.305782969103,-202.98607270139462,-79.24655729926823,703.9942292492976,259.71140083661686,377.566985766433,911.4577051184424
683,25.82877258048534,-298.68900302156607,-205.93913842144687,-93.1533234787423,689.9399606568005,275.5923981421893,377.4721775446339,895.0155279741631
684,26.132134670629448,-296.73891504020986,-207.83137784280365,-104.88408856196664,674.3938822318789,289.3792916949704,376.55833418384344,876.7678730163371
685,26.13853915486706,-294.47718033392243,-208.67282231143227,-114.50382475439149,657.3989081371229,300.87514880730544,374.8454932144078,856.9809298098767
686,25.806402216701503,-291.92848223221813,-208.49371454448215,-122.14943458318099,638.9776982150339,309.9147480068531,372.36602568507544,835.9309392970213
687,25.100600023764347,-289.1193862054522,-207.34281179206846,-128.01746502560582,619.1306757047521,316.3665178365137,369.1629937090393,813.8979946260841
688,23.994722243930518,-286.07723425788515,-205.28522321915705,-132.34972825281972,597.8359342570706,320.1337468520885,365.2883126795812,791.1604714015988
689,22.47308641539209,-282.82913698027056,-202.39989882539408,-135.41779885609094,575.0511158587901,321.1551087323033,360.800821039637,767.9903590302129
690,20.532373393973156,-279.4011153871119,-198.77688949010954,-137.50737024483306,550.7171890006449,319.40455658944654,355.7643506221814,744.6496418063336
691,18.182765554603737,-275.81743077522185,-194.51449352017738,-138.90339163693997,524.7639105698938,314.89064599868493,350.2458769323828,721.3877469475322
692,15.448500298975032,-272.10012586241686,-189.71639548736266,-139.87678901654505,497.116631013257,307.6553488065405,344.313813510728,698.439963814757
693,12.36778872021199,-268.2687856506294,-184.48888940129055,-140.67341393019848,467.7040105388971,297.7724198608326,338.0364990370844,676.026658947975
694,8.992089608003681,-264.3405128698521,-178.9382619958677,-141.50567523376097,436.46615910033887,285.3453765548405,331.4809109129979,654.3530692981816
695,5.384769035440142,-260.3301012346558,-173.16839509098386,-142.54710225775912,403.36269468887826,270.50514706553656,324.7116251697337,633.6094478729135
696,1.619212602098855,-256.2503803261476,-167.27863050642256,-143.92987637583525,368.3802303087489,253.40743844861004,317.7900298492448,613.9713542287114
697,-2.2235115423735072,-252.1126985722851,-161.36192802848186,-145.74516703151644,331.53884580866804,234.22987168755444,310.7737873845558,595.5999170796301
698,-6.057317622572761,-247.92750537563904,-155.50333665954102,-148.04593391624664,292.8971717391823,213.16892872312778,303.7165308296385,578.641938607543
699,-9.793959947368604,-243.70498998521458,-149.7787911753449,-150.85172262412024,252.5558032027095,190.43675724235894,296.6677691872108,563.2297534742006
700,-13.34594390325622,-239.45573349732683,-144.25423877211654,-154.15489464133293,210.65886586345025,166.25788243919118,289.6729690340724,549.4807967919421
701,-16.62935531688528,-235.19133165744736,-138.98509327968128,-157.9276952516691,167.39366642522285,140.86587993498586,282.77377380303346,537.496873016428
702,-19.566485607191833,-230.92494988687898,-134.0160066051868,-162.12957068962083,122.98846808234255,114.50006888430788,276.0083189952397,527.3631508513604
703,-22.08814866336983,-226.67177771799368,-129.38093901997584,-166.7141915019149,77.70853044576656,87.40228732743238,269.41160144587724,519.1469366506493
704,-24.13560825591908,-222.4493568427379,-125.1035022683364,-171.63571470408323,31.85063748784719,59.81381182597535,263.01586328598836,512.8962996854902
705,-25.662060126057,-218.27776452594384,-121.19754285783078,-176.85391530523157,-14.263597766380574,31.97247960055534,256.85095585358226,508.63863705706876
706,-26.63363886918553,-214.17964171018716,-117.66792757797293,-182.33793055396515,-60.29531887299143,4.110063512491175,250.94465479976523,506.37927460615225
707,-27.029944620132195,-210.18006248349758,-114.51148939479943,-188.06847998196287,-105.8965463794628,-23.550061573020262,245.32290434001126,506.1002035481052
708,-26.844106928490753,-206.30624850600768,-111.71808953192043,-194.03854303850304,-150.71847575371947,-50.794937562202335,240.0099754707315,507.75905120691914
709,-26.08242201609326,-202.58713826310162,-109.27175095230949,-200.25258628005116,-194.41961311978162,-77.42372038968956,235.02852956927484,511.28837852592727
710,-24.76361411223385,-199.05282646239027,-107.1518196519456,-206.7245269951779,-236.67344342054275,-103.24906541178478,230.39958483658367,516.5953874218734
711,-22.917781406370544,-195.73389359530663,-105.3341130505384,-213.47469433248543,-277.1753734751235,-128.09822387625576,226.14238852573712,523.562108051019
712,-20.5850924246303,-192.66064989794987,-103.79201908567735,-220.52609880005267,-315.6487496891712,-151.81388172791412,222.27420305984785,532.0461204055891
713,-17.814299883768058,-189.86232182765957,-102.49751505566321,-227.90034503444286,-351.84981226049086,-174.25477454057918,218.81001915464577,541.881847247247
714,-14.661137238539894,-187.36621262979378,-101.42208139844526,-235.61352177918494,-385.57150983351494,-195.29610945267993,215.76221385178744,552.8824369494617
715,-11.186659211262581,-185.19687135152995,-100.53749204983488,-243.67237949710147,-416.6461564147647,-214.82981787822501,213.1401756989003,564.842235714861
716,-7.455582276924148,-183.3753064135212,-99.81646953858683,-252.07106360823732,-444.9469627176925,-232.76465343667658,210.94992286268726,577.5398290221871
717,-3.5346746729233884,-181.91828003148933,-99.23319938529352,-260.7886146094114,-470.3885150257032,-249.0261405174161,209.19374225493627,590.7416124433291
718,0.5087619898771942,-180.83771769849952,-98.76370448771414,-269.7873805627519,-492.9263053971639,-263.55637256912513,207.86987817119612,604.2058328005988
719,4.6082861403036555,-180.14026214764746,-98.38608576447399,-279.01241802998607,-512.5554374714401,-276.3136565598303,206.97229706263596,617.6870222176684
720,8.699561150880706,-179.82699393357714,-98.08064016500626,-288.3918894057615,-529.3086422727785,-287.2719999194755,206.4905509936514,630.9407291956376
721,12.72143857675703,-179.89333184582384,-97.82987101285121,-297.8384018389097,-543.2537384620108,-296.4204364872979,206.4097566357312,643.7284314195791
722,16.6168763722195,-180.32911676588614,-97.61840832496047,-307.25117860942544,-554.4906624573475,-303.76218762558256,206.7106998866341,655.8224949167537
723,20.33369679793112,-181.11887301016384,-97.43285818691126,-316.5189100621556,-563.1481779045721,-309.3136552100784,207.37006879835474,667.0110259635877
724,23.82519446396055,-182.24223219539425,-97.2616006291923,-325.5230991697126,-569.3803542298549,-313.1032475749409,208.36080990468625,677.1024496898539
725,27.050608454125697,-183.67449678605163,-97.0945549497262,-334.14169697087897,-573.3628836486915,-315.1700496793476,209.65259586503905,685.9296460592003
726,29.975474198220486,-185.3873142888976,-96.92293013825403,-342.252815739733,-575.2892873428973,-315.56236380711005,211.21238616548848,693.3534810183079
727,32.57187098343221,-187.3494289527007,-96.73897602021192,-349.7383130953856,-575.3670458389221,-314.3361631007265,213.0050578588031,699.2655871234892
728,34.81857970874916,-189.52747602846617,-96.53574814107546,-356.4870583012925,-573.8136768675083,-311.5535126742061,214.99408027821116,703.5902722323523
729,36.70116268422016,-191.88678415888887,-96.30689661684531,-362.39772153391465,-570.8527770817815,-307.2810194154766,217.1422065116145,706.2854657072963
730,38.21197335101117,-194.3921540256839,-96.04648658702386,-367.3809654767351,-566.7100424348163,-301.5883719597908,219.4121551531927,707.3426480995392
731,39.35009954368466,-197.00858547880682,-95.74885578353405,-371.3609630312959,-561.6092854016123,-294.5470281515277,221.76725818720993,706.7857510783836
732,40.12124012015496,-199.70193050199094,-95.40851301777343,-374.2762118174436,-555.7684744659322,-286.22909980724523,224.172054409806,704.6690571743912
733,40.53751184399642,-202.43945524415795,-95.02007977405714,-376.079662124416,-549.3958309810029,-276.7064741372427,226.59281220978113,701.0741708895428
734,40.6171813954095,-205.19030075644827,-94.57827534264668,-376.7382170245293,-542.6860294713114,-266.0501982282273,228.9979705330051,696.1061713610034
735,40.38431638436806,-207.9258386406556,-94.07794409485639,-376.23169886125953,-535.8165588474793,-254.3301388548723,231.35849214305264,689.8890903376648
736,39.86834936343269,-210.6199240259256,-93.5141218067114,-374.55140327012157,-528.9443130978907,-241.6149162508081,233.64812850025046,682.5608865927388
737,39.10355004761982,-213.2490537746325,-92.88213648121756,-371.6983790992154,-522.2024898744545,-227.97209833460155,235.843600401449,674.2681080808356
738,38.12840298947696,-215.79244244442324,-92.17773789753113,-367.6815797926062,-515.6978830704953,-213.46863138673982,237.9247027774668,665.1604454431377
739,36.98489054159049,-218.23203226662142,-91.39724916046418,-362.5160295009747,-509.50866028407194,-198.17147415297177,239.87434565040778,655.3853846796922
740,35.71768389429354,-220.55245616341784,-90.53773294647957,-356.2211364514465,-503.682717460364,-182.14839481199922,241.67854613450524,645.0831632344275
741,34.37324825423335,-222.7409744894012,-89.59716501376892,-348.8192682671657,-498.23670050629534,-165.4688843159795,243.32638841005874,634.3822228089954
742,32.99887184141837,-224.78740662079218,-88.57460781911234,-340.334680362587,-493.15577663422516,-148.20513532048963,244.80996966999317,623.3953342211703
743,31.641632337848645,-226.68407762356895,-87.47037769865213,-330.79286070527314,-488.3942259260034,-130.43303315754423,246.12435000727277,612.2165447336656
744,30.34731866127608,-228.42579791506577,-86.2862000278873,-320.22032376345703,-483.8769056369565,-112.23310399498496,247.26752298004138,600.9190669171844
745,29.159330218073855,-230.0098900530126,-85.02534805672597,-308.64485511388443,-479.5016161413819,-93.69136558045625,248.2404210699488,589.5541912279357
746,28.11757961023982,-231.4362716454671,-83.69276256034088,-296.09617764121873,-475.1423688624419,-74.9000279775659,249.04696638401663,578.1512635207094
747,27.25742756498965,-232.70759710825752,-82.29515084471761,-282.60698197476876,-470.65352424380256,-55.95799557603466,249.6941717821786,566.7187254019692
748,26.608680323159025,-233.82945385365437,-80.84106488982219,-268.21423904263196,-465.87473338775953,-36.971127645606956,250.19229129607427,555.2461715863302
749,26.194679974635864,-234.81060073507186,-79.34095951090629,-252.9606924876492,-460.6365822045268,-18.052223355617016,250.55501152350317,543.7073363532065
750,26.0315175813304,-235.66322862550575,-77.80723240480964,-236.89641412637368,-454.7668034439965,0.6792912893622369,250.79966812000285,532.0638826401882
751,26.1273975734659,-236.40321558443407,-76.25424883377602,-220.0802973931946,-448.09689102432617,19.097983622863847,250.94746428666946,520.2698334137355
752,26.4821797630545,-237.05034306461718,-74.69835442829576,-202.58136237943512,-440.4689236474929,37.07333666701712,251.02366211550498,508.27645653360173
753,27.087122159323208,-237.62843587464442,-73.15787998514787,-184.4797520689338,-431.74238211528063,54.47095554308191,251.05771355823865,496.03739247743846
754,27.924843420579823,-238.16538778245598,-71.6531419014436,-165.8673128158272,-421.80072872671326,71.15402797430804,251.08329618051366,483.51380047481643
755,28.969518227906903,-238.69303708274552,-70.20644070865445,-146.8476726506466,-410.55750945146315,86.98499864669405,251.13822006569976,470.6792941896503
756,30.187312310816544,-239.24686220973848,-68.84205787312095,-127.53575770718253,-397.9617418535608,101.82740859205836,251.2641763137531,457.5244440311607
757,31.53705665147516,-239.86547627616355,-67.58624765487009,-108.0567184899661,-384.00236510021904,115.54784389360482,251.5063043499936,444.06063978168766
758,32.971152911092716,-240.58991063894862,-66.46721664341145,-88.54427198109317,-368.7115530576081,128.0179332917763,251.9125642330757,430.32313398293445
759,34.43669459366311,-241.46269029538004,-65.51507910124717,-69.1385004640962,-352.16672661325754,139.11633239097796,252.5329105542696,416.3731219675285
760,35.87678100109624,-242.52671696463202,-64.76177198981105,-49.98318081974184,-334.49114524710023,148.73063358948016,253.41827537022274,402.2987563268557
761,37.23199371473613,-243.8239879677168,-64.24090994455867,-31.222746098932813,-315.8530082526603,156.75914539434382,254.6193778865457,388.21503933411316
762,38.441998290466714,-245.39418952663843,-63.987557830515925,-12.999001662097356,-296.46305051884605,163.11249180807363,256.18538746081134,374.2625838943048
763,39.44722737973944,-247.27321123374304,-64.037897304238,4.552271099397566,-276.57067423172066,167.71499131254117,258.16247345732324,360.6052800829715
764,40.19059603017106,-249.49163395250557,-64.42876464613657,21.304690587827228,-256.4587143164869,170.50578513868803,260.5922805490171,347.4269491072878
765,40.6191958668384,-252.07324640267453,-65.19704055182099,37.14450804055914,-236.43699014009792,171.43969571182723,263.510371560711,334.92710886145346
766,40.685912510736216,-255.0336465062713,-66.37887883010318,51.973594150681485,-216.83484713824873,170.48780825387908,266.9446824091848,323.31601435051755
767,40.35091027020909,-258.3789826080673,-68.00876987363186,65.71209887738372,-197.9929376007995,167.63778130755722,270.9140355666569,312.8091707052492
768,39.582930100589,-262.10488707591117,-70.11844575968934,78.30072792343441,-180.2545274321531,162.89390496532974,275.42675982116776,303.62154403197974
769,38.360351162600786,-266.19565043271905,-72.73564608452381,89.70260048304065,-163.95664243344336,156.27693810083198,280.47946464148737,295.9617130365702
770,36.671973107880625,-270.62367801924813,-75.88277631128743,99.90466879353409,-149.42138045790165,147.82376698287828,286.05601690139514,290.02620930430004
771,34.51748570195132,-275.34926343089313,-79.57550283186005,108.91868905863548,-136.94771200201066,137.5869361361149,292.12676608412954,285.99428411019255
772,31.907604732542662,-280.3207040225227,-83.82134051222666,116.78173431714477,-126.80406992654268,125.63410669433637,298.6480615675679,284.02331393670255
773,28.863868102462998,-285.47477411648265,-88.6182984831871,123.5562322167221,-119.22198926233058,112.04749606280264,305.5621022747982,284.2450166456697
