time,ax,ay,az,gx,gy,gz,accmagnitude,gccmagnitude
0,-9.90552525942335,-255.0984160459673,-8.07574591591668,-7.6787753602551705,66.90727928923273,-4.8320186486206955,255.41714855735995,67.73270257357015
1,-9.598839425466243,-255.27850959593746,-7.498552576428667,-5.409939497654806,67.1789888368044,-4.163236345245782,255.57813997313048,68.10809380466677
2,-9.299612073248541,-255.45049766845042,-6.925564585394305,-3.1580758040698345,67.45571643305693,-3.507670054094812,255.73134366658473,68.48659833667062
3,-9.011585977979669,-255.61223885741435,-6.361863613999681,-0.94121529417988,67.73782729170507,-2.872046382868628,255.8747981467383,68.86801356529297
4,-8.738290559843827,-255.76176723871092,-5.8122507625516935,1.2233106862237368,68.02563369817004,-2.26269944849074,256.0067083012999,69.25210270727841
5,-8.482952549403976,-255.89734000723564,-5.2811381616461155,3.3192127010984986,68.31936702990124,-1.6854256964790806,256.1254893695641,69.63857921695318
6,-8.248418344102742,-256.0174802919922,-4.772456100953326,5.3315618895993495,68.61915327664572,-1.1453537094663542,256.2298065447537,70.02709836721519
7,-8.037091149810403,-256.12101392901917,-4.289578728236296,7.247077153688875,68.9249934269846,-0.6468329546018384,256.3186090758621,70.41725731765138
8,-7.850884884854022,-256.2070990315915,-3.835270321144383,9.05437419784575,69.2367502227673,-0.19334445195474392,256.3911577680293,70.80860476411699
9,-7.691195469948441,-256.2752472327606,-3.4116529793981796,10.744171070370927,69.55414274436949,0.21256465913623662,256.4470447888701,71.20066088844405
10,-7.5588889889641155,-256.3253356353575,-3.0201953275563382,12.309446258095287,69.87674998054742,0.5693215719090057,256.48620482294126,71.59294774693333
11,-7.454305521222629,-256.3576088540869,-2.6617206919990704,13.745546935082613,70.20402397248895,0.8763429402320387,256.5089169422898,71.98502950100199
12,-7.377277062490685,-256.37267099583437,-2.33643248920684,15.050246605516733,70.5353123783061,1.1340249996687728,256.5157970010797,72.37656108023732
13,-7.327157638471076,-256.3714678822458,-2.0439542760515397,16.223752873661475,70.86988947674537,1.3437096490327958,256.50778080210534,72.76734303107011
14,-7.302863437692458,-256.3552601869651,-1.7833818781481618,17.26866715063851,71.20699382725701,1.5076281073841318,256.4860986375824,73.15737949676041
15,-7.302920654829477,-256.3255884142948,-1.5533450375713869,18.18989863992097,71.54587016734125,1.6288243548750971,256.4522420527398,73.54693560017562
16,-7.325518799615078,-256.28423086495604,-1.3520760455635223,18.994534988323373,71.88581279120763,1.7110610528882582,256.40792389680837,73.93659009421381
17,-7.368567424730818,-256.2331560168127,-1.1774828576888983,19.691671764685516,72.22620765622759,1.7587109960594862,256.3550330084807,74.32727908357532
18,-7.429754435458762,-256.1744710567507,-1.0272242384557904,20.292202755760027,72.5665707161639,1.7766373812119534,256.2955851918756,74.72032688533412
19,-7.506604311244383,-256.11036848627697,-0.8987845678111637,20.808573260220314,72.90658031571365,1.7700663017711835,256.2316723262746,75.11746059419588
20,-7.596534731893982,-256.0430727009,-0.7895460877233151,21.254499288442936,73.24610172833067,1.7444549023949034,256.16541143365066,75.52080553012671
21,-7.696910276312192,-255.97478823913167,-0.6968565898391784,21.644656793723193,73.58520198565084,1.7053585598799395,256.0988953298362,75.93285936955097
22,-7.805092026511661,-255.90765107861267,-0.6180908431928172,21.994346523074253,73.92415309242938,1.6583002759997614,256.0341461741233,76.35644337877605
23,-7.918482118584065,-255.84368399708094,-0.5507044112483247,22.319141426870964,74.26342174006423,1.6086451481271982,255.97307288217002,76.79462985117529
24,-8.034562649723544,-255.78475668360292,-0.49227891620973857,22.63452449545342,74.60364393953112,1.5614823491070482,255.91743305124595,77.25064570120377
25,-8.150928867890991,-255.73255100166494,-0.44055834140012545,22.95552527099509,74.94558372638704,1.521516621706036,255.86879978603906,77.72775327459658
26,-8.265317077852979,-255.68853153025015,-0.3934766275729049,23.296363188488144,75.29007625670046,1.4929710150264361,255.82853356094287,78.22911082295471
27,-8.375628040526538,-255.65392122605056,-0.3491774573890643,23.670105494566815,75.63795707038402,1.4795024719090244,255.79775898826276,78.75761666664098
28,-8.47994674863286,-255.62968186068255,-0.3060275200584879,24.08834693092649,75.98998075559966,1.4841317916649266,255.77734617948883,79.31574258654635
29,-8.576559320145561,-255.61649893003886,-0.262624611448543,24.56091779273263,76.34673337577641,1.509189327069151,255.7678964281959,79.9053631577295
30,-8.663967447965854,-255.6147709983677,-0.21780170497006565,25.09562653209758,76.70854364174033,1.5562775096104509,255.76973220112438,80.5275884322751
31,-8.740900532738854,-255.62460375166106,-0.17062775512577102,25.698042878337787,77.0753979757752,1.6262509462135601,255.78289172711013,81.18260767069387
32,-8.806325391822046,-255.6458092130301,-0.12040561541761448,26.371327460954575,77.44686447810489,1.7192143933567752,255.80712864361047,81.86955185021812
33,-8.859453275120316,-255.6779105437078,-0.0666671698685974,27.11611393704823,77.82203046624589,1.8345384156561753,255.84191712465187,82.5863824730409
34,-8.899743828250777,-255.72015266887325,-0.009165621133273018,27.93044931050591,78.19945770331051,1.9708920499809846,255.8864627245464,83.32981364640249
35,-8.926905658590618,-255.77151877646705,0.0521351791178686,28.809797225685436,78.5771586049723,2.1262913956130642,255.9397189789175,84.09527337391285
36,-8.940893274133728,-255.8307526796327,0.11707448060509745,29.7471075285994,78.95259559721318,2.2981627392539514,256.00040974842886,84.87690846399335
37,-8.94190029496445,-255.89638710831318,0.1853116139061356,30.732953573356443,79.32270445024854,2.483418544079648,256.06705736758056,85.66763556094406
38,-8.930348901924011,-255.96677804605932,0.25634643761452514,31.755736912355033,79.68394096999378,2.6785443533163855,256.1380167119196,86.4592387520173
39,-8.906875522461462,-256.04014506840196,0.3295436077161551,32.80195727349377,80.03234905057266,2.8796944181603115,256.2115151374153,87.24251219589023
40,-8.872312874991831,-256.11461721922154,0.4041610107577675,33.85654398130698,80.3636469264391,3.0827937027917227,256.285697829252,88.00744436057005
41,-8.827668738988702,-256.18828343655764,0.4793823930753096,34.903242975833805,80.67332760707632,3.283643839384591,256.3586775801372,88.74343876894757
42,-8.774102100439599,-256.2592461459422,0.5543535969681167,35.92505117161603,80.95676898448914,3.4780305791832022,256.4285876339506,89.43956463314674
43,-8.712897520499151,-256.32567647514276,0.6282210703448433,36.90468718163856,81.20934899937912,3.6618303273882864,256.49363607231356,90.08482947488987
44,-8.645438618233902,-256.38586949395557,0.7001707208194128,37.82508474898443,81.42656151307928,3.8311134826268995,256.5521601720076,90.66846487302877
45,-8.573181442646304,-256.43829777742786,0.7694649281592952,38.66989303023106,81.60412906271193,3.9822424769831724,256.60267905208605,91.18021591842566
46,-8.497628298356073,-256.4816614006935,0.8354756237250892,39.423966538089076,81.73810933342824,4.111962529310751,256.64394273383635,91.61062480279948
47,-8.42030237897378,-256.51493229434016,0.8977116232244361,40.073827240949086,81.82499284310988,4.217483154367743,256.67497555204267,91.95129919522549
48,-8.342723406169629,-256.5373907908807,0.955838657309304,40.608081974953436,81.8617899529821,4.296548502469467,256.6951117518763,92.19515663618631
49,-8.266384357791518,-256.54865220628125,1.0096907945369087,41.01777979546907,81.8461059143771,4.347494738269461,256.70402111336693,92.33663709737826
50,-8.192729253669794,-256.548681529006,1.0592724311508088,41.29669604223183,81.77620329045557,4.369292915264251,256.701722671215,92.3718771291379
51,-8.12313182713708,-256.53779485558664,1.104750861438191,41.441532602848696,81.65105177548216,4.361576122075205,256.6885851668829,92.29884062919243
52,-8.058874786579883,-256.51664705108215,1.146440412954518,41.452026997335444,81.47036611095544,4.324650033082256,256.665313715803,92.11740310444313
53,-8.001129384770053,-256.48620596999945,1.1847798485921626,41.33096628970892,81.23463331483087,4.2594863675462795,256.6329230378435,91.82938814202174
54,-7.950935236907534,-256.44771427283035,1.2203050316440618,41.084105265201906,80.94513063342859,4.16769913514531,256.59269830744466,91.43855641640849
55,-7.909180661130715,-256.4026404619989,1.2536188516941218,40.719991669133144,80.6039354334979,4.051503935678526,256.54614527591707,90.95054881844366
56,-7.8765840673454495,-256.3526213395966,1.285360361123263,40.249704610308264,80.21392774499795,3.9136610267563565,256.49493190009935,90.37278627309853
57,-7.85367700970291,-256.2993986464957,1.3161751005898108,39.68651563954629,79.77878546692558,3.7574034242643446,256.4408242671731,89.71432970148061
58,-7.84078952161301,-256.2447530899606,1.346688597972637,39.045485632173026,79.30297145841881,3.5863519837326727,256.3856200498024,88.98570452100793
59,-7.8380383770890925,-256.19043919528684,1.3774848007671485,38.34301424424991,78.79171093932766,3.404420182468471,256.33108295224724,88.19869503924666
60,-7.845319003369269,-256.1381242985749,1.4090906826246306,37.596361751284846,78.25095693076595,3.215712037319032,256.2788814891071,87.3661148658384
61,-7.8623018682495145,-256.0893344733468,1.4419676099439742,36.823164644330156,77.68734101718887,3.0244170460737205,256.2305349131325,86.50155976371951
62,-7.888434195272294,-256.0454093745685,1.4765094615220606,36.04096580200407,77.10810662535353,2.8347060738667023,256.18736829590705,85.61914904330895
63,-7.92294773762396,-256.0074671442994,1.5130470205624649,35.26677733319804,76.52102234493833,2.6506317117650253,256.1504779174843,84.73326077875056
64,-7.964873045945756,-255.97637987667477,1.5518577608657653,34.51668986251173,75.93427355234668,2.476035950951193,256.1207074612046,83.85826508769115
65,-8.013060250087886,-255.952759752682,1.593179819964825,33.80553700195312,75.35633170017242,2.3144672260308012,256.0986351067216,83.00825879344325
66,-8.066205944213925,-255.93695571949615,1.6372287216301329,33.14661891370031,74.795802032055,2.1691081448960094,256.0845713632564,82.19680422828229
67,-8.122885399408137,-255.92906033797462,1.6842152660461305,32.5514849073768,74.26125207302924,2.0427146633186926,256.07856722124285,81.43667486275972
68,-8.18158903710021,-255.92892608655785,1.7343629398478726,32.029772311305884,73.76102487567137,1.9375671398616823,256.0804318557622,80.7396108441215
69,-8.240761919111122,-255.93619001994634,1.7879232709895538,31.58909746418698,73.30304248500785,1.8554335851005697,256.0897587216807,80.1160882565606
70,-8.298845051564285,-255.95030525133717,1.845187775841796,31.234994378258694,72.89460626508207,1.7975453807303312,256.1059584564444,79.57510677571337
71,-8.354317507482035,-255.9705772739489,1.9064954123680549,30.970897056594694,72.54220153574279,1.7645856523960335,256.1282965649891,79.12400118886167
72,-8.405738448532674,-255.99620277153417,1.9722347154106155,30.79816216668169,72.25131437655199,1.7566902536267543,256.1559335022817,78.76828280577502
73,-8.45178786681242,-256.0263084389304,2.0428401409235653,30.716129333554036,72.02626842500044,1.7734609603703777,256.18796463714534,78.51151688074877
74,-8.49130443651509,-256.0599875061381,2.1187826428862935,30.722216370217417,71.87008897183506,1.8139900495154517,256.2234577451719,78.35524161474795
75,-8.523318584684253,-256.09633209092783,2.2005550494589827,30.81204621592849,71.78440061944745,1.8768950284005026,256.26148610536546,78.29893305542682
76,-8.547078921874727,-256.13446010525035,2.288653221276489,30.9796014442081,71.76936327962828,1.960361982078794,256.301155878442,78.34001841338387
77,-8.562070501774821,-256.17353611830765,2.3835541376623297,31.217401384517053,71.82364947772327,2.062195863742914,256.3416271330204,78.4739382679628
78,-8.568023941285203,-256.2127862325972,2.485691956602096,31.516696558326796,71.94446397166834,2.179876074219291,256.3821285571035,78.69425615715386
79,-8.564915162781995,-256.25150750153625,2.5954328691769564,31.86767536193078,72.12760476510906,2.3106158373011407,256.42196638808133,78.99281234066969
80,-8.552956318301169,-256.2890725575876,2.7130494092634803,32.25967854853639,72.36756286646187,2.4514241506881387,256.4605282612807,79.35991717480174
81,-8.532579168361732,-256.3249299542549,2.838694866006102,32.6814177549988,72.65765675226805,2.599169411768407,256.4972825354253,79.78457852752814
82,-8.504412654560172,-256.35860049372405,2.9723785418368496,33.12119481837408,72.99019650023922,2.7506440627353763,256.53177343730465,80.25475693699639
83,-8.469256553178814,-256.3896697867602,3.113942780689331,33.56711882239522,73.35667198026837,2.9026296553433357,256.56361234865005,80.75764174042236
84,-8.42805299634363,-256.4177775614552,3.263042968382817,34.00731774472143,73.74795928438853,3.051961576151787,256.5924658280336,81.27994115007736
85,-8.381857440669837,-256.44260464862185,3.4191319886532043,34.430141360854265,74.15453961176881,3.195592369398899,256.61804136887594,81.80817916477342
86,-8.331810431727035,-256.4638588937666,3.581450724388534,34.82435180067814,74.56672495713158,3.3306522483091365,256.6400722104602,82.32899219161146
87,-8.279111205632072,-256.48126139717436,3.7490260286592636,35.17929790374832,74.97488511932555,3.454505086251756,256.6583026581278,82.82941828462863
88,-8.224993709391411,-256.49453454087507,3.9206771955100996,35.48506938335257,75.36967077290544,3.564798020410097,256.6724754069694,83.29717205433822
89,-8.170705077349103,-256.5033932724569,4.095031432262431,35.73262702743597,75.74222764141388,3.6595028773069305,256.68232235177885,83.72089868704654
90,-8.117486159137293,-256.5075410100672,4.270548266668716,35.913906009261176,76.08439714064764,3.736947974238664,256.6875602392626,84.09040122690666
91,-8.066553458891564,-256.5066712148001,4.445552260331023,36.02189091232506,76.38889918224751,3.7958393850927123,256.6878921835648,84.39683630611637
92,-8.01908177991506,-256.50047512991154,4.6182728281616745,36.050663010508615,76.64949311347915,3.8352713277110233,256.68301550644634,84.63287470108995
93,-7.976186926420024,-256.4886554861829,4.786889397559047,35.99542217886583,76.86111298497508,3.854725797358617,256.6726356543659,84.79282417928995
94,-7.938908008767629,-256.4709452535255,4.949579700701923,35.85248706552932,77.01997348383291,3.854061909468456,256.6564852232339,84.87271286691889
95,-7.908189243168226,-256.44712994437555,5.104568811629401,35.61927760349797,77.1236430425142,3.833495700687856,256.6343465536998,84.87033180728203
96,-7.884861559161981,-256.4170717011219,5.250176652774133,35.29428370620433,77.1710810154188,3.793571448184987,256.6060761003212,84.78523571933482
97,-7.869624683906209,-256.3807334784194,5.384862062216889,34.87702347635995,77.1626365699856,3.73512589879855,256.57162887275047,84.6187015281772
98,-7.863030548879024,-256.33820190205535,5.5072620558638805,34.36799389810078,77.1000081253354,3.659247087254567,256.5310815320362,84.3736452532264
99,-7.865468859639801,-256.2897075716779,5.616225508412119,33.768616970478035,76.9861637016556,3.5672296148325815,256.48465292056557,84.05449930206854
100,-7.877155568342859,-256.2356415479427,5.710840929916234,33.08118443049201,76.82522422350372,3.460528343117816,256.4327207817249,83.66705389335962
101,-7.898124878573084,-256.17656666617074,5.790458168729366,32.30880425049577,76.62231346005424,3.340712426935548,256.37583332478096,83.21826790728669
102,-7.928225307227813,-256.1132223818023,5.854703707560798,31.45535166624093,76.38337977397283,3.209421452114113,256.314714345087,82.7160557135361
103,-7.96712019877576,-256.04652216827276,5.903488911614072,30.52542652583779,76.11499611716194,3.0683251530809477,256.25026091293915,82.16905736099771
104,-8.01429294458296,-255.97754295591014,5.937010391770174,29.52431739266377,75.82414568955251,2.919087790029754,256.1835331026357,81.58639992540188
105,-8.069057025701424,-255.90750655360938,5.95574172165694,28.457971289234106,75.5180013362992,2.763337818992875,256.1157356832363,80.97745784962768
106,-8.130570806377628,-255.83775334513956,5.960416093524317,27.332966404350287,75.20370707865716,2.6026430405515453,256.04819204431703,80.3516198181733
107,-8.197856683658406,-255.76970886200553,5.952000013869443,26.156483672319954,74.88817006533193,2.4384910001952083,255.98231094260265,79.71806905509864
108,-8.269823828164345,-255.7048442263194,5.931658719510733,24.936272078312705,74.57787059367602,2.2722740915676347,255.91954704980594,79.08558289914677
109,-8.345293510604765,-255.64463191871712,5.900714590784948,23.68060208574604,74.27869672190756,2.1052786620261634,255.8613567502518,78.4623562107352
110,-8.423025973440659,-255.590498695934,5.860600457417382,22.398201950868323,73.99580854697511,1.9386774547025767,255.80915101919535,77.85585184915831
111,-8.501747932445605,-255.54377765212686,5.812810300982477,21.098173014525198,73.73353561148687,1.7735248570868862,255.76424739959293,77.2726803140579
112,-8.580180024050774,-255.5056614627368,5.758850308561379,19.789882225275882,73.49530920499163,1.6107545785069333,255.72782315729341,76.71850969668768
113,-8.657063783757064,-255.47715891654897,5.700193339295242,18.482832749686295,73.28362963011965,1.4511795333641306,255.70087177272558,76.19800625990692
114,-8.731187915245771,-255.4590569519214,5.638239555922722,17.18651602568977,73.10006695402402,1.2954938443701602,255.68416503630368,75.71480518935374
115,-8.801413581301121,-255.45189039638674,5.57428532650229,15.910250565106368,72.94529245580519,1.1442769321036452,255.67822298294885,75.27151026767156
116,-8.866698276721984,-255.45592125574098,5.50950166540757,14.663014016109223,72.81913688477539,0.9979995848483902,255.68329352505168,74.8697203484635
117,-8.926117708709919,-255.47112868959388,5.444922609275013,13.453275547887655,72.72067069399334,0.8570317577139722,255.6993429124929,74.51007953920099
118,-8.978885111405093,-255.4972099371003,5.381443134852314,12.288835771583784,72.64830063942709,0.7216517311407333,255.72605726004824,74.19234707625921
119,-9.024367515577056,-255.53359163745242,5.319825578374145,11.176681340330086,72.59987667992529,0.5920562247586144,255.76285455375407,73.91548220701806
120,-9.062098610187386,-255.57945034716343,5.260713039979505,10.122861024929675,72.57280309297691,0.46837110107615526,255.80890589896208,73.67773911762222
121,-9.091787936459157,-255.63374063320367,5.204647994441078,9.132389239590426,72.56414813171995,0.3506623599715466,255.86316434669595,73.4767670463166
122,-9.113326223169343,-255.69522891660532,5.152094245410748,8.209181562576502,72.57074733603926,0.23894717026675735,255.92439942922817,73.3097111507254
123,-9.126786708279003,-255.76253121906953,5.1034603037076325,7.356024843356494,72.58929674982902,0.13320464923209172,255.99123551176297,73.17331045680295
124,-9.132422362878655,-255.83415305860254,5.05912216491306,6.57458227475651,72.61643372667866,0.03338594863425294,256.0621921588598,73.06399028487156
125,-9.13065907851192,-255.9085298946588,5.0194434522883675,5.86543162581936,72.64880454978524,-0.060577004980169206,256.13572487147525,72.97794777488824
126,-9.122085026186499,-255.98406674337977,4.98479118402964,5.2281328626100345,72.68311949730042,-0.1487648956813526,256.21026477974135,72.91123027891523
127,-9.10743645356392,-256.0591758700813,4.955546048563648,4.6613196924295055,72.71619702927032,-0.2312672452909844,256.284256176298,72.85980723110366
128,-9.087580175012796,-256.1323117380812,4.9321068703382895,4.162808184061353,72.74499934760742,-0.30818195551805905,256.35619106186505,72.81963653187341
129,-9.0634930243422,-256.20200258300497,4.914889697358342,3.729714654276517,72.7666617297799,-0.379618310084404,256.42464008088376,72.78672653918268
130,-9.0362386214105,-256.2668781483009,4.9043224164106896,3.358574683521848,72.77851790358736,-0.44570324972892145,256.4882794063299,72.75719460186171
131,-9.006941881548226,-256.3256933610738,4.900835887133829,3.0454556495984453,72.77812343561992,-0.5065904286307997,256.5459133844409,72.72732283807971
132,-8.976761710943514,-256.3773480570437,4.904852407674782,2.786056610036164,72.76327868369836,-0.5624712907105042,256.59649308059306,72.69361159995943
133,-8.946862362858838,-256.4209031747569,4.916772134929652,2.575791541341727,72.7320523119662,-0.613587179341714,256.63913117830816,72.65283075608264
134,-8.91838411536194,-256.45559396901626,4.9369580024138635,2.409854484337296,72.682805740006,-0.6602413280186666,256.67311381801323,72.60206857974865
135,-8.892414264559518,-256.48084064843306,4.965719682439754,2.2832676111500083,72.61421831959974,-0.7028094758876373,256.6979098275004,72.53877772620505
136,-8.869959720049406,-256.4962565144407,5.00329719276475,2.190915234430163,72.52531260409114,-0.7417478126361203,256.71317747852845,72.46081757502701
137,-8.851922508801337,-256.5016533854726,5.049844798204815,2.1275680926868423,72.41547877236103,-0.7775970147205592,256.7187686121162,72.36649206537864
138,-8.839079146693527,-256.49704397632723,5.105415798759017,2.0879028491266802,72.28449699436122,-0.8109813571921597,256.71472985021995,72.25458197509894
139,-8.8320642815204,-256.4826409416062,5.169948612581572,2.066521773366145,72.13255623802712,-0.8426023048698029,256.70130063065017,72.1243703717055
140,-8.831358536121002,-256.4588523752773,5.243254416228904,2.057977212876815,71.96026777134935,-0.8732265148610773,256.6789078681852,71.97565976378256
141,-8.837280236816085,-256.42627363954364,5.325006658981677,2.0568048461986677,71.76867149123638,-0.9036686365948823,256.64815711871387,71.80877939258437
142,-8.849980653052109,-256.38567548781793,5.414732995788421,2.057568928122886,71.55923327776196,-0.9347695455048309,256.6098202155578,71.62458119124321
143,-8.86944242477117,-256.3379885420211,5.5118103971837105,2.0549218048812787,71.33383184944874,-0.9673707253138099,256.5648194459323,71.4244232253606
144,-8.895480993106474,-256.28428427239515,5.615464217463634,2.043678851782985,71.0947340324968,-1.0022855705348515,256.5142084261579,71.21013986865779
145,-8.927749020648683,-256.2257527206177,5.7247718136637165,2.0189086153478972,70.84455786723866,-1.04026854196311,256.45914992705906,70.98399847842737
146,-8.965743875385218,-256.1636772968927,5.83867102816929,1.9760363407540684,70.58622352247464,-1.0819833762839375,256.4008909874978,70.748642882538
147,-9.00881821525641,-256.09940704498695,5.9559735656388275,1.9109573567313085,70.322892609494,-1.1279718066859248,256.3407357109669,70.507024604624
148,-9.056193641354408,-256.0343268198909,6.075382991723412,1.8201551845723696,70.05789720374011,-1.1786243612263798,256.2800161845442,70.26232345094475
149,-9.106977361361679,-255.96982590094765,6.195516767988652,1.7008179643841224,69.79466061633897,-1.2341547405623396,256.22006203331233,70.01785978160517
150,-9.160181745187781,-255.90726569084697,6.314931527612729,1.5509460289172818,69.53661256734937,-1.294579114654015,256.1621692466995,69.77700135261547
151,-9.21474647320994,-255.84794732714988,6.432150782804054,1.3694432879786589,69.28710179050864,-1.3597015147599827,256.1075690834272,69.54306794615547
152,-9.269562749014542,-255.79308022445238,6.545694401367192,1.1561854945351984,69.04930922690113,-1.42910636022062,256.05739804741137,69.31923709431966
153,-9.32349893078761,-255.74375268486347,6.654109344591998,0.9120593663558231,68.82616488880068,-1.502158981169086,256.012670043791,69.10845409775766
154,-9.375426976199664,-255.70090566283827,6.756001145305523,0.6389678602044359,68.62027126513365,-1.578014676564421,255.97425177105785,68.91334931781823
155,-9.424249203022915,-255.66531051988673,6.850065358102917,0.33979858010142094,68.43383586406856,-1.6556363580422535,255.94284215001395,68.73616544693023
156,-9.46892491513818,-255.63755124784814,6.935117867306424,0.018354252625244132,68.268615194831,-1.7338202666933669,255.91895622474948,68.5786971802946
157,-9.50849634894016,-255.61801137294535,7.010122745692978,-0.32075372855143947,68.1258722025352,-1.8112287431818705,255.90291369517536,68.44224543343405
158,-9.542113172424912,-255.6068657450768,7.074216481340376,-0.6722456746141227,68.00634886996001,-1.8864286600998181,255.89483222764488,68.32758794529124
159,-9.569054563835886,-255.60407759444942,7.126727776570345,-1.0303431026859557,67.91025531537962,-1.9579339105983895,255.8946258702913,68.23496769340078
160,-9.588747891227753,-255.60940129167975,7.167192586853582,-1.388961207232422,67.83727614524918,-2.0242503007501034,255.90200896578267,68.16409992372135
161,-9.600783241473122,-255.62239098352129,7.195364456388919,-1.7419172241873755,67.78659402408458,-2.0839213239408516,255.91650570898727,68.11419772724419
162,-9.604923369452681,-255.6424148547176,7.2112204557371955,-2.083147011498423,67.75692946925248,-2.1355735723351943,255.93746509362165,68.08401505492874
163,-9.601108919537236,-255.66867446959807,7.2149631190609025,-2.4069216886431466,67.7465948909081,-2.1779608614666315,255.96408070690703,68.07190498386629
164,-9.589458966089175,-255.7002285322988,7.207018724538342,-2.7080557844748605,67.7535599994602,-2.210006364029236,255.99541472035685,68.07589005880622
165,-9.570266999492237,-255.7360203189504,7.1880321027313085,-2.982098272163708,67.77552501747286,-2.230842074788522,256.0304253353944,68.09374076966319
166,-9.543992403498848,-255.7749078938113,7.158857961935468,-3.225498426563364,67.80999777128709,-2.239844801430557,256.06799679031525,68.12305782099143
167,-9.511247257888275,-255.81569611457945,7.120548561963414,-3.4357397133274907,67.85437074716684,-2.2366677261386223,256.1069709143682,68.16135386793975
168,-9.47277814295708,-255.85716943898,7.074337493936491,-3.6114366832799645,67.90599456366589,-2.2212665003858767,256.1461792126229,68.20613081380638
169,-9.429442748665934,-255.89812459004781,7.021619327271822,-3.7523916888237117,67.96224500998888,-2.1939188235208795,256.184474514566,68.25494952986648
170,-9.382181553999697,-255.9374021141785,6.963924931641458,-3.8596098018018865,68.02058176583718,-2.1552364832305795,256.22076121337307,68.30548987289785
171,-9.331985484685521,-255.9739157939068,6.9028923525472825,-3.9352714811658753,68.07859798155138,-2.106168891178127,256.2540230748741,68.35559996027003
172,-9.2798610832681,-256.0066788754478,6.8402332613721875,-3.982663504729648,68.13406081710241,-2.0479972595384135,256.283347618695,68.40333459654985
173,-9.226795206939357,-256.03482622190785,6.777695306520954,-4.006069794847854,68.18494363182606,-1.9823187970446317,256.3079462501575,68.44698338489236
174,-9.173721525968869,-256.0576317749639,6.717021133950963,-4.01062528523779,68.22945073433527,-1.9110206856814456,256.32716961546964,68.48508937929289
175,-9.121491052171416,-256.07452099869056,6.65990521818034,-4.00213786563942,68.26603551154255,-1.8362440718131452,256.34051795438916,68.51645920150054
176,-9.070848514134553,-256.0850782315832,6.607949825711058,-3.9868854184781517,68.29341249642451,-1.760338775958845,256.34764647070256,68.540165459621
177,-9.022415645195661,-256.08904913693476,6.5626215453115835,-3.971396664969109,68.31056365341786,-1.6858098507137398,256.34836598602465,68.55554216647602
178,-8.976681568973452,-256.0863388019616,6.525209980834435,-3.9622256678806544,68.31673894435758,-1.6152574984887487,256.34263948035067,68.56217372500652
179,-8.933999762968147,-256.0770064592818,6.49679030786069,-3.9657301681129673,68.31145109984436,-1.55131220250566,256.3305755271872,68.55987793725853
180,-8.89459076621746,-256.0612580912048,6.478191300799664,-3.987863314668079,68.29446445687013,-1.4965672070744107,256.3124199062167,68.54868341228955
181,-8.85854982876418,-256.0394381256274,6.469970160303162,-4.033986814951217,68.26577775779639,-1.4535106486361222,256.28854661975214,68.52880173855291
182,-8.825858827568602,-256.01202105343697,6.472395100333476,-4.108711353167666,68.22560097331761,-1.4244596034451737,256.25944915586825,68.50059489652655
183,-8.796401810399436,-255.9796032997021,6.485436208734829,-4.215767701949399,68.17432651560462,-1.4114980477008576,256.2257323335916,68.46453862574788
184,-8.769983511770508,-255.9428952421021,6.508764593178058,-4.357909666566417,68.1124956075745,-1.4164202915908664,256.1881046129759,68.42118278607008
185,-8.74635018994053,-255.9027129231629,6.5417593886574155,-4.536848102439537,68.04076100532592,-1.4406809796759905,256.14737039393816,68.37111009967849
186,-8.725212104202045,-255.859968736737,6.58352198249189,-4.753213826284218,67.95984765799119,-1.485352358888359,256.1044215529958,68.31489495653699
187,-8.706266806482688,-255.81566021654612,6.632896837986017,-5.006546285788361,67.87051317342453,-1.5510892579990638,256.06022730776607,68.25306416036851
188,-8.689222209587886,-255.77085606858586,6.6884984484908925,-5.29530432587905,67.7735101402607,-1.6381020877077708,256.01582150761317,68.1860615948605
189,-8.673818246190885,-255.72667879901334,6.748744056769779,-5.616895270543065,67.66955249069039,-1.7461380998572418,255.97228665454833,68.1142188624
190,-8.659845933828986,-255.6842836574664,6.8118917476248955,-5.967718827386011,67.55928819491454,-1.8744710889322533,255.93073432448335,68.03773402099644
191,-8.647162818223716,-255.64483401510137,6.876083403112941,-6.3432230232548985,67.44328057840946,-2.0218996844408803,255.89228205882554,67.95666055132492
192,-8.635704032379186,-255.60947359174716,6.939391829475397,-6.737970445029622,67.32200030110154,-2.186754408253291,255.85802709483121,67.8709084841684
193,-8.625488494649053,-255.5792961239535,6.999871089063666,-7.145714313265479,67.1958294358696,-2.3669137752385754,255.8290174834998,67.7802590976326
194,-8.616619982005801,-255.55531323066694,7.05560873626717,-7.559485060066741,67.06507818491563,-2.5598298528545937,255.80622130865527,67.68439377144375
195,-8.609282942807116,-255.53842147006586,7.104778425294185,-7.971688814518227,66.93001376118256,-2.7625637468261544,255.79049495685868,67.58293660735526
196,-8.603733061916303,-255.5293698572931,7.145691341812902,-8.374219359174578,66.79090002268089,-2.971831318601412,255.78255166833918,67.47550945184281
197,-8.600282865572844,-255.52872933084743,7.176845050640251,-8.758584757866812,66.64804565430663,-3.1840590308600154,255.78293182917002,67.36179706940025
198,-8.599283013647321,-255.53686576731582,7.196968511265808,-9.116049138605545,66.50185801973646,-3.395449248026974,255.79197659213372,67.24161941039124
199,-8.601100228004238,-255.55391818706926,7.20506210024048,-9.437789161228144,66.3528992289324,-3.602053744916073,255.80980646783755,67.1150071892561
200,-8.606092983651587,-255.579783792584,7.200431476779682,-9.715063502609919,66.20194052592669,-3.799853726929383,255.83630653101054,66.98227638331316
201,-8.614586215494617,-255.61411133595223,7.182714093378989,-9.939392255256195,66.05001087185383,-3.9848443666085553,255.87111974386394,66.8440968559227
202,-8.626846414004255,-255.65630386072445,7.151897199790709,-10.102741616740325,65.89843561175809,-4.153121659681047,255.91364945237683,66.70155014604697
203,-8.643058517418185,-255.70553109485073,7.108326397319495,-10.197707946726352,65.74886135825146,-4.300969261158432,255.96307135155047,66.55617156720213
204,-8.663305882908428,-255.7607509037135,7.0527041359936575,-10.217694474168097,65.60326370275725,-4.424942898027311,256.0183543550548,66.40997216125625
205,-8.6875544023548,-255.82073849660966,6.986077912997113,-10.157073791657098,65.46393509818394,-4.52195000090847,256.0782890928321,66.26543680486253
206,-8.715641645151397,-255.88412159756516,6.909818312472621,-10.011329740665527,65.33345123487675,-4.589322364861645,256.14152228173526,66.12549586330096
207,-8.74727178588608,-255.9494195115125,6.825587486506358,-9.777173223851507,65.21461539925572,-4.624879936574473,256.20659494224594,65.9934691590008
208,-8.78201690131811,-256.0150839624621,6.7352991779766045,-9.452627713736758,65.11038160706615,-4.6269841932589015,256.27198238767573,65.87298258918787
209,-8.81932486490704,-256.0795397937685,6.64107174803585,-9.037081634868391,65.02375869843388,-4.59457994201648,256.3361341236183,65.76785941710862
210,-8.858533512101012,-256.1412240329881,6.5451757741792544,-8.531306303207193,64.95769899292442,-4.527224645480939,256.39751219135115,65.68198997419422
211,-8.898890135689191,-256.19862229314214,6.449977733602514,-7.937439659398624,64.91497639852543,-4.425104545190644,256.454626934741,65.61918510084762
212,-8.939574899753206,-256.25030191117895,6.357881286194939,-7.258937560825722,64.89805991091796,-4.289036941378519,256.5060695815064,65.58301996958842
213,-8.97972658821085,-256.2949415693496,6.271267766160895,-6.500495800746658,64.90898913217404,-4.120458077173302,256.55054136975883,65.57667586392651
214,-9.018469259858868,-256.3313573747343,6.192437496050528,-5.66794720829007,64.94925873516715,-3.9213962796062165,256.58687918477176,65.6027879725607
215,-9.05493873331318,-256.3585254554729,6.1235532440963105,-4.768139099421764,65.01971868252804,-3.6944304142973703,256.6140777585199,65.66330727926055
216,-9.08830814995214,-256.3756010567619,6.066586579057259,-3.8087969658148726,65.12049644233238,-3.442634296907022,256.631308406006,65.75938414672693
217,-9.117812006549967,-256.3819339336146,6.023267347742849,-2.798380553122442,65.25094638567332,-3.1695083534101967,256.6379340775809,65.89128015788532
218,-9.142768022573206,-256.3770796512186,5.995036402078834,-1.7459383375844963,65.40963005190925,-2.878900410328083,256.63352031534913,66.05831323152955
219,-9.162596156661936,-256.3608063327568,5.983002203521593,-0.6609658704958477,65.59432920150671,-2.5749179855118607,256.61784163974744,66.25883915385158
220,-9.17683418009775,-256.3330965146273,5.987902825306539,0.4467274025118187,65.80209173453221,-2.2618348667834995,256.59088303715134,66.49027067442668
221,-9.185149497654011,-256.2941440840825,6.010075701999244,1.5671393850588897,66.0293087418485,-1.943995123488605,256.5528365646735,66.7491333362804
222,-9.187347232618135,-256.244346695811,6.049437842551908,2.690182647021398,66.27181925243214,-1.6257179468391096,256.50409352940346,67.03115534329925
223,-9.183374749963969,-256.1842944651343,6.105478993534146,3.805777670364535,66.5250377757211,-1.3112067548764037,256.44523309923915,67.33138716207243
224,-9.173322724289461,-256.11475602484285,6.177269496959193,4.903933997835012,66.78409868511724,-1.0044657111484565,256.3770084726265,67.64434538579133
225,-9.157422725420487,-256.0366631467007,6.263483515685725,5.974823365008685,67.04401098188517,-0.7092261430527701,256.3003318234039,67.96417477553088
226,-9.13604128222516,-255.9510950198141,6.362437142643619,7.008850572975692,67.2998170415379,-0.42888439035536735,256.21625910765454,68.28482233275264
227,-9.109670514118413,-255.85926296047316,6.472139872459533,7.996728671674368,67.54674946453147,-0.16645156990081975,256.12597548767604,68.60021760020796
228,-9.078915559732609,-255.76249586560843,6.590357060308492,8.929564678803485,67.78038093031736,0.07548515981767417,256.0307816527487,68.90445391992138
229,-9.044479089767357,-255.66222616933578,6.7146803633171155,9.798960525322961,67.99676279243133,0.29479084275487566,255.93208075048625,69.19196590574353
230,-9.00714320786991,-255.55997550732636,6.842602866185352,10.59713141415998,68.19254890367202,0.48980170935608774,255.8313650794505,69.45769878210051
231,-8.967749111159126,-255.45733891440884,6.971595654467167,11.317040650810723,68.36510172178694,0.6593360299933508,255.7302013147923,69.69726541159923
232,-8.927175027328602,-255.35596633766863,7.099182856993537,11.952546634229922,68.51257808252699,0.802697641109342,255.63021300212594,69.90708675763437
233,-8.886313103271206,-255.25754053575477,7.223012488196885,12.498554493035632,68.63399221243785,0.9196724965554847,255.53305935101878,70.08451129557932
234,-8.84604600067136,-255.1637509042518,7.34092078467268,12.95116225872197,68.7292537474253,1.0105181051289007,255.44040983545142,70.22790869622236
235,-8.807223934224897,-255.07626326828978,7.450988197812692,13.307789904940016,68.7991788600042,1.0759452764916442,255.3539146173854,70.33673316414989
236,-8.770642818552421,-254.9966861635724,7.551585737980135,13.567279359572334,68.84547310647933,1.1170913315676112,255.27517129894926,70.4115522459833
237,-8.73702413240196,-254.92653459047685,7.641410832874539,13.729954846181728,68.87068525485803,1.1354839544273159,255.20568898128423,70.45403778984664
238,-8.70699710880659,-254.86719264753273,7.7195121566747975,13.797635550408584,68.87813215751869,1.1329952097019342,255.14685103575317,70.46691709483262
239,-8.681083918420242,-254.81987673828232,7.785303041008437,13.773596305631813,68.8717957488167,1.1117858585398686,255.09987828444443,70.45388415254972
240,-8.659688552945445,-254.78560109917106,7.8385632311618885,13.66247616413951,68.85619450168048,1.0742408535655412,255.0657943435719,70.41947312658048
241,-8.64309004405185,-254.76514721810182,7.8794290258431445,13.470138631306124,68.83623309995619,1.0228976463656276,255.04539470915122,70.3688985574549
242,-8.631440457375142,-254.75903844384322,7.908372264066557,13.203490378467567,68.81703550756436,0.9603695838348729,255.03922090022178,70.30786887824908
243,-8.62476782667673,-254.76752088894833,7.926169093932524,12.870267172663576,68.803767813873,0.8892671341665106,255.04754078268752,70.24238139707451
244,-8.622983878120165,-254.7905516293006,7.933859835566714,12.478796715340994,68.8014579955219,0.8121199651664422,255.07033609956332,70.17850779441447
245,-8.625896081276805,-254.82779506133272,7.932701529978183,12.037748415623874,68.81481995383817,0.7313030285705273,255.1072980915176,70.12217939177887
246,-8.63322333693315,-254.8786279335108,7.924115058919825,11.55588015598028,68.84808890192937,0.6489697971973181,255.15783175080938,70.07898109132064
247,-8.644614546741435,-254.94215302234196,7.909629071830288,11.041791989025862,68.90487449032119,0.5669956132348193,255.22106871542184,70.05396210358533
248,-8.659669363217263,-255.01722084619496,7.8908232638271745,10.503696407047848,68.98803705008892,0.48693366448018616,255.29588824483255,70.05147044862511
249,-8.67796045192192,-255.1024583725341,7.869273646041806,9.949214230899868,69.09959106126982,0.40998539325601874,255.38094528529248,70.07501678427967
250,-8.699056544471832,-255.1963034016405,7.846502231646908,9.385204153704894,69.24063852358553,0.3369862254532956,255.474704351961,70.12717147648978
251,-8.722545494846864,-255.2970431286703,7.823933079977821,8.817632477167804,69.41133342531943,0.2684064877148773,255.57547775786256,70.20949709184686
252,-8.748056544546099,-255.40285527257313,7.802856059248948,8.251487566708281,69.61087705474263,0.2043663704478524,255.68146658876276,70.32251675543013
253,-8.77528100761846,-255.5118501921604,7.784399149346013,7.690741044309648,69.83754256060737,0.1446629245698,255.79080283847995,70.46571717772532
254,-8.803990528345784,-255.62211264215713,7.769509687065526,7.138354863970215,70.08872605974787,0.08880648618596514,255.90159133650454,70.63758374492234
255,-8.834051962067132,-255.7317421733585,7.758944651061191,6.596330465605572,70.36102082062638,0.03606368517993763,256.0119504377908,70.83566401303169
256,-8.86543786200192,-255.83889149607862,7.753269790580501,6.065793572014675,70.65031066272572,-0.014495702385478038,256.1200507479347,71.05665530619017
257,-8.89823157279636,-255.94180233750117,7.75286702571233,5.54710624345716,70.95187865338741,-0.06395043459842885,256.22415135701374,71.29651186248732
258,-8.932626069613125,-256.0388384867676,7.757949103707121,5.039996766729839,71.26052735583056,-0.11347988183985368,256.3226332093589,71.55056701495289
259,-8.968915993819145,-256.12851587809934,7.768580062426135,4.543697872427247,71.57070719454555,-0.16431782142090348,256.4140293911306,71.8136661612007
260,-9.007482853070778,-256.2095296554479,7.784699705832756,4.057084491148866,71.87664989492892,-0.21770876484345536,256.4970522213154,72.08030669380696
261,-9.048774006571746,-256.2807781391856,7.80615011521491,3.578803507608252,72.17250434781322,-0.27486720638281725,256.5706170319316,72.34478153769558
262,-9.093276678523887,-256.3413835004325,7.832702225062356,3.1073895127013627,72.45247252174693,-0.336939855836165,256.6338624367713,72.60132332264604
263,-9.141488664291467,-256.39070877242733,7.8640806321273065,2.6413622776900487,72.71094307236096,-0.4049707406003146,256.68616673543175,72.84424637233519
264,-9.193887535664478,-256.4283706014434,7.899985048702952,2.1793035708306734,72.94262006141358,-0.4798690523933865,256.7271598865934,73.06808359603514
265,-9.250900037816264,-256.4542469201795,7.9401071840176645,1.7199129769104957,73.14264381672288,-0.5623797351971106,256.7567302722106,73.26771513844145
266,-9.31287309409217,-256.4684786389321,7.984142343374493,1.2620444262534443,73.3067006177745,-0.65305701004068,256.77502539180944,73.43848543938515
267,-9.380047537021635,-256.47146460578597,8.031795578728623,0.8047269601583699,73.4311177458042,-0.752241258306388,256.78244578741584,73.57630531965282
268,-9.452535504658,-256.4638494614041,8.082782665259513,0.34717461592662285,73.51294060751215,-0.8600398651352238,256.7796318795252,73.67773594215349
269,-9.530302412663112,-256.44650441974824,8.13682644686268,-0.11120899314365441,73.54998916353779,-0.97631268038416,256.7674438045865,73.74005203773751
270,-9.613154420774485,-256.42050127677913,8.193649221734798,-0.5708259469980018,73.54089171643716,-1.1006626672481643,256.74693461559883,73.76128260049732
271,-9.700732199490087,-256.38708014199756,8.252961899582152,-1.0318746470105917,73.48509514979256,-1.2324321456410656,256.71931739397644,73.7402282829317
272,-9.792511483134454,-256.34761169785116,8.31445074002939,-1.4943329961900644,73.38285187297801,-1.370704914799454,256.6859271181967,73.67645588809576
273,-9.88781038171889,-256.30355524669073,8.377762632323432,-1.9579334870234422,73.23518491823816,-1.5143145440205341,256.64817857283936,73.57027157465816
274,-9.985802818826789,-256.2564141732801,8.442490024779543,-2.4221319186611314,73.04383373683704,-1.66185924019088,256.6075219317796,73.42267553306891
275,-10.085536955768145,-256.2076905148128,8.508156622261208,-2.886073741416897,72.81118412362176,-1.8117238227180164,256.56539769641313,73.23530181068017
276,-10.185957249162472,-256.1588401304801,8.574204865539365,-3.3485639093669524,72.54018626977445,-1.9621093243422234,256.52319246136136,73.01034754151193
277,-10.28592891428277,-256.11122974049897,8.639986173902349,-3.808047323838984,72.23426516270952,-2.1110705189802323,256.4821967633759,72.75049601639527
278,-10.384263869993164,-256.0660970776706,8.70475507293778,-4.262607243534352,71.89722743623135,-2.2565612641352546,256.4435662578214,72.45883782459285
279,-10.479747483877054,-256.02451556509226,8.767668519019823,-4.709988307813344,71.53316836062838,-2.3964869876809094,256.4082876511843,72.13879375692814
280,-10.571165484010741,-255.98736507204836,8.827791718907665,-5.1476491013558014,71.14638198769212,-2.528763032216973,256.37715095660144,71.7940423379387
281,-10.657330323213248,-255.9553101586666,8.88411137258246,-5.572846648576215,70.74127660454835,-2.6513770100830625,256.3507294829388,71.42845384067502
282,-10.737106236502166,-255.92878677128166,8.935556640525617,-5.982752142044171,70.32229675853331,-2.7624529081404328,256.32936849741776,71.04603159091388
283,-10.809432290216868,-255.90799777583814,8.981027481945834,-6.3745939264949465,69.89385238723054,-2.860314430403483,256.31318290675443,70.65086047296334
284,-10.87334284067176,-255.8929171955487,9.019429429163377,-6.7458206269658145,69.46025515094765,-2.9435449622417553,256.3020637633129,70.24706192557981
285,-10.927984987042915,-255.88330260696418,9.049713326002317,-7.094274631150023,69.02566190710908,-3.0110415784102447,256.2956929764238,69.83875435440552
286,-10.972632837513462,-255.8787148406715,9.070918067943214,-7.418364179955504,68.59402525268246,-3.062060683738914,256.2935652917721,69.43001767408772
287,-11.006698651931055,-255.8785439519595,9.082213975051944,-7.717221330184001,68.16905103500937,-3.096253132119172,256.29501641520415,69.02486051553133
288,-11.029741037248954,-255.8820403929858,9.082944127105424,-7.990833211982491,67.75416262462552,-3.113686999783304,256.299256116339,68.62718848246814
289,-11.041470273378396,-255.88835034536316,9.072660880804955,-8.240135360844565,67.3524716136832,-3.114856620655442,256.30540516664036,68.24077183136603
290,-11.041750636160605,-255.89655409249883,9.051154998512647,-8.467058341784634,66.9667545701058,-3.1006770587871864,256.31253488738594,67.86921122908512
291,-11.0305994577212,-255.9057060801779,9.018475354650924,-8.674522152011743,66.59943560738077,-3.0724638796842947,256.31970786940013,67.51590086884087
292,-11.008182713435968,-255.9148751085288,8.97493793739395,-8.866376655677257,66.25257477803916,-3.031898813885456,256.32601825402196,67.18398909861277
293,-10.974807092972982,-255.92318310454488,8.92112369672925,-9.047290177030067,65.92786255160932,-2.9809825942414645,256.33063001090306,66.87633763629881
294,-10.930908722213271,-255.92984111750232,8.857865571153951,-9.22259193927735,65.62662079655396,-2.9219768279475065,256.33281187970533,66.59548121313142
295,-10.877038894251495,-255.93418141236305,8.786225664103341,-9.398076930524356,65.34981071416973,-2.8573371906103326,256.33196790669314,66.34358998137027
296,-10.81384728792851,-255.93568473201773,8.707464046098728,-9.579783796037828,65.09804808221106,-2.7896404731681956,256.327662725902,66.12243721483539
297,-10.742063215833175,-255.93400195682727,8.62300105981926,-9.773757457466981,64.87162597685317,-2.721508077127763,256.31964090868763,65.93337474609689
298,-10.66247552353193,-255.92896950405103,8.534375276884246,-9.985808445122322,64.67054486395848,-2.65552848352742,256.3078398315025,65.7773182672517
299,-10.575911866077547,-255.92061788711092,8.443199348647243,-10.221280578367063,64.4945495783233,-2.5941810713459357,256.2923955951637,65.6547441091699
300,-10.483218137670343,-255.90917293892483,8.35111589223987,-10.484837807066661,64.34317221862084,-2.539763474097366,256.2736416100872,65.56569841686147
301,-10.385238783282823,-255.89504934886847,8.259755316969693,-10.780279816175323,64.21577938287538,-2.494324486363938,256.2520995954576,65.50981878079425
302,-10.28279863302602,-255.87883641611043,8.170697256038542,-11.110394431960303,64.11162154954926,-2.459604418707547,256.2284629791889,65.48636746786795
303,-10.176686835473035,-255.8612762842887,8.085437109252318,-11.476853048006138,64.02988192081985,-2.436984758392969,256.2035730364204,65.49427457668695
304,-10.067643421485291,-255.8432353109579,8.005359059523679,-11.880153387196856,63.969721798847594,-2.4274489573705407,256.1783884828667,65.5321888417984
305,-9.956348976398994,-255.82566954373488,7.931716627060701,-12.319612075253392,63.93031961414119,-2.43155603611856,256.153949543851,65.59853348928976
306,-9.843417824170054,-255.80958550814154,7.86562121627541,-12.793407735949073,63.91090109116592,-2.449428387680397,256.13133773054756,65.6915645230789
307,-9.72939502040004,-255.79599769705584,7.80803818435784,-13.298673535097056,63.91075871462051,-2.4807546758337415,256.1116327086596,65.80942908221445
308,-9.614757298481196,-255.7858843194831,7.759788925719058,-13.831636181852682,63.92925958625913,-2.5248080885996824,256.09586777771864,65.95022197955814
309,-9.499917912334137,-255.7801430536549,7.721556690180323,-14.387796266778594,63.96584181411343,-2.5804795003812893,256.0849856383178,66.11203908229486
310,-9.385235081312905,-255.7795487821832,7.6938936485405796,-14.962142496312016,64.0200005928459,-2.6463243623493504,256.0797963454346,66.29302666755171
311,-9.271023509467872,-255.78471550386868,7.6772271014996,-15.549390011361666,64.09126593623935,-2.7206214160925946,256.08093956895004,66.49142612094104
312,-9.157568281617964,-255.7960646810919,7.671863413726485,-16.144230802630094,64.17917446067662,-2.801440670130571,256.0888533636625,66.70561323372289
313,-9.045140335629949,-255.81380210653498,7.67798894751326,-16.741582607494173,64.28323765120136,-2.8867175884843705,256.1037514939449,66.93413093207343
314,-8.93401261795954,-255.83790496965412,7.695667858558458,-17.33682200414545,64.40290876724471,-2.9743301938086297,256.12561096861674,67.1757137537058
315,-8.824475937407032,-255.86812018888713,7.7248371017758295,-17.925988041873655,64.53755012911581,-3.062175784444467,256.1541708368605,67.4293020644393
316,-8.716853504662197,-255.9039742404247,7.765299363102159,-18.50594474724019,64.68640210539789,-3.148244139458925,256.1889424689655,67.69404409374835
317,-8.611513221912322,-255.94479374448994,7.816714832702725,-19.074493995176713,64.84855477182502,-3.2306843865901533,256.2292305822717,67.96928441765287
318,-8.508876922910414,-255.98973518687197,7.878592742303472,-19.630434062778903,65.0229229723495,-3.3078631356040016,256.27416339162244,68.25453843999766
319,-8.409425894073824,-256.0378215431229,7.950283484234163,-20.17356312852823,65.20822540089836,-3.3784120411245064,256.3227296510504,68.54945354562781
320,-8.313702139500043,-256.08798327451814,8.030972071323873,-20.7046305229434,65.40296833687863,-3.441263619813698,256.3738200544379,68.8537587277489
321,-8.22230507909548,-256.13910116354094,8.119673775179562,-21.225241320085008,65.60543477444061,-3.4956748286500727,256.42627046979965,69.16720545791911
322,-8.13588374714892,-256.190048731646,8.215232929898153,-21.73772176659957,65.81367979053103,-3.5412385157863158,256.4789047743968,69.48950323713846
323,-8.05512499174957,-256.23973242184286,8.316325987526701,-22.24495418801515,66.02553296335488,-3.5778833133196812,256.53057551589507,69.82025355215471
324,-7.980738479511024,-256.2871281514116,8.421469876313184,-22.750190587834698,66.23860839511522,-3.6058628609500882,256.5802010552467,70.15888585484831
325,-7.913439402515103,-256.331313161568,8.529036464960821,-23.25685429092602,66.45032245067466,-3.6257354958060777,256.626798159793,70.5045987725464
326,-7.853929736939022,-256.37149237447437,8.637273440808666,-23.768338721376555,66.65791882892744,-3.638335752277389,256.6695092761861,70.85630918529884
327,-7.802878828140372,-256.4070187670855,8.744331279891496,-24.287811795307228,66.85850017179337,-3.644739155891288,256.70762398402405,71.21261121307651
328,-7.760904038878925,-256.437407523461,8.848295410583095,-24.81803355189828,67.04906517035492,-3.646221831990418,256.74059435797886,71.57174664702539
329,-7.728552215264921,-256.4623438731782,8.947222233029148,-25.361193667126095,67.22655006257882,-3.6442164067707634,256.7680440919481,71.93158798428749
330,-7.706282782770707,-256.4816846266193,9.039177335949908,-25.91877451193239,67.38787349268706,-3.6402656107572575,256.7897713258692,72.28963498377048
331,-7.694453320183035,-256.49545356377473,9.122274111454072,-26.491444484290465,67.52998386973378,-3.6359749332573545,256.8057452536842,72.64302551914345
332,-7.69330839866323,-256.5038310045356,9.194711217437495,-27.078985401654535,67.64990858636065,-3.6329656195912303,256.8160967744849,72.98856140832348
333,-7.702972284562631,-256.5071380254165,9.254808101476282,-27.680256675989895,67.74480470029481,-3.632829237505343,256.82110362587076,73.32274977153064
334,-7.723445797796993,-256.5058158834694,9.30103878515212,-28.293197780772836,67.81201089106654,-3.6370849422930296,256.82117058534305,73.64186025313391
335,-7.75460721354604,-256.50040130165974,9.33206470447126,-28.91486921006719,67.84910062216115,-3.647140412455962,256.8168054471061,73.94199809134211
336,-7.796216650179361,-256.49149841319866,9.346767243514147,-29.541530736430413,67.85393640204252,-3.6642571896370715,256.80859161299077,74.21919247584383
337,-7.8479230261158275,-256.4797483792034,9.344279837932163,-30.168754249458498,67.82472482170144,-3.689520845814594,256.7971583149185,74.46949885649897
338,-7.909272507996096,-256.46579793037483,9.324018594391653,-30.791566802063414,67.76007170167803,-3.7238160584391506,256.78314968269336,74.68911290494722
339,-7.979717402215781,-256.45026824644475,9.285709674607935,-31.40461782920507,67.6590362912439,-3.7678063614813095,256.76719400772765,74.87449280894218
340,-8.058624585513144,-256.4337256282174,9.229411422670362,-32.00236302643613,67.52118305923679,-3.821918125291124,256.74987458557496,75.02248560104974
341,-8.14528282563577,-256.41665532246293,9.155529310598249,-32.579256258406154,67.34662917285709,-3.886328275768768,256.7317034319806,75.13045233862613
342,-8.23890873596502,-256.3994396202458,9.06482210182317,-33.129940235851855,67.13608527308108,-3.9609554432740066,256.71309894646333,75.19638621844388
343,-8.338651549591278,-256.3823410063206,8.958398158388801,-33.649426652994904,66.8908867103361,-4.045454590656706,256.6943682838952,75.21901725918266
344,-8.443597233943946,-256.3654908135765,8.837701535553213,-34.13325710534366,66.61301215668223,-4.139215570109313,256.6756949056691,75.19789720541698
345,-8.55277264816645,-256.3488836486778,8.704488261756984,-34.57763746406551,66.30508659231158,-4.24136636250021,256.657131625786,75.13345894772324
346,-8.66515052973521,-256.3323778031281,8.560793770651596,-34.979540430001805,65.97036610128501,-4.350781899289701,256.63859943597504,75.0270460321863
347,-8.779656093846768,-256.3157018361237,8.4088927451906,-35.33677353353312,65.61270261533346,-4.466099359796944,256.61989237305806,74.8809095869533
348,-8.895175866250327,-256.2984673792431,8.251252731998852,-35.6480125119533,65.23648758308558,-4.585740698578326,256.6006885506342,74.69817192851123
349,-9.010569041494536,-256.2801878887231,8.090482920018498,-35.91280234354501,64.84657442477166,-4.707942909478806,256.580567141984,74.4827579284181
350,-9.124681317346239,-256.2603025838286,7.929279529710627,-36.1315299346337,64.44818051765648,-4.830796191013352,256.5590306046872,74.23929672995898
351,-9.236360969431999,-256.23820432606396,7.770369311754009,-36.30537344423282,64.0467703124017,-4.952289759116383,256.53553095022284,73.97299752878072
352,-9.34447688138775,-256.2132699479721,7.616452625439835,-36.43623353103878,63.64792198852071,-5.070364569649351,256.5094986135014,73.68950388269455
353,-9.447938180482655,-256.18489162812165,7.4701474196912505,-36.526651486720496,63.25718085400231,-5.182971656110222,256.4803725567721,73.39473146357376
354,-9.545714945731635,-256.1525081751908,7.333935244641362,-36.579718343309864,62.879903552327576,-5.288134156063394,256.4476304933666,73.09469440856199
355,-9.636859177914042,-256.11563527502426,7.210110260554257,-36.598977760146106,62.52109808560345,-5.384010458197314,256.4108182899517,72.79532556670135
356,-9.720524951560819,-256.073893741706,7.100732069944722,-36.58832415880519,62.18526559434859,-5.468955385844701,256.36957757689225,72.50229605456671
357,-9.79598651850968,-256.0270346557361,7.007583028126363,-36.55189671441818,61.87625053324109,-5.541576085600691,256.3236704259914,72.22083970574346
358,-9.862653154684123,-255.97496014743209,6.932130506911832,-36.49396987833077,61.59710611920527,-5.600779403886685,256.2729998235415,71.95558826402198
359,-9.920079749091883,-255.91773864495232,6.875494463345479,-36.41884214075381,61.349981581999764,-5.645808016301673,256.2176247302961,71.71042346167815
360,-9.967972526491018,-255.85561363356715,6.838420633096958,-36.330726306627575,61.13603685518756,-5.676263345978004,256.1577687598111,71.48835225486334
361,-10.00618980071197,-255.78900523538357,6.821259707240014,-36.23364601540478,60.95538908561276,-5.692114245865577,256.09382178825905,71.29141126539142
362,-10.034738136211113,-255.71850419943559,6.823952922664467,-36.13134410821745,60.80709392950142,-5.693691393952984,256.0263341074163,71.12060581423997
363,-10.053764675008747,-255.64485830314325,6.846024580124422,-36.0272085903133,60.68916315940196,-5.681668238522384,255.95600315619197,70.97588783336201
364,-10.063546665324518,-255.56895174326206,6.886582117710799,-35.924221466609644,60.59861863393265,-5.657030062915449,255.88365345149944,70.85617547087973
365,-10.064479341377353,-255.49177871704467,6.944324521664139,-35.82493479438719,60.531581204883544,-5.621033319857317,255.81021096494283,70.75941547009485
366,-10.057063102952439,-255.41441289750637,7.01755995969191,-35.731476903102376,60.48339175368791,-5.575157838529473,255.73667368623842,70.68268751056918
367,-10.041890417274349,-255.33797477381162,7.104233384663712,-35.64558974098959,60.44876037567203,-5.521054805927875,255.66408035668968,70.62234769566648
368,-10.019632287257005,-255.263598805226,7.201964374770884,-35.56869563885376,60.4219388338361,-5.460493486872508,255.59347929992524,70.5742062818979
369,-9.991023857346113,-255.19240204586544,7.3080947834533045,-35.501988602718605,60.39691077270267,-5.39530939317597,255.5258989582363,70.53373263914497
370,-9.956848878846314,-255.12545544953957,7.4197451263804215,-35.44654201155363,60.36759372181117,-5.327356011736374,255.46232128204628,70.49627842586713
371,-9.917923143853825,-255.0637586297094,7.5338781963779775,-35.40342190341752,60.32804653595944,-5.258461334759021,255.4036586842857,70.45730825485867
372,-9.875077333380514,-255.0082185636061,7.647368167825525,-35.37379344050975,60.27267562716945,-5.190389534953689,255.35073498486656,70.41262600468785
373,-9.82913984700939,-254.95963260984132,7.757073297104219,-35.35900800763394,60.196433233662695,-5.124807474320344,255.30427064182777,70.35858469119516
374,-9.780920118515306,-254.91867616990467,7.859910057671258,-35.36065978291184,60.095001119028105,-5.0632554443566145,255.26487250732484,70.29226858676037
375,-9.731192793853577,-254.88589524757148,7.952926136936247,-35.38060331497662,59.964953505448285,-5.0071215055418605,255.2330282488925,70.21163798003093
376,-9.68068302983519,-254.86170394553645,8.033369484018742,-35.42092729333066,59.80389365489885,-4.957618881728346,255.20910535807624,70.11562937284708
377,-9.630053101639389,-254.846386552063,8.09875092118478,-35.48388393148443,59.61055922915481,-4.91576604321522,255.19335431240606,70.00420673665013
378,-9.579890555113947,-254.84010340493805,8.146898615328741,-35.57177782164217,59.384892332039655,-4.8823694102434905,255.18591504734098,69.87836244545355
379,-9.530698337076615,-254.8428993594459,8.176003389180217,-35.68682236068465,59.128071005473096,-4.858008989128839,255.1868255870752,69.74006946201096
380,-9.482887555822401,-254.85471355923406,8.184654112855295,-35.83097544366223,58.8425000243919,-4.843027626977126,255.1960315846105,69.59218911172253
381,-9.436773564657718,-254.87538928993052,8.171862485692793,-36.005768622845785,58.531760207201025,-4.837524885057774,255.21339561150373,69.43834117566645
382,-9.392575861560276,-254.9046828758541,8.137076726191363,-36.212144969088726,58.20051711770345,-4.8413567543756715,255.23870521835667,69.28274489786622
383,-9.35042196070322,-254.94227080376564,8.080184054566661,-36.450320266960276,57.854391866159155,-4.854142484041167,255.27167900695858,69.1300406854954
384,-9.310355032377238,-254.9877545695479,8.001502233924587,-36.71968001509629,57.49979855794754,-4.875279554271335,255.31197025958474,68.98510272275531
385,-9.272344792425978,-255.04066318924396,7.9017607916412365,-37.01872134365237,57.14375460599078,-4.903967280120713,255.35916810848553,68.85285244284107
386,-9.236300929472035,-255.1004538167442,7.78207292011729,-37.345044888970804,56.79367143660621,-4.93923877452292,255.41279672661787,68.73808186776053
387,-9.202088357864463,-255.16651130747215,7.643899447612299,-37.695397336499546,56.45713395358133,-4.980000176766667,255.472313422719,68.64529431893583
388,-9.169543721205548,-255.23814777236737,7.489006586274917,-38.06576115291786,56.14167743934325,-5.025075322492457,255.53710673634413,68.57856806524492
389,-9.138492678439126,-255.31460318388247,7.319419329663175,-38.45148440067968,55.854570364052904,-5.073253545444025,255.6064956473353,68.5414463262034
390,-9.108767453027006,-255.3950479377593,7.137372374245447,-38.847440907631174,55.602610868948105,-5.123338142476764,255.6797308471021,68.53685496250196
391,-9.080223912080646,-255.47858797548568,6.945260276607787,-39.24820974689966,55.39194357987462,-5.174193158463324,255.75599870142844,68.56704743776275
392,-9.052757171803604,-255.56427274087744,6.7455882071315925,-39.64826293850471,55.22790204768733,-5.22478643149347,255.8344281782616,68.63357538322022
393,-9.026314563993793,-255.6511059814191,6.540924146339761,-40.04215116701899,55.11488066871998,-5.274227172519557,255.91410072696237,68.73728231470933
394,-9.000904886445602,-255.73805920199715,6.33385283051538,-40.424678657606044,55.05623853028087,-5.3217966924533435,255.9940628775622,68.8783175859666
395,-8.976603223915076,-255.82408736514284,6.126931385141929,-40.7910598285219,55.054236314413515,-5.3669712304020045,256.0733411149569,69.05616736962963
396,-8.953551175656418,-255.90814620119207,5.922646496998197,-41.137051833010204,55.11000620343052,-5.409436170456046,256.1509583659426,69.26969929401706
397,-8.931952902505436,-255.98921032586986,5.72337313785767,-41.459058662359695,55.223553686832275,-5.449091230670471,256.2259512922855,69.5172173747917
398,-8.91206779723862,-256.06629135146517,5.531335193485999,-41.75420414565663,55.39378930406512,-5.486046456942547,256.2973875921061,69.79652411511022
399,-8.894200594688508,-256.138455353703,5.3485688017927,-42.020372891572116,55.61858769733699,-5.520609105782001,256.3643826998379,70.10498709051157
400,-8.878689390015563,-256.2048393732866,5.17688960954697,-42.256219839519176,55.89487088234483,-5.553261819196744,256.4261155915639,70.43960789527347
401,-8.865891584578929,-256.2646669486772,5.017865295398249,-42.461150497997465,56.21871229645811,-5.584632890419461,256.48184370939236,70.7970918672143
402,-8.856167516839914,-256.31726280515136,4.872794476777587,-42.63527508463176,56.58545785171747,-5.615459838934129,256.53091713280696,71.17391740464859
403,-8.849861610032256,-256.3620666574151,4.742692636879257,-42.7793406368021,56.98985988668926,-5.64654790065976,256.57279194842874,71.5664039193196
404,-8.847281304541308,-256.39864570806697,4.628285178783624,-42.89464576119487,57.42621967396039,-5.678725362495824,256.6070423983461,71.97077762283091
405,-8.848674739939138,-256.4267050902088,4.530007257324164,-42.98294309650673,57.888534075417745,-5.71279790956589,256.6333710692923,72.38323451636865
406,-8.854208827142557,-256.446095430032,4.448009675393669,-43.04633484762419,58.3706419956331,-5.7495042865148775,256.65161633129435,72.80000014639359
407,-8.863949663917577,-256.45681691480877,4.382169870685823,-43.08716693183254,58.86636638000129,-5.7894755789355745,256.66175645275484,73.21738584716233
408,-8.87784708370206,-256.45901956245234,4.332106908561105,-43.10792728769186,59.3696476518476,-5.833200279357236,256.6639101241634,73.63184128476865
409,-8.89572467392056,-256.45299957422077,4.297199463220551,-43.11115361125878,59.87466477484502,-5.880997001758475,256.65833329474356,74.040003152429
410,-8.91727608812792,-256.4391916418424,4.276605958063175,-43.09935510270376,60.37594063137626,-5.9329962497877,256.6454122022824,74.43873984562227
411,-8.942068015290419,-256.4181570320961,4.269286257104106,-43.0749517080819,60.86842910993632,-5.989132057990704,256.6256524167163,74.8251918530454
412,-8.969549807819574,-256.39056738901405,4.2740245085173125,-43.04023289542301,61.347582123183656,-6.049143681655721,256.59966382703374,75.19680742368479
413,-8.999069501746705,-256.3571844971052,4.289452913976853,-42.997336360801626,61.80939565990954,-6.112586900654842,256.56814179801455,75.55137284102524
414,-9.029895677409408,-256.3188366102051,4.314076270781594,-42.9482454186098,62.25043486904307,-6.178854002386252,256.5318450745812,75.88703643193656
415,-9.06124420742023,-256.2763922797034,4.346297073387077,-42.89480238261115,62.667839062891275,-6.247201133308241,256.49157132303037,76.20232534697686
416,-9.092308453380342,-256.2307328962806,4.3844408492895495,-42.83873411955406,63.05930838404364,-6.31678140616691,256.4481314563603,76.49615421427661
417,-9.122291026686172,-256.1827253489063,4.426781377059666,-42.78168522159433,63.423074667912914,-6.386681878409784,256.40232406049086,76.76782499319951
418,-9.150434995064284,-256.1331962216657,4.471565532437512,-42.72525394112041,63.75785971566964,-6.455962318118125,256.3549112458317,77.01701773698544
419,-9.176052590730917,-256.0829087650987,4.517037643573373,-42.67102619438032,64.06282472900799,-6.523693644952347,256.30659707525507,77.24377251071645
420,-9.198550079017783,-256.0325435689577,4.561463316732978,-42.62060354899094,64.33751497590441,-6.588994127635326,256.2580094415048,77.44846333938156
421,-9.217448178063348,-255.9826835418579,4.603152724870156,-42.57562205937987,64.58180377135236,-6.6510617936025875,256.20968598555123,77.63176565143341
422,-9.232397904604383,-255.93380354733887,4.640483394303179,-42.53775993691739,64.79583952821542,-6.709201975486956,256.1620644205977,77.79461910214752
423,-9.24319184118241,-255.8862648851333,4.671922609956035,-42.50873315459286,64.97999897634575,-6.762849414466129,256.11547747609444,77.93818780993549
424,-9.24977069361578,-255.84031472776658,4.6960496419915225,-42.490279017392105,65.13484871545909,-6.811584785061533,256.07015259320013,78.06381985296211
425,-9.252224799067287,-255.79609056401935,4.711577955008985,-42.48412837100077,65.26111615860827,-6.855145796410674,256.0262164325342,78.17300736083654
426,-9.250790131048577,-255.75362959424152,4.71737728505112,-42.49196749836317,65.35966979548014,-6.8934331171463255,255.98370413569174,78.26734783444182
427,-9.245838488720217,-255.7128828410518,4.712494991076995,-42.51539100834789,65.43150771800195,-6.926511341509148,255.9425730945211,78.34850665553118
428,-9.237861968649915,-255.67373346878978,4.696175612136681,-42.555847299462734,65.47775260712272,-6.954605176851138,255.9027207168503,78.41818028506978
429,-9.227452330014462,-255.63601843823037,4.667877330853108,-42.61457854878232,65.4996509472488,-6.978091027413687,255.8640053233539,78.4780594932648
430,-9.21527627295315,-255.59955223101875,4.6272841307564905,-42.69255761793582,65.49857417557236,-6.997484150146217,255.82626893196834,78.52979215713968
431,-9.202047862953425,-255.56415111643165,4.574312711007523,-42.790424723872604,65.47601977243275,-7.013421558441134,255.78936043335466,78.57494565764684
432,-9.188499388201638,-255.52965642005827,4.509113557375838,-42.90842712107826,65.4336108065263,-7.026640902335828,255.75315765179906,78.61496954936104
433,-9.175351913605237,-255.49595547898602,4.432065983629946,-43.04636534037072,65.37309296682255,-7.03795571806047,255.7175870146581,78.65115977780322
434,-9.16328673654845,-255.4629993187356,4.343767498502661,-43.203549690800116,65.29632851612199,-7.04822769962585,255.68263991122924,78.68462615668594
435,-9.152918823389628,-255.4308164424166,4.24501837309479,-43.37877064807284,65.20528686202233,-7.058336907512474,255.64838518350962,78.71626500196824
436,-9.144773081460116,-255.399522411356,4.136802492115107,-43.57028625599179,65.10203160240923,-7.069151004180014,255.61497747773743,78.74673869051057
437,-9.139264072339653,-255.36932508608507,4.020265359302477,-43.77582867867219,64.98870404188138,-7.081494665798979,255.58266136333228,78.77646349037998
438,-9.136679633491708,-255.34052547791595,3.896689719154158,-43.99263070235695,64.86750333711247,-7.096120282362687,255.5517711939277,78.80560641019251
439,-9.137168916988267,-255.31351416939634,3.767468962241669,-44.21747160490228,64.74066356981388,-7.113680947783751,255.52272668691612,78.83409116327891
440,-9.140735519309485,-255.2887632713988,3.6340783902796305,-44.44674069305543,64.6104280613474,-7.134706592790489,255.49602420895388,78.86161271654802
441,-9.147236469834402,-255.26681395979568,3.4980444695169797,-44.676516110781705,64.47902107068589,-7.159583989156915,255.47222383324242,78.88765933463043
442,-9.156387628149163,-255.248259797106,3.360912409857639,-44.90265620966115,64.34861674859779,-7.1885413047179,255.45193239404077,78.91154060067646
443,-9.167775463484404,-255.23372628759003,3.224212802451497,-45.120900678503595,64.22130508884669,-7.221637891600699,255.4357829959615,78.93241969811719
444,-9.180874493737297,-255.22384740916684,3.089428487634026,-45.326978597722885,64.0990548188965,-7.258759954107947,255.4244117152623,78.94934834317533
445,-9.195069157622042,-255.2192401493414,2.957963089712524,-45.51672054832385,63.983673701198875,-7.2996225853696695,255.41843250047765,78.96130311792885
446,-9.209678708628143,-255.22047828489193,2.831112689686645,-45.686171856698195,63.87676737403251,-7.343778372937061,255.41841148411504,78.96722240116995
447,-9.223983779253928,-255.22806675983958,2.710041983527531,-45.8317040227994,63.779698417332334,-7.390632410298446,255.4248420295567,78.96604346178182
448,-9.23725342503874,-255.24241799760247,2.5957659914312328,-45.95012145058669,63.69354767175258,-7.439463185999277,255.43812181887685,78.95673953401818
449,-9.248771600630818,-255.2638312983453,2.489137885366022,-46.03876087028186,63.61907998644462,-7.489448503337723,255.45853310073392,78.93835691107323
450,-9.257862079593789,-255.29247617807212,2.3908428734004588,-46.09558128858409,63.55671654167567,-7.539695350040288,255.48622691774105,78.91005228068069
451,-9.263910826598835,-255.32838021147717,2.301397581074505,-46.11924278572758,63.50651562987821,-7.5892725306128845,255.52121183202593,78.87113056360253
452,-9.266384871432088,-255.37142167437315,2.221154220741828,-46.1091728776363,63.46816325545642,-7.637244903807474,255.56334740004996,78.82108331306821
453,-9.264846924016727,-255.4213270027724,2.150309023301524,-46.06561944867669,63.44097423433087,-7.682708180446377,255.61234237613917,78.75962735284172
454,-9.258965307826497,-255.47767281675692,2.0889147050799197,-45.98968943558434,63.423903799200865,-7.724823341364384,255.6677573694068,78.68674289324721
455,-9.24851916490502,-255.53989209113143,2.0368968743587046,-45.88337248292627,63.41556913854595,-7.762849753707054,255.72901152755858,78.60270992142964
456,-9.23339918276428,-255.60728402566866,1.994074042117445,-45.74954868086638,63.41427983422587,-7.796175976248539,255.7953928014515,78.50814121905564
457,-9.213604288166676,-255.6790271964674,1.9601803026694835,-45.59197928464667,63.41807581598746,-7.824347112032385,255.86607137582442,78.40400995396934
458,-9.189234898309346,-255.75419554378055,1.934889046086098,-45.41527913317435,63.424771239638304,-7.84708751141316,255.9401158249753,78.29166952654627
459,-9.160483447343445,-255.8317766257874,1.9178355891926682,-45.224869513268786,63.43200265125032,-7.864317760897107,256.01651142627696,78.17286337056495
460,-9.127622974510684,-255.91069141828683,1.9086365651692478,-45.02691058867469,63.43727994203418,-7.876165226534353,256.09417991620825,78.04972280672104
461,-9.090994513785057,-255.98981491865237,1.9069042414827775,-44.82821320955135,63.43803889473832,-7.882967846487787,256.17199995262655,77.92475177483267
462,-9.050993878705512,-256.06799700272774,1.9122544327289595,-44.63613077938664,63.4316944773464,-7.885271234692085,256.24882773617867,77.80079814153538
463,-9.008058288840568,-256.1440833067525,1.9243072225373443,-44.4584327060084,63.4156943414573,-7.883819387266272,256.3235175664441,77.68101209133181
464,-8.962653243536893,-256.21693617254374,1.9426803673273325,-44.303161702616,63.387572149371266,-7.8795393995827725,256.3949423787179,77.5687927384765
465,-8.915260114197821,-256.2854557528116,1.9669760789852437,-44.17847779828323,63.34500033871176,-7.873520674155084,256.4620143759107,77.46772449380478
466,-8.866364962684788,-256.3486012470934,1.9967627633465603,-44.09249234046487,63.28584172874753,-7.866989186810145,256.5237057536537,77.381504869427
467,-8.816448998597886,-256.4054120738492,2.031553978384787,-44.05309549118594,63.208199040922764,-7.861277504384889,256.5790693557998,77.3138653382372
468,-8.765980955824205,-256.4550286585148,2.070787113218364,-44.067780728255826,63.110461087385545,-7.857791384468966,256.62725897088177,77.2684866907293
469,-8.715411651195355,-256.4967123911582,2.1138039800307475,-44.1434697501387,62.9913442310301,-7.85797387382047,256.6675488530015,77.24891021648833
470,-8.665171056498512,-256.5298641622112,2.159834842108818,-44.28634112045866,62.84992781554774,-7.8632678071181905,256.69935190488445,77.25844613556202
471,-8.6156682020327,-256.5540407655913,2.2079867532734068,-44.50166612002422,62.68568256249957,-7.875077485458879,256.72223583780993,77.30008106151209
472,-8.567294041408028,-256.56896837099794,2.2572367409100633,-44.79365561735613,62.4984913212374,-7.894730123349516,256.735936526778,77.3763868123499
473,-8.52042707136131,-256.574552181812,2.3064303266957498,-45.1653222119747,62.288661942965966,-7.923437482285467,256.7403676813966,77.48943346419533
474,-8.475441081653656,-256.57088137388774,2.354285985904745,-45.61836227304157,62.05693241265146,-7.962258078600463,256.73562591730644,77.64071005793919
475,-8.43271398783413,-256.55822857171904,2.3994062484534653,-46.15306262851191,61.80446871292615,-8.012060543122818,256.7219904598648,77.83105673533642
476,-8.39263639848773,-256.53704345216687,2.440296078865193,-46.768236469421524,61.53285614014978,-8.073489092340447,256.6999170348386,78.0606121833961
477,-8.355618516023148,-256.5079404416558,2.475388779206655,-47.46119252169017,61.24408482615317,-8.146932512385042,256.6700258724848,78.32877999273651
478,-8.322094183048431,-256.4716808217859,2.503078965809718,-48.22774077676344,60.94053001267377,-8.232498383715425,256.63308410294945,78.63421688500628
479,-8.292521238964927,-256.4291499119428,2.521761400563914,-49.06223714271345,60.6249273000888,-8.329994358219494,256.58998318011356,78.97484486451309
480,-8.267377698332101,-256.38133039273384,2.529873819904504,-49.95766824195307,60.30034283144626,-8.43891812255933,256.5417123710734,79.3478883233074
481,-8.247153565859431,-256.32927326355593,2.525941511915781,-50.905776030698625,59.970138295173406,-8.558457297879748,256.4893297820772,79.74993595677104
482,-8.23233840098262,-256.27406831006095,2.508621322074929,-51.89721971401871,59.63793071414763,-8.687499967356201,256.4339327806101,80.17702587890216
483,-8.22340505110294,-256.21681614493104,2.4767430126806285,-52.921769565415154,59.30754711582234,-8.82465577331845,256.376629870641,80.62475045709672
484,-8.22079025265608,-256.15860375946795,2.4293462725478934,-53.96852407392584,58.98297425099814,-8.968286623345742,256.31851596230354,81.08837524096656
485,-8.224873011636724,-256.1004850620844,2.3657119263755604,-55.02613897467683,58.6683035334472,-9.116545152221738,256.2606525226649,81.56296432862547
486,-8.235951819477739,-256.0434671546814,2.2853859763538464,-56.0830548905871,58.367671349354076,-9.267418409492851,256.2040533721874,82.04350310740733
487,-8.254221895885044,-255.9885022762088,2.188195221772296,-57.127710045613135,58.08519490727657,-9.418773915984492,256.149676073602,82.52500896132528
488,-8.279753795608322,-255.93648464117257,2.074253582456316,-58.14872594838985,57.82490395066816,-9.56840531056554,256.0984181668219,83.0026214724605
489,-8.31247472591783,-255.88825095634604,1.9439589475075825,-59.13505687194499,57.590668974876834,-9.714075274311952,256.05111706860305,83.4716657921936
490,-8.352153628310413,-255.84458318897723,1.7979812027775932,-60.07609791873814,57.38612704863874,-9.853554144011586,256.00855224873675,83.92768590641698
491,-8.398390579108263,-255.80621207617708,1.6372427824108846,-60.96175087934788,57.21460687956855,-9.984653392682105,255.97144820596876,84.36644799966889
492,-8.450610674386057,-255.77381986119275,1.462893438853555,-61.78245132444609,57.079055324195814,-10.105253803140684,255.94047675634124,84.78391750898179
493,-8.50806246345742,-255.7480408871667,1.2762808820626317,-62.52916380797474,56.9819680364963,-10.213328676967977,255.91625728852372,85.1762162398913
494,-8.569821102873675,-255.72945905201166,1.0789186199506253,-63.1933542814642,56.92532725757206,-10.306962837205214,255.89935401347574,85.53956770697917
495,-8.63479658466124,-255.71860166244713,0.8724519955260863,-63.766949707521455,56.91054979019348,-10.384368473978489,255.8902697716703,85.8702395152331
496,-8.701747544600307,-255.71592970980666,0.6586232684474672,-64.24229461851729,56.938447973721836,-10.443899001836177,255.8894364484248,86.16449126061275
497,-8.769301111969016,-255.72182487675101,0.43923657989305304,-64.61211338566169,57.009206030887285,-10.484062046176144,255.89720233316464,86.41853542082958
498,-8.835978878482141,-255.7365737169125,0.2161235721171595,-64.86948560901455,57.1223735447949,-10.503532497391772,255.91381687894807,86.62851733252947
499,-8.900228460679722,-255.76034953184833,-0.008889765331630205,-65.00784050053232,57.27687705037143,-10.501166316969869,255.9394133791678,86.79051875695436
500,-8.960459646078391,-255.79319253523698,-0.23401469094709768,-65.0209744247974,57.47104978370561,-10.476015471125352,255.97399012386603,86.90058772966744
501,-9.015083957805683,-255.83498896630874,-0.4575295996086427,-64.90309384870567,57.702678563921104,-10.427343973623028,256.017390660269,86.9547953626997
502,-9.062556523386204,-255.88544996042395,-0.6778081714226133,-64.6488838831631,57.96906568735692,-10.35464450673141,256.0692839263121,86.94931811676835
503,-9.101419120940601,-255.94409128209767,-0.8933458128585988,-64.25360053774897,58.26710273063651,-10.257654510088207,256.12914532177035,86.88054199823281
504,-9.130343085528214,-256.01021550658464,-1.1027843608874988,-63.713182926947496,58.593352443678874,-10.136370131437817,256.19624025627365,86.74518340441556
505,-9.148170506614967,-256.0828988028783,-1.3049347421849802,-63.0243800984841,58.94413460645727,-9.991056181108263,256.2696122714449,86.54042014782534
506,-9.153952019855193,-256.16098487758615,-1.4987968801138387,-62.18488604146323,59.31561186733246,-9.82225029303783,256.3480782352335,86.26402566692279
507,-9.146979586992023,-256.243088645648,-1.6835758475994633,-61.19347590088269,59.70387209068093,-9.630759819320346,256.4302331143712,85.91449959781559
508,-9.12681294094919,-256.32761172834665,-1.8586931514649319,-60.050136453537675,60.105004486070584,-9.417650469803622,256.5144663735609,85.49118861267148
509,-9.093298756066478,-256.4127710156804,-2.0237920235463154,-58.75618425392107,60.51516768910083,-9.18422627830302,256.5989911981726,84.99439248829482
510,-9.046582003529545,-256.4966404067951,-2.1787356654608225,-57.31436520379978,60.93064898095809,-8.932001092660798,256.6818866259519,84.42545148143358
511,-8.987109325496183,-256.5772046604978,-2.3235976138832943,-55.728929409887016,61.347914891295524,-8.662662402655489,256.76115150365086,83.78681203018436
512,-8.915624568933138,-256.6524232560584,-2.4586437784051753,-54.00567512129685,61.76365434572676,-8.37802888829805,256.8347681642062,83.08206846594399
513,-8.833156840174901,-256.72030134418014,-2.5843062052098524,-52.151955599001795,62.17481607815413,-8.080003566538037,256.90077291029047,82.3159788605936
514,-8.741001613885492,-256.77896418316453,-2.7011492082661586,-50.17664332167642,62.57864210803912,-7.770524807066456,256.95732971628445,81.49445349801817
515,-8.640695592523368,-256.8267309027522,-2.8098291612795947,-48.09004714002987,62.97269872108094,-7.451517692884965,257.00280302043586,80.6245148698589
516,-8.533986095403568,-256.86218319503473,-2.9110498632693576,-45.90377979743712,63.35490573920731,-7.124848138976061,257.0358252450002,79.71422860162461
517,-8.422795641892776,-256.8842248040479,-3.005515850847842,-43.63057551917391,63.72356407846246,-6.792281887226406,257.05535495470923,78.7726053376402
518,-8.30918210091296,-256.8921284721569,-3.0938862386846826,-41.28406010164176,64.07738076225633,-6.455450089796183,257.06072234282675,77.80947439456281
519,-8.195294551677172,-256.88556804561256,-3.1767315763100505,-38.87847911717726,64.41548975671425,-6.115822758013181,257.05165977173596,76.83533099848877
520,-8.083325121913905,-256.8646344361793,-3.2544958642624224,-36.428393335168565,64.73746637163231,-5.774690892525211,257.0283160934995,75.86116016638714
521,-7.975457550223491,-256.8298349411775,-3.3274654474427736,-33.94835378412731,65.04333270932321,-5.433157628083677,256.9912542958171,74.89824164637905
522,-7.87381375926656,-256.782076098815,-3.395746127311522,-31.45257140418987,65.33355182934397,-5.092138284968632,256.94143270781626,73.95794151646837
523,-7.7804000495839905,-256.7226309562019,-3.459249463756768,-28.954597464869384,65.6090088707216,-4.752368881640128,256.8801707050648,73.05149680132752
524,-7.697054621911456,-256.6530924592998,-3.5176887695415653,-26.467030681538407,65.87097822005317,-4.4144224097421425,256.80910067933536,72.18979972721628
525,-7.625398147186126,-256.5753155495988,-3.5705847562120034,-24.001265364648358,66.12107683074005,-4.078731915001723,256.7301089048344,71.383188085409
526,-7.566789086093809,-256.49135123342836,-3.6172803339624684,-21.56729220798932,66.36120488391221,-3.7456191215735766,256.64526860591576,70.64124774159647
527,-7.522285353530161,-256.4033761982632,-3.6569638350244085,-19.173559758974076,66.59347602150453,-3.415327044387712,256.55676883418727,69.97263270808561
528,-7.492613687240036,-256.3136214722284,-3.6886998740775385,-16.826900604510968,66.8201402504186,-3.088054837327304,256.46684267965173,69.38490744037617
529,-7.47814778932981,-256.2243032407455,-3.711467011393806,-14.532522331482182,67.0435031768085,-2.7639930237870276,256.3776979524957,68.88441513544248
530,-7.478896052242935,-256.1375583591007,-3.724201200119834,-12.294059842234178,67.26584537896933,-2.4433572067121543,256.29145288970705,68.47617478872819
531,-7.494499434295293,-256.0553864420717,-3.7258436162079436,-10.113682924707138,67.48934547046393,-2.1264183859869963,256.21007877222655,68.16380865790346
532,-7.524239740820313,-255.97959974735102,-3.7153909410895176,-7.992251169475591,67.71600985742296,-1.8135282077345012,256.1353506583771,67.94950069182943
533,-7.5670581735902065,-255.91178146004688,-3.6919456659087913,-5.929507246345968,67.94761150825403,-1.505137849150836,256.0688068113776,67.83398551273825
534,-7.621583569076227,-255.85325253460587,-3.654763717426286,-3.9242989025492845,68.18563935288402,-1.201809715777516,256.0117169304523,67.81656672999434
535,-7.686169319002319,-255.8050470565181,-3.6032967944118433,-1.9748195366409467,68.43125928682915,-0.9042215940984601,255.96505908903166,67.8951627163815
536,-7.758937614095958,-255.76789611149417,-3.537227205423467,-0.07885675336206494,68.6852872144183,-0.6131633035467132,255.92950530363942,68.06637749697803
537,-7.837829425067641,-255.74222020019008,-3.456493499837917,1.7659619287537973,68.94817415306969,-0.3295261928257579,255.90541570694904,68.32559410806927
538,-7.920658576447986,-255.7281301216813,-3.3613055829019585,3.5619368419011765,69.2200031461119,-0.054286010696539724,255.89284118547837,68.6670876879978
539,-8.005168339949261,-255.72543595614087,-3.2521483297845912,5.311087317011157,69.50049756160855,0.2115202172972118,255.8915340532215,69.08415561551118
540,-8.08908903901138,-255.73366346147353,-3.129773159882458,7.0149749966244785,69.78904021383613,0.4668225891434822,255.9009660220709,69.56926211152525
541,-8.17019513045575,-255.75207700297656,-2.9951776932288823,8.674566646327285,70.08470255715451,0.710551150566032,255.92035254101145,70.11419476285441
542,-8.246360173065751,-255.77970806843584,-2.8495743674878886,10.290142045692063,70.38628292749341,0.9416720770089906,255.94868251784362,70.71023034677988
543,-8.31560812797801,-255.81538843065644,-2.6943495811046705,11.861250480510195,70.6923524399464,1.1592258963954765,255.98475245720215,71.34830711074991
544,-8.37615963286007,-255.857787083599,-2.531015481444058,13.386717037784479,71.00130672148286,1.3623662228972304,256.02720412547734,72.01920030582791
545,-8.426472229912928,-255.905450149129,-2.36115696719757,14.86469738309738,71.31142123362481,1.5503973355371437,256.0745649382464,72.71369734094272
546,-8.465273909961011,-255.9568429209927,-2.186376881992354,16.292777042009504,71.6209076175628,1.7228088462420685,256.1252902489976,73.4227685074183
547,-8.491589641644275,-256.0103930559553,-2.008242722492193,17.66810853754165,71.92796834851376,1.8793056282419973,256.17780657125735,74.13772890017967
548,-8.504760700882727,-256.0645337528677,-1.8282382928005174,18.987577261869504,72.2308470190566,2.0198311522859393,256.23055460034044,74.85038695980765
549,-8.504456606571951,-256.1177456415784,-1.6477233907989322,20.247984935716474,72.52787174992406,2.1445824842327377,256.28203077802635,75.553174992651
550,-8.490679428809846,-256.16859599100326,-1.4679037806677864,21.446238188030065,72.817489579487,2.254015487554126,256.33082602406427,76.23925719197098
551,-8.463760327927876,-256.2157738061933,-1.28981260395506,22.579529388577136,73.09829028590796,2.348839251121703,256.375660216211,76.9026112414345
552,-8.424348443416418,-256.25811960165163,-1.1143033116722427,23.645497522979614,73.36901894873571,2.4299993939940974,256.4154112212404,77.53808061702146
553,-8.37339255103335,-256.29464912600724,-0.942053362425824,24.642358641538756,73.62857754250197,2.4986506273321583,256.44913777197405,78.14139616419426
554,-8.312116101733228,-256.3245708632899,-0.7735773557795809,25.568998155830062,73.87601682774464,2.5561196949418314,256.4760960365758,78.70916729733955
555,-8.241986347968925,-256.347297558456,-0.6092478846506095,26.42502077753003,74.11052066505205,2.6038604780212524,256.4957501462513,79.23884511068489
556,-8.164678350193967,-256.3624522567805,-0.4493221416753362,27.210757803816502,74.3313855656463,2.643403578250572,256.50777718726386,79.72866162134092
557,-8.082034780076519,-256.36986942803975,-0.2939721921414252,27.92723526065685,74.53799875592259,2.676303061622128,256.5120672446864,80.17755105202919
558,-7.996022525756507,-256.36959169302645,-0.14331678768553413,28.57610965983578,74.72981821593471,2.704083225149724,256.50871903247145,80.58506026825788
559,-7.908687068965326,-256.3618625124627,0.002547428720819548,29.159580473406734,74.90635799901972,2.7281882007714615,256.49803148462314,80.95125603094849
560,-7.822105446625221,-256.3471150264206,0.1435174350459933,29.68028967698979,75.0671816213678,2.74993692226017,256.4804915048742,81.27663651132838
561,-7.738338441535766,-256.32595718270454,0.2794598848808474,30.14121878381592,75.21190543612482,2.770485494033969,256.45675801773086,81.56205353389052
562,-7.659382609006971,-256.2991533828386,0.4101929437438604,30.545592771721847,75.34021272627258,2.7907984086320266,256.427642554024,81.80865035744344
563,-7.587122893758597,-256.2676029289708,0.535474452383101,30.89679847012947,75.45187786253244,2.8116294667499115,256.39408666488373,82.0178176721548
564,-7.523286851673344,-256.2323154398548,0.6549963951139135,31.198322694282798,75.54679845352003,2.8335127228821193,256.3571363520356,82.19116817999223
565,-7.46940175705555,-256.1943832495021,0.7683852417498144,31.45371296525906,75.6250321936366,2.8567633216225765,256.31791355662017,82.33052794803615
566,-7.426756087260612,-256.1549508574721,0.8752074025599794,31.666561124000445,75.6868342739644,2.881487694390854,256.2775848116623,82.43794088504896
567,-7.396366980415234,-256.1151818448399,0.9749788434576366,31.840507577899633,75.7326908734659,2.9076022374778714,256.237327513714,82.51568131181263
568,-7.3789551964703985,-256.07622416472714,1.0671779923689373,31.979261491389448,75.76334447044282,2.9348592674465324,256.1982947651521,82.56626880840943
569,-7.374928873357115,-256.0391751528711,1.1512613723810514,32.086630247499336,75.77980751075819,2.962878738339024,256.161580171121,82.59247942956883
570,-7.384376998572275,-256.0050478354121,1.226681667734699,32.16655024198227,75.78336218690777,2.991183928426995,256.1281841981691,82.59734793924275
571,-7.407073003184751,-255.9747400953441,1.2929080072453696,32.22311072105715,75.77554546456258,3.0192391119746627,256.0989836726903,82.5841567734465
572,-7.4424882237749275,-255.94900805743697,1.3494482009893176,32.260563045477994,75.7581198108207,3.0464871748028233,256.0747057778014,82.55640884537561
573,-7.4898142928049865,-255.9284447912576,1.3958725961660297,32.28330941632301,75.73303118916147,3.0723852420021656,256.0559076273583,82.51778293456937
574,-7.547993001635124,-255.91346520928735,1.4318391243184883,32.29586748282895,75.70235674324536,3.096436669221192,256.0429622561099,82.47207212318293
575,-7.615751917757998,-255.90429784771618,1.457118937658531,32.30280995903761,75.66824520827825,3.1182181850436126,256.03605166379424,82.4231074004477
576,-7.691643972615951,-255.9009840095883,1.4716217601265908,32.30868097985479,75.63285344319172,3.137401489249313,256.0351673359476,82.37466994565105
577,-7.774089268525863,-255.9033844907843,1.4754197437012029,32.31789313505852,75.59828248979578,3.153769081188151,256.0401184006401,82.3303965143034
578,-7.861417437542954,-255.91119374383092,1.468768307215372,32.334610807598786,75.56651622369488,3.167224392589591,256.05054721293527,82.29368272145037
579,-7.951909066575333,-255.9239607737705,1.4521222976410277,32.362626593201966,75.53936510577253,3.1777964174569377,256.0659516014808,82.2675889612453
580,-8.043835028744853,-255.94111534925563,1.4261460257358713,32.40523818933936,75.5184169584043,3.1856390825256837,256.0857123122933,82.25475340008566
581,-8.13549294160088,-255.96199755031083,1.3917163342868748,32.465133166249366,75.5049961638281,3.1910257156431285,256.10912364053837,82.25731600434658
582,-8.225240223997261,-255.98588857775948,1.3499186675060661,32.54428841965597,75.50013220198967,3.1943391768393745,256.13542515965116,82.27685689148706
583,-8.311523285175854,-256.0120410883647,1.3020367837044955,32.64388991920882,75.50453798648343,3.196058448197729,256.1638328032809,82.31435142890115
584,-8.392902401444443,-256.03970774382043,1.2495370301589517,32.76427682988119,75.51859801179685,3.19674264509465,256.193567981751,82.37014352166149
585,-8.468071990082022,-256.0681668898137,1.194047952763003,32.90491243957323,75.54236590493372,3.1970134623344246,256.22388364614375,82.44393752750402
586,-8.53587628332476,-256.09674435796614,1.1373356126443188,33.06438270048627,75.57557062657382,3.197536984290731,256.25408629597194,82.53480830432261
587,-8.59532074012851,-256.124830535843,1.0812745754628346,33.24042163153076,75.6176303423161,3.1990055527661183,256.2835530863412,82.64122809727742
588,-8.645579845431508,-256.1518921999782,1.0278143696474313,33.42996143551805,75.66767287825874,3.2021200164484727,256.3117435489653,82.76110834352372
589,-8.686002168959448,-256.17747908009295,0.9789414241739732,33.629204134848635,75.72456163214473,3.207572284751578,256.3382059240287,82.89185403159671
590,-8.716113565829469,-256.20122554857727,0.9366370347083004,33.83371096619778,75.78692578836151,3.2160278338611974,256.3625785314462,83.03042802114369
591,-8.7356191391153,-256.2228480681874,0.9028325111815687,34.03850570120216,75.85319368047418,3.2281077710568016,256.3845868461142,83.17342271324084
592,-8.744404144785495,-256.2421390860854,0.8793630700874626,34.23818833172406,75.92162817491753,3.2443702615847867,256.40403698593667,83.31713662347727
593,-8.74253355873601,-256.25895808594095,0.8679221874460412,34.42705597867983,75.99036302325788,3.265291481641054,256.42080633019896,83.45765367846458
594,-8.730249664103912,-256.27322064820316,0.8700181314024783,34.599228318415086,76.05743926373414,3.2912466433792886,256.43483211054456,83.59092338624278
595,-8.7079668498559,-256.284886622614,0.8869343275514122,34.74877523785871,76.1208409824603,3.32249191390043,256.44609906281255,83.71284043684474
596,-8.676262907528853,-256.29394875347475,0.9196950420202011,34.869844854781306,76.17853008172625,3.359148184500295,256.4546274655701,83.81932279008522
597,-8.635866446470423,-256.300423131086,0.9690375646781845,34.95679047509102,76.22848006476474,3.4011876814950095,256.46046293369886,83.90638783168488
598,-8.587640477128973,-256.3043425273824,1.0353916840632318,35.004295429104836,76.26870908220508,3.448424362990177,256.46366903302635,83.97022655838457
599,-8.532562568370151,-256.3057530375357,1.1188668304223717,35.00749489591571,76.2973124950394,3.5005088812134275,256.4643231561136,84.00727583843246
600,-8.471702183632784,-256.3047137389846,1.2192468781341685,34.96209366457592,76.31249502534422,3.556928596676542,256.46251539358224,84.01428856398415
601,-8.406195862867255,-256.3012985903099,1.3359923317840052,34.864478255524155,76.31260231282178,3.617012762434783,256.4583496459244,83.98840106622531
602,-8.337220927958029,-256.29559964625537,1.468249553322113,34.71182103850356,76.29615147764649,3.6799426228203562,256.451946072575,83.92719664269427
603,-8.265968449882156,-256.28773078052546,1.6148667764495204,34.50217316699644,76.261860141898,3.7447658380502684,256.4434440904513,83.82876357495125
604,-8.193616368091936,-256.27783132818087,1.7744167143023033,34.23454255897028,76.20867327920769,3.8104143951562586,256.43300535793054,83.69174569334376
605,-8.12130381289873,-256.26606926618035,1.9452254458741065,33.908952961943314,76.13578724486756,3.875725038114929,256.42081639113184,83.51538344633212
606,-8.050107708505141,-256.2526436932121,2.125406995022613,33.5264804336829,76.0426703897697,3.9394612639817934,256.4070906023072,83.29954359691658
607,-7.981022597738121,-256.237786452175,2.31290273522778,33.08926436347448,75.92907977602337,4.000336067448921,256.3920696279744,83.04473610162195
608,-7.914944443239343,-256.22176279953044,2.5055245573434517,32.60049135214529,75.7950736660505,4.057034830592408,256.3760238694042,82.75211736246968
609,-7.852659019552018,-256.20487108360453,2.70100062371817,32.064351633121596,75.64101959883499,4.1082380065949975,256.3592522212731,82.42347973195551
610,-7.794835373130442,-256.1874414081763,2.897022461463264,31.48596899017574,75.46759794249243,4.152643495320461,256.34208097380474,82.06122773076886
611,-7.742024581639794,-256.1698332097384,3.0912921014183614,30.871306144959696,75.27580081726096,4.188988795521195,256.3248618174069,81.66834183024982
612,-7.6946636741979,-256.1524316347908,3.2815679617968425,30.22704833559587,75.06692627648411,4.216073082935231,256.30796882390115,81.24833090239771
613,-7.653084205634115,-256.13564262809035,3.465708261456305,29.560468382012687,74.84256768294601,4.232779295862719,256.29179428972816,80.8051746524083
614,-7.617524707381567,-256.11988672087466,3.641711000616587,28.879277050064683,74.60459834151305,4.238096167010967,256.27674339570484,80.34325759021958
615,-7.5881459824779025,-256.1055916382937,3.807749965807682,28.191463055568246,74.35515161938974,4.231140003485032,256.26322776293307,79.86729637781337
616,-7.5650478599206314,-256.09318406285433,3.962206655151472,27.50512759037192,74.09659697046484,4.211175940751507,256.2516581962739,79.382262683407
617,-7.548285691385101,-256.0830811438628,4.103698270073265,26.82831871803979,73.83151244914096,4.177638393918511,256.24243715352327,78.89330392429004
618,-7.537884842899934,-256.0756824516733,4.231101883114182,26.168871228982866,73.56265442140995,4.130150475560827,256.23595158560477,78.40566440686422
619,-7.533851822403255,-256.0713629070004,4.343574653303758,25.5342574648209,73.29292525805316,4.068542192212678,256.2325666316972,77.92460934179672
620,-7.53618130925378,-256.07046687636733,4.440569688208582,24.93145426890065,73.02533985213957,3.9928672307611297,256.2326203270485,77.45535406611894
621,-7.544858928766925,-256.0733033863781,4.521846975195347,24.366830751161626,72.76299182372578,3.90341811517547,256.23641925516466,77.0030005844057
622,-7.559860005884861,-256.0801423989617,4.587478771523485,23.846061082269244,72.50902018807551,3.8007394996936346,256.2442350739177,76.5724832247346
623,-7.5811448010113605,-256.0912121498765,4.6378489252753115,23.37406600227038,72.26657702741166,3.6856393616891534,256.2563019121018,76.16852474050958
624,-7.6086509814293946,-256.106697477708,4.673645733379107,22.954985939861494,72.03879636351337,3.5591977887463746,256.2728145663818,75.79560355764272
625,-7.64228430235292,-256.1267388677889,4.695848112810273,22.59218735625639,71.82876405833306,3.42277285442296,256.2939272355643,75.45793207950445
626,-7.681908586573271,-256.1514317668003,4.705705139952843,22.2883020303785,71.63948821176055,3.278002765381678,256.3197523702096,75.15944503402761
627,-7.727336067576673,-256.18082568925513,4.704709447917938,22.045296576096508,71.47386919449823,3.1268031333914856,256.3503591903787,74.90379582778395
628,-7.778319001487932,-256.2149227011302,4.694565417597684,21.864566844881246,71.33466820604656,2.9713579922194806,256.3857714947491,74.69435790200222
629,-7.8345431927405045,-256.25367492679976,4.677153305768623,21.747049478958164,71.22447317204525,2.8141031203833213,256.4259644446735,74.53422736565305
630,-7.895623814834773,-256.29698070045464,4.654490353614094,21.69334117067906,71.1456609339388,2.657700369755411,256.47085997485516,74.4262228588135
631,-7.961103749151345,-256.34467888090705,4.628689692246713,21.703815407426667,71.10035500913655,2.505002027653035,256.5203203722757,74.37287871968695
632,-8.030454635959826,-256.39654079539037,4.601917730871575,21.77872668083709,71.09037867808192,2.3590047386843986,256.57413950814276,74.37642808233802
633,-8.103080854019238,-256.4522594338343,4.576350777969746,21.918293201002744,71.11720378685584,2.222793141634501,256.6320313647393,74.4387735003609
634,-8.178326594534797,-256.51143593142484,4.554131859670587,22.12275088001937,71.18189641955728,2.0994740532502427,256.6936159176123,74.56144400126611
635,-8.255485999435436,-256.57356394791304,4.5373289059911865,22.392373476598806,71.2850613958471,1.99210266074366,256.75840300204845,74.74553895335275
636,-8.333816022443193,-256.63801311808663,4.527895508891264,22.72745602203667,71.42678825772512,1.903602714103026,256.8257753495487,74.99166054838189
637,-8.412551332792264,-256.7040132296341,4.5276352420864505,23.128260697129036,71.60660194441272,1.8366831327173705,256.8949724471061,75.29983789626615
638,-8.490920331032402,-256.7706411825226,4.53817010537343,23.594926054519913,71.82342168043405,1.793753763846273,256.9650772547925,75.66944660949797
639,-8.568161304105427,-256.83681306158917,4.56091314484646,24.127341937828465,72.07553169943753,1.776843236841338,257.0350080859302,76.09912832619251
640,-8.64353792121324,-256.90128367654387,4.597044884618836,24.724993854492336,72.36056727918381,1.7875219279437142,257.1035179773566,76.58671494403966
641,-8.716353503787497,-256.9626555462333,4.647492986619951,25.386782159684603,72.67551913966206,1.8268330000025526,257.16920350583933,77.12916247442352
642,-8.78596365831763,-257.0193985236912,4.7129145066510905,26.110823320499257,73.01675849567405,1.8952343433703038,257.2305242323102,77.72249936659415
643,-8.851787000658447,-257.0698802682573,4.793680212031741,26.894242645808927,73.38008392378376,1.9925540368656403,257.2858329732758,78.36179382799746
644,-8.91331392255289,-257.1124068335705,4.889860721306347,27.732969888179262,73.76078978330382,2.117961668214375,257.33341617541004,79.04114404157727
645,-8.970113594596224,-257.14527188627875,5.0012147673042655,28.621550680213304,74.15375442730354,2.269957475022252,257.37154293413585,79.75369430209652
646,-9.021839545225028,-257.16681246336407,5.127180603999549,29.552987548596448,74.55354507828413,2.446380729330665,257.39852060815633,80.49167905511473
647,-9.068234178915771,-257.17546869048056,5.2668722368757415,30.51862407255628,74.95453517058952,2.6444380304623767,257.41275450850924,81.24649570244766
648,-9.109132523763188,-257.1698446109507,5.4190824248868354,31.508084550547785,75.35102924353266,2.860751205395138,257.4128088685907,82.00880589137944
649,-9.14446533367129,-257.14876727609646,5.582294087092298,32.50927931653477,75.7373901393828,3.0914234674759506,257.39746628863884,82.76866388569758
650,-9.174261433070942,-257.11134141622745,5.7547009639416515,33.508482722201755,76.10816334571645,3.332121545586752,257.3657829913061,83.51566960040857
651,-9.19864892850773,-257.0569972069487,5.93423747577658,34.49048707947594,76.45819383647672,3.5781708326417956,257.317137390713,84.23914307647956
652,-9.217854685476668,-256.985528868367,6.118617020393601,35.43883198386455,76.78273167087119,3.8246602726150707,257.25126967466707,84.92831666521711
653,-9.232201401798912,-256.89712216604806,6.305377565293488,36.33610479072082,77.07752375464305,4.066553661230308,257.1683104165294,85.57254094851314
654,-9.242101807192764,-256.792369341503,6.491933173865795,37.1643047553756,77.33889031275916,4.298804192392304,257.0687966911789,86.16150026304848
655,-9.248049878512514,-256.67227055746355,6.675629878987857,37.905260457503964,77.56378554716744,4.516469358986781,256.9536747326013,86.68543341995736
656,-9.250609216919973,-256.53822159525373,6.853804129170137,38.54108753485593,77.7498425555425,4.714823621450717,256.8242888255902,87.13535470565465
657,-9.25039880785875,-256.39198826496835,7.023842092553743,39.05467143275894,77.89540286902462,4.889466503938992,256.6823568492366,87.5032695233082
658,-9.248076505435646,-256.2356686427515,7.18323845407656,39.43015796859878,77.99953098832313,5.036423929839769,256.5299335548344,87.78237821246464
659,-9.244320946900574,-256.0716446430998,7.329653720057293,39.65343329926262,78.06201416736079,5.152240674178781,256.36936307799095,87.96726090067084
660,-9.239813043817936,-255.9025245596713,7.460969134965506,39.71257462438407,78.0833475454735,5.234061804615947,256.2032223311059,88.05403594431372
661,-9.235218326690743,-255.73107830258385,7.5753380393219905,39.59825368414847,78.06470464280144,5.279700934657788,256.03425701603186,88.04048470587031
662,-9.231171063395694,-255.5601673495883,7.671232055215505,39.304076586179704,78.00789322131061,5.287693094443189,255.8653122614548,87.92613601223646
663,-9.228260456022136,-255.39267186410294,7.747480174542446,38.82684544699727,77.91529661484613,5.2573301314148795,255.6992602944362,87.71230455999934
664,-9.22701874180593,-255.23141775476105,7.803298852011118,38.1667296881132,77.78980095371989,5.1886768567998445,255.53892786185727,87.40207884436778
665,-9.227910893805747,-255.07910648307094,7.838311614737503,37.32733776410549,77.63470934541176,5.082566677755962,255.38702615798354,87.00025605929977
666,-9.231325773775945,-254.9382502119646,7.8525573996346445,36.315683857274436,77.45364500038562,4.940576182292944,255.24608582749752,86.51322394348169
667,-9.237568871032428,-254.81111451546303,7.846487627317011,35.14204867726898,77.25044634157143,4.764979025516078,255.11839927469057,85.94879258926346
668,-9.246857030969108,-254.69967031697323,7.820952677174098,33.8197386289991,77.02905804768545,4.558680415424599,255.00597198543713,85.31598238250999
669,-9.259315706433217,-254.60555599491394,7.7771787707292495,32.364752660691074,76.79342252683927,4.325134401677374,254.9104838530489,84.62477697632598
670,-9.27497914604095,-254.53004985890232,7.716736312948749,30.79537044800316,76.54737640744327,4.0682469313420615,254.8332607584631,83.88585210657817
671,-9.293793573509493,-254.47405266598372,7.641500670878432,29.13167880449158,76.29455632216907,3.7922681949187873,254.77525610477161,83.11029197610506
672,-9.315622974934643,-254.43807957332774,7.553606394702304,27.395055261837307,76.03831766494483,3.5016781302174103,254.737041717474,82.30930495401944
673,-9.34025682363646,-254.42226081378848,7.455396067771712,25.60762877845431,75.781669208448,3.201069099897898,254.7188074065583,81.49394964063553
674,-9.36741906602313,-254.42635029734694,7.349365209535535,23.791737618121548,75.52722551671178,2.895029741400882,254.72036840865283,80.67488107858638
675,-9.39677790096604,-254.44974122745847,7.238104861360346,21.96940355404349,75.2771780122531,2.588033821538793,254.74117982448024,79.86212513691987
676,-9.427956091962262,-254.49148775469493,7.124243682319042,20.161839687177633,75.03328445370845,2.2843376147064673,254.7803571102196,79.06488699910959
677,-9.460541573810218,-254.5503318002257,7.010391573976915,18.389006522346417,74.79687559140149,1.9878888613920263,254.83670179506015,78.29139749364137
678,-9.494097993921432,-254.62473444506773,6.8990869030973805,16.669227879780394,74.56887701458287,1.7022497383217168,254.90873185590382,77.54879897348974
679,-9.528174784179507,-254.71291146678274,6.792749125827911,15.018875048083432,74.34984370733375,1.430535489484608,254.99471635698424,76.84307070987005
680,-9.56231651245884,-254.8128725299827,6.69363802404948,13.452124459559583,74.14000451602759,1.1753695097508776,255.09271387838393,76.17899229895458
681,-9.596071480539596,-254.92246328995603,6.603820029660207,11.980791105880567,73.93931350881687,0.9388548652869885,255.20061400189283,75.56014231561575
682,-9.628999635800094,-255.03940948262547,6.525141456954151,10.614236897825132,73.7475050458568,0.7225615648320611,255.31618092545006,74.98892835956279
683,-9.660679840179583,-255.16136206447112,6.459207980809241,9.359350262896566,73.56414932174083,0.5275284036966432,255.43709825498752,74.46664377773477
684,-9.69071647977035,-255.28594257563597,6.4073693864633325,8.22059063268889,73.38870526649386,0.35427791883339893,255.5610141210361,73.99354580466898
685,-9.718745313935015,-255.41078801272675,6.370708513026968,7.2000893543193385,73.22056804660157,0.2028429234549522,255.68558587450144,73.56894970677139
686,-9.744438314616092,-255.53359453407865,6.350033469380263,6.297797217005726,73.05910897788769,0.07280317891587305,255.80852365188224,73.19133374591301
687,-9.767507090902983,-255.65215926287536,6.3458725202938115,5.5116682998826745,72.90370639292703,-0.03666908766924661,255.92763204746203,72.85845033381891
688,-9.787704497876708,-255.7644193589096,6.358471309753596,4.837870084805954,72.75376683379758,-0.12675600597231296,256.0408490444689,72.56743954234713
689,-9.804824298983505,-255.86848748318624,6.387792237178712,4.271010500157115,72.60873679146502,-0.19893442926479277,256.146281325709,72.31494205592624
690,-9.818699192888213,-255.96268281558932,6.433515979127638,3.804373555471913,72.46810599807009,-0.2549111862915026,256.2422351418846,72.09720958124521
691,-9.82919790470245,-256.0455568971754,6.495045474659405,3.4301563253378973,72.331403914609,-0.2965547290711643,256.3272420501358,71.91021155634188
692,-9.836222210943015,-256.11591376939896,6.571513066341086,3.1397011084983886,72.19819148153985,-0.325824833372504,256.40007905125464,71.74973764286779
693,-9.83970469220414,-256.1728241698458,6.6617917134326525,2.9237175493406293,72.06805038829819,-0.34470217082340243,256.45978294273294,71.61149590245837
694,-9.839607762126288,-256.21563382286735,6.764511176117032,2.7724903766254223,71.94057208702478,-0.3551198150648254,256.5056589723485,71.49120676345629
695,-9.83592422482436,-256.2439660202861,6.878079818641559,2.6760692289995096,71.81534855688909,-0.35889904646159176,256.53728401493163,71.38469290645855
696,-9.828679363941166,-256.25771874142436,7.0007122114437115,2.6244377863335306,71.6919664286837,-0.3576920557569694,256.5545045268512,71.28796504077947
697,-9.817934378015948,-256.2570566372727,7.130462093286048,2.607660072046036,71.57000551548232,-0.3529341616776352,256.5574295848778,71.19730321272161
698,-9.80379080902695,-256.2423983279589,7.265259681165649,2.616002355627183,71.44904213521657,-0.34580786135985797,256.5464194189581,71.10933285005822
699,-9.786395465120574,-256.2143995219213,7.402952018305577,2.6400296607483393,71.32865699548475,-0.337220466409554,256.5220698938367,71.0210943489171
700,-9.765945266049814,-256.173932402916,7.541345091759503,2.670676585257851,71.20844696270753,-0.3277963758564501,256.48519332963224,70.93010477638249
701,-9.74269145378995,-256.12206164525645,7.678246684185356,2.699293043069844,71.08803976665818,-0.3178843164541686,256.43679597148275,70.83441020799594
702,-9.716942632961969,-256.06001742406954,7.811509145650831,2.7176666569561045,70.9671105087277,-0.30757918733604495,256.3780524304508,70.73262725686521
703,-9.689066053382868,-255.9891659158336,7.939071375343789,2.718024807989091,70.84539867716343,-0.29675749680666086,256.31027754579486,70.62397240663138
704,-9.65948645820485,-255.91097800579655,8.058999282149852,2.69302067470573,70.72272425283168,-0.28512479799863727,256.23489633458695,70.50827785464749
705,-9.628681808600406,-255.8269971548811,8.169523865435744,2.635708838156688,70.59900148697822,-0.2722730469684462,256.1534129253367,70.38599276739487
706,-9.597175301928758,-255.73880750950556,8.269075896501274,2.539517023775654,70.47424904669677,-0.25774545268211563,256.0673795015543,70.25816913834065
707,-9.565523313786226,-255.64800327687786,8.356316142211426,2.398221092126031,70.34859536190106,-0.24110619294704003,255.9783662267135,70.12643172304026
708,-9.534299267437174,-255.55616012819306,8.430160244948802,2.2059302725692254,70.22227809184811,-0.2220123443301844,255.88793288161122,69.9929317329484
709,-9.50407401586021,-255.46480899382098,8.489797675334982,1.9570887642783705,70.0956366850573,-0.20028548556139067,255.7976025795865,69.86028413391837
710,-9.475393987169124,-255.37541223267164,8.534704483623914,1.6464983076804447,69.96909715338252,-0.1759806039948308,255.70883757984217,69.73148864952095
711,-9.448758840364306,-255.2893420098272,8.564649843827292,1.2693643984138028,69.84314856503802,-0.14945006848024892,255.6230170989397,69.60983506628263
712,-9.424600549058862,-255.2078608983115,8.57969655314549,0.8213667474868759,69.71831145783167,-0.12140046116329031,255.541417213108,69.49879425282717
713,-9.403265697715293,-255.13210508371256,8.580195615946536,0.2987526201105198,69.59509931069071,-0.09293995970191127,255.46519329888443,69.40189736075406
714,-9.385002422827863,-255.063070822751,8.566774833878945,-0.30155002540826614,69.47397520325593,-0.06561375897973319,255.39536571071423,69.32260678077705
715,-9.36995291263513,-255.0016048080138,8.540321182751123,-0.981804060703376,69.35530665712488,-0.041424830186837215,255.33280937142783,69.26418339675946
716,-9.35815173807283,-254.94839881926808,8.501956892657994,-1.7433248973527655,69.23932227154698,-0.02283730922881573,255.27824766209656,69.22955539466233
717,-9.34952964150279,-254.9039886185661,8.453009498156307,-2.586338688495616,69.12607405799633,-0.01276012122134346,255.23225056484205,69.22119425985237
718,-9.343921942617479,-254.86875663412496,8.39497650094335,-3.509843863104646,69.01540924859195,-0.01450910922654161,255.19523659741657,69.24100354062251
719,-9.341080536155049,-254.84293773435044,8.329485635899175,-4.511483135629417,68.90695473127441,-0.03174688021678881,255.1674778402597,69.2902253926393
720,-9.340688470054907,-254.82662739333705,8.258252086358823,-5.587433152808445,68.80011618877936,-0.06840069831685647,255.1491073676517,69.36936887738975
721,-9.342376142369726,-254.81979170260843,8.183034279059367,-6.732318641275931,68.69409265708109,-0.12855989854677383,255.14012855617113,69.47816262239208
722,-9.345738174758802,-254.82227881515826,8.105589925689886,-7.939157367070656,68.5879057861171,-0.21635531473743946,255.1404258733082,69.61553296399272
723,-9.350350080825134,-254.83383143108628,8.02763367052217,-9.19934150897975,68.48044177036745,-0.33582403201961486,255.1497767620076,69.77960726561412
724,-9.355784034862797,-254.85409989139458,7.9507971824173005,-10.502660182364547,68.37050286885041,-0.49076340199825097,255.16786418350839,69.96774087669323
725,-9.361623299634415,-254.88265542848862,7.87659209046611,-11.837366729750682,68.25686474726739,-0.6845787503667333,255.19428935890147,70.17656525367333
726,-9.367475001576581,-254.91900319432193,7.806375993413907,-13.1902929315198,68.13833557746007,-0.9201295975413963,255.22858432325947,70.40205412177015
727,-9.37298086985432,-254.96259483330354,7.741321800471342,-14.547010475316036,68.01381289210909,-1.199579519027983,255.27022405191596,70.639604178809
728,-9.377825453850967,-255.0128405234536,7.682390744917894,-15.892037899471001,67.8823345298045,-1.5242549745635792,255.3186380735694,70.88412664055771
729,-9.38174145498942,-255.0691205786332,7.63030954965635,-17.209088838489837,67.74312050677395,-1.8945184367411025,255.3732216611908,71.13014578720596
730,-9.38451222533953,-255.1307969179276,7.585552471545303,-18.481354795491033,67.59560327726273,-2.309660802884174,255.4333469254655,71.37190055384598
731,-9.385972013403643,-255.19722488323356,7.548329267315378,-19.69181297299837,67.43944468681056,-2.7678172871042857,255.49837433730067,71.60344522074465
732,-9.386004875283525,-255.26776586721547,7.518580360227649,-20.823547177815044,67.27453912679236,-3.2659098211250672,255.56766520487812,71.81874559022059
733,-9.38454311138448,-255.34180091047602,7.495980505459701,-21.860067868348146,67.10100397036162,-3.799617667211755,255.64059532476588,72.0117677797517
734,-9.381565666228642,-255.41874483111553,7.47995203023835,-22.785616501046547,66.91916001802514,-4.363376776148816,255.71656940869343,72.17655779031077
735,-9.37709638222128,-255.498059629213,7.4696882827900595,-23.58543997584055,66.72950588025074,-4.950407656849352,255.7950350351092,72.3073110731601
736,-9.371201589856135,-255.57926506324614,7.464187194769964,-24.24602362320306,66.53269051433432,-5.552771237057504,255.87549399609202,72.39843228030605
737,-9.363986356323291,-255.66194374461443,7.462293811448541,-24.755275903338937,66.3294874207339,-6.16145228397924,255.95750832827105,72.44458633436379
738,-9.355588765553007,-255.74573812320136,7.462749515994693,-25.10266428906508,66.12077263328437,-6.766470198199093,256.0406983180834,72.44074306837373
739,-9.34617180706248,-255.8303374213482,7.464244899328836,-25.27930860645138,65.90750718505828,-7.357017142714154,256.12473044488473,72.3822189929135
740,-9.335912766407711,-255.9154537825051,7.465473064015097,-25.278044103168646,65.69072367814742,-7.921623346699624,256.20929444213715,72.26472102290988
741,-9.324990351695734,-256.000788403991,7.465180529018387,-25.093470590027245,65.47151607939202,-8.448348990422987,256.29407018300657,72.08439785663343
742,-9.313570054416497,-256.08598996123686,7.462213550177624,-24.722005552943333,65.25103174079953,-8.92500139263802,256.3786866622085,71.83790481051616
743,-9.301788418884119,-256.17060891039955,7.4555582809246825,-24.16195813444487,65.03046464276652,-9.3393753714672,256.46267664825916,71.52248716175212
744,-9.289737074408155,-256.25405199893453,7.444373571958823,-23.41363774367522,64.81104881375173,-9.67951371629214,256.54543133823285,71.13608556248614
745,-9.277447632964625,-256.33554137088674,7.428015386073476,-22.479506406726312,64.59405076025824,-9.93398377506022,256.62615941605753,70.67746512785898
746,-9.264878803624043,-256.4140820827878,7.406051999505567,-21.36437850145835,64.38075960520592,-10.092165304954786,256.7038543579377,70.14636765364897
747,-9.25190714537458,-256.4884408858549,7.378269540213595,-20.075665824083945,64.17247360172375,-10.144543994127783,256.7772728824854,69.54368435907708
748,-9.238322648738679,-256.5571380917486,7.344667969191978,-18.623660414424442,63.97048192158158,-10.083004432076944,256.8449264142456,68.87164482097099
749,-9.223829875959744,-256.6184534779168,7.3054482156407525,-17.021842474520007,63.77604122680097,-9.9011157431719,256.90508657047826,68.13401652907028
750,-9.208054901315549,-256.67044661170695,7.260991678015243,-15.28719625970919,63.590347484181756,-9.594402540515539,256.9558051011552,67.33630875396665
751,-9.190557921724782,-256.7109916109781,7.211833601233026,-13.440513238917072,63.41450457938514,-9.160593309784083,256.99494834409643,66.48597404302849
752,-9.170851156458795,-256.7378260340767,7.158631937733645,-11.50665937515004,63.249492272829855,-8.599837954964366,257.02024592324085,65.5926004847168
753,-9.148421445813387,-256.7486131329297,7.102133278201332,-9.514782313093903,63.09613670657259,-7.914886261542796,257.0293529487034,64.66808781405987
754,-9.1227567160046,-256.741016017567,7.043137397104645,-7.498434721071257,62.95508690296093,-7.111219549533984,257.0199242817972,63.72680043377731
755,-9.093375174028573,-256.7127813832769,6.982461962324199,-5.4955919791693155,62.82680045464807,-6.197128679428485,256.9896985217552,62.78569046065756
756,-9.059855809148077,-256.6618294922599,6.920908992330208,-3.54854563131592,62.711540919900564,-5.1837326397444246,256.9365884035806,61.86438393920711
757,-9.021868668497882,-256.58634632457375,6.859234643623027,-1.703658297929307,62.60938840571892,-4.084933078087086,256.85877351496123,60.98522342002081
758,-8.979203504592009,-256.48487341216793,6.798123823408348,-0.010970929048339512,62.52026361324094,-2.9173013968543398,256.7547908383795,60.17326030952373
759,-8.93179562528915,-256.3563908776377,6.738170896866647,1.4763407456348872,62.4439644350643,-1.6998965709167315,256.6236186295947,59.456190937995714
760,-8.879747944286303,-256.20038953170194,6.679867321646925,2.702657116338348,62.38021317926903,-0.45401375153190054,256.4647494647949,58.86423125920971
761,-8.823348301722518,-256.01692842286536,6.6235963782488785,3.6107425127097104,62.328711673129,0.7971340380987937,256.2782488079686,58.42992642550274
762,-8.763081175287025,-255.8066748431707,6.56963439132672,4.142692415680687,62.289200796731144,2.0287963717567004,256.0647960370339,58.187893011762206
763,-8.699633026792114,-255.5709243720361,6.51815712693563,4.240975601503387,62.26152036695326,3.2151208665128346,255.82570542571227,58.174493256704096
764,-8.633890790989414,-255.31159911666694,6.4692494950233765,3.849540385519879,62.245664808775814,4.329634170314901,255.56292514296499,58.42744233400793
765,-8.566933389023296,-255.03122302502337,6.4229163005093435,2.91494884312796,62.24182985922097,5.345757136930487,255.27901304568317,58.98535143787825
766,-8.500016516071044,-254.73287412901064,6.379091669346569,1.3874992385914118,62.25044576693522,6.237341306940546,254.97708902743418,59.88721147890672
767,-8.43455118448634,-254.42011483964157,6.337645180291012,-0.7777046510328718,62.27219313339163,6.97921272328692,254.66076497235943,61.171824551941356
768,-8.372076562664676,-254.09690282829175,6.298383809372219,-3.619777819737022,62.30799869713116,7.547708528130884,254.3340548210494,62.87719314671284
769,-8.314227584850768,-253.767486322779,6.2610502337044185,-7.171209260915025,62.35900994897624,7.921191751386915,254.00126860681652,65.03988031771578
770,-8.262697731470869,-253.43628861260657,6.2253191898603655,-11.457180196570127,62.42654935236846,8.08053015967309,253.66689533087896,67.6943575066548
771,-8.219197447250263,-253.1077871775165,6.190793998587379,-16.495070428595767,62.51205085304302,8.009525888864834,253.33548018512388,70.87235993857165
772,-8.18540895663132,-252.78639316077857,6.157005120555192,-22.294169891628965,62.6169829286935,7.695283748389953,253.0115019422887,74.60227183262488
773,-8.162938658347324,-252.4763368350054,6.123412056999227,-28.855603786490814,62.74276338137064,7.128507508294408,252.6992562580166,78.90856450941574
774,-8.153268627924879,-252.1815642190724,6.089409386628883,-36.1724706185649,62.890671375919915,6.303715153692088,252.4027501360289,83.81130955640084
775,-8.157708870821146,-251.90564923286829,6.054337396016218,-44.23018338125871,63.061762017203506,5.219366059834484,252.1256120284671,89.32578652587937
776,-8.177351850635963,-251.6517248637551,6.017497594008403,-53.0069955205115,63.25678819030562,3.87789536998342,251.87102111957302,95.46220035575853
777,-8.21303061228745,-251.42243574735016,5.978173249863658,-62.47468584696269,63.47613352128987,2.285653585340943,251.64165825656855,102.22551812909762
778,-8.265281678991856,-251.219913265178,5.9356547759837675,-72.59937080420667,63.719759168129265,0.4527524706520149,251.4396796777591,109.61542840195338
779,-8.334313854434118,-251.04577278334037,5.889269219073215,-83.34240875209066,63.98716583570898,-1.607178282245941,251.2667131945835,117.62641978007723
780,-8.419984040204401,-250.90113116960217,5.838412452605948,-94.66135920027025,64.27737116517376,-3.8773158154834104,251.12387498169272,126.24796942423882
781,-8.521781124488617,-250.786641403149,5.782582107700484,-106.51096011673604,64.58890169107725,-6.338039332174617,251.0118037917456,135.46482730030897
782,-8.638818930037612,-250.702540020453,5.721409001989011,-118.84408841662979,64.91979792791079,-8.967382234466365,250.93070833237778,145.2573786174054
783,-8.769839162621304,-250.6487023440635,5.654684823831782,-131.61267239456353,65.26763071558591,-11.741525864710328,250.88042274494467,155.6020651669345
