time,ax,ay,az,gx,gy,gz,accmagnitude,gccmagnitude
0,-4.959715276109931,-234.01304998552075,103.26477799525998,47.379479203968415,6.946189460201462,-6.786165153339148,255.83020021227932,48.36273075309893
1,-4.755550639297837,-234.04342732085553,102.8751356939106,47.872326768541825,6.8860225895087375,-6.899094481968158,255.7014549775109,48.860492097859876
2,-4.558044264223393,-234.06826472947907,102.47697361625032,48.378881381255674,6.827695378085221,-7.022582231762705,255.56433967873767,49.37367797410301
3,-4.368894262569729,-234.08719570079478,102.07584476622662,48.89938797758697,6.770060056293659,-7.157541648343014,255.42073040839853,49.902512349673664
4,-4.1896219819173455,-234.09995839716456,101.67718428200932,49.43408694963069,6.712066314858778,-7.304731706867344,255.27255133361226,50.44719962651178
5,-4.021532530086506,-234.10640687726135,101.28618136954799,49.98317477373481,6.652809893451426,-7.464721602306526,255.12173407349505,51.00788657032266
6,-3.865682764826932,-234.1065179775998,100.90766864010872,50.54675721414436,6.591574560818306,-7.637859117767498,254.97018000750808,51.584616839608906
7,-3.7228580471275046,-234.10039321874186,100.54603180522848,51.12479614911049,6.527865794173713,-7.824243924075876,254.81972611110902,52.17727911386145
8,-3.5935585348094157,-234.0882553043459,100.20514134710764,51.717051759470486,6.46143475555461,-8.02370678689693,254.67211456878255,52.78555052317485
9,-3.4779951901539423,-234.07043920125778,99.88830672356347,52.32302243290629,6.39229150779986,-8.235795629251026,254.5289663771259,53.40883771561197
10,-3.3760950601838804,-234.047378385422,99.59825277082842,52.94188521302068,6.320706903196751,-8.459769387480524,254.3917593402968,54.04621841917227
11,-3.2875149282741845,-234.01958735182322,99.3371171608245,53.572439890897115,6.247203243921674,-8.694600552614844,254.2618110101063,54.6963866910837
12,-3.211662246718298,-233.98764166454833,99.10646697676142,54.21305984115804,6.172534572219429,-8.938987125298784,254.1402669726257,55.35760511836618
13,-3.1477222851360187,-233.95215664540586,98.9073316316289,54.86165242199679,6.097658149138474,-9.191374379245977,254.02809439030622,56.02766698717163
14,-3.0946904948625904,-233.91376550380326,98.7402485527118,55.515631199232224,6.023699191924718,-9.449986341789455,253.92608012305388,56.70387086743262
15,-3.0514090587834817,-233.8730975781803,98.60531751352353,56.17190148452806,5.9519111918607575,-9.712866327185983,253.83483241713043,57.38300923121804
16,-3.0166064721217225,-233.8307574771475,98.5022593940579,56.826859863176516,5.883634116480986,-9.97792527780873,253.75478521773633,58.06137181434688
17,-2.9889388707555,-233.78730615279895,98.43047550433562,57.47640774523314,5.820252561283503,-10.242996145008297,253.68620452224204,58.734763674124856
18,-2.9670317386778473,-233.74324512510123,98.38910425282207,58.11597863740578,5.76315555599154,-10.505892109753486,253.62919661420943,59.39853744010795
19,-2.949520584520123,-233.69900505700448,98.37707263000217,58.7405787953861,5.713699352743227,-10.764466103093268,253.58371826955616,60.047639105786324
20,-2.935089206388446,-233.65493957173493,98.39314056091165,59.34484110582195,5.673174171125502,-11.016668834274236,253.54958897145096,60.676666802290505
21,-2.9225043031432976,-233.61132463353803,98.43593673095717,59.923092360102366,5.642775534094046,-11.26060240385951,253.5265048638236,61.27994223404659
22,-2.9106454100191956,-233.5683631254531,98.50398514566253,60.46943434585494,5.623580504539448,-11.494566625689936,253.51405380224517,61.85159468116292
23,-2.8985293706967834,-233.52619363217443,98.5957224507815,60.97783919184019,5.616528859984512,-11.717095443395968,253.51173059084297,62.38565749577191
24,-2.8853287892220854,-233.48490201101473,98.70950681125561,61.442259027187056,5.6224090192984875,-11.92698133177542,253.5189514101583,62.87617672275903
25,-2.8703841548578026,-233.44453420790455,98.8436198230074,61.85674924887066,5.641848319822193,-12.12328632079738,253.53506659327425,63.3173308535368
26,-2.8532095977811247,-233.40510899953136,98.9962634156953,62.21560363089832,5.675307037630563,-12.30533919004853,253.55937130633623,63.70355985498381
27,-2.8334924900005922,-233.36662982707935,99.16555392954659,62.51349832957885,5.723075406587836,-12.472719319961357,253.59111422560693,64.0297006480173
28,-2.8110873484098367,-233.32909536190647,99.34951552755602,62.74564072583093,5.785272884797546,-12.625228545955315,253.62950473349596,64.29112530086218
29,-2.786004733480522,-233.29250863919577,99.546074898713,62.90791810918937,5.8618490629338655,-12.762853071162732,253.6737192576681,64.48387744601149
30,-2.758396056721243,-233.25688448235735,99.75305889250068,62.99704048158798,5.9525858686906306,-12.885717991743979,253.72290715221138,64.60480184326553
31,-2.728535366489028,-233.2222547347478,99.96819639649206,63.01067126784844,6.0571010059743715,-12.994037257817165,253.77619620377357,64.65166160760059
32,-2.69679922153035,-233.18867075272925,100.1891254823051,62.94753953128911,6.174852806362019,-13.088061991259137,253.83269767614405,64.62323747133021
33,-2.6636456768742214,-233.15620277286308,100.41340653394214,62.807527493352346,6.305146852500113,-13.168030094115528,253.891510828605,64.51940365637161
34,-2.629593238047616,-233.12493607951623,100.63854165031242,62.591727800806396,6.447144860625701,-13.23412003716624,253.95172696232552,64.34117555547327
35,-2.5952004231684986,-233.09496426246747,100.8620001186932,62.30246607004637,6.599876352085798,-13.286411585998607,254.01243318500832,64.09072545023481
36,-2.5610463251607594,-233.06638020943345,101.08124929478949,61.94328570842309,6.762253551063421,-13.324855967393399,254.07271622620868,63.77136386291556
37,-2.527712328380444,-233.0392658283056,101.29378983346194,61.51889376341704,6.933089686517996,-13.349257574865431,254.1316668003146,63.38748574080383
38,-2.4957649733739107,-233.0136818039934,101.4971938873793,61.035068434789835,7.111120491883801,-13.359268721401154,254.18838516784098,62.94448236064755
39,-2.465739917223356,-232.98965881448487,101.68914470893046,60.498530739943334,7.295028314811018,-13.35439817799046,254.24198858244793,62.44862146837323
40,-2.4381269842762063,-232.96719142118633,101.86747615094765,59.91678451260082,7.4834679926921694,-13.334033390874067,254.29162114259333,61.90689962810256
41,-2.4133564029577466,-232.94623537989642,102.03021079010676,59.297930348962296,7.675093526508765,-13.297475462787533,254.33646622822639,61.32687197440924
42,-2.391786450354276,-232.9267086214204,102.17559559945543,58.6504602494868,7.868584528205057,-13.243985262037176,254.37576132872712,60.71646550389783
43,-2.373692861900997,-232.90849577440338,102.30213419373385,57.983040535909815,8.062671396649641,-13.172838423081188,254.40881476326643,60.08378271235962
44,-2.359260494681156,-232.89145583068395,102.40861471957355,57.304291158524244,8.2561582264274,-13.083386576380173,254.43502356531295,59.4369028051322
45,-2.3485778128681694,-232.8754323347496,102.49413249604717,56.622569728120645,8.447942597497928,-12.975121893853519,254.4538916155793,58.78368786611644
46,-2.3416347105918147,-232.86026530582475,102.55810652553204,55.94576846949972,8.637031619665178,-12.847741896526486,254.46504695326004,58.131601215216705
47,-2.3383239643817912,-232.84580395706345,102.60028903570874,55.281131759569355,8.822553890024883,-12.701211409760718,254.4682570773384,57.4875446728385
48,-2.3384462880593864,-232.83191916375907,102.62076736030718,54.63510096648042,9.003767327485466,-12.535818600694592,254.46344100325308,56.8577205740103
49,-2.341718669772512,-232.81851465407632,102.61995777528622,54.0131919880735,9.180063095741946,-12.352222215381744,254.45067698252214,56.2475231661393
50,-2.3477854701346255,-232.80553614100992,102.5985913864832,53.41990930099176,9.350965922962642,-12.151487416968271,254.43020520893643,55.661462558504276
51,-2.3562316522714455,-232.79297797094569,102.55769273269672,52.858698596988724,9.516131063917763,-11.93510797550213,254.40242538878522,55.10312277432885
52,-2.3665974874353113,-232.78088711280452,102.49855225609967,52.331938303947304,9.675338031471153,-11.705012993366795,254.36788947538358,54.57515380999379
53,-2.3783941251962255,-232.7693643976279,102.42269406053556,51.84096855435867,9.828481173240831,-11.463556914323773,254.3272900539407,54.07929604841435
54,-2.3911195031207573,-232.7585629739104,102.33184040141174,51.3861545572947,9.97555722606296,-11.21349226356179,254.28144492211499,53.61643399241095
55,-2.404274141965537,-232.74868404682812,102.22787417409796,50.96697993081387,10.116650099210753,-10.95792534489861,254.23127843386214,53.18667513090118
56,-2.4173763897597396,-232.73997004155146,102.11280038901025,50.58216442273949,10.251913260451754,-10.700255912252304,254.17780012693433,52.78944885656225
57,-2.4299766441402983,-232.73269531442304,101.98870740462466,50.229799616931025,10.381550218917099,-10.444102598613036,254.12208105052332,52.423619733735165
58,-2.4416700348527947,-232.72715452484226,101.85772864167352,49.907495688013604,10.505793747096238,-10.193216600679074,254.06522817835318,52.08760906885769
59,-2.4521070535063565,-232.7236488985011,101.72200554372485,49.6125320286701,10.624884680951315,-9.951386738879933,254.00835741587733,51.77951865666886
60,-2.4610017314119608,-232.7224708513518,101.58365253525633,49.34200464823121,10.739051353435046,-9.722339497250198,253.952565922853,51.49725076738415
61,-2.4681371696783367,-232.72388768799752,101.4447246350956,49.092963658588836,10.848490882581785,-9.509637968425903,253.89890465901013,51.23861891433581
62,-2.4733684424715263,-232.72812526530637,101.30718826481596,48.862534943114234,10.953353573370464,-9.316583760362843,253.84835217492758,51.001444701834416
63,-2.4766230763407546,-232.73535267123776,101.17289563395815,48.64802124488405,11.053731554632561,-9.146125828924736,253.80179075201121,50.783637088044564
64,-2.477899450442573,-232.7456691637267,101.04356281862748,48.446979388198564,11.149652469096006,-9.000779860368805,253.75998606711974,50.58325168792481
65,-2.4772635591058347,-232.75909474395183,100.92075126556787,48.25727209217541,11.241078640137664,-8.882561245680668,253.72357152173433,50.39852923823705
66,-2.4748446139717273,-232.77556562179973,100.80585205867614,48.07709468696724,11.327911754796506,-8.792933910395465,253.69303811017483,50.22791392262322
67,-2.470829909196477,-232.79493540885844,100.70007209870278,47.904978767652096,11.41000280144044,-8.732776382194812,253.66873023956444,50.070053708981305
68,-2.4654591923706364,-232.8169822285891,100.60442155029236,47.73977620682884,11.487166783885376,-8.702365618854872,253.65084740490286,49.92378599609344
69,-2.4590185074944126,-232.84142120017887,100.51970243050255,47.58062787816133,11.559201535744663,-8.701378391717649,253.6394511606641,49.78811259201472
70,-2.4518332597510395,-232.8679210883483,100.44649876105034,47.4269218864012,11.625909701607753,-8.728909470141998,253.63447644297204,49.662168313152044
71,-2.444260242709611,-232.89612345188968,100.38516905714773,47.27824607811813,11.68712262680575,-8.783505447404362,253.63574601793826,49.54518731799684
72,-2.436678535077274,-232.92566243125574,100.33584202071283,47.134339208550514,11.74272459813738,-8.863212724289442,253.64298669675844,49.43647076961233
73,-2.42947936057712,-232.9561833877456,100.29841613357512,46.995044496698696,11.792675736930374,-8.965637868111425,253.65584596036643,49.335358707620934
74,-2.4230551229084574,-232.98735888999116,100.27256345724398,46.86026851686651,11.83703193437466,-9.08801824185526,253.67390774612926,49.24120821399345
75,-2.417787903210237,-233.01890093091922,100.25773756951652,46.72994748957555,11.875960500967278,-9.227300436097481,253.69670635886024,49.153379105788
76,-2.4140377753202293,-233.05056863925284,100.2531854504497,46.60402208603352,11.909750577680564,-9.38022370701342,253.72373777353548,49.07122750657915
77,-2.412131342482599,-233.08217107938532,100.25796324453324,46.48242093321236,11.938817745773301,-9.54340543643041,253.75446794585324,48.99410681646887
78,-2.4123509159415573,-233.11356504275787,100.27095595898864,46.36505218473676,11.963702647638373,-9.713425636010218,253.78833808275087,48.921374900842466
79,-2.414924762719419,-233.1446480637568,100.29090121465055,46.25180184278743,11.985063781473274,-9.88690770505969,253.8247671487093,48.85240578189376
80,-2.420018852141986,-233.17534723913698,100.31641718621707,46.14253700734259,12.003664928851268,-10.060592991532765,253.86315220789717,48.78660376084442
81,-2.42773049233941,-233.2056047567568,100.34603483903031,46.03711195298344,12.020357885813047,-10.231407154907687,253.90286748926619,48.7234177651457
82,-2.438084163819972,-233.2353612984663,100.37823439567013,45.9353749401041,12.036061289064211,-10.396516821917414,253.94326322933884,48.662353835975765
83,-2.4510297808833106,-233.26453861014386,100.41148558459078,45.83717393159868,12.051736381147892,-10.553375520490228,253.98366531273223,48.602984020524104
84,-2.4664435569032985,-233.29302251895865,100.44429066658742,45.74235981519301,12.068360581340619,-10.699758398598755,254.02337649705095,48.54495043960605
85,-2.4841315388719294,-233.3206476080157,100.47522864723832,45.65078622254303,12.086899764400165,-10.833785823752438,254.0616797105555,48.48796388764011
86,-2.503835650211087,-233.34718468479755,100.50299868149617,45.56230551257981,12.108280218139987,-10.95393656759978,254.09784368177299,48.43179691183077
87,-2.5252418010707127,-233.37233204213717,100.526460596777,45.47676088960662,12.133361333986263,-11.059051749614778,254.13113099875412,48.37627181368325
88,-2.547989423705089,-233.395711270852,100.54467064889626,45.39397490208146,12.162910139152737,-11.14833090517285,254.16080854660484,48.32124432386505
89,-2.5716817442305326,-233.41686811999676,100.55691095068885,45.31373470285482,12.197578774701013,-11.221321480131586,254.18616015660155,48.26658380547305
90,-2.5958961912444605,-233.43527868798088,100.56271143310273,45.23577451389321,12.237885950662795,-11.277902887130502,254.20650126995875,48.21215083674198
91,-2.6201945084002105,-233.45036103224575,100.56186369980378,45.159755821307186,12.284203263281954,-11.318266111493626,254.22119543815592,48.1577730273773
92,-2.644132356570277,-233.4614920294937,100.55442660890537,45.08524594792686,12.336747040119414,-11.34288974888655,254.22967243451262,48.10321995555353
93,-2.667268461346614,-233.46802897991176,100.54072372166797,45.01169574649796,12.39557609467643,-11.352513254602334,254.23144756237642,48.0481781079729
94,-2.6891736316136576,-233.46933509620632,100.52133285018616,44.938417162685525,12.460595441868039,-11.348108041550239,254.2261414572656,47.992226596741034
95,-2.709440115232792,-233.46480777646627,100.49706783867866,44.86456134160478,12.53156567782109,-11.330846858735137,254.21349941704105,47.9348142232567
96,-2.7276916611834423,-233.45390849662974,100.4689525240753,44.7890978823393,12.60811739217407,-11.30207163921075,254.19340915648303,47.875238256376115
97,-2.7435943476633335,-233.43619318706087,100.4381867671474,44.710795883104204,12.689769686917154,-11.263259812685096,254.1659158818579,47.812625212435606
98,-2.7568678323369746,-233.41134190525383,100.40610473798908,44.62820758740448,12.775951660292861,-11.215989048753293,254.1312336444626,47.74591402620138
99,-2.767296298077481,-233.3791864159606,100.37412621327891,44.53965566541611,12.866025617870747,-11.16190059578704,254.0897519732525,47.673842241971236
100,-2.7747380971724533,-233.3397340567938,100.34370221474458,44.44322535283398,12.959310811215099,-11.102661751762225,254.0420367991438,47.594936137923334
101,-2.779133014990698,-233.29318616306955,100.31625675857214,44.33676276680329,13.055106646256469,-11.039928388593395,253.98882476271945,47.507505926945726
102,-2.780506194746602,-233.23994941183165,100.29312689322381,44.21788069754518,13.152714477696087,-10.975308695066188,253.9310102380586,47.4096472710245
103,-2.7789680613316277,-233.1806387184431,100.27550359439718,44.083973044596235,13.25145724924728,-10.910329360675423,253.86962481382704,47.29925028519771
104,-2.774710059718413,-233.1160708369752,100.26437630849183,43.93223891957721,13.350696348104144,-10.84640536618232,253.805809544499,47.17401709343504
105,-2.7679966406142835,-233.04724865259092,100.26048394764778,43.75971740942429,13.449845157462699,-10.784814449955988,253.74078107174972,47.03148899021639
106,-2.75915445728466,-232.97533716693576,100.26427507549465,43.56333412808637,13.548378933119718,-10.726677160824613,253.67579363437176,46.86908439991498
107,-2.74855990419214,-232.9016329666011,100.27587991064037,43.33996083935992,13.645840775147382,-10.672943129532346,253.61209967106896,46.68414895886956
108,-2.73662588861711,-232.82752921694788,100.29509640474215,43.08648934327557,13.74184359551941,-10.62438381371016,253.5509118033421,46.47401892417277
109,-2.7237883215594674,-232.7544779817214,100.3213918180042,42.79992023945016,13.836068119435604,-10.581591608037293,253.4933684294586,46.23609854515017
110,-2.710492542072213,-232.68395120342635,100.3539199850068,42.47746601169235,13.92825714043262,-10.544984966731851,253.44050424535016,45.96795096265848
111,-2.697179882862366,-232.61740125888028,100.39155316477297,42.1166662100128,14.01820649522006,-10.51481906101582,253.3932261100181,45.667400720303895
112,-2.6842747596396745,-232.5562218084307,100.43292634553907,41.715510594672445,14.105753506101507,-10.491201387779535,253.35229409070132,45.33264428298061
113,-2.6721728371786333,-232.50170973122212,100.4764912714514,41.27256428232042,14.190763886826833,-10.474111552183835,253.3183073539001,44.96236331488336
114,-2.661230879695376,-232.45502916983236,100.5205771965817,40.7870874970413,14.273118257759222,-10.463424147923844,253.2916946768818,44.55583411934727
115,-2.6517588569626387,-232.41717890126696,100.56345529926999,40.25914168340163,14.352699451494082,-10.458933312312103,253.27270950167986,44.11302578240296
116,-2.6440147960786473,-232.38896426000372,100.60340372309987,39.68967359354765,14.429381721734847,-10.46037722069812,253.26142947117742,43.63467931643911
117,-2.63820268427767,-232.3709746526943,100.63877034900696,39.080569572761085,14.503022803150493,-10.467460600750433,253.2577602656611,43.12236054922035
118,-2.6344733783822543,-232.3635674395894,100.66803068568262,38.43467365335262,14.573459512054564,-10.479873399794924,253.26144342149416,42.578480689863135
119,-2.6329280683625003,-232.36685872925267,100.68983870920633,37.75576515714038,14.640507239878596,-10.497304081347423,253.27206777432949,42.00628038130591
120,-2.6336235755310318,-232.38072144889233,100.70306902256348,37.04849412155911,14.70396330557178,-10.519446578494968,253.28908421029655,41.40977543954673
121,-2.636578713049459,-232.40479085297082,100.70684925769262,36.318275754787166,14.763613760743642,-10.546000535201907,253.31182344199294,40.79366513030767
122,-2.6417810100456354,-232.43847737695629,100.70058220183137,35.57114803679804,14.819242954443064,-10.576665055174999,253.33951651212294,40.16320651206055
123,-2.649193180712014,-232.48098643604536,100.683957695977,34.81359926017373,14.870644995127812,-10.611126804183433,253.37131766990436,39.52406086904449
124,-2.6587587465685902,-232.5313444477335,100.65695482046387,34.052374476134084,14.917636157240313,-10.649043998940705,253.40632915511844,38.882120318704025
125,-2.670406223699088,-232.58843006704683,100.61983512197479,33.29427124456657,14.960067193764077,-10.690028453234856,253.44362725160238,38.24332404695829
126,-2.6840513620414543,-232.65100939438506,100.57312765878712,32.54593565709145,14.997834412152324,-10.733628249997162,253.48228876958748,37.61347414527665
127,-2.699597140558369,-232.71777376560306,100.51760661534928,31.81366929553737,15.030888331633877,-10.779313614875122,253.52141696907586,36.99806069226001
128,-2.7169315662780122,-232.78737867694667,100.45426234235322,31.103256682535026,15.05923888156753,-10.826468151901167,253.56016592935754,36.40210466306737
129,-2.7359237327094292,-232.85848244155787,100.38426694598714,30.419821051766796,15.082956460261213,-10.874386874283072,253.59776252133935,35.83002567333067
130,-2.756418985243064,-232.92978328947402,100.30893586137809,29.76771415646141,15.102168688471163,-10.922281622404531,253.6335253730765,35.285539715870925
131,-2.778234317047142,-233.00005372979294,100.22968706083283,29.150443578575217,15.117053245652492,-10.969293694461943,253.66688040482583,34.77159012916554
132,-2.8011551779098,-233.06817104378086,100.14799958486773,28.57063876491973,15.127827633338805,-11.014512914983163,253.697372570585,34.290313146740935
133,-2.8249346756829548,-233.13314283241306,100.06537290884042,28.030054908149783,15.134736964534413,-11.05700193987795,253.72467342153868,33.84303755682035
134,-2.849295717282467,-233.1941267011374,99.98328831049878,27.529611895670204,15.138040936802849,-11.095824327501717,253.74858411177598,33.43031632174105
135,-2.873936073192301,-233.25044345685734,99.9031730311147,27.069463956910198,15.138001105646111,-11.130074759972336,253.7690335831192,33.05198657691567
136,-2.8985358176105143,-233.30158357826187,99.8263677820029,26.64909443093353,15.134869488316914,-11.158909726833171,253.78607192095063,32.70725332776596
137,-2.9227662676596395,-233.34720713852974,99.75409805716123,26.26742929787832,15.128879353685141,-11.181576992491893,253.79985921763225,32.394791412805574
138,-2.946299495791381,-233.38713773400147,99.68744965945999,25.92296276324356,15.120238752806923,-11.197442339063597,253.8106506020499,32.11285990670874
139,-2.9688176547838103,-233.42135124205683,99.62734873293014,25.613888198887,15.109126973142699,-11.206012414895286,253.81877829689125,31.859423079670446
140,-2.9900216035794345,-233.44996037154388,99.57454640868716,25.338228031564082,15.095693752311885,-11.206952894212208,253.8246316223438,31.632272221964296
141,-3.009638557639228,-233.47319597875997,99.52960796526756,25.093956604108325,15.080060813042445,-11.200101436287394,253.82863579320923,31.42914295471384
142,-3.027428672952891,-233.49138602387208,99.49290622952195,24.879110509297146,15.062325089414578,-11.185475111085625,253.83123019789147,31.247822988963726
143,-3.0431905998935282,-233.50493289335412,99.46461884492646,24.691881378187546,15.042562919797339,-11.163272069015116,253.8328466718793,31.086245656718614
144,-3.056766098974052,-233.5142896950552,99.44472904583412,24.530686642491368,15.020834486392664,-11.133867300123342,253.83388817476734,30.942564971684373
145,-3.0680437767042092,-233.51993613567225,99.43302970914337,24.394214471158037,14.997187844658015,-11.09780241601415,253.83470833691524,30.815208560126713
146,-3.076961881250771,-233.5223547661268,99.42913064720769,24.281439968666703,14.971661957361,-11.055769603307533,253.83559258099578,30.702905600783797
147,-3.083509949676934,-233.522008662664,99.43246921756382,24.191610837021674,14.94428822839655,-11.008590278725276,253.83674182893256,30.604687958262108
148,-3.0877290088277483,-233.51932182534338,99.4423242530378,24.12420205137789,14.91509017450292,-10.957189397463273,253.83825997475265,30.519863975219717
149,-3.0897100601590255,-233.51466354574782,99.45783312615593,24.07884068295256,14.884081126473518,-10.902566607131789,253.84014620364226,30.447965855669366
150,-3.0895907155444364,-233.50833767190645,99.4780116327116,24.0552037633332,14.851260211673063,-10.845765370411463,253.8422928904921,30.38867313203844
151,-3.0875500456974256,-233.5005771964705,99.50177639940459,24.05289386555572,14.816607268149735,-10.787840877652167,253.84448935864182,30.341716226142225
152,-3.0838019046541953,-233.49154409604566,99.52796959013307,24.07129869427149,14.780077648555663,-10.729827247975846,253.84643134964682,30.306765445404128
153,-3.0785871447320354,-233.48133396347757,99.555385614292,24.10944229357201,14.741597957664748,-10.672704372463382,253.84773567215618,30.283311795233704
154,-3.072165165157456,-233.46998472060528,99.58279924564049,24.16583641484487,14.701063597346025,-10.617364867479147,253.84795914761312,30.27054668642543
155,-3.0648051080648746,-233.45748858151825,99.60899419222372,24.23834110100291,14.658338662312575,-10.56458190695256,253.84662071594298,30.267247964214747
156,-3.0567767946670283,-233.44380645765236,99.63279098345961,24.324043631363942,14.613258372007538,-10.514979015865405,253.8432255132131,30.27167968126722
157,-3.0483413445456167,-233.4288841124489,99.6530731638746,24.419164611395917,14.56563391883785,-10.469003097570724,253.83728988775124,30.28151265802235
158,-3.0397414692380957,-233.41266949249416,99.66881104660489,24.51899914152336,14.515259392318217,-10.426902016604053,253.82836653558255,30.293772105817297
159,-3.031191654407205,-233.39513068441272,99.67908247805018,24.617899672566203,14.461920323984778,-10.388708005174045,253.8160690370356,30.30481747506451
160,-3.0228687253781574,-233.3762738138793,99.68309013998089,24.70930544464522,14.40540338271696,-10.354228019123424,253.8000949858931,30.310358310508917
161,-3.014903522899309,-233.35615993896428,99.68017490651937,24.785821399589253,14.345506764681279,-10.323041927709333,253.78024665722725,30.30550827805198
162,-3.007374505497571,-233.33491972021767,99.66982475159011,24.839347182029144,14.282050777737162,-10.294509085571844,253.75644790293654,30.284877650670577
163,-3.00030396521709,-233.31276456037614,99.65167880361908,24.86125431834112,14.214888016466698,-10.267783441621464,253.728755919105,30.24270243388525
164,-2.993657238936864,-233.28999311556794,99.62552648557272,24.84260696802162,14.143912479951142,-10.241836956144363,253.69736685201173,30.173006129929487
165,-2.9873450017298917,-233.266992521609,99.59130220059863,24.774418967318983,14.069067116089274,-10.215490786329207,253.6626148178536,30.06978811287844
166,-2.9812285785946835,-233.24423415070106,99.54907653207424,24.647937503809814,13.990349552583998,-10.187453462210593,253.6249645433561,29.92723089765814
167,-2.9751281355573593,-233.2222640539684,99.49904525245951,24.454941935333746,13.907816044019276,-10.156365054627791,253.5849982746785,29.739917322099302
168,-2.9688334529781772,-233.20168845841664,99.4415174970487,24.18804514652752,13.82158381773705,-10.120846086875895,253.5433978213204,29.50304786351883
169,-2.9621167280734895,-233.18315490264655,99.37690426098781,23.84098445883912,13.73183205171605,-10.079549653640456,253.50092272079053,29.212648028805546
170,-2.9547466281779955,-233.16732990661794,99.30570798408371,23.408889469153486,13.63880172713558,-10.031214902881194,253.45838564002588,28.865756042513123
171,-2.946502715328365,-233.15487440743794,99.22851348035735,22.888515250954473,13.542794593214651,-9.974719740631517,253.41662624064725,28.460581916169147
172,-2.937189382011843,-233.14641837837243,99.14597996558126,22.278431002294948,13.444171454789625,-9.909130372190495,253.37648471010021,27.996630333614902
173,-2.926648543699349,-233.14253600032632,99.05883357865318,21.57915629037168,13.343349937874944,-9.833745148091449,253.33877597916677,27.474781491699297
174,-2.9147705071794756,-233.1437225862183,98.96785964144657,20.793239348574524,13.240801806354652,-9.748130230449375,253.3042654342605,26.89732596708572
175,-2.901502655913315,-233.15037430020354,98.87389390893414,19.925274324203208,13.137049795076374,-9.652144932023324,253.27364679224368,26.267951774071644
176,-2.8868558135133426,-233.16277153464912,98.77781217884268,18.981856908686094,13.032663802231923,-9.545955217279582,253.2475226888913,25.591683998161287
177,-2.870908282031858,-233.18106653285136,98.68051784780941,17.971480335440972,12.928256180199194,-9.430034676275831,253.2263883658011,24.874779644277677
178,-2.8538075740707076,-233.2052755420111,98.58292728506835,16.90437614697252,12.824475828192082,-9.305153125728756,253.21061867275054,24.124582457897922
179,-2.8357698438322547,-233.23527559264858,98.48595317997899,15.792306214432156,12.72200086229553,-9.172353757939575,253.20045854047257,23.349344281676125
180,-2.8170770462104007,-233.27080597390082,98.39048626873665,14.648314084883959,12.621529810143414,-9.032920420155135,253.19601715117184,22.558020864213354
181,-2.7980718814810066,-233.31147451998768,98.29737606176936,13.486444755475327,12.5237714779719,-8.888337126780344,253.19726615977268,21.760050841699357
182,-2.779150553211279,-233.35676880249815,98.2074113826325,12.321442418025965,12.42943378437761,-8.740242211367914,253.20404237163612,20.96512680683109
183,-2.760753298130667,-233.40607215883574,98.12130168849113,11.168435638429049,12.33921191641941,-8.590379574702675,253.2160551904224,20.182966995650503
184,-2.7433526289006678,-233.45868420804842,98.03966025773126,10.042618957693128,12.253776161044467,-8.440549304073715,253.23289893534044,19.42309529509923
185,-2.727439347982799,-233.51384518305628,97.96299033918135,8.958939186464812,12.173759723665384,-8.292559583330394,253.2540698331797,18.69463616812763
186,-2.7135066578038747,-233.5707630883752,97.89167515419574,7.93179385626913,12.099746767725685,-8.148181373144636,253.27898711866268,18.00612985646546
187,-2.702033035352129,-233.6286424042453,97.82597219365229,6.974748479613712,12.03226079272386,-8.009106934446853,253.30701724010228,17.36537197432224
188,-2.693464837130125,-233.68671284895936,97.76601168168831,6.100278498887053,11.971753342542039,-7.876912968845317,253.33749975638415,16.779280439679606
189,-2.6881997523916112,-233.74425664643294,97.71179859097619,5.319541085876234,11.918592960839351,-7.753028952882691,253.3697732635859,16.253791666620373
190,-2.6865721912616847,-233.80063288240672,97.66321733426753,4.642181283462658,11.873054333526985,-7.6387111159876655,253.4031997127235,15.793787096698074
191,-2.6888414934870997,-233.85529786533732,97.62003826001582,4.076176322314802,11.835307678981433,-7.535022420607022,253.43718578464,15.40305046376418
192,-2.6951834956596876,-233.90782083536408,97.58192528512862,3.627721257259064,11.805408628222882,-7.442818800559631,253.47120045752573,15.084255609193212
193,-2.7056855456797493,-233.9578947573769,97.54844427659944,3.3011583481005062,11.783289038784993,-7.362741773521988,253.50478836826628,14.838984150319071
194,-2.720344631160781,-234.00534223516067,97.5190720378717,3.098951891776817,11.768749364857218,-7.295217396055525,253.53757893670374,14.667771843600887
195,-2.7390680524199023,-234.05011678903648,97.49320593238774,3.02170952327425,11.761453316913508,-7.240461428194683,253.56929147642757,14.570182067550016
196,-2.761676069192158,-234.09229983835039,97.4701742648679,3.0682503172468762,11.760925561463134,-7.198490525386961,253.5997366392252,14.544904452942552
197,-2.7879061037078503,-234.13209372933227,97.44924750193907,3.235719239600517,11.766553144663154,-7.1691392136757015,253.62881452431702,14.58987626934484
198,-2.8174182940750234,-234.16981110366888,97.42965027129321,3.5197464692336813,11.7775911901193,-7.152082243838253,253.65650968826895,14.702423693703777
199,-2.8498024006399234,-234.20586089551242,97.41057393581202,3.914648729375029,11.793173227426319,-7.146861631977323,253.6828832327694,14.879419515713034
200,-2.884586227095661,-234.2407313314475,97.39118950097348,4.413668045434738,11.81232626166439,-7.152917339297031,253.70806221797145,15.117453199402577
201,-2.9212457835529464,-234.27497044586332,97.370660736987,5.009241401845321,11.833990416454778,-7.169620239948085,253.73222682902207,15.413008575262715
202,-2.95921735992857,-234.30916470063892,97.34815763095393,5.69329279607754,11.857042703201598,-7.196305861044217,253.7555958871811,15.762643820020218
203,-2.99791148642881,-234.34391630039892,97.32287043149805,6.4575374089125095,11.880324221931733,-7.2323073517564875,253.77841135622566,16.163167800964825
204,-3.0367284621588535,-234.37981982628688,97.29402443077781,7.2937862285893225,11.902669917231453,-7.27698620187568,253.80092247774792,16.611806339229066
205,-3.0750748117651923,-234.41743888717895,97.2608952999947,8.194238612761268,11.922939896715226,-7.32975938039727,253.8233701110283,17.106351542014906
206,-3.112379787534637,-234.45728346917372,97.22282447008071,9.151750010167026,11.940051237829987,-7.39012183162145,253.8459717099463,17.64528715297531
207,-3.14811093208158,-234.49978844880724,97.17923389359873,10.160062447202167,11.953009151209493,-7.457663630261182,253.86890710878077,18.227882976442423
208,-3.1817877472464082,-234.54529338415,97.12963957661228,11.213986487446578,11.960936375332144,-7.5320814635676925,253.89230498293392,18.854251968602263
209,-3.212992662080694,-234.59402337350164,97.0736634760337,12.3095252423533,11.96309978987523,-7.613184365517248,253.9162296298212,19.52536465427611
210,-3.2413787689622864,-234.64607066728183,97.0110436042958,13.443933591581315,11.958933432977968,-7.700893721244956,253.9406677154231,20.24301712006565
211,-3.266674176045596,-234.70137699881212,96.94164234898865,14.615708878943666,11.948057311192692,-7.795237526156815,253.96551495916174,21.00975083921299
212,-3.2886831894094195,-234.75971722757566,96.86545306578802,15.824512731514895,11.93029153140912,-7.896338816540441,253.99056333550794,21.828724832246323
213,-3.307284760796142,-234.82068556133336,96.78260502777485,17.071027060813663,11.905665353287453,-8.004398181611501,254.01549000671133,22.703543007317617
214,-3.3224286956982207,-234.88368603676153,96.69336689504618,18.356750555889015,11.874420791957068,-8.119670397729923,254.03984961598331,23.63804184432837
215,-3.334130095302075,-234.94792904673483,96.59814893278667,19.68374492897248,11.837010425819992,-8.24243552678771,254.06307169534304,24.63604579397294
216,-3.342462483666307,-235.01243561238562,96.49750412227162,21.054342722471674,11.794089104894857,-8.372965238418262,254.0844648261554,25.701099756245327
217,-3.3475500482760028,-235.07605084108383,96.39212808447976,22.47083055956062,11.746499335831288,-8.511485532256991,254.10322886491488,26.83618968703017
218,-3.349559343124781,-235.13746753970702,96.28285751817796,23.93512323530846,11.695250263538481,-8.658137350652115,254.11847602415457,28.043463655081197
219,-3.348690643512448,-235.1952602538391,96.17066677669719,25.448444854534266,11.64149037855317,-8.812936742893925,254.12926091837934,29.32396639346044
220,-3.3451689697658034,-235.24792913815475,96.05666226331017,27.0110331716133,11.586474335221373,-8.975736292786546,254.13461890204852,30.677400423136326
221,-3.3392347526569264,-235.29395213464412,95.94207437310332,28.621882331170745,11.531524548104368,-9.14618952578712,254.13361118469894,32.101926140487485
222,-3.3311342799798713,-235.3318430591826,95.82824661256704,30.278537426371525,11.477988526406772,-9.323720028785505,254.1253743633062,33.59401192085254
223,-3.321110351371543,-235.36021249976133,95.71662129522072,31.97695180654152,11.427193187491996,-9.507497006559097,254.1091712826891,35.1483433616521
224,-3.309393769012134,-235.37782805911385,95.60872099762517,33.71141501311038,11.380397639067793,-9.696418846265022,254.0844397134674,36.75779831564419
225,-3.2961962781678666,-235.38367053897392,95.50612495663962,35.47455577457364,11.338746125054973,-9.88910590188053,254.0508353949739,38.413491447037096
226,-3.2817054003928936,-235.3769831172319,95.41043990729202,37.25742085144517,11.303222981667748,-10.08390321382211,254.00826652866465,40.10488885859489
227,-3.2660814053147615,-235.35731120881778,95.32326544583135,39.04962689225826,11.274611515917766,-10.278893359090477,253.9569176179951,41.81999008106301
228,-3.2494565008650076,-235.32453132119028,95.24615463957207,40.83957902436648,11.25345865740089,-10.471919141242195,253.8972613628557,43.54557155544942
229,-3.231936168015678,-235.2788677524893,95.18057108595049,42.614746814697654,11.24004703365425,-10.660615411288106,253.8300579927294,45.267482828645534
230,-3.213602417681672,-235.22089648200367,95.12784390545198,44.361985597742,11.234375817087766,-10.84244902874481,253.7563419906491,46.97098415928601
231,-3.1945186269633417,-235.1515360939961,95.08912231744165,46.067889023465696,11.236151346801876,-11.014765875106614,253.67739667461,48.64111217707729
232,-3.174735527080037,-235.07202602806652,95.0653315672226,47.71915708218949,11.244788169699163,-11.1748438663195,253.5947175653744,50.2630587138554
233,-3.154297840035462,-234.98389288451168,95.05713207935656,49.302962978575145,11.259420759067266,-11.31995093976236,253.50996591212663,51.82254705377225
234,-3.133250973494851,-234.88890603762326,95.06488383254634,50.80730231061768,11.278925743614792,-11.447406898182079,253.4249142776183,53.3061898562935
235,-3.111647123570276,-234.78902446158347,95.08861807853245,52.22130929679399,11.301954036633697,-11.554647778655237,253.3413867353728,54.70181412628042
236,-3.089550184423123,-234.68633730615286,95.12801854410652,53.535527367498354,11.326971839631486,-11.639291201325502,253.26119682493322,55.99874096113504
237,-3.0670390441266426,-234.5830011462424,95.18241397468898,54.7421251337885,11.352309153833287,-11.699201059348592,253.18608666793665,57.18801127725258
238,-3.044209083247655,-234.4811768525442,95.25078323372111,55.83505312431794,11.376214177892294,-11.73254992563834,253.11767043234778,58.26255288163459
239,-3.0211718876944595,-234.3829687429667,95.33177329979165,56.81014109364562,11.396911759967244,-11.737877564917985,253.05738474241022,59.217288457857606
240,-2.9980533024492613,-234.29036821754647,95.42372960619089,57.66513950004834,11.412663854812568,-11.714143884596783,253.00644787340937,60.049187626511014
241,-2.9749900233332256,-234.20520357225436,95.52473738860002,58.399711466490245,11.421829714534127,-11.660774566395151,252.96582880800895,60.7572687780015
242,-2.9521250030427053,-234.1290971924207,95.63267211433461,59.01538298557387,11.422923386389726,-11.577697570009528,252.93622654924303,61.34255770631734
243,-2.9296020457222776,-234.0634308621814,95.74525666956961,59.51545937534234,11.41466609196643,-11.465368759717114,252.91805950422523,61.80801029423485
244,-2.9075600592525426,-234.00931946827222,95.86012276199878,59.904915283907165,11.396031260813999,-11.324785114884527,252.91146424387054,62.15840587075106
245,-2.8861275232613077,-233.96759288661355,95.9748739476743,60.190264192546344,11.366280343479628,-11.157484340651674,252.91630247039285,62.40021667582322
246,-2.8654178179564367,-233.9387853563271,96.08714778770248,60.37941169117038,11.324987935278005,-10.965530141846449,252.93217461274781,62.54145739356044
247,-2.8455260925843837,-233.92313133059238,96.19467482833213,60.48149510623169,11.272055143181408,-10.751482892785855,252.95843824954247,62.59151722111029
248,-2.8265282382622807,-233.9205668076944,96.29533235825183,60.50671065235452,11.207710549808743,-10.518355888435547,252.99422966887397,62.56097571351934
249,-2.8084822310921873,-233.9307354679802,96.38719126349662,60.46612838082234,11.132498623274076,-10.269557805359693,253.0384873075888,62.46140291435589
250,-2.791431701172107,-233.95299938302642,96.46855478298167,60.37149489788032,11.047255992380473,-10.008822471066663,253.08997639713712,62.30514414176675
251,-2.775411200897176,-233.98645441120524,96.53798852979753,60.235024104484616,10.953076604590148,-9.740127557674274,253.14731467268805,62.10509022851173
252,-2.7604524195194817,-234.02995051615375,96.5943417419067,60.06917700256565,10.85126735467466,-9.467604346110665,253.20899933903465,61.874434936259476
253,-2.7465905641092605,-234.08211713670468,96.6367603065987,59.88643281019552,10.74329627772262,-9.195441192826323,253.2734356064812,61.626422556339335
254,-2.733870231755353,-234.14139351780707,96.664692566817,59.699055031613476,10.63073580961593,-8.927783744245051,253.33896708399678,61.37409017103904
255,-2.722350220336702,-234.2060637190285,96.677889118523,59.51885746505189,10.515203885894948,-8.668635267262841,253.4039082162654,61.13001040894473
256,-2.7121068150440464,-234.2742958952568,96.6763976483975,59.356976144898056,10.398305718586075,-8.42176062925653,253.46657878017692,60.90604151876512
257,-2.703235184355943,-234.3441853311395,96.66055343973277,59.22365375682529,10.28157892996311,-8.190597365137432,253.52534019495087,60.71309204725016
258,-2.695848670512629,-234.41380050978756,96.63096575721273,59.12804310466291,10.166444372337738,-7.978176879424591,253.57863305909814,60.56090731162937
259,-2.6900759446201676,-234.48123118179416,96.58850011991362,59.078035784710025,10.054164502958017,-7.787058248032499,253.6250149630355,60.45788426980903
260,-2.686056144217422,-234.54463706261123,96.53425652556754,59.08012141867767,9.945810663520616,-7.619276457513664,253.66319733628842,60.410920420484196
261,-2.68393218265747,-234.60229555517944,96.4695438928282,59.139281734055004,9.842240071447883,-7.476306329939788,253.69207995288463,60.425301147981784
262,-2.6838424541686856,-234.6526468205521,96.39585116600345,59.25892259388752,9.744082839469504,-7.359042825503713,253.71078171671815,60.504628605204175
263,-2.685911236310755,-234.69433454254437,96.31481559050941,59.44084585162863,9.65173897376927,-7.267797859424536,253.71866639249112,60.65079389312484
264,-2.69023825916591,-234.7262408016602,96.22818870835657,59.685261664498846,9.565385054666743,-7.2023132047838185,253.7153620256628,60.86399296786657
265,-2.6968881363835733,-234.7475136555677,96.13780075409596,59.99084064181969,9.484990102189103,-7.16178851059152,253.7007730119352,61.14278537847736
266,-2.7058805362783778,-234.75758640772779,96.04552433996962,60.354803937386144,9.41033988609817,-7.1449229881950025,253.67508421052034,61.484193604494855
267,-2.7171819930124586,-234.7561880767318,95.95323855573477,60.77304813544052,9.341068611179699,-7.149968928949678,253.63875707489998,61.883839434651925
268,-2.7307000661193093,-234.7433450922629,95.8627948478742,61.24030058472091,9.276696519661996,-7.174794920024129,253.59251833827167,62.33611256666035
269,-2.7462802298715014,-234.71937461815443,95.77598616684658,61.75029979668145,9.216671583757012,-7.216956430288359,253.53734218225526,62.83436551620408
270,-2.763705580661701,-234.6848701060884,95.69452069639239,62.29599471501391,9.160413182523103,-7.273771334211618,253.47442693769304,63.37112808137154
271,-2.782699301670572,-234.64067977814508,95.6200009747989,62.86975609640793,9.1073554856848,-7.342397907216251,253.40516726279867,63.93833402868085
272,-2.802929765836327,-234.58787888437732,95.55390855008999,63.4635929078035,9.056988190588767,-7.419912847772905,253.33112262941307,64.52755233598337
273,-2.8240180543517415,-234.52773688260123,95.49759365757558,64.06936657008883,9.008892272555858,-7.503386953237328,253.25398298232327,65.13021527055889
274,-2.845547498787922,-234.46168099099697,95.4522688377469,64.67899610497722,8.962768529744858,-7.589956199917825,253.175532505033,65.73783584190346
275,-2.8670747597381383,-234.39125760852048,95.41900494611555,65.28464777935378,8.918456978620101,-7.676886169312311,253.09761229326563,66.34220776544525
276,-2.8881420361729684,-234.3180928513928,95.3987277485872,65.87890368662492,8.875945647456332,-7.761628033236985,253.0220824144183,66.93558201324154
277,-2.908290164461999,-234.24385314837303,95.39221342521617,66.45490487509116,8.835368041254855,-7.84186465400058,252.9507835995737,67.51081532941616
278,-2.927072428633846,-234.1702066475308,95.4000818617726,67.0064661084197,8.796989455259492,-7.915545769172884,252.8854988501097,68.0614877220664
279,-2.9440687991585395,-234.09878602758698,95.42278736572698,67.5281609917935,8.761183281877106,-7.980911718065048,252.82791537814964,68.58198776409516
280,-2.9589001466062177,-234.03115302111655,95.46060709885825,68.01537779961919,8.728399329002436,-8.036505707442632,252.7795872806052,69.06756630142107
281,-2.971241859999469,-233.96876459103328,95.51362794543195,68.46434766349948,8.699126779421103,-8.081175163200552,252.74189916627063,69.51436062013717
282,-2.9808362660040157,-233.91294048520905,95.58173276568152,68.87214765334538,8.673854686352357,-8.114063236835415,252.71603084021788,69.91939208281255
283,-2.9875032625698807,-233.8648320188262,95.66458706809962,69.23668167975802,8.653032871284772,-8.134591995306879,252.70292329608583,70.28054068236597
284,-2.9911486264880156,-233.82539242963506,95.76162712847143,69.55664217785836,8.63703589542635,-8.142439176753955,252.70324672337688,70.59650000612683
285,-2.991769520647445,-233.79534988624835,95.87205059781624,69.83145538789097,8.62613251409989,-8.137510615621608,252.7173719225959,70.86671594663764
286,-2.989456810155919,-233.77518495425755,95.99481076257219,70.06121291064693,8.620462713378746,-8.119910518673413,252.74534723797575,71.09131232401836
287,-2.984393915656545,-233.76511476858892,96.12861582532932,70.24659221685508,8.62002403025872,-8.08991169796013,252.78688360699672,71.27100652227388
288,-2.9768521117885953,-233.7650861212434,96.27193472693368,70.38876896189144,8.624668322819472,-8.04792764866207,252.84135034956398,71.4070183182805
289,-2.9671823934135766,-233.77477904343354,96.42301093749751,70.48932424803863,8.634109471496393,-7.994488030058168,252.9077837033316,71.50097524909307
290,-2.9558042241533924,-233.79362132041115,96.57988518539428,70.55015030275865,8.647941697526116,-7.930218671407641,252.9849088832134,71.55481804434883
291,-2.943191641666498,-233.82081308877397,96.74042735246006,70.57335830033718,8.665667361825285,-7.855826663800991,253.07117496976662,71.57070975104295
292,-2.929857346374931,-233.8553596617326,96.9023769723656,70.5611921147517,8.686732355236211,-7.772090443539896,253.16480070117157,71.55095208060615
293,-2.916335507557425,-233.89611018224613,97.06339112332158,70.51595154416763,8.71056660902083,-7.6798541311230215,253.26382849238084,71.4979121260481
294,-2.9031639995676,-233.94179956662927,97.22109806121618,70.4399279642746,8.736626914678936,-7.5800249122130925,253.36618370599186,71.41396192650663
295,-2.89086663923169,-233.99109140435846,97.37315463622033,70.33535447905656,8.764439146105389,-7.473572039858041,253.4697362677111,71.30143244095194
296,-2.8799358674325957,-234.0426199102584,97.51730529485127,70.20437148628625,8.7936370705435,-7.361526079209446,253.5723620220094,71.16258236783587
297,-2.8708163080692515,-234.0950294570095,97.65144030259674,70.0490072529926,8.823995176943773,-7.244977176262424,253.672001558371,70.99958098649431
298,-2.8638896943496976,-234.14701048377015,97.77365084698438,69.87117179014213,8.855453340334142,-7.12507131053829,253.76671449729807,70.81450297304755
299,-2.859461667967678,-234.19733073818355,97.88227896429197,69.67266123529656,8.8881316735345,-7.0030037023927285,253.85472748468746,70.60933216616478
300,-2.857750927685242,-234.2448610090085,97.97596066452492,69.4551692115543,8.922334532083106,-6.88000884088712,253.93447449372047,70.38597063681738
301,-2.8588812001889865,-234.2885947682761,98.05366101971892,69.22030125754578,8.958543223696308,-6.757346963394461,254.00462842457657,70.14624916026352
302,-2.8628765328948305,-234.3276614123787,98.11470025350437,68.96958845752131,8.997397445577716,-6.636287176561027,254.06412334712635,69.89193531747658
303,-2.8696603823110203,-234.36133309939444,98.15877008024746,68.70449690493572,9.039665842675735,-6.518087700363624,254.11216709791185,69.62473602319818
304,-2.8790588121611647,-234.38902559101064,98.18593973226689,68.42643058955723,9.086206430817347,-6.403973951961379,254.1482443958932,69.34629228394367
305,-2.8908078172694194,-234.410293971494,98.19665128508838,68.13672656492717,9.13791804507613,-6.295115413756215,254.17211113465447,69.0581653092405
306,-2.904564420354703,-234.42482449073037,98.19170412317574,67.83664262254328,9.195684503292073,-6.192602467610646,254.18378094141227,68.76181453807516
307,-2.9199208572747697,-234.43242398297096,98.17222880165423,67.5273389634523,9.260313799840088,-6.0974245719442335,254.1835054386985,68.45856948809643
308,-2.936420981343515,-234.43300835272575,98.13965111823758,67.20985634383553,9.332475262359182,-6.010451219137757,254.17174989567167,68.14959839381217
309,-2.9535780209442954,-234.4265914745245,98.09564771830304,66.88509376826167,9.412638076849763,-5.93241696765955,254.14916601903428,67.83587723718014
310,-2.9708929395080035,-234.41327548236583,98.04209487341816,66.55378897824473,9.5010148296444,-5.863911501597711,254.1165634142424,67.51816294439836
311,-2.987872745850478,-234.39324290669708,97.981012240299,66.2165047748976,9.5975137080612,-5.805375218372399,254.0748808335338,67.19697427117974
312,-3.0040481368779224,-234.36675066333115,97.91450355459558,65.87362372603604,9.701702739351369,-5.7571003936078915,254.0251579641268,66.8725833362558
313,-3.0189898750443303,-234.33412566990359,97.84469641546832,65.52535315767356,9.812788925462343,-5.71923757749718,253.96850837469896,66.54502001021552
314,-3.032323365551361,-234.29576184915587,97.77368352172084,65.1717415847486,9.92961437708262,-5.691806537429538,253.906094301058,66.21409049436114
315,-3.043740987045482,-234.25211834305858,97.70346776772018,64.81270691906573,10.050670623298686,-5.674710764641066,253.83910402983062,65.87941046132173
316,-3.053011790318106,-234.20371877014276,97.63591334936505,64.44807595750311,10.1741312173146,-5.667754316151062,253.76873254772224,65.54045213543239
317,-3.059988205337041,-234.15115126409802,97.57270449617968,64.0776339071308,10.297901601034537,-5.67065958546678,253.69616583142493,65.19660377726692
318,-3.064609441400728,-234.0950688795493,97.51531280496829,63.701182130484646,10.419684012280317,-5.683084501723207,253.62256876618954,64.8472392980489
319,-3.066901377576094,-234.03618977233862,97.46497351056144,63.31860189592478,10.537054182855602,-5.704637671181456,253.54907627006958,64.49179519008723
320,-3.066972926049922,-233.9752963613277,97.42267040674655,62.92992165421498,10.647545846148114,-5.734890127402957,253.47678677711585,64.12985160235391
321,-3.06500907509968,-233.91323255097635,97.38912860048123,62.535385217708715,10.74873871125797,-5.773382644727443,253.40675691217356,63.76121421117469
322,-3.0612610156932125,-233.85089820194693,97.36481399002274,62.1355181979984,10.83834553664032,-5.819627955017503,253.33999617828175,63.38599353743539
323,-3.0560338755885934,-233.78924040090135,97.34993837370052,61.73119015205352,10.914294204531469,-5.873107657128867,253.2774608205592,63.004678530741934
324,-3.04967264422488,-233.72924152460308,97.34446934713039,61.32367009354365,10.974801237014047,-5.933264099823301,253.22004653778325,62.618201574463754
325,-3.0425469140983865,-233.67190447947908,97.34814446024612,60.914673379696474,11.01843397654162,-5.999488007553737,253.16858019176357,62.227992589728665
326,-3.035035096247214,-233.61823583926338,97.36048930748825,60.5063985086361,11.044159588171544,-6.071103045878674,253.12381106037293,61.83602063241781
327,-3.027508785045896,-233.56922787053165,97.38083926869001,60.10155301064345,11.051379978138451,-6.1473488467535615,253.08640244681663,61.444822206325156
328,-3.020317957047871,-233.5258404721922,97.40836460273887,59.70336827835122,11.039952519295742,-6.227364204610998,253.05692448783824,61.05751631916743
329,-3.013777663896843,-233.48898378130923,97.44209860002717,59.315603719020864,11.010197059502103,-6.310172186168297,253.03584875385155,60.67780693723176
330,-3.0081567704629144,-233.45950174214775,97.48096848157365,58.94254091148022,10.962890089954719,-6.394668778593677,253.02354480610262,60.3099738421359
331,-3.0036690934152563,-233.43815653327485,97.52382859975961,58.5889684845165,10.899247233920716,-6.479616499492365,253.02027845135908,59.95885295228164
332,-3.0004670755974665,-233.4256135867043,97.56949519370941,58.260158271936774,10.820895420057045,-6.563644183301945,253.02621116690526,59.62980702390506
333,-2.9986379729658075,-233.42242703454266,97.61678153508876,57.96183301306958,10.729836232328408,-6.645253957297906,253.04140009948847,59.32868736387025
334,-2.998202492033455,-233.4290256353948,97.66453195693052,57.70012546664899,10.628401986882407,-6.722836192065447,253.06579810926908,59.0617867774717
335,-2.999115880140794,-233.4456994220543,97.71165318771521,57.4815282950461,10.519206076706688,-6.7946929131869185,253.09925347766432,58.8357834408812
336,-3.0012715305350377,-233.47258745869297,97.75714163488081,57.312833514372635,10.405089021967374,-6.85906975367828,253.141509118333,58.65767477962456
337,-3.0045071112519386,-233.5096672214116,97.80010562693283,57.20105979577099,10.289061459028792,-6.91419600839092,253.19220138488868,58.53469984822316
338,-3.008613070950543,-233.556746187557,97.83978200311937,57.1533655612911,10.174245059904509,-6.958331803208406,253.25085877784684,58.474248274637134
339,-3.0133432113457963,-233.61345619904563,97.87554681529491,57.17694577202671,10.063812193329182,-6.9898209348112115,253.31690097613554,58.48375371020562
340,-3.0184268943100343,-233.67925104045125,97.90692030224808,57.27891066433589,9.960925049997458,-7.007147638642701,253.38963865379307,58.57057002950166
341,-3.0235823554927883,-233.7534074473883,97.93356672067227,57.46614548938189,9.868674915784101,-7.0089953922409505,253.46827449710239,58.74182928380947
342,-3.0285305251245305,-233.83502952231504,97.95529001878737,57.74515150860724,9.790022249194257,-6.994305790290317,253.55190577278415,59.00428157128506
343,-3.0330087294323476,-233.92305645634883,97.97202659762807,58.12186999415479,9.727738202718045,-6.962335430914878,253.6395288264397,59.364118438507425
344,-3.036783631765406,-234.01627361168872,97.98383645068061,58.60149264619237,9.684348229666355,-6.912708558606399,253.7300460523744,59.8267830357637
345,-3.03966272397716,-234.1133272653858,97.99089387136348,59.188263514435015,9.662078434485599,-6.84546296470062,253.82227606270467,60.39677186453797
346,-3.0415036415399803,-234.21274342796036,97.99347874668406,59.88527903646914,9.662805368098553,-6.761086476823082,253.9149678195765,61.07743443583763
347,-3.042220672608755,-234.31295102581532,97.99196919990037,60.69429402942538,9.688010085936387,-6.660541376265585,254.0068192801708,61.87077837286394
348,-3.0417881268157334,-234.41230940060646,97.9868359996322,61.61554225561572,9.738737500388197,-6.545274329256968,254.09650066341388,62.777288318760235
349,-3.0402406536382256,-234.50913958917053,97.97863877380652,62.64758039721957,9.815562319415106,-6.417209938993594,254.18268185450063,63.795767320392194
350,-3.0376709838373936,-234.6017582961596,97.9680236763445,63.78716385244049,9.918563066339027,-6.278726786633348,254.26406281014522,64.92320906546212
351,-3.0342257580458196,-234.68851303453582,97.95572176588387,65.02916175833127,10.04730572789231,-6.132615729696663,254.33940527969514,66.1547084748316
352,-3.0301000721131595,-234.76781674731487,97.9425470955217,66.36651717394189,10.200838417546873,-5.982021167796975,254.40756391053748,67.48341678911157
353,-3.0255311862393746,-234.83818033689403,97.929393499433,67.79025653211698,10.377698063697713,-5.830366903816061,254.46751490539683,68.9005455369872
354,-3.0207916205743963,-234.8982418086107,97.91722920441791,69.28955042154556,10.575929594019176,-5.681269052253741,254.51838071021803,70.39542176199883
355,-3.0161816927695058,-234.94679112175243,97.90708852918378,70.85182568870547,10.793117462634097,-5.538439085531033,254.5594496167614,71.95559480861525
356,-3.012021510876443,-234.98279032506983,97.90006007060455,72.46292694507493,11.02642872302373,-5.40558050327782,254.59018966062325,73.56699302227861
357,-3.0086425137434083,-235.00538908084874,97.8972709805204,74.10732393637224,11.272666263623584,-5.286282769721827,254.61025675927942,75.21412702324906
358,-3.0063787712249748,-235.0139361201913,97.8998671024721,75.76835990427645,11.528330364925456,-5.1839161525079485,254.61949750295145,76.88033481666277
359,-3.0055583120736427,-235.00798736764526,97.90898870388907,77.4285350268754,11.789686448224337,-5.101530977963847,254.61794717767972,78.5480628968943
360,-3.006494683680996,-234.98731133469514,97.92574137954708,79.06981820583083,12.052836808071536,-5.041764639318964,254.60582340897267,80.19917665065451
361,-3.00947882346615,-234.951891960962,97.95116171818596,80.67397979905283,12.313794292421106,-5.006759472730103,254.58351543122677,81.81529269409329
362,-3.014771258416664,-234.90192859641667,97.98617774067131,82.22293731270656,12.568556282012132,-4.998094318413387,254.5515687014813,83.37812522489321
363,-3.0225946995216817,-234.83783254517982,98.03156488545339,83.69910554113362,12.813177786217652,-5.016732153310743,254.51066462286374,84.86983798242012
364,-3.0331272035418757,-234.76021967243832,98.08789923671155,85.08574222468934,13.043842853862579,-5.062985618022177,254.46159557455957,86.2733930077922
365,-3.0464961481344686,-234.66989892634254,98.155510615004,86.36728013586577,13.25693370247148,-5.136501656652888,254.40523612531626,87.572887221685
366,-3.0627732627821365,-234.5678570590477,98.23443894638837,87.52963681534538,13.449096990062317,-5.236265944452546,254.34251201265405,88.75386810453102
367,-3.0819708881000287,-234.45524019749928,98.32439776922166,88.56049407135161,13.617306514333201,-5.360627286089187,254.27436897820172,89.80362058439101
368,-3.1040395533733163,-234.33333310387383,98.42474865194737,89.44954071246282,13.758921358046317,-5.507341610969085,254.2017436909189,90.71141849887408
369,-3.128866922964046,-234.20353689271658,98.53448972161863,90.18867352705746,13.871738174938171,-5.673634496397548,254.1255387020013,91.46873543008833
370,-3.1562781772220605,-234.0673456867472,98.65226058032098,90.77215296336182,13.954036031013787,-5.85628039912118,254.0466027575883,92.06941104836373
371,-3.186037918978414,-233.92632240602904,98.77636469933236,91.19671110272877,14.004612071449134,-6.0516961370063855,253.96571707435996,92.50977016292742
372,-3.2178536638261237,-233.78207376844674,98.90480905012014,91.4616102710102,14.022806323129128,-6.256045713907669,253.88358756390946,92.78869239301599
373,-3.251380833085866,-233.63622461553226,99.03535947008893,91.56865102633522,14.00851418806179,-6.46535327374064,253.80084253805308,92.90763077019449
374,-3.2862289452124034,-233.49039175126404,99.16560921805734,91.52212843347871,13.962185624231994,-6.675620718888224,253.71803508878364,92.87057779304017
375,-3.3219684936456346,-233.34615753104487,99.29305737103336,91.32873573116558,13.884810588990538,-6.882946277100923,253.63564906634932,92.68397770994186
376,-3.3581379207996966,-233.20504348104163,99.41519317197904,90.99741499468153,13.77789093594684,-7.083640042273148,253.5541074042983,92.35658436045249
377,-3.3942502072622527,-233.0684843077372,99.52958222193783,90.53915533744275,13.643399525908189,-7.27433231373438,253.4737815282036,91.89926489516142
378,-3.4297988565356508,-232.93780280923175,99.63395051781995,89.96674054300675,13.483727815173346,-7.452070540698674,253.39500076770835,91.32475108612124
379,-3.4642633463020776,-232.81418644945154,99.72626267321579,89.29444968364432,13.301623624591318,-7.614400935555249,253.31806105452873,90.64734165437203
380,-3.497114313445678,-232.6986666837017,99.80479114779907,88.53771623476071,13.10012113998132,-7.759431343833146,253.24323268221792,89.88256104686708
381,-3.527818811035221,-232.59210238890367,99.86817394521844,87.71275340677795,12.882465422212789,-7.8858726843694,253.17076739579025,89.0467823564201
382,-3.5558459655355357,-232.49516873880077,99.91545897202845,86.83615574456815,12.652033852257432,-7.993057163935882,253.10090535432724,88.15682445993906
383,-3.580673316242853,-232.4083524736476,99.94613394136373,85.92448921726748,12.412257046519295,-8.080932537819491,253.0338824204077,87.22953569532606
384,-3.6017940560721806,-232.33195386165858,99.96014124937963,84.99388370333119,12.166541796134831,-8.150032917292103,252.96993784137874,86.28137816947628
385,-3.618725309756128,-232.2660949503085,99.95787767171362,84.05964265993283,11.918198403414955,-8.201427899686129,252.90932190473652,85.32802775893566
386,-3.631017462643384,-232.2107331251621,99.94017911852376,83.13588465536608,11.670374405137224,-8.23665293847877,252.85230276399332,84.38400481493578
387,-3.638264390339136,-232.16567862566328,99.90829114002022,82.23523028217123,11.425996221987816,-8.257624761330948,252.79917146411447,83.4623494646167
388,-3.640114279009223,-232.13061453534064,99.86382641359583,81.36854583390395,11.187719892314249,-8.266546262334879,252.75024427919453,82.57435330189531
389,-3.6362806198848117,-232.10511780098724,99.80871099075473,80.54475222472038,10.95789175519388,-8.265805645823523,252.70586171759058,81.7293563901289
390,-3.6265529155019958,-232.0886799390314,99.74512150286608,79.7707042580831,10.73851969102071,-8.257874672745675,252.66638380386559,80.93461514168226
391,-3.610806617518227,-232.08072621984212,99.67541574506208,79.05114182171621,10.53125528850311,-8.245210663547667,252.63218144807377,80.19524310302563
392,-3.5890118241583204,-232.08063232401096,99.60205913202317,78.38871117539328,10.33738709621116,-8.230166479107018,252.60362392149625,79.51422323513768
393,-3.561240328063832,-232.0877377940267,99.52754958875069,77.78405144105662,10.157844908006444,-8.214912050390613,252.58106278117833,78.89248716955312
394,-3.5276706938300038,-232.10135604504458,99.4543436098781,77.23593887600046,9.99321476509112,-8.201370143211026,252.5648130511122,78.3290543059009
395,-3.488591065374304,-232.12078114785427,99.3847864654411,76.74147960298771,9.843763994746281,-8.191167956516527,252.55513296957693,77.82122158886237
396,-3.444399317518075,-232.1452919717717,99.32104970349037,76.29634022725058,9.709475145121898,-8.185604998921903,252.55220401518477,77.3647934135801
397,-3.3956000731344087,-232.1741545678991,99.2650789727954,75.89500521243235,9.590087158522302,-8.185636655767842,252.5561131381506,76.95434040130658
398,-3.3427981915783658,-232.20662384329822,99.21855447174353,75.53105000233765,9.485141655921515,-8.191872076875587,252.56683900869618,76.58347577056487
399,-3.2866886876901193,-232.24194551595176,99.18286493864696,75.19741956812744,9.394031896550855,-8.204584530776097,252.58424352628674,76.24513862775383
400,-3.228043513730222,-232.27935906027588,99.15909451323012,74.88670314097206,9.316051862446091,-8.22373217703091,252.60806899888067,75.93187453182067
401,-3.16769596298506,-232.31810205929773,99.14802075513623,74.59139711827012,9.250442959428947,-8.24898723463937,252.63794075607584,75.63610490356773
402,-3.106523530440738,-232.35741624327795,99.1501218172515,74.30414931393791,9.196435994191807,-8.279771652952743,252.6733747338807,75.35037804639552
403,-3.0454299897551236,-232.39655546000895,99.16559084695474,74.01797877803013,9.153286395913884,-8.315297529881972,252.71378956312313,75.06759563428797
404,-2.9853273280843298,-232.43479572950096,99.19435580180789,73.72646633241774,9.120301124672684,-8.354610657871346,252.75852264433033,74.7812095019018
405,-2.927118062979216,-232.47144733032093,99.23610307927507,73.42391177952635,9.096856350529348,-8.396635753063975,252.80684957816166,74.48538446846058
406,-2.8716783606354506,-232.50586860071027,99.29030376802201,73.10545452537004,9.082405758327141,-8.440222155908296,252.8580062302753,74.17512382306982
407,-2.819842273393222,-232.53748087076934,99.35624177760835,72.76715528201169,9.07648014152692,-8.484189015660661,252.9112126332029,73.84635513747155
408,-2.772387288204069,-232.56578371546416,99.43304337118208,72.40603772413162,9.07867965748775,-8.527369086829927,252.96569781657251,73.49597536762175
409,-2.73002123788396,-232.59036958555762,99.51970766609699,72.02009048816167,9.088660608055013,-8.568650262761082,253.02072454239382,73.12185575929584
410,-2.6933705488636623,-232.61093686357088,99.61513756536137,71.608231615701,9.106118856175437,-8.607013936530748,253.07561286553337,72.72280878786941
411,-2.6629698344807267,-232.62730049085621,99.71817040624917,71.17023929941209,9.130772032437223,-8.641569278214286,253.12976145614044,72.29852109752835
412,-2.639252942906957,-232.6393994915795,99.82760743522788,70.70665443121872,9.162342542457935,-8.671582549186652,253.18266571354286,71.84945800785343
413,-2.6225456418992796,-232.6473009341338,99.94224116642418,70.21866182355146,9.20054304807883,-8.696500621455236,253.23393187629284,71.37674646995252
414,-2.6130601209528512,-232.65120004958152,100.06087980534429,69.70795791773016,9.245065596343068,-8.715967938560139,253.2832865448069,70.88204422978534
415,-2.6108914231089844,-232.65141632606057,100.1823681337381,69.17661318201633,9.295574991420892,-8.729836272186505,253.33058120666442,70.36740328031618
416,-2.6160158341368156,-232.6483854472145,100.30560447640201,68.6269371741612,9.351706425819529,-8.738166827868028,253.37579148672992,69.83513541059264
417,-2.628291218230699,-232.64264701969353,100.42955360585883,68.06135340253732,9.413066876538643,-8.741224544698753,253.41901100651714,69.28768680363862
418,-2.647459305842845,-232.63482820584017,100.55325566558096,67.48228973640676,9.479239407884636,-8.739464787406924,253.46043998163435,68.72752727398867
419,-2.6731499536305656,-232.6256236441732,100.6758313202707,66.89208836944368,9.549789375316097,-8.733512965558434,253.50036897935524,68.15705804649104
420,-2.7048873515762284,-232.61577232832508,100.79648330134552,66.29293751339846,9.624271583018679,-8.724137828611694,253.53915850451875,67.57854022110828
421,-2.7420980543159623,-232.6060323506043,100.91449435547399,65.6868253484448,9.702237599547901,-8.71221921713756,253.57721523260574,66.99404447221202
422,-2.784120638044799,-232.59715459126258,101.02922149309697,65.07551539143293,9.7832425642194,-8.698710960374784,253.61496582448808,66.40542119384922
423,-2.830216808114726,-232.5898565434743,101.14008655084181,64.46054135692657,9.866850902659674,-8.6845995647903,253.65282940553678,65.81428923939745
424,-2.879583888647457,-232.5847974439195,101.24656350382884,63.84321878491996,9.95264047192351,-8.670859488835527,253.69118994620828,65.22204065018316
425,-2.9313687061405527,-232.5825556972894,101.34816358312499,63.22467023007013,10.04020481962313,-8.658406174531384,253.73036986730776,64.62985836928397
426,-2.984682849944099,-232.5836093353576,101.44441977833081,62.605860631576384,10.129153456147257,-8.64804851620655,253.77060617908288,64.03874386186156
427,-3.038619160945908,-232.58832010029192,101.53487247198818,61.987639523641064,10.219110265021017,-8.640442943699252,253.8120303925023,63.44955170071528
428,-3.092269119072098,-232.59692174420667,101.61905776280949,61.370786925227485,10.30971039086404,-8.63605164608194,253.85465336736496,62.8630284254466
429,-3.1447406209050084,-232.6095131531961,101.69649970537661,60.75606002537264,10.400596146570006,-8.635107595800731,253.8983561450051,62.27985329749278
430,-3.1951755103163553,-232.62605675494598,101.76670738444226,60.144238112598195,10.49141266042588,-8.637588942473512,253.94288755268417,61.70067890605228
431,-3.2427661914328643,-232.6463823590522,101.82917740590356,59.536163513147365,10.581804096844955,-8.643205010362868,253.98786894817388,61.12616985485235
432,-3.2867707322586663,-232.6701962438501,101.88340192029739,58.93277655083517,10.671411280915233,-8.651395520224941,254.0328059798889,60.5570379156458
433,-3.3265260372266643,-232.69709498558055,101.92888176265294,58.33514274103259,10.759871416348645,-8.661343796009866,254.0771067352008,59.99407209185529
434,-3.3614588638255607,-232.72658317360623,101.96514391382885,57.74447066254728,10.846820321930286,-8.672003745447437,254.1201051771236,59.43816209033938
435,-3.391094608231522,-232.75809380014167,101.9917623954979,57.162119283117704,10.93189726311214,-8.682139500853125,254.1610884083027,58.890313844399635
436,-3.415063866807132,-232.79100988577446,102.00838177877424,56.58959395539426,11.014752093919734,-8.690375899712938,254.1993261214336,58.35165600105811
437,-3.4331068386675767,-232.82468589158614,102.01474246375517,56.028530817511005,11.095054141531778,-8.695257489363943,254.23410057780714,57.82343666587476
438,-3.445075710775935,-232.85846764896075,102.01070666261762,55.48066989353857,11.172502122667089,-8.695313370813206,254.26473553206128,57.307010159104074
439,-3.4509352513976377,-232.89170982161005,101.99628367251596,54.947817770457775,11.24683435294925,-8.689124869782916,254.29062264234267,56.8038140417556
440,-3.450761899931308,-232.92379022830934,101.97165270581908,54.43180129514453,11.317838513177964,-8.67539277744757,254.31124406338546,56.31533717770761
441,-3.44474166419585,-232.9541206592998,101.9371814037379,53.93441424016903,11.385360220823799,-8.653000866891922,254.3261901386082,55.84308007241495
442,-3.4331670959445675,-232.98215408479402,101.89343826964078,53.45735929507741,11.449309645690576,-8.621072626211545,254.33517138924987,55.388509149116054
443,-3.4164334712716466,-233.00738837335734,101.84119753587336,53.002188035748944,11.509665446453589,-8.579018607666072,254.33802430337124,54.95300697875518
444,-3.395034056906664,-233.02936684540404,101.7814352851647,52.570241700603894,11.566475408577084,-8.526572400614704,254.33471073180687,54.5378207586248
445,-3.369554088106792,-233.04767622008882,101.71531600306676,52.16259564747599,11.619853352891829,-8.463813932525762,254.32531104495308,54.144011522556205
446,-3.3406629343433356,-233.06194278511452,101.64416930666205,51.780010255064134,11.669972175384702,-8.391179521465075,254.3100116733988,53.77240663297574
447,-3.309103919527794,-233.07182793828434,101.56945746106757,51.42289072160313,11.717053250295324,-8.309458792895832,254.2890882903536,53.42355799445653
448,-3.275681379665778,-233.07702456669514,101.49273532493976,51.09125767148677,11.761352816978746,-8.219779200355166,254.2628865954928,53.09770809222654
449,-3.2412448267555685,-233.0772558263582,101.41560526131529,50.78472977259173,11.803146309743017,-8.12357939701633,254.2318031131785,52.79476543416559
450,-3.2066705550229555,-233.07227751597517,101.3396699563576,50.502518857360414,11.842711827228428,-8.022573020351789,254.19626826072317,52.514290393156976
451,-3.172841458821162,-233.06188447146636,101.26648579821902,50.24343750383711,11.880314033780493,-7.918704560717302,254.1567331499883,52.25549196380375
452,-3.1406259370330325,-233.0459206315018,101.19751869102167,50.00591875797777,11.916189720115725,-7.814098955797926,254.11366058583005,52.01723565778826
453,-3.1108565369645684,-233.02429192613195,101.1341034567124,49.78804764017016,11.950536035634615,-7.711006493351698,254.06751998848137,51.798062662940715
454,-3.084308731524714,-232.9969808754964,101.07740769104385,49.587604175265795,11.983502082056907,-7.611744606065566,254.01878560683724,51.59622040880555
455,-3.061680157756355,-232.96406161717192,101.02840102782314,49.40211779462841,12.015184188737244,-7.518638221802675,253.96793726395512,51.4097047139799
456,-3.043570779282703,-232.9257140169712,100.9878309142741,49.228932962360574,12.045624829189492,-7.43396040934778,253.91546287185437,51.236313622491735
457,-3.030464655726359,-232.8822355948748,100.95620593407769,49.06528566565669,12.07481482633998,-7.359875039152661,253.86186199348793,51.07371275617374
458,-3.022714192653799,-232.83405011582263,100.93378734261636,48.9083899143279,12.102698271123979,-7.298383050268404,253.80764968693987,50.919511461449694
459,-3.020527832533416,-232.7817117474577,100.92058890725812,48.75553265112422,12.12917947812094,-7.251273729313843,253.75335968354563,50.77134826161902
460,-3.023962099473293,-232.72590376245017,100.9163845535969,48.60417462366263,12.15413131317605,-7.220082191271902,253.6995457804644,50.626983278215846
461,-3.032918735120884,-232.66743106085207,100.92072281794556,48.452053990955264,12.177404291519915,-7.206053999725346,253.64678039697657,50.48439451624521
462,-3.047147412555903,-232.60720634803232,100.9329467496137,48.297288881751484,12.198835899462738,-7.210117602084011,253.59564961076146,50.341874349888585
463,-3.0662542505409744,-232.54623042893888,100.95221774172174,48.13847488077377,12.218259628540919,-7.232865050214302,253.54674449393966,50.19812229294727
464,-3.089716061220294,-232.48556754284132,100.97754179026025,47.97477352415242,12.23551326099896,-7.274541353678499,253.50064899750788,50.05233023337926
465,-3.1168998864313107,-232.42631691377798,101.0077968213648,47.80598830471142,12.250446036829146,-7.335042703358123,253.45792491362045,49.90425672001747
466,-3.147086931363265,-232.3695818166614,101.04175995988766,47.632625327845176,12.262924464489226,-7.413923609624218,253.41909464665486,49.75428750889275
467,-3.179499617094848,-232.31643752535143,101.07813394012881,47.45593646926247,12.272836682663787,-7.510412688023237,253.38462271001913,49.60348025099975
468,-3.2133302366997296,-232.26789950802194,101.11557221357187,47.277943487421375,12.280095389797463,-7.623436450015389,253.3548970011596,49.453591755137985
469,-3.247769613224525,-232.2248931103641,101.15270260588146,47.10144191110734,12.28463938979141,-7.751650109754926,253.33021090775364,49.307086570309544
470,-3.282034222281128,-232.1882256970393,101.18814964138384,46.92998366806667,12.28643375860719,-7.89347417144508,253.31074715482382,49.16712572344237
471,-3.3153904770333535,-232.15856190802089,101.22055596636262,46.76783746997473,12.285468561206903,-8.04713542363091,253.29656414090408,49.03753445339259
472,-3.347175247553371,-232.13640249808256,101.24860363440027,46.619926062324495,12.281755999668643,-8.210710883682168,253.28758547473478,48.922747843511594
473,-3.376812108381199,-232.12206724066957,101.27103619264639,46.49173968578222,12.275325902509481,-8.38217315934501,253.28359351108497,48.827733475729815
474,-3.403823177599994,-232.11568252168888,101.28668234835455,46.38922554960041,12.26621958649787,-8.559435659291033,253.28422775877902,48.75789068665783
475,-3.427836657507028,-232.11717436871817,101.29448151614794,46.31865382967994,12.254482296834711,-8.74039617791731,253.2889889584317,48.71892674396816
476,-3.4485902894969067,-232.12626761859238,101.29351098684567,46.28646167561875,12.240154606096084,-8.922977621105636,253.2972493687713,48.716711270177484
477,-3.4659309242902245,-232.14249171987083,101.28301405883131,46.299077909950654,12.223263307174731,-9.105164949746001,253.30826945249956,48.75711147195402
478,-3.4798103473784443,-232.16519340379227,101.26242825599704,46.362732452737234,12.203812464279128,-9.285037714907354,253.32122082386635,48.84581209937003
479,-3.4902774602534543,-232.193556189556,101.2314125617758,46.48325586705158,12.181775348629024,-9.460797832364495,253.33521499576372,48.98812541840293
480,-3.497466963654826,-232.22662639224964,101.1898723106984,46.66587562520744,12.157087938649363,-9.630792513264206,253.34933707702942,49.18879766204334
481,-3.501584865102746,-232.26334497039483,101.13798010677674,46.91501660286892,12.129644532735051,-9.793532510071952,253.36268316189552,49.45181929955439
482,-3.5028914274110634,-232.30258418545802,101.07619112692241,47.23411382722021,12.099295887966553,-9.947706000421475,253.37439982150352,49.78024695264785
483,-3.5016824800274153,-232.34318762067386,101.00525150088518,47.62544557524035,12.065850218892354,-10.092188491095094,253.38372385885143,50.176044843474344
484,-3.4982701996651047,-232.38401165474468,100.92619895229892,48.08999451866051,12.029077350010455,-10.226049099866454,253.39002027767256,50.63995326355572
485,-3.4929644951142538,-232.42396616502117,100.84035530370679,48.62734377314598,11.98871624428125,-10.348553499388665,253.3928162915682,51.17139072302406
486,-3.4860560411909733,-232.4620522335745,100.74931069837766,49.235613468003955,11.944485977482799,-10.4591637070014,253.39182929832475,51.768395202587676
487,-3.477801814163172,-232.49739498147207,100.6548995075704,49.91144181344745,11.896100007432763,-10.557534789671056,253.3869871108094,52.42760829598506
488,-3.4684137027018314,-232.52927016423115,100.55916797963624,50.65001261487447,11.843283340526472,-10.64350844291605,253.37843923212893,53.144304021857636
489,-3.4580504817052495,-232.55712359111263,100.46433386570736,51.4451288659741,11.785791953530973,-10.71710331984468,253.36655842277568,53.91246180501163
490,-3.4468132242726077,-232.58058274796502,100.37273856142684,52.28932965702198,11.723433599364842,-10.778501954889764,253.35193221462848,54.724880786161926
491,-3.4347440975452628,-232.599460314689,100.28679267165595,53.17404542063385,11.656088919132209,-10.828034170138622,253.33534445377194,55.573330468074154
492,-3.4218283826607876,-232.61374961946368,100.20891626219009,54.08978469922062,11.583731618286496,-10.866156969046806,253.317747413091,56.44873093237926
493,-3.4079994324364327,-232.62361242142467,100.1414753779322,55.02634422243598,11.506446401620714,-10.893431076179372,253.30022545616222,57.34135453259396
494,-3.393146166819641,-232.62935972335453,100.08671666474547,55.97303311241861,11.42444346638575,-10.910494451963284,253.28395161617757,58.24104008013097
495,-3.377122685429717,-232.631426555416,100.04670212284633,56.918901489402515,11.338068616767067,-10.918033326232456,253.27013874756898,59.13741009645787
496,-3.3597596548924336,-232.63034180048277,100.02324615774604,57.85296368216715,11.2478083953224,-10.916751579941806,253.25998708332057,60.02008174245245
497,-3.3408771902200964,-232.62669417636425,100.01785719123572,58.764406722758004,11.154289947183003,-10.907339639855541,253.2546301121574,60.878862598057204
498,-3.320298873917784,-232.62109557237545,100.03168612000482,59.64277587955514,11.058275632273034,-10.890444394478655,253.25508077397728,61.703923598277505
499,-3.2978663560268315,-232.61414316313218,100.0654838209268,60.47813072513374,10.960652692875637,-10.866641947481597,253.26218013920135,62.48594320121067
500,-3.273453768264456,-232.60638207465226,100.1195696892966,61.261167702822135,10.862418536128937,-10.836415210909655,253.27655097117878,63.216219311782716
501,-3.2469810634992253,-232.59827073855485,100.19381287623975,61.98330826113756,10.764662351659876,-10.80013828254049,253.29855877061811,63.88674850158156
502,-3.218425395445052,-232.5901513017501,100.28762746145382,62.636754999424795,10.668543845621619,-10.75806919971321,253.32828294109382,64.49027528386604
503,-3.1878297774606943,-232.58222746930832,100.39998220587243,63.21452131764993,10.57526985653418,-10.71035209350328,253.36550049145876,65.0203170619031
504,-3.1553084588079874,-232.57455189600668,100.52942474914627,63.710442216159805,10.486069525734436,-10.657029106886272,253.4096841477765,65.47117232964209
505,-3.1210486705863496,-232.5670246501449,100.67411924609353,64.11917480346277,10.402168516882867,-10.598061768851776,253.46001586812736,65.83792044195056
506,-3.0853086152244815,-232.5594033163293,100.8318956277099,64.4361966716276,10.324762564259716,-10.533360869374194,253.51541556338807,66.11642073360473
507,-3.0484118669059685,-232.5513240688692,101.00030800154245,64.65780875482751,10.25499049812713,-10.462823293738085,253.57458343454434,66.30331714021652
508,-3.0107387369386696,-232.54233178292003,101.17669923168907,64.78114693502971,10.193906939902941,-10.386373799666,253.63605299487668,66.39605211437278
509,-2.9727155251421538,-232.5319162774129,101.3582686107825,64.80420391507964,10.142455048863312,-10.304009391532581,253.69825090748455,66.39289094019699
510,-2.9348027688651577,-232.51955131416028,101.54213983707093,64.72586013830967,10.101439927163762,-10.215843747172546,253.75955946021801,66.29295489074231
511,-2.8974835523798887,-232.50473300858334,101.72542704089862,64.54592012532612,10.07150348942128,-10.122149042433932,253.81837773830287,66.09625934736755
512,-2.8612526970356855,-232.48701471894148,101.90529705299961,64.26514879941834,10.05310177811787,-10.023392491532627,253.87317810505021,65.80375127684634
513,-2.826607324257535,-232.46603616879352,102.07902638622642,63.88530142265966,10.046485847203149,-9.920265020827623,253.92255533556053,65.41733958087566
514,-2.794038994305045,-232.44154542085255,102.24405167368684,63.40914082673115,10.051687404293691,-9.813699761726399,253.96526664127103,64.93991195283324
515,-2.76402743083981,-232.41341320723828,102.39801271861775,62.84043668072724,10.068510357359859,-9.704878492944854,254.00026179550846,64.37533298015555
516,-2.7370356810816032,-232.38163986759514,102.53878786004336,62.183943362437724,10.096529221049085,-9.595224755673026,254.02670346974537,63.728420085317495
517,-2.7135063432860385,-232.34635567286267,102.66452192638015,61.44535523380449,10.135094983212428,-9.486383044131106,254.04397859664675,63.00489614467007
518,-2.693858229916899,-232.30781565820647,102.7736474720702,60.63124040981877,10.183348543263506,-9.380184174980585,254.05170205927965,62.21131990852391
519,-2.678482638592895,-232.2663903124716,102.86490016226668,59.748956144608314,10.240241288837982,-9.278597668731251,254.04971427687303,61.354997378300105
520,-2.6677383888097292,-232.2225535395018,102.93732913805653,58.806550461025346,10.304561871789806,-9.183672802595217,254.03807430616723,60.44387883122672
521,-2.661944990491099,-232.17686915382043,102.99030307416616,57.81265539371279,10.374967857387146,-9.097470907978302,254.01704989062088,59.48644700848121
522,-2.6613736905825953,-232.12997682569977,103.02351245930585,56.776377113753476,10.450020681929677,-9.021992303407384,253.9871055017839,58.49160198760169
523,-2.6662366003724927,-232.0825779570462,103.03696838847,55.707187372279904,10.528222250402012,-8.959101734957448,253.9488889273898,57.468547515920775
524,-2.676674547488296,-232.03542158020497,103.03099792394345,54.614819400247605,10.608051524152206,-8.910456251809492,253.90321651491132,56.426682326619854
525,-2.6927446500802157,-231.98929013926616,103.00623588822799,53.509169907283166,10.687999598457894,-8.877439172736116,253.8510568918496,55.37549848241427
526,-2.7144088289888817,-231.94498497055105,102.96361274605086,52.40020736189148,10.766602056846194,-8.86110334327422,253.79351286309773,54.32448734325775
527,-2.7415245414368843,-231.90331137960916,102.90433803167495,51.297885491386445,10.842467779608356,-8.862126310560095,253.73180117789778,53.283052518127334
528,-2.7738389319691366,-231.86506331754185,102.82987873629256,50.21206003911583,10.914303799468794,-8.880779350949412,253.6672299370916,52.260428244154866
529,-2.810987340605727,-231.8310077393545,102.7419323233734,49.152406316849934,10.980936155344143,-8.916911483576,253.6011735847856,51.26560107870639
530,-2.852496716247231,-231.80186880712506,102.6423945381492,48.12833502228547,11.041326971019336,-8.969948767198348,253.53504570105585,50.30723262510396
531,-2.897794066608123,-231.77831221540518,102.53332271223145,47.14890419422844,11.094588211278682,-9.03890842381777,253.47027013084957,49.39358129968618
532,-2.9462197192726807,-231.76093001852755,102.41689564849901,46.22272605531802,11.139992746506522,-9.122426745397851,253.40825123007218,48.53242190354191
533,-2.9970448215160745,-231.75022633803488,102.29537136276203,45.35786874459136,11.176983416330106,-9.218799332276724,253.35034408219383,47.730962878000064
534,-3.049492083807713,-231.74660421849578,102.17104399105438,44.56175435042962,11.205180652218313,-9.326031931695805,253.2978254470526,46.99576236499456
535,-3.102758335310006,-231.75035379720552,102.0462010629954,43.841055920686195,11.2243889065876,-9.441899923122103,253.25186606228166,46.33264526631374
536,-3.1560372038108455,-231.76164197314316,101.92308214527779,43.2015969662809,11.234601709560282,-9.564014297447596,253.2135048555004,45.746624135283845
537,-3.2085402874937015,-231.78050390942224,101.80383967550394,42.64825724810657,11.236004724014839,-9.689891799388786,253.18362568919443,45.24182682908581
538,-3.2595155069973183,-231.80683690069588,101.6905026613916,42.18488841920591,11.228975818901887,-9.817026757194876,253.16293738617503,44.82143350482392
539,-3.3082617879303524,-231.84039727679465,101.58494374777575,41.81424257604833,11.214081058399023,-9.9429620299899,253.15195784711656,44.487624978741415
540,-3.3541397307013994,-231.88080100812576,101.48884994292791,41.537916115457065,11.192065647513594,-10.065356492257493,253.15100298693343,44.24154385861553
541,-3.3965783881678977,-231.92752852277295,101.40369715547403,41.35631060801487,11.16383920109334,-10.182046583986349,253.16018102246957,44.08326930005899
542,-3.4350785941392767,-231.9799340327152,101.330728739199,41.26861180125386,11.13045510558621,-10.29109972013529,253.1793924702078,44.01180582188584
543,-3.46921344445743,-232.03725947394116,101.27093844740007,41.27278746635235,11.093084175627858,-10.39085778064596,253.20833611824006,44.02508643812544
544,-3.498626613645923,-232.09865295462276,101.22505837077254,41.365604635976105,11.052983268834398,-10.479969431677683,253.24652111179398,44.11999044238918
545,-3.5230292820785394,-232.16319128627273,101.19355238800463,41.54266678216889,11.01145999077585,-10.557410575285857,253.29328498031472,44.29237642453329
546,-3.5421965335905434,-232.22990574579924,101.17661539771282,41.798471515328835,10.969835027780093,-10.622492754391011,253.34781693756486,44.537131354847766
547,-3.555964064444656,-232.29780981223047,101.17417827080135,42.12648929344066,10.929403892293974,-10.674859857450542,253.4091852816185,44.84823666874519
548,-3.5642258703342375,-232.36592738924313,101.1859181763876,42.51926328328719,10.891399899085883,-10.714473970751985,253.4763673897841,45.218852087346185
549,-3.5669333123414684,-232.4333200123635,101.21127373094235,42.96852985157051,10.856960042053311,-10.741591705248814,253.54828070610597,45.64141736518422
550,-3.5640957001467535,-232.499111691077,101.2494643350696,43.46535825159048,10.82709518591328,-10.756732748565545,253.62381322085145,46.107771340266574
551,-3.555782285094685,-232.56251027261638,101.29951307383746,44.000307088084604,10.802665671276365,-10.760642683455302,253.70185216328872,46.60928673176189
552,-3.542125293689259,-232.6228244990127,101.36027251527075,44.56359424449972,10.784363076736003,-10.754252186510529,253.78130987701732,47.13701821515614
553,-3.523323380809512,-232.67947622553467,101.43045254239252,45.14527618412329,10.772698529031949,-10.738634578444781,253.861146043467,47.681860452349575
554,-3.4996447288421604,-232.732007505367,101.50864911298575,45.7354318934986,10.767997660749591,-10.714963461959263,253.94038554280746,48.23471201368927
555,-3.471429021991313,-232.78008241284172,101.59337273762124,46.32434631217798,10.770402111847398,-10.684471985826422,254.0181313553132,48.78664062482515
556,-3.4390876744602092,-232.8234836813698,101.68307554063485,46.90268802223068,10.779877316052664,-10.648415118191746,254.09357212407755,49.32904502678915
557,-3.403101937402988,-232.86210454292865,101.77617599063969,47.46167628534595,10.796226123916998,-10.60803610598058,254.16598437530615,49.85380894478255
558,-3.3640187777886004,-232.895936485275,101.87108074353104,47.99323309530936,10.819107554668843,-10.564537996610545,254.23472983864184,50.35344308720262
559,-3.322444621558438,-232.92505386013153,101.96620347341808,48.49011659013888,10.848059689316772,-10.519060743782195,254.29924868260042,50.821211599109915
560,-3.2790371307628785,-232.94959637627812,102.05998096765747,48.94603282727546,10.882525488734869,-10.472664066039357,254.359049731427,51.251239891981044
561,-3.2344951764037293,-232.9697505873077,102.15088705335589,49.3557235386346,10.921880165185701,-10.426315913496321,254.41369891277708,51.63860125057163
562,-3.1895471708349508,-232.9857315674695,102.23744508159112,49.71502809539143,10.965458645603391,-10.380886143482295,254.4628073230716,51.97938012399914
563,-3.1449379999935663,-232.99776599603726,102.31823974710721,50.02091859226193,11.012581648020479,-10.337144790023409,254.50602034178644,52.270710604127636
564,-3.101414920627967,-233.00607778236125,102.39192900854364,50.27150773163886,11.062578976163172,-10.29576410159579,254.54300914122987,52.510789301947604
565,-3.0597128849404758,-233.01087716772398,102.45725678223728,50.46603002945378,11.114808832880488,-10.25732331792997,254.57346572392936,52.69886263516098
566,-3.020539796846282,-233.01235395407997,102.5130668643296,50.6047977455842,11.168672235577679,-10.222314984539997,254.5971022712885,52.8351894064565
567,-2.984562219680794,-233.01067511901198,102.55831824939646,50.68913379486766,11.223621953945239,-10.191151481624914,254.61365511386035,52.920980414298405
568,-2.9523920398418695,-233.00598659102425,102.59210178832197,50.72128460385528,11.27916577208745,-10.164170409460077,254.62289309658755,52.958317590532744
569,-2.9245744967559917,-232.99841848250284,102.61365798001825,50.7043163566119,11.334864293970801,-10.141637606711278,254.624629612444,52.95005573356631
570,-2.901577823130193,-232.98809276511471,102.62239551694718,50.64199832458816,11.390323935804616,-10.123746949181479,254.6187372167132,52.89971031506027
571,-2.8837845804642774,-232.97513230329673,102.61790994092162,50.53867704309448,11.445186150195262,-10.110616643176925,254.60516356055257,52.811335107312736
572,-2.871484679244329,-232.95967026923483,102.6000014750194,50.39914500249774,11.499114258809431,-10.10228233680423,254.5839473612533,52.68939348678477
573,-2.864870026260394,-232.9418591145013,102.56869088868226,50.228507295958345,11.551779468003877,-10.09868787524585,254.55523317980482,52.538627199001375
574,-2.864030722169635,-232.92187838791483,102.52423213684062,50.03204936982777,11.602847671652087,-10.099674873587714,254.51928383376298,52.36392616290036
575,-2.868952755025861,-232.89994075395765,102.46712042298749,49.81510872306094,11.65196853098999,-10.10497249193379,254.47648929762366,52.170202620937275
576,-2.879517212702879,-232.8762955924659,102.39809435350433,49.58295314701574,11.698768095443121,-10.114188885284443,254.4273709786745,51.96227266302721
577,-2.8955011550733154,-232.85122959921932,102.31813119755105,49.34066791171201,11.74284589745195,-10.126805770590478,254.3725804390337,51.744747894981785
578,-2.916580405060462,-232.82506397999813,102.22843493508407,49.09305416191672,11.783777029190649,-10.142177418557457,254.31289206950635,51.52193976458356
579,-2.9423345708356643,-232.7981482134366,102.1304174253218,48.844540617515584,11.821119227316789,-10.159535130698695,254.24918983696347,51.29777874179639
580,-2.97225454146913,-232.77085084965387,102.02567335895328,48.599110431808036,11.85442449706364,-10.177997886671557,254.1824488092647,51.075750136709985
581,-3.0057525032535466,-232.74354823755212,101.91594967067674,48.3602447451854,11.88325435605866,-10.196589383059475,254.1137125523558,50.85884784662835
582,-3.04217429013653,-232.71661233268537,101.80310997478061,48.13088407049181,11.907197463669782,-10.214261227160732,254.04406768041676,50.64954678160043
583,-3.080813753207589,-232.6903987711184,101.68909455898576,47.91340812540386,11.9258882910337,-10.229921666486606,253.97461685743804,50.44979412064767
584,-3.1209288697948607,-232.66523619549656,101.57587669503903,47.70963406040009,11.939025541984147,-10.242468924702397,253.9064514580143,50.26101886540179
585,-3.1617593889465865,-232.64141751863477,101.46541652249745,47.52083222930071,11.946389161876496,-10.250827942317938,253.8406250234045,50.084158366966975
586,-3.20254575360952,-232.61919356466592,101.35961435339983,47.347757780218366,11.947854940712743,-10.253989072664776,253.77812866325527,49.91969966246631
587,-3.2425488130517817,-232.59876933201795,101.26026563172816,47.1906955436328,11.94340596481616,-10.251047083424641,253.71986952703645,49.767732713569984
588,-3.2810695341904066,-232.58030286838144,101.16901975194017,47.04951511224639,11.93314048787501,-10.241238685910984,253.66665322041726,49.628012136235064
589,-3.3174676593702674,-232.56390642753863,101.08734452235534,46.92373271391013,11.917276094240366,-10.223976767365118,253.61917057636023,49.50002379520308
590,-3.3511781541451513,-232.54964931744593,101.01649744878775,46.81257644493071,11.896150255287488,-10.19887956559605,253.57798870493053,49.38305267151515
591,-3.3817244170797296,-232.53756175949795,100.95750437106979,46.71505161086004,11.87021755033819,-10.165793255602884,253.54354590697238,49.2762486689615
592,-3.4087275703408313,-232.52763914206912,100.9111453600039,46.63000330074557,11.840043967205942,-10.124806819836019,253.51614984830098,49.17868750099943
593,-3.4319116037866735,-232.51984618109677,100.87794722868948,46.55617386365274,11.806298801212392,-10.076258570728774,253.49597829391274,49.089424441057844
594,-3.451104541050683,-232.51412067376518,100.85818165857481,46.492253569318684,11.769744699203383,-10.020734188843837,253.48308172338113,49.00753940856116
595,-3.466236002438831,-232.51037677543684,100.851867887109,46.436923312897605,11.731226321940106,-9.959056560283273,253.47738735151665,48.93217248001794
596,-3.4773315708598185,-232.50850800136553,100.85877909286138,46.388888704846096,11.69165793317551,-9.892268000162188,253.47870439976555,48.862549393330404
597,-3.48450437796218,-232.50839034664787,100.87845187277843,46.346905260978346,11.652010019573986,-9.821605640645808,253.48673073948174,48.797996957839594
598,-3.487944443265507,-232.50988596626587,100.91019840036816,46.30979470177654,11.613294875543936,-9.748470881634637,253.50106114799357,48.73794854424593
599,-3.487906485514041,-232.51284773029133,100.95312096628749,46.276452613307576,11.576551000314018,-9.674393856305532,253.52119734651222,48.68194004973464
600,-3.484697056184048,-232.51712463428746,101.0061287233658,46.24584792358211,11.542826154513083,-9.600993836568195,253.54655972925173,48.62959692163665
601,-3.4786618493687955,-232.52256758341775,101.06795667453204,46.217014832085724,11.513158977744107,-9.529936447991274,253.5765003554049,48.580613002883
602,-3.4701739436070094,-232.5290347347942,101.13718715869467,46.18903805941484,11.488559140015475,-9.462888588221123,253.61031655602747,48.53472220502777
603,-3.459623563284869,-232.53639559050757,101.21227406818787,46.161032608531556,11.469986074415871,-9.40147208742195,253.647264508973,48.49166437082974
604,-3.4474097067923357,-232.54453333598394,101.29156974024,46.132119633337226,11.458326425260832,-9.34721735613295,253.6865722989395,48.45114713433388
605,-3.4339336987843714,-232.55334530682939,101.37335420398657,46.10140042713453,11.454370456829132,-9.301518466576475,253.727452232551,48.41280604849462
606,-3.419594475388754,-232.56274183137546,101.45586649456129,46.06793090800494,11.458787806742563,-9.26559127104233,253.76911252177953,48.37616566096076
607,-3.404785281326153,-232.5726440309673,101.5373379527279,46.030699257800975,11.472103144555275,-9.240436246935284,253.8107688346161,48.34060454380575
608,-3.3898914252123635,-232.5829813843863,101.61602747079401,45.9886095357794,11.494672525302558,-9.22680774768009,253.85165643042382,48.305327492571244
609,-3.375288730679261,-232.59368983217573,101.69025833091358,45.9404740566271,11.526661487622073,-9.225191219941967,253.89104343976584,48.26934812009307
610,-3.3613423161009726,-232.60471090492095,101.7584557292825,45.88501699378426,11.568026154020762,-9.235789708107538,253.9282453563978,48.23148476202897
611,-3.348405358375172,-232.6159919772756,101.81918357215035,45.820891013088776,11.618498659731259,-9.258520592411232,253.96264025212866,48.19037193231711
612,-3.3368175199277346,-232.62748744581802,101.87117887703793,45.74670783430869,11.67757815266374,-9.29302301384825,253.9936838424025,48.14448858972098
613,-3.326902679485657,-232.63916045651627,101.91338212553973,45.661082570325085,11.744528428560928,-9.338675893316454,254.0209233742274,48.09220333303641
614,-3.318965517730451,-232.6509847488912,101.94496203291727,45.562690571650776,11.818383039200214,-9.394625930733248,254.0440092989478,48.03183541986993
615,-3.313286469886892,-232.66294618727932,101.9653332990487,45.450334324146944,11.897958423709394,-9.459824494205186,254.06270373530748,47.96172921814233
616,-3.3101146711496634,-232.6750435250409,101.97416611351709,45.32301674787146,11.981875240009494,-9.533071853270743,254.07688479617113,47.88033837608101
617,-3.3096588223052232,-232.68728784796548,101.97138674380115,45.180016144051905,12.068587637211484,-9.613066787337537,254.0865459994451,47.78631475704718
618,-3.3120763279414827,-232.69970006262986,101.95716939795862,45.02095721366774,12.156419769771523,-9.698459293728197,254.09179027513215,47.678596229590894
619,-3.317461477889146,-232.7123059047525,101.93192037715886,44.845872184783914,12.243608473031673,-9.787903989096048,254.0928185261263,47.55648690848675
620,-3.3258337471009667,-232.72512830930668,101.8962560361612,44.65524622308905,12.328350731190744,-9.880111822715545,254.08991324477242,47.41972349565615
621,-3.337127431944612,-232.73817749050036,101.85097622177949,44.450041977139875,12.408854351151511,-9.973897859499424,254.08341821219753,47.268521973936394
622,-3.351183809027229,-232.75143953281497,101.79703478690985,44.23169929275736,12.483390049811048,-10.068223127791013,254.0737156897447,47.103600012854116
623,-3.367746811285765,-232.76486460574017,101.7355086335689,44.00210773447418,12.550342940491415,-10.162228845759486,254.06120273330086,46.926171963307084
624,-3.386462908229209,-232.77835611989127,101.66756661622996,43.76355144321939,12.608261224669592,-10.255261718902215,254.04626839277506,46.73791513103782
625,-3.4068855121881922,-232.79176224372014,101.59443953276522,43.51862788784243,12.6558998728667,-10.346889428779962,254.0292736026589,46.540908009498324
626,-3.4284838621966878,-232.80487111553512,101.51739227853888,43.27014407503077,12.692257286353678,-10.436905906463908,254.01053542434474,46.33754318879398
627,-3.4506559917009683,-232.8174107870233,101.4376989894855,43.02099559071562,12.716603341110618,-10.525326484168252,253.99031692136916,46.13041956297144
628,-3.4727450957952923,-232.82905450728137,101.35662168712555,42.77403527399383,12.72849774519791,-10.612373485115937,253.9688234273338,45.92222003122278
629,-3.4940584201946345,-232.83943147710198,101.275392652669,42.531939212337306,12.72779821613243,-10.69845317168944,253.94620540932712,45.715581947876906
630,-3.513887726693195,-232.8481426779542,101.19520051188584,42.29707799121922,12.71465853067943,-10.784125205272195,253.92256754799476,45.512968001412816
631,-3.531530445283745,-232.85478084429565,101.1171797214407,42.07140072958302,12.689516934719283,-10.87006591226693,253.89798304707492,45.31654497642898
632,-3.546310754371424,-232.8589532226115,101.04240277168695,41.85633848120043,12.65307569772751,-10.95702673683138,253.87251164500157,45.12807706497012
633,-3.55759995695095,-232.86030553027317,100.97187403563485,41.65273222343406,12.606272812539565,-11.045789309869715,253.84621943553063,44.94883919965701
634,-3.5648355897975463,-232.85854543812184,100.90652392368641,41.46078905740675,12.550247061993511,-11.137118574397904,253.8191984130603,44.77955446207241
635,-3.5675387331258226,-232.85346387389708,100.84720197602572,41.28006859810367,12.486297939503569,-11.231715375018515,253.79158362039627,44.62035816181238
636,-3.5653290250147625,-232.84495251696788,100.79466780430677,41.109499979956745,12.415842196819128,-11.330169871465344,253.76356595374486,44.47078981191627
637,-3.5579369324154633,-232.83301611910017,100.74957929307513,40.94742843301582,12.340369032346578,-11.432917119438596,253.73539912039345,44.32981292635608
638,-3.545212874056782,-232.81777873205257,100.71247802095432,40.79168885585578,12.26139604991658,-11.540196184135157,253.70739987340582,44.19586118383035
639,-3.5271328773421184,-232.7994834179059,100.68377240385239,40.63970213454022,12.180428060720969,-11.65201418824595,253.67994131990713,44.066907936933276
640,-3.5038006450170838,-232.77848542361997,100.66371964482401,40.488588280254184,12.098920563914325,-11.768116743875956,253.6534397068574,43.94055443248444
641,-3.4754461480717223,-232.7552390906576,100.6524081567289,40.335289140702116,12.018249348033292,-11.88796627971341,253.6283355885955,43.81413078815131
642,-3.4424210082119355,-232.7302790478458,100.64974250868136,40.176692836006026,11.939687154354745,-12.010729796224103,253.60507069092634,43.68480307101689
643,-3.4051909470505444,-232.70419664190968,100.65543296017285,40.009752362787104,11.864387810427775,-12.135277465389429,253.5840621682012,43.54967991465369
644,-3.364325542814559,-232.67761310511332,100.66899133157175,39.83159200452657,11.793377756987907,-12.260193180102183,253.56567633085967,43.40591300671524
645,-3.320485527226534,-232.65115145266043,100.68973450752539,39.63959713141824,11.727554495230422,-12.38379766961449,253.55020420151757,43.25078735625603
646,-3.274407875539799,-232.62540931936326,100.71679634660215,39.431485367511335,11.667691155569832,-12.504184192228983,253.53784125523853,43.08179923754164
647,-3.226888940047754,-232.6009348241798,100.7491480937601,39.20535953795264,11.614446082317615,-12.61926616334972,253.52867332246993,42.896721723238095
648,-3.1787658368913077,-232.57820715896455,100.78562657226657,38.9597448500829,11.568376020467744,-12.726835437841078,253.52266994565153,42.69365936467922
649,-3.1308962790955444,-232.55762299743557,100.82496862190126,38.69361405350195,11.529951229124801,-12.824629386587635,253.51968560297962,42.47109454120285
650,-3.0841371063418532,-232.5394890911571,100.86584960729651,38.40640470265444,11.499570714208918,-12.910404418922,253.51946828197327,42.227928166666324
651,-3.039321865115312,-232.52402072125307,100.90692347462763,38.09803217062059,11.47757583470434,-12.982013236672072,253.52167410101774,41.963516903203804
652,-2.9972378990945643,-232.5113451791891,100.94686189249441,37.76890093756121,11.464260817178976,-13.03748289426195,253.52588623899146,41.677708009763805
653,-2.9586035262371175,-232.5015092227453,100.98439046678656,37.41991517121378,11.459879183243132,-13.075090671539016,253.53163639924648,41.370871689992654
654,-2.924046017322388,-232.49448941829675,101.01832071448432,37.0524880394655,11.464645647996027,-13.093434774163102,253.538427273254,41.04392952790202
655,-2.894081230898431,-232.49020429103265,101.04757720714944,36.668547852922785,11.478733538414819,-13.091496923070512,253.54575476211696,40.69837652627021
656,-2.8690958918015155,-232.48852718763425,101.07121991042172,36.270538252554104,11.502268116032933,-13.06869404752247,253.55312893713892,40.33629358570111
657,-2.849333620471036,-232.48929877933358,101.0884622181717,35.86140931626178,11.535316385388324,-13.024916663734952,253.56009292344328,39.96034709933407
658,-2.8348858516051316,-232.4923382977058,101.09868546476172,35.44459661534839,11.577874131142252,-12.96055212784301,253.56623915040626,39.57377269236084
659,-2.825688580311618,-232.49745291471442,101.10145061090941,35.02398581322728,11.629851149069928,-12.876491711257252,253.5712226740064,39.18034092240151
660,-2.821525384049873,-232.50444507492625,101.096507197224,34.60386127676689,11.691055909880777,-12.774121235011249,253.57477141595928,38.784303853389815
661,-2.8220365360807853,-232.5131179103907,101.08379881334812,34.18883828546766,11.761181103145944,-12.65529572363467,253.57669314567832,38.39032268558193
662,-2.826733499118982,-232.52327896203983,101.0634638105161,33.783779680830904,11.839791547854801,-12.522299138280863,253.57687892663023,38.00337793389227
663,-2.83501779990576,-232.53474231396814,101.035830095706,33.393699073965394,11.926315834554899,-12.377790705505072,253.57530269067743,37.62866488135622
664,-2.846203197851714,-232.54732914896894,101.00140341998524,33.023653870307015,12.02004286652996,-12.224739733414308,253.57201674069017,37.271478100869395
665,-2.859540077821145,-232.5608668577263,100.96084931324334,32.67863221679517,12.120124251072074,-12.066351199661609,253.56714338478182,36.93708964249355
666,-2.8742410596062427,-232.57518714861112,100.91496954109053,32.363438401508255,12.225583232853861,-11.905984802304426,253.56086347625615,36.630625902734224
667,-2.889506904214337,-232.59012391385923,100.86467454337708,32.082581165243525,12.335330497899028,-11.747070427204264,253.55340314308398,36.356948089224296
668,-2.9045518851466325,-232.60551174131837,100.81095361287001,31.840168814255073,12.448186689831099,-11.59302294416447,253.54502022682965,36.12054050602719
669,-2.9186278379006896,-232.6211858773752,100.75484447308871,31.639814064670837,12.562910926478875,-11.447158912113691,253.5359918309399,35.92540973338473
670,-2.931046099528294,-232.6369842046868,100.69740346374306,31.48455045580701,12.678234084108363,-11.312617316913714,253.52660397593775,35.77499647525582
671,-2.941196584432914,-232.65275147719564,100.63967701309939,31.3767612409352,12.792895209377043,-11.192286034864518,253.51714385545588,35.67210074263822
672,-2.9485634054947027,-232.668345714777,100.58267478517482,31.318121088854173,12.905679145025127,-11.08873536630224,253.50789476191645,35.61882032383779
673,-2.9527367369933675,-232.6836463418587,100.52734490305708,31.309550742286238,13.01545329744534,-11.00415973442653,253.4991334669505,35.61650219473558
674,-2.953420926695869,-232.69856337754888,100.47455175200365,31.35118492611433,13.121201441210003,-10.94032850667029,253.49112963012243,35.665706602552376
675,-2.950439083427516,-232.71304676246186,100.42505683074134,31.442354181223145,13.22205259765853,-10.898546826032328,253.48414659160633,35.7661839355364
676,-2.943734441473391,-232.72709477934285,100.37950294778928,31.5815817645552,13.317303380704923,-10.87962724480802,253.478442716881,35.91686502118627
677,-2.9333687736917904,-232.74076052471105,100.33840192474354,31.766597098911383,13.406432724160842,-10.88387278634314,253.47427240477404,36.11586596495169
678,-2.9195180749584337,-232.75415547156922,100.30212596505089,31.994367275885445,13.48910845271945,-10.911071859786455,253.47188594133425,36.36050883071486
679,-2.9024657178800823,-232.7674492435434,100.27090286915478,32.26114769220035,13.56518561881282,-10.960505273494293,253.47152746186808,36.64735924162137
680,-2.882593293505534,-232.78086481348123,100.24481516903842,32.56255204523675,13.634696906299787,-11.030965435152298,253.47343032415003,36.972281360484374
681,-2.8603693717511254,-232.79466856536567,100.223803006659,32.89364075351473,13.697835788439066,-11.12078761752646,253.47780930372147,37.33050981821875
682,-2.836336425697947,-232.80915507635308,100.20767032226938,33.24902557192183,13.754933578676436,-11.227892809793234,253.4848493024634,37.71673713642548
683,-2.8110961325409587,-232.8246270092982,100.19609380138454,33.62298689290757,13.806431973441702,-11.349841154487624,253.49469070332995,38.12521413905883
684,-2.785293197221832,-232.8413710610239,100.18863414843331,34.009599106867654,13.852853008693376,-11.483894413965725,253.50741205862687,38.54985986422664
685,-2.7595978171101994,-232.85963145087612,100.1847495855288,34.402858610485744,13.894768416549839,-11.627085466782862,253.52301142343552,38.98437671572259
686,-2.7346870005970607,-232.87958289422238,100.18381183198849,34.79680877878678,13.932770194903188,-11.776292544262983,253.54138820907923,39.42236621386875
687,-2.7112251666244958,-232.90130523748226,100.18512496559228,35.185656537944524,13.967443918615531,-11.928315728197333,253.56232770226302,39.85744082866004
688,-2.689844706718472,-232.92476181975175,100.18794738376339,35.56387601461863,13.999346024785664,-12.079953111091523,253.58549022095724,40.283327969685274
689,-2.6711274182667992,-232.949783255918,100.19151665152998,35.926295898434965,14.028985998336706,-12.228074026169729,253.610406367272,40.693963112768664
690,-2.6555879128856508,-232.97605793196078,100.19507654825595,36.26816842195214,14.056814022188627,-12.369686972990662,253.63647927839233,41.08357008129632
691,-2.6436602603239714,-233.00313015258527,100.19790526190297,36.58521907552272,14.08321422067331,-12.502000303803294,253.66299431235134,41.44672752164882
692,-2.635689104399274,-233.03040644399513,100.19934339947734,36.87367723958864,14.108503150538844,-12.62247428392738,253.689136096796,41.778421509566975
693,-2.6319260626516914,-233.05716989870402,100.19882020261478,37.130288788427244,14.132932750926082,-12.728863646154243,253.71401219820538,42.07408493218508
694,-2.632531403409259,-233.0826018368882,100.1958761780421,37.35231238120443,14.156696633745025,-12.81925014879537,253.7366820405477,42.32962479806943
695,-2.637580131756406,-233.10580970576538,100.19018046258029,37.53750161608695,14.179938450144181,-12.892064959767726,253.75618942376468,42.54143897963174
696,-2.6470710980819545,-233.12586004628034,100.18154164043877,37.68407550347524,14.202761129773767,-12.946101025019315,253.7715970654662,42.706424150112035
697,-2.6609376841794594,-233.14181529266446,100.16991126735964,37.7906798357793,14.225236006122959,-12.980515986536092,253.78202174368775,42.821976859825085
698,-2.679058869063283,-233.1527729591134,100.15537992659482,37.85634200642261,14.247411120903301,-12.994826619550237,253.7866686520759,42.88598976265996
699,-2.701269810263873,-233.15790544654675,100.13816614810543,37.88042167362688,14.26931826398522,-12.98889603146242,253.7848634859316,42.896844899903776
700,-2.7273713696160824,-233.1564984372167,100.11859883776438,37.86255939086687,14.29097851172963,-12.962914954461796,253.7760806587356,42.85340565962516
701,-2.7571382476361235,-233.14798577423488,100.09709399321262,37.802624950606365,14.312406175831985,-12.917378421292122,253.75996603334815,42.755008588475015
702,-2.790325595347034,-233.13197887670748,100.07412661681167,37.700666736638965,14.33361120245595,-12.85305901422325,253.7363527436039,42.60145570145181
703,-2.8266741747691495,-233.108289066802,100.05019901759385,37.556862901005495,14.354600208796512,-12.770977777120192,253.70526909057307,42.39300739272363
704,-2.865914333369375,-233.0769416233062,100.02580702106023,37.37147474127545,14.375376504013795,-12.672373828211,253.6669380285605,42.13037557362522
705,-2.907769189199783,-233.03818088553254,100.0014057698137,37.14480232615297,14.395939540214785,-12.558673734610156,253.62176828743117,41.81471630472703
706,-2.951957442396819,-232.99246626006288,99.97737678516539,36.87714225006452,14.416284206265304,-12.431461774627472,253.57033765582162,41.44762095931426
707,-2.9981961266106345,-232.94045948506087,99.95399797497161,36.56874737837569,14.436400214243555,-12.292452218074883,253.51336941296924,41.03110481867717
708,-3.046203392646799,-232.8830039766744,99.93141844428962,36.21978851770111,14.45627158984063,-12.14346459982619,253.4517033911064,40.56759189906453
709,-3.0957011251903057,-232.82109750004543,99.90964012522036,35.830318083285995,14.475876030289553,-11.986402641641524,253.3862635931204,40.05989474774978
710,-3.1464169944448144,-232.7558597070069,99.88850806514684,35.400236075188886,14.495183707196901,-11.823237064487293,253.31802449424748,39.51118800572171
711,-3.1980855931049676,-232.68849624242304,99.867710543732,34.929259063272795,14.514155025923895,-11.655992100375629,253.2479780430667,38.92497480422085
712,-3.250448554574707,-232.62026121250543,99.8467891857564,34.41689341548145,14.532736934505305,-11.486735118773783,253.1771030718442,38.30504556892367
713,-3.3032537635161243,-232.55241989769448,99.82515820211454,33.86241463656997,14.550857610967608,-11.317568495673097,253.10633850558176,37.65542953023409
714,-3.3562537878773515,-232.48621365310362,99.80213104712035,33.26485532035512,14.568419741069,-11.15062270076042,253.03656148291182,36.9803401037479
715,-3.409203530714895,-232.42282885263197,99.7769522281844,32.623004699454256,14.585293067245777,-10.988049508334742,252.9685712023994,36.284116135881476
716,-3.4618569923420885,-232.36337136946602,99.7488318028845,31.935422931146885,14.601307320428463,-10.83201418958427,252.9030788928858,35.57116159211141
717,-3.513963049992572,-232.308847457442,99.71698025465372,31.200473000815563,14.616246923291316,-10.684685529314507,252.84070379175137,34.84588648354563
718,-3.565260287021012,-232.26015121157195,99.68064184191219,30.416372490862113,14.62984891924,-10.548222590170466,252.781974546874,34.11265170700383
719,-3.615471101366957,-232.2180582646347,99.63912500686196,29.58126654930398,14.641805417164262,-10.42475734813938,252.72733517693146,33.37572009460825
720,-3.664295581920327,-232.18322505987413,99.59182891772699,28.69332227755693,14.651771452441155,-10.316372609808393,252.67715463036083,32.63921538460431
721,-3.7114059131867685,-232.15619282120505,99.53826565919006,27.75084349001398,14.659378603279793,-10.225074942636136,252.63173896055866,31.90709007424158
722,-3.756442240233778,-232.1373951432137,99.47807792736174,26.752403440164983,14.664254062971455,-10.152762669384863,252.5913450890295,31.18310226531676
723,-3.7990109020495466,-232.12716795740275,99.41105229293565,25.69699175344072,14.666044237479612,-10.101189274310165,252.55619505670458,30.470800756577464
724,-3.8386857344735255,-232.12576053561662,99.3371281728455,24.584170557990973,14.664441373706415,-10.071922833121294,252.52648960241143,29.77351686971818
725,-3.8750128294845276,-232.13334619440263,99.25640262849288,23.414233749369064,14.659211289414488,-10.066302335619502,252.5024198959994,29.09436091377887
726,-3.9075187578651858,-232.15003151219616,99.16913106938688,22.18836252868095,14.650220028118534,-10.085392074014937,252.48417636808142,28.4362208804655
727,-3.935721851895747,-232.1758631732388,99.0757239962633,20.908769840359454,14.63745721273862,-10.129935660570515,252.4719538710611,27.80176094358793
728,-3.9591458049538457,-232.21083190761414,98.97674009058177,19.578826094319172,14.621053998126989,-10.200311687970931,252.4659527952081,27.193417564639326
729,-3.977334696200966,-232.25487329637062,98.87287612071019,18.203158588417057,14.601293817240828,-10.296493451659334,252.46637610025311,26.613391427393733
730,-3.989868618857226,-232.30786546571395,98.76495414137499,16.787717384824848,14.578614583049909,-10.418015378079561,252.47342246025198,26.063633999962093
731,-3.9963792740756325,-232.3696239851622,98.65390630256246,15.339801078528405,14.553601624587087,-10.563948744125193,252.48727592630053,25.54582821874646
732,-3.996565018707686,-232.43989463443825,98.54075735472605,13.868036960928228,14.526971347727322,-10.732888921546213,252.50809274519912,25.061363581689584
733,-3.9902048276471205,-232.51834503573414,98.42660473340409,12.382311551992098,14.49954635134655,-10.922955818768747,252.53598619698738,24.611306819962586
734,-3.9771705079906026,-232.60455633483772,98.31259601504175,10.893649326821116,14.472223410198113,-11.13180854022171,252.57101044805933,24.196370241150913
735,-3.9574364279806096,-232.69801609872113,98.19990365375422,9.414039581995576,14.445936278501025,-11.356674627959602,252.61314444600657,23.816880684134592
736,-3.931086089262555,-232.7981134622213,98.08969726911205,7.956213607031565,14.421615649881309,-11.594393623372211,252.66227689893424,23.472752657863165
737,-3.8983150390865777,-232.90413741414963,97.98311423007944,6.533376510241456,14.40014882727376,-11.841474090593726,252.71819343845152,23.163469549378544
738,-3.859429786215314,-233.01527895771798,97.88122961970973,5.158900121935523,14.382341656164595,-12.09416268419482,252.78056705696196,22.888076703077157
739,-3.814842507317984,-233.13063764116242,97.78502673171876,3.8459853222183944,14.368884993927871,-12.348523318915754,252.84895271659215,22.64518964324134
740,-3.7650614679210848,-233.24923262058522,97.69536918693606,2.6073038630851224,14.360327470411493,-12.600523993553361,252.9227866953251,22.433019760042153
741,-3.7106773139348572,-233.3700180302836,97.61297579756443,1.4546311720801854,14.357055692392759,-12.84612835918555,253.0013908968762,22.249418525111214
742,-3.652345730422122,-233.49190204433802,97.53839946167031,0.3984826074303709,14.359282505844295,-13.081388788499396,253.0839820545884,22.09193991748968
743,-3.59076734066898,-233.61376868019389,97.47201143710888,-0.5522338922124702,14.36704350358606,-13.302537585801305,253.16968548489498,21.95791937879793
744,-3.5266660031560404,-233.73450121340238,97.41399216767027,-1.3905358237672296,14.380201594130353,-13.506073103714943,253.25755281564153,21.84456636784939
745,-3.460766753920912,-233.85300614627323,97.36432942666072,-2.1116422517697737,14.39845904747339,-13.688837850531602,253.3465830273492,21.749066477200277
746,-3.3937745458778434,-233.96823701772712,97.32282398542387,-2.7131962350955052,14.421375985580353,-13.848086083939288,253.4357462479116,21.668688124040095
747,-3.3263547532774806,-234.0792177672505,97.28910238881814,-3.1954228135217533,14.448393850620516,-13.981538832876296,253.52400989150553,21.600888102986048
748,-3.2591162176087236,-234.18506557564768,97.26263583370368,-3.561213287928069,14.47886206663645,-14.087424795175401,253.61036669853095,21.543409915855293
749,-3.192597438044194,-234.2850129734952,97.24276368970928,-3.8161283865941007,14.51206599966499,-14.164506163068623,253.69386393350356,21.494368889875158
750,-3.127256371628015,-234.37842866850875,97.22871989301163,-3.968315217547221,14.5472544289027,-14.212089088681166,253.7736325631584,21.45231869030632
751,-3.0634642133407985,-234.46483620600603,97.2196602998292,-4.0283357690241335,14.58366498486083,-14.230019120911527,253.84891486859536,21.416294866962296
752,-3.0015034444720468,-234.5439293663464,97.21468916152634,-4.00890814734047,14.620546286748569,-14.218662474886083,253.91908877820615,21.385832447428236
753,-2.941570299964606,-234.6155831600946,97.21288318844563,-3.92456555531533,14.657175790104152,-14.178874454972778,253.98368728311928,21.3609561928106
754,-2.8837815508106037,-234.6798594125051,97.21331213790448,-3.7912419406451576,14.692872684790181,-14.111956753053432,254.0424115942764,21.34214384481001
755,-2.828185153588298,-234.7370062113146,97.21505540598116,-3.625797048308276,14.727005610990462,-14.01960564485099,254.09513716608348,21.330264383655383
756,-2.7747739999832417,-234.78745086810537,97.21721463440397,-3.4454970938565017,14.758995465996797,-13.903853275282628,254.14191225927362,21.32649484079984
757,-2.7235018054603395,-234.8317864251316,97.21892277648566,-3.2674701751811277,14.78831407353819,-13.767004293158218,254.1829492306664,21.33222042157139
758,-2.6743001323852864,-234.87075203058828,97.21935037080414,-3.108157538607523,14.814479890730167,-13.611570126185004,254.21860912066452,21.34892347171909
759,-2.627095612703687,-234.90520767166268,97.21770998892801,-2.9827826565186886,14.837052177103557,-13.440203188631225,254.24938034500553,21.378067116314128
760,-2.581826556145987,-234.93610386210108,97.21325996111405,-2.904859688717333,14.855625124320445,-13.255633249230277,254.27585244912203,21.420979258462445
761,-2.5384582421632462,-234.96444702295116,97.20530845193367,-2.8857613908399196,14.869823368639484,-13.060608025575732,254.2986860032242,21.47874219590069
762,-2.4969962657249725,-234.99126150154777,97.19321867720234,-2.9343640585874216,14.879300127754146,-12.857839793821299,254.3185798006851,21.552092564497148
763,-2.4574973571034486,-235.01754940956465,97.1764155737238,-3.056783807562995,14.883738926524316,-12.649959382551303,254.33623655750623,21.64133573182504
764,-2.4200771937404193,-235.0442496876383,97.15439369803222,-3.256214575558082,14.882859484714242,-12.439478363665485,254.35232831646286,21.746278139890922
765,-2.3849149366890936,-235.07219799908836,97.12672569242174,-3.5328739497383452,14.876427878460202,-12.228759656235562,254.36746277423663,21.866180453211136
766,-2.352254546850614,-235.10208915884567,97.09307041624763,-3.884058510219763,14.864270645899252,-12.019996276091113,254.38215175658092,21.999733767209232
767,-2.3224032428798376,-235.13444374984653,97.05317978921204,-4.30430602332831,14.846292116045857,-11.815197694965043,254.39678300041098,22.145060571739048
768,-2.29572755665331,-235.16958043102937,97.00690346239652,-4.785657647871098,14.82249386526702,-11.616183172308846,254.41159629397717,22.299741533129104
769,-2.272647231441161,-235.2075953277894,96.95419062426927,-5.3180094846243,14.792994834928573,-11.42458133009226,254.42666499694818,22.46086830531371
770,-2.2536268548171385,-235.2483497754261,96.89508862092927,-5.889539487859094,14.758050304115372,-11.241835031723953,254.44188399552786,22.62512142752695
771,-2.2391648999823763,-235.29146739452554,96.82973859091265,-6.48719312402777,14.718067640248318,-11.069210322796733,254.45696508027694,22.788870966073468
772,-2.2297798776874993,-235.33634101338905,96.75836883132737,-7.097209237479547,14.673616591292786,-10.907807913730164,254.4714405058772,22.94829607272539
773,-2.2259934925175684,-235.38214949659778,96.68128694819289,-7.705666293231869,14.625431882330082,-10.758575537279205,254.48467520115088,23.099518250115178
774,-2.2283109562124905,-235.42788421033538,96.59887189162137,-8.299028452456083,14.574406067978503,-10.622319542601263,254.4958878139634,23.23874198262955
775,-2.237198904297617,-235.4723846209962,96.51156675440015,-8.864670793753902,14.521570981173626,-10.499714285430313,254.50418047641915,23.36239559861195
