time,ax,ay,az,gx,gy,gz,accmagnitude,gccmagnitude
0,3.388013476720135,-251.77025359025913,89.90608617539195,1018.796429687528,81.04848973246746,29.40265587042231,267.27846425226545,1021.9429929637874
1,2.6630981863801217,-250.86377859688537,90.53732854694596,1009.8628131290352,85.6757418097419,30.518218268075422,266.6517460853972,1013.5488772989371
2,1.9162580411796561,-249.86298277692188,91.12872543684493,1000.4305940080804,90.11666071864171,31.640348568978986,265.9228076435626,1004.6372973730676
3,1.1541422369002712,-248.76072151364022,91.67222723441755,990.477475117494,94.33472544816662,32.78731919985261,265.0824255757692,995.1870522419687
4,0.38365404602312564,-247.5507340253869,92.16130768601748,979.9837381304386,98.2950668435112,33.97228563482322,264.12281128490577,985.1799861413829
5,-0.38814813378684093,-246.2279106856035,92.59120593696915,968.9334202305207,101.9649492784632,35.20220652559362,263.03794587445117,974.6020995509941
6,-1.1541460879620633,-244.78855581337274,92.95913013419165,957.3154600476245,105.31426571441474,36.47705803282427,261.8238953677045,963.4446215027696
7,-1.9072518815379647,-243.2306369768931,93.26441454196029,945.1247718615339,108.3160395124079,37.7893912628081,260.47909487346914,951.7050032179693
8,-2.6404916255688535,-241.5540117459601,93.50862205506905,932.3632123874391,110.94692299780446,39.1242636847965,259.0045902731051,939.3877981180273
9,-3.3470822530678914,-239.760623215648,93.69558450339005,919.040408837436,113.18767928695002,40.45955514451623,257.40422658065324,926.5053972236586
10,-4.0205011854848305,-237.8546559108453,93.83137441836877,905.1744201346232,115.02363045302236,41.766657755935576,255.68477289667032,913.0785917156097
11,-4.654549378344636,-235.84264363735673,93.9242039053895,890.7922054694084,116.44505189314428,43.01150789780384,253.85597459378135,899.1369363053811
12,-5.243408784906105,-233.7335208259285,93.98424869195162,875.9298763259375,117.44749010359907,44.15590917401158,251.9305242802031,884.7188885784896
13,-5.7816955940491805,-231.538609426116,94.02339815168439,860.6327101934893,118.03197960415332,45.1590788884901,249.9239446036455,869.8717012385908
14,-6.264510577690242,-229.2715347391503,94.0549352275319,844.9549071046986,118.20513530380916,45.97933851602626,247.85437838925284,854.6510470387836
15,-6.687487588592247,-226.94806581021157,94.09315387279713,828.9590749117134,117.97909996179493,46.575861551500715,245.7422850945891,839.120361313446
16,-7.046840823455248,-224.5858790708063,94.15292582249467,812.7154369864882,117.37133298266632,46.91039014821651,243.61004702951817,823.3498957149519
17,-7.3394109437068,-222.20424761399315,94.2492326152835,796.3007675631233,116.40423623621226,46.94883484826345,241.4814937993701,807.4154897723264
18,-7.562709517252706,-219.82366243682915,94.39668190689515,779.7970747903348,115.10462358807455,46.66267906039075,239.38135829893548,791.3970836315546
19,-7.714960692832197,-217.46539582463055,94.60902858583032,763.2900677782903,113.50305137244341,46.03012140131141,237.33468171662454,775.3770136000034
20,-7.795138868549713,-215.15102047211562,94.89872088201304,746.8674586695678,111.63303527264796,45.03690427125905,235.36618807377968,759.4381488259226
21,-7.803001464661943,-212.90190061439768,95.27648974886047,730.6171615373527,109.53018414945586,43.67679554583367,233.49965060554743,743.6619399728203
22,-7.7391164877688725,-210.73867304279347,95.75099662284487,714.6254553682053,107.23128374169247,41.951710937756864,231.7572725902756,728.1264577274717
23,-7.604885018574948,-208.68073621253274,96.328550627916,698.9751782353022,104.7733640627274,39.87148571964824,230.15910400899904,712.9045000976512
24,-7.40255889503795,-206.7457647467531,97.01290186705029,683.7440142631763,102.19278464230551,37.45332417609387,228.72251286434457,698.061842842238
25,-7.135253691571366,-204.94926475751254,97.80511315512575,669.002924714382,99.52437154894756,34.720971712575,227.46172654381692,683.6556974019865
26,-6.806956636788451,-203.30418297316405,98.70350890825169,654.8147606191806,96.80063871008126,31.703666929677016,226.3874548798056,669.7334262638267
27,-6.422528397675458,-201.8205801407787,99.70369721821369,641.2330786285846,94.05112264490305,28.43493876872006,225.50660309026972,656.3315484664338
28,-5.987696802175736,-200.50537681711438,100.7986593955515,628.3011664456398,91.30185392627182,24.95131715089364,224.82207982707567,643.475050191547
29,-5.509039814007365,-199.36217749722485,101.97890027710649,616.0512714103321,88.57498064145715,21.291024751833767,224.3327030824112,631.1769993487048
30,-4.993954668335928,-198.39117705761598,103.23265218777384,604.5040169794834,85.88854951012745,17.492713187885276,224.03320465134712,619.4384503688527
31,-4.45061011615647,-197.58915179250522,104.54612548273883,593.6679872978905,83.25644023883432,13.594299534565904,223.91433224229277,608.2486166771263
32,-3.8878791201308847,-196.94953592333013,105.9037989363783,583.5394592877893,80.68843945133293,9.631949462285734,223.96304713207127,597.585283267534
33,-3.3152499715572867,-196.46258321868484,107.28874374853338,574.1022638343654,78.19043333340755,5.6392421600401805,224.16281428989012,587.4154298313265
34,-2.742714579297774,-196.11561205177148,108.68297546920634,565.327761912136,75.76469375057138,1.646540405430659,224.49398088552732,577.6960353728998
35,-2.1806335963368157,-195.89333069008202,110.06782850924967,557.1749272551352,73.41023126835942,-2.3194226894595764,224.9342378272166,568.3750376693112
36,-1.639579147945058,-195.77823778853724,111.42434784095217,549.5905339034445,71.12318997856342,-6.235740015709291,225.4591572583333,559.3924248243252
37,-1.1301572342758415,-195.7510909054055,112.73369178558367,542.5094540197607,68.89726269247583,-10.083320048866142,226.04279664360016,550.6814409001223
38,-0.6628132890619081,-195.79143336208878,113.977538483207,535.855077785805,66.72410998899366,-13.846689251158903,226.6583571982589,542.1698921704145
39,-0.2476257189843973,-195.8781669639757,115.13848707380416,529.5398717862911,64.59377175695796,-17.51363526243345,227.27888114952668,533.7815437014846
40,0.10590657540657218,-195.9901551651759,116.20044324607687,523.4660942576697,62.49506440452363,-21.074725921355874,227.87796904822983,525.437596883097
41,0.38907579416003885,-196.10683855537224,117.14897808737223,517.5266849627143,60.41596043932104,-24.52274432461221,228.43049561605875,517.0582372499954
42,0.594168607537773,-196.20884250923558,117.97164938138232,511.6063450370246,58.34394967362824,-27.852082764541265,228.91330094719737,508.5642393026187
43,0.7146541314157705,-196.27855578449183,118.65827559495003,505.5828188592736,56.266383057336505,-31.058138171325655,229.3058335282091,499.87861206282315
44,0.7453500409181348,-196.3006589212668,119.2011544990651,499.3283863512671,54.170801244361904,-34.13674875926582,229.5907224751868,490.92826641511516
45,0.6825613177379835,-196.2625825099899,119.59522048403392,492.7115701470951,52.04525055263079,-37.083706352159055,229.7542585322084,481.6456830105233
46,0.5241871074969308,-196.154877715683,119.83813706602064,485.59905746617585,49.8785890327471,-39.894371795389226,229.78676664511747,471.9705574063353
47,0.2697921539134155,-195.97148474880106,119.93032366682564,477.85783080860267,47.660784938562294,-42.56341240893554,229.6828571217132,461.8513967570313
48,-0.07935953715656643,-195.70988903244745,119.87491813666077,469.3574943390477,45.38320904928749,-45.08467114165107,229.4415471457856,451.2470393692114
49,-0.520309710395276,-195.371159323105,119.67767831783962,459.972773870112,43.038921143002376,-47.45116754277704,229.06624927610994,440.1280646354205
50,-1.048449040719396,-194.95986668344185,119.34682706264003,449.58615784873655,40.622949562925314,-49.6552213987637,228.56462817764185,428.47805641339687
51,-1.6575969134460196,-194.48388777591492,118.89284566962442,438.0906350275583,38.13256124875037,-51.688681472653094,227.94833108928552,416.2946781310629
52,-2.3401155353205856,-193.95410037137455,118.32822103548993,425.39247199376564,35.56751776813543,-53.543235036181905,227.23260153879758,403.59051317224316
53,-3.0870554865925284,-193.38398317976103,117.66715228390211,411.41396111757365,32.93031078035905,-55.21076959000036,226.43578969259931,390.3936200763639
54,-3.888329113402458,-192.7891358979427,116.92522342396478,396.096057959879,30.226368137700256,-56.68375657916826,225.57877639735435,376.74774985041483
55,-4.732907391418598,-192.18673837481765,116.11904969134699,379.4008183549179,27.464219770805624,-57.95562760357773,224.6843311168035,362.71217365142184
56,-5.609035157996521,-191.5949696658466,115.26590644164676,361.3135408555147,24.6556109807741,-59.02111585984993,223.77642619338837,348.36107456021597
57,-6.504458947633642,-191.0324083304028,114.3833505191609,341.8445211026452,21.815550103682558,-59.87653872427245,222.8795308913115,333.78246790303496
58,-7.406661089352738,-190.51743472452887,113.48884465349785,321.03033133509905,18.962277920460686,-60.52000118868823,222.01790846493415,319.0766306109023
59,-8.303093355716594,-190.06765453365145,112.5993955005285,298.93455039122927,16.117147678604567,-60.95150423574458,221.21493821085127,304.35404077702316
60,-9.181403531439717,-189.69936065149764,111.73121546796531,275.64788639745063,13.304407026574582,-61.17294725932725,220.4924823634438,289.73285272533303
61,-10.029648929152389,-189.42704795125573,110.89941754441065,251.28765478051466,10.550876285505954,-61.18801938619012,219.87031501798683,275.3359590319708
62,-10.836491962226086,-189.2629926733831,110.11775100929532,225.99659687627417,7.885521051140081,-61.00198103984909,219.36562716218873,261.2877172191258
63,-11.591374091525369,-189.2169052195181,109.39838412635362,199.94104754723122,5.338920990632822,-60.621344191144374,218.99261848031352,247.71044314697912
64,-12.284665645166877,-189.29566226678236,108.75173780469088,173.30848213977043,2.942640831515461,-60.05346721616692,218.7621830575933,234.72079329252944
65,-12.907790206910263,-189.5031215191924,108.18637195520064,146.30449261942368,0.7285139060552401,-59.30608768321373,218.68169275543482,222.42617242224065
66,-13.453323515595518,-189.84002027240595,107.70892408297966,119.14925965146182,-1.2721468452559954,-58.38682298775314,218.75487911314133,210.9213108442966
67,-13.915068016557992,-190.30395727948473,107.32409766872203,92.07360243833529,-3.029390912536439,-57.3026737143811,218.98181221397564,200.28515646682732
68,-14.28810516264406,-190.88945599479416,107.0346961875316,65.31470198873527,-4.515501439254651,-56.05956737229573,219.35897290986827,190.57822138834845
69,-14.56882808695812,-191.58810599168555,106.84169729473638,39.111606027236505,-5.70586815848079,-54.661980577226004,219.87941303830294,181.84051014954377
70,-14.754957244856907,-192.3887781569802,106.74436088695764,13.700633862093785,-6.579832269391315,-53.11267581617303,220.5329967994222,174.09013580756252
71,-14.845541057983924,-193.27790812066138,106.74036446375602,-10.689194167322135,-7.12147283842293,-51.412584485274024,221.30671527633436,167.3226995621041
72,-14.840942646348786,-194.2398411701646,106.82595939857903,-33.84057653856569,-7.320305377121752,-49.560860731066356,222.1850650524745,161.51147030566207
73,-14.742812663615554,-195.25723051296785,106.99614223433719,-55.55207734698419,-7.171865853735613,-47.55512072046205,223.15048085229208,156.60835551844593
74,-14.554047323573068,-196.31147918219628,107.24483579259581,-75.64188694054184,-6.678157260934643,-45.39186969060086,224.18381103728197,152.54561029013112
75,-14.278730119634147,-197.38321426880296,107.56507555897817,-93.951097812066,-5.84794066198154,-43.06710540494577,225.26482367998804,149.23819336175526
76,-13.922055563384554,-198.45278074429103,107.94919731223648,-110.34641649458936,-4.696857983970636,-40.577072804743636,226.3727299383076,146.58665229212818
77,-13.490233469745847,-199.5007411249743,108.38902226614421,-124.72225518984018,-3.247379291480323,-37.919132071060126,227.4867107290637,144.48040524924448
78,-12.990372871532331,-200.50836673541497,108.87603630698305,-137.00217173336853,-1.5285725284281448,-35.09269205652359,228.58643245541884,142.80128297403033
79,-12.430345556358297,-201.45810632931324,109.40156049231622,-147.13965100786044,0.42430132028090545,-32.10015377190016,229.65253788101174,141.4271983423813
80,-11.818630396513337,-202.3340182140397,109.95691079625182,-155.1182428862734,2.570359888018897,-28.947804762260855,230.66709905006147,140.2358197538036
81,-11.164140902127277,-203.12215280071874,110.53354590821952,-160.95108979019614,4.863825357772109,-25.646605128831688,231.6140203003184,139.10813611788433
82,-10.47603961105911,-203.81087385961712,111.12320264276269,-164.67989042102496,7.254887344764673,-22.212809831647895,232.47938102649653,137.93181414719015
83,-9.76354394163219,-204.3911088674954,111.71801925460126,-166.37335496025244,9.6906807648967,-18.66837959110549,233.25171009409954,136.60426195875675
84,-9.035728892883146,-204.85652156206973,112.31064753248798,-166.1252109228592,12.116352445699372,-15.041143604268191,233.92218649624067,135.03532558841593
85,-8.30133240469066,-205.20360278300606,112.8943546440564,-164.0518183393685,14.476186788135278,-11.364690488496715,234.4847634978575,133.14955634567505
86,-7.568569256962582,-205.43167850624891,113.46311519030425,-160.28944966806537,16.714758708519533,-7.677978379621357,234.9362157343815,130.88799751307693
87,-6.844959144915699,-205.5428365160128,114.01169301091417,-154.99128638187875,18.77808159654936,-4.024670086143322,235.27611049172233,128.2094502565596
88,-6.137174153277293,-205.54177545600984,114.53571128910937,-148.32418301355614,20.614718804115054,-0.45221385141716797,235.50670589468345,125.09119232161717
89,-5.450910395228669,-205.43558215055157,115.03170866546746,-140.46525191477545,22.176828633788173,2.989296225864816,235.63278016604096,121.5291397322382
90,-4.790788089101052,-205.23344512055849,115.4971785071615,-131.59832797356935,23.42111450273953,6.248434520758382,235.66139757947732,117.5374606428334
91,-4.160283718418416,-204.94631414257486,115.93058827628009,-121.91038081185829,24.30965395003135,9.273878375781749,235.60161826033567,113.14767022953694
92,-3.56169705022897,-204.58651749902594,116.33137614243837,-111.58795069913062,24.810582871553144,12.015902062198856,235.464160602633,108.40725419618319
93,-2.996154610609132,-204.16735015447372,116.69992260249978,-100.81369149311824,24.89861535652851,14.427866453852364,235.26102670184378,103.37788425947082
94,-2.4636497680214013,-203.70264728612574,117.0374959356321,-89.76310743766102,24.555385074550834,16.46764073811686,235.00510271840483,98.13330036314213
95,-1.9631180178208865,-203.2063582095265,117.34617185566778,-78.60156924781026,23.76960119524463,18.098895685689126,234.70974734145724,92.75694056264673
96,-1.4925446052990274,-202.69213562260947,117.62872960430039,-67.48168806772371,22.537019790731893,19.292214173998858,234.38838233207105,87.33940068023583
97,-1.0491003965550554,-202.17295415046547,117.88852864455693,-56.541113957885436,20.860239871944692,20.02597352445672,234.05409925575813,81.97580299778535
98,-0.6293009338822994,-201.66077045584487,118.12937165465206,-45.900809573627285,18.748340974656216,20.286965303222882,233.71929579822597,76.76314793275218
99,-0.2291828923853935,-201.1662349060979,118.35536035248819,-35.6638309918937,16.21638598427683,20.07073088314145,233.39535351180044,71.79771621509452
100,0.15550832230709077,-200.69846221172776,118.57075067934164,-25.91462769679516,13.284818201395767,19.381604461617552,233.09236661783484,67.17258239292201
101,0.5291263449674641,-200.26486574060567,118.77981314175221,-16.71885400290123,9.978785124570079,18.232468521115365,232.81892878619882,62.9752937568598
102,0.8959335399691585,-199.8710574807782,118.98670289878599,-8.123665986444633,6.327422859657462,16.644239144394035,232.58198184945218,59.285761791246415
103,1.259919031245212,-199.52081300006677,119.19534278464154,-0.15846231609132147,2.363134484265713,14.645109621201625,232.3867274449426,56.17440575372415
104,1.6246312615073943,-199.21609835240054,119.40932113852574,7.163985159701195,-1.8791067053866968,12.269590116803544,232.23659985017048,53.70057979807821
105,1.9930309311563683,-198.95715381456918,119.63180525094683,13.846074347805956,-6.3624021406582125,9.55738865459706,232.1332959662698,51.91130621083655
106,2.3673696321445985,-198.74262769597746,119.86547049078187,19.903658349677126,-11.048499635197077,6.552184138496942,232.07685662399453,50.84032804597998
107,2.7490986285453047,-198.56975227644094,120.11244469273433,25.364144723226076,-15.898276975430807,3.3003454138182837,232.06579213110751,50.50748513811284
108,3.138810981857552,-198.43455312358094,120.37426705963414,30.264479021328434,-20.872130351968725,-0.15034875326109493,232.09724413795317,50.91840872853679
109,3.536218671157363,-198.33208252435392,120.65186065070645,34.64907930055894,-25.930268660952816,-3.7519355474699694,232.16717537481802,52.064522330582086
110,3.940164733457108,-198.25666749492353,120.94551754031257,38.567782096544015,-31.03292259770163,-7.457390822084921,232.27057860180344,53.92333040373821
111,4.348668928107629,-198.20216283837115,121.25489593253747,42.07385232799174,-36.14048440682781,-11.221606343847926,232.401696226723,56.45897204038747
112,4.7590040669638025,-198.16220006187208,121.57902879549431,45.222100409560205,-41.213599466737314,-15.002188080502343,232.5542424835717,59.62301406059897
113,5.167798945285805,-198.13042369075973,121.91634384573271,48.067140209618024,-46.21323402659249,-18.760052541892218,232.72162081759262,63.355456356746465
114,5.5711627813012825,-198.1007076310578,122.26469496480478,50.66181202788135,-51.10074408395684,-22.459809752519153,232.89713019700838,67.58592170955741
115,5.964825319240577,-198.06734568557954,122.6214053567526,53.05578611870591,-55.83796863953916,-26.069933405398636,233.07415542169352,72.23500236677377
116,6.3442864034972635,-198.02521197625774,122.98332285014212,55.29435498370048,-60.387366762244746,-29.56273039834059,233.2463379491799,77.21573624684066
117,6.7049689470650335,-197.96988863125853,123.34688756817111,57.41741699677327,-64.71221258287434,-32.914132564484625,233.40772503495836,82.43518650306035
118,7.042369719737693,-197.897759473258,123.70821170781308,59.458649964433306,-68.77685604784409,-36.1033423651353,233.55289591364718,87.79609916297463
119,7.352203139060123,-197.80606956674242,124.06317053402631,61.44487093100147,-72.54705048110522,-39.11237116718699,233.67706438262329,93.1986145384655
120,7.630534138482944,-197.69295141661217,124.40750309435177,63.39557782424131,-75.99034118499803,-41.92551318992008,233.77615764361525,98.54200908923899
121,7.873897087181916,-197.55741942715883,124.736920621681,65.32266912676995,-79.07650297895567,-44.528800125630575,233.84687168088976,103.72644545071387
122,8.079398532552396,-197.39933498275968,125.04722000325198,67.23033908237424,-81.77800929140109,-46.90948080778283,233.88670378885834,108.65470937932284
123,8.244802195580412,-197.2193452476445,125.33439899412517,69.11514720324416,-84.07051166750993,-49.0555672303407,233.8939631178343,113.23391329258934
124,8.368595200483217,-197.01879951694437,125.59476915496782,70.96626121433535,-85.93330661650978,-50.95548288440534,233.8677603574117,117.37714669318713
125,8.450034980582087,-196.7996476150501,125.82506199092036,72.76587146141827,-87.34976665386506,-52.597842016724606,233.80797796686642,121.0050539193262
126,8.489176705474454,-196.5643253117106,126.0225236414419,74.48977198717297,-88.30771404100597,-53.97137942612699,233.7152226904656,124.04731931697667
127,8.486881516003836,-196.31563198248767,126.18499385992877,76.1080990225553,-88.79971871106802,-55.065040316484705,233.5907625209875,126.44403904685421
128,8.444806332485157,-196.05660585337648,126.31096592473745,77.58621186268726,-88.82330562227618,-55.86822897317323,233.4364508638039,128.14695719866893
129,8.365376301233443,-195.79040215673592,126.39962531566289,78.8856946318083,-88.38106068166275,-56.37120396842509,233.25464129249607,129.1205416314546
130,8.251740915451379,-195.52017928860062,126.45086617056373,79.9654512512355,-87.48062800415948,-56.56559671335477,233.04809672025036,129.342872292897
131,8.1077146941451,-195.24899749493974,126.46528553905901,80.78286092956787,-86.13459458193134,-56.44502032257044,232.81989686816638,128.80631243035674
132,7.937703350754977,-194.97973369206727,126.44415625957502,81.29495821047517,-84.36026175203146,-56.005728043820596,232.57334756742432,127.51793205107666
133,7.746616696929723,-194.71501478516137,126.38937992806808,81.45960026613552,-82.17930651731714,-55.24727583598455,232.3118947395329,125.49965409488269
134,7.539769949711417,-194.45717045512046,126.30342192710111,81.23658493103468,-79.61733988297598,-54.17314241375891,232.039045005771,122.78809760311835
135,7.322775509321974,-194.20820512079882,126.18923092099372,80.58868608485719,-76.70337372155865,-52.79126202226393,231.75829405792658,119.4340988136891
136,7.101427596060184,-193.96978788000553,126.05014570680284,79.48257829676697,-73.469211942711,-51.11442984838243,231.47306342786928,115.50190028630328
137,6.881582330390842,-193.74325868838926,125.88979283525626,77.8896297117959,-69.94878555643294,-49.16054673171256,231.18664611893124,111.06800928163942
138,6.6690358703329204,-193.52964864781802,125.71197882275881,75.78655030815408,-66.17745421074267,-46.95267818505461,230.9021614507944,106.21973890942525
139,6.46940310173482,-193.32971184023182,125.5205809697344,73.15589098240841,-62.19129862256936,-44.51891225516291,230.62251919835418,101.05345812821184
140,6.287999166038664,-193.14396565092443,125.31944087208716,69.98639650494245,-58.0264287858538,-41.89201106670796,230.350392718232,95.67258864338223
141,6.129725853238711,-192.97273619322135,125.11226473710951,66.27322157927586,-53.718331902177525,-39.10886153034019,230.0882004787132,90.18539741258942
142,5.998964624933756,-192.81620549352033,124.90253448301137,62.01802374441895,-49.301281807571215,-36.20974108502874,229.8380953646315,84.702642362855
143,5.899477819253283,-192.67445748420835,124.69343314678281,57.22894955507307,-44.807828542634326,-33.237423894730085,229.60196119791013,79.33513568767425
144,5.8343194708042825,-192.5475203471718,124.4877872990675,51.92053123404142,-40.26838284206951,-30.236161109470828,229.38141587526616,74.19129332297409
145,5.805757138759789,-192.43540320576213,124.28802803717662,46.113509758059045,-35.71090573947627,-27.2505751985878,229.17782029283367,69.37474047456304
146,5.815206105781436,-192.33812559621285,124.09617082597003,39.834597284751624,-31.160708167742015,-24.324512626300642,228.99229188610684,64.98204111807051
147,5.863177251623753,-192.2557385845181,123.91381314434622,33.116187405050376,-26.640359595237424,-21.499901048226697,228.82572126873708,61.100614313277774
148,5.949239856883104,-192.18833680255364,123.74214776711717,25.99601659562371,-22.169699008223088,-18.815656731447287,228.6787901851236,57.80689256287325
149,6.072000579227666,-192.13606106246357,123.58198874266574,18.51677529035243,-17.76593679481916,-16.306685236329436,228.55198889767627,55.16476830354672
150,6.229099799605011,-192.0990916331572,123.43380676909577,10.725663033958542,-13.443832948539182,-14.003013900588162,228.44563128992692,53.2243649934341
151,6.417226408410725,-192.0776327627445,123.29777061913158,2.673879856253487,-9.215935592847876,-11.929088679153551,228.3598663529134,52.02115981546266
152,6.632151962791676,-192.0718895413498,123.17379136425498,-5.583954385298687,-5.092863724678355,-10.103260596971667,228.29468519974552,51.575475871943496
153,6.868785050391237,-192.08203858621224,123.06156635753638,-13.990459354192733,-1.0836186933693688,-8.537478464981897,228.24992318794753,51.89235273553603
154,7.121246502755968,-192.1081942336047,122.96062033917994,-22.48623542425464,2.804090109663653,-7.237194586073051,228.22525711372316,52.96179520881448
155,7.382965615036537,-192.15037206061461,122.87034173781498,-31.01068456798417,6.563518618162973,-6.201479299505609,228.22019793176904,54.75939091704004
156,7.646796755416905,-192.20845182261107,122.79001325692644,-39.502902024999464,10.188572123684827,-5.423329436065739,228.2340802068026,57.247277299383775
157,7.905154875769848,-192.28214230421798,122.71883699178173,-47.902622198094605,13.673509492748824,-4.890146608535549,228.26605045206142,60.37542698046721
158,8.150167620564483,-192.37095099552516,122.65595532215049,-56.15119472990618,17.012674707414362,-4.58435495670822,228.3150573766727,64.08320768476277
159,8.373841041418498,-192.47416178117513,122.6004693628401,-64.19256044216114,20.200260557516355,-4.48412484139832,228.37984756794333,68.30116051481298
160,8.56823537986819,-192.59082387214548,122.55145664871182,-71.97419256835923,23.230107582721928,-4.564168632166821,228.458970101151,72.95293075176401
161,8.725646972788525,-192.71975487875994,122.50798908153368,-79.4479668773281,26.09554057498462,-4.796576473713105,228.55079293437552,77.95727981293503
162,8.838792056731148,-192.85956008797896,122.46915132732434,-86.57092506666082,28.78924506323647,-5.1516630997345,228.65353279078,83.2301060721177
163,8.900988067539238,-193.00866870421578,122.43405914283987,-93.30589939463673,31.30318684855517,-5.598800825693713,228.76529875673927,88.68640583364781
164,8.906327840193105,-193.16538624187967,122.40187665122644,-99.6219729953994,33.62857842378043,-6.107218228928617,228.88414826474568,94.24211350395151
165,8.849841809909849,-193.32796064021184,122.37183145552065,-105.49475932063325,35.75589666729601,-6.646748186672364,229.00815270882023,99.81577117510614
166,8.727642969978229,-193.49465822939231,122.34322665815117,-110.90649473318322,37.67495628318409,-7.188512540751317,229.13546883446904,105.32999119202334
167,8.537049214951994,-193.6638447081594,122.3154490755697,-115.84594917633031,39.37504284283182,-7.705533558753792,229.26441136429472,110.71268933024551
168,8.276678050641019,-193.8340659843228,122.28797298359882,-120.30816984038056,40.84510779919593,-8.173264547892513,229.39352211384482,115.89807956727083
169,7.946509528327222,-194.00412385021278,122.26035875621787,-124.29408094771034,42.07402542052652,-8.570033496294617,229.52163101266999,120.82743303316752
170,7.5479144721511116,-194.17314157066042,122.23224599735497,-127.80996869179037,43.050908284943,-8.877394634764968,229.6479047142756,125.4496129737554
171,7.08364638484319,-194.34061451080495,122.20334119822104,-130.86688384383783,43.7654740471533,-9.080383646224474,229.7718788030915,129.72140425136186
172,6.557796725339264,-194.5064413718377,122.17340048893911,-133.47999560864181,44.20845209877871,-9.16767326636354,229.89347030740652,133.60766009586598
173,5.975714544247458,-194.67093279380416,122.14220866474372,-135.66792910208025,44.37201503682736,-9.13162748891304,230.0129685923955,137.08129070215048
174,5.343892703075682,-194.8347959392056,122.10955624804194,-137.4521156329083,44.25021695675616,-8.96825461830622,230.13100460895686,140.12311819494826
175,4.669823952921005,-194.99909577767866,122.0752166570265,-138.8561802751493,43.83941873114469,-8.677061980481222,230.2485004338824,142.72162093060757
176,3.9618309026479124,-195.1651956460953,122.0389254322055,-139.9053855502251,43.13867974761475,-8.260818136567595,230.36660254142618,144.87258760089
177,3.2288745083688646,-195.33468092625915,122.00036307476117,-140.62614386511825,42.15009616631554,-7.725231833305334,230.4866030954504,146.57869860020372
178,2.480346483920785,-195.50927036260686,121.95914270532914,-141.04560503614377,40.87906766878461,-7.078560472072604,230.60985392723603,147.84904894071178
179,1.7258520434333935,-195.69071979806276,121.91480359613884,-141.191319051226,39.33447780222498,-6.331164274626644,230.7376779816162,148.69862383524867
180,0.9749902718644814,-195.88072303529566,121.86681148907036,-141.09096843205853,37.52877708838803,-5.49502516224466,230.8712828574609,149.1477349979218
181,0.23713973343873102,-196.08081419946842,121.81456622006583,-140.7721594188882,35.47796265786135,-4.583251207126297,231.01168054512675,149.22142281520894
182,-0.4787433891769065,-196.29227553241074,121.75741641123213,-140.26225705494508,33.20145286829457,-3.609587999932067,231.15961663681412,148.94882699822935
183,-1.1643080087926465,-196.51605414632223,121.69468004960059,-139.58824647012952,30.721859830610683,-2.5879572482386304,231.3155113949351,148.36252643605647
184,-1.8119658909685963,-196.75269092654528,121.62566904909463,-138.77660156651496,28.064666785571717,-1.5320404826276974,231.4794143425191,147.49784805304137
185,-2.4150195828914534,-197.00226436292908,121.54971564163819,-137.8531431152333,25.257820724801086,-0.4549222256660554,231.65097350999775,146.39214482115142
186,-2.967756830107257,-197.26435151683629,121.46619855156872,-136.84287116644666,22.331253470702983,0.6311971742548527,231.82942000088855,145.0840449555956
187,-3.4655092494574484,-197.53800770035244,121.37456712795615,-135.76976169426896,19.316346605800746,1.715213155874009,232.01356808474654,143.61267785851808
188,-3.9046745903840634,-197.82176589237116,121.27436181932224,-134.65652417194846,16.24535721040552,2.7872512019565647,232.2018306383791,142.0168872952641
189,-4.282703470395643,-198.1136563676081,121.16522956101042,-133.52432436741753,13.150822375041997,3.8387255464089933,232.392249364337,140.33444776561583
190,-4.598053064870868,-198.41124627926567,121.04693288643499,-132.39248383274187,10.064960936438712,4.862327141762359,232.58253870588,138.60130493664562
191,-4.850111830912206,-198.7116980025015,120.9193521081668,-131.27817323858585,7.0190908760957225,5.851948041659632,232.77014187268685,136.85086432789663
192,-5.039100538597017,-199.01184410471726,120.7824809010304,-130.19612016515038,4.043080313005831,6.802551055372035,232.9522971339565,135.11335354763568
193,-5.165955260636284,-199.30827601899622,120.6364167557328,-129.15835289257566,1.1648489347595279,7.709994675474504,233.1261124920911,133.41528202521616
194,-5.2321977771939014,-199.5974428759112,120.48134853155375,-128.1740002108001,-1.5900650487096428,8.570823962530293,233.28864675525108,131.7790185068775
195,-5.239798756135823,-199.8757564939761,120.31754348236393,-127.24916373162105,-4.198859796028814,9.3820383809141,233.43699475960125,130.22250109208142
196,-5.191039274807118,-200.13969833315386,120.14533561953792,-126.38687432220908,-6.641737058845097,10.140847645446382,233.56837411063464,128.75908805346072
197,-5.088376362753933,-200.3859243909061,119.96511610720556,-125.58713884230652,-8.902076009291372,10.844426612210695,233.68021040062217,127.39755093368895
198,-4.9343179630003,-200.61136454253304,119.77732495609474,-124.84707801191453,-10.966512312965852,11.4896802065232,233.77021758701878,126.14220514738147
199,-4.731312135488971,-200.81331351708351,119.58244236207689,-124.16115141363613,-12.824925834198172,12.07302928920309,233.83647032718153,124.99316798351467
200,-4.481654674086692,-200.98951135325674,119.38097810741513,-123.52146157913224,-14.470345080899854,12.590228119590366,233.8774656430357,123.94672968254194
201,-4.187418657302698,-201.1382116955985,119.17345836832901,-122.91812589995772,-15.8987806880858,13.036223568613188,233.89217218799428,122.99582013198304
202,-3.8504087159849716,-201.25823665258395,118.96041054540026,-122.33970269580226,-17.109003416968207,13.40506536025038,233.88006633363275,122.13055153402595
203,-3.472141797063704,-201.34901711971494,118.74234786901657,-121.77365603795583,-18.102283989409948,13.68987526753904,233.84115501178388,121.33881593824582
204,-3.0538548676108106,-201.41061747910493,118.51975626949181,-121.2068427502966,-18.882112479164686,13.882881252595812,233.77598561783745,120.6069156476893
205,-2.596538572811593,-201.44374358835012,118.2930861354599,-120.6260043826163,-19.453913987125556,13.97551996221507,233.68564336247894,119.92020417154797
206,-2.1009947176204595,-201.44973324130774,118.06275085176149,-120.01824692007972,-19.824775070553496,13.958607834743828,233.57173636919853,119.26371566171052
207,-1.5679147389015555,-201.43052893995005,117.8291325142606,-119.37149159778144,-20.003192114359642,13.82257752812141,233.4363686935851,118.62276168340608
208,-0.9979758362143538,-201.38863366590311,117.5925936647056,-118.67488147962189,-19.998848914768217,13.557772703290611,233.282101444166,117.98347579832408
209,-0.39195077306627757,-201.32705108695177,117.35349295985992,-117.91913051481997,-19.822426693744646,13.154790676955521,233.11190238793498,117.33328888380105
210,0.24917357160684953,-201.24921216553057,117.11220249156924,-117.09680463081793,-19.485446062273287,12.604859375683661,232.9290847869666,116.66132142687552
211,0.9240748610614796,-201.15889048880425,116.86912472095734,-116.20252794577277,-19.00013745068566,11.900232639432136,232.73723663114143,115.95868312993164
212,1.6309780250346535,-201.06010885264092,116.62470741377238,-115.23311115378249,-18.379334399232608,11.03458644999237,232.54014181197846,115.21867483262683
213,2.3675493989717387,-200.95703977367637,116.3794554453046,-114.18760326396264,-17.636382878213347,10.00339822254286,232.34169512849525,114.43689271361657
214,3.1308093521181375,-200.8539027219681,116.1339388021255,-113.06727184625977,-16.785059404620004,8.804291889639595,232.14581333519135,113.6112396575352
215,3.9170691673901543,-200.75486084830368,115.88879646680472,-111.87552042550772,-15.839491008687556,7.437333000329817,231.9563446044677,112.74185319510303
216,4.721895791313166,-200.66391971043865,115.64473619746228,-110.61775439202901,-14.81407094141569,5.9052602697846455,231.77697871382247,111.83096321784157
217,5.540105813185289,-200.58483011840872,115.40253066429382,-109.30120858678197,-13.723365263456564,4.213642752376779,231.61116016646247,110.8826954957962
218,6.365788376308983,-200.5209969826282,115.16301093598044,-107.93475043714155,-12.582006946965395,2.370954856184139,231.46200650314753,109.90283867543552
219,7.192355874192507,-200.4753960716055,114.92705866389058,-106.52867197861981,-11.404575662359349,0.3885645285215204,231.33223423008522,108.89859263493145
220,8.012620935548382,-200.45050081871562,114.69559827881622,-105.09448214574095,-10.20546284716142,-1.7193670746573841,231.22409493191495,107.87831460442706
221,8.81889789853817,-200.44822165661932,114.46959003994982,-103.64470744112937,-8.998722875460818,-3.9360733441646603,231.13932415278316,106.85127637125228
222,9.603126474550642,-200.4698606243372,114.25002400064322,-102.19270488041477,-7.797912166917635,-6.242453693090822,231.0791054314443,105.82744156260162
223,10.357014681280862,-200.51608391846918,114.03791422031397,-100.75248649879462,-6.615918955914512,-8.6174225125305,231.04405140586408,104.81726698227193
224,11.07219754110791,-200.58691449623072,113.83429217436775,-99.33855024193713,-5.464787226563157,-11.038326871634768,231.03420318210084,103.83152684201343
225,11.740407527123864,-200.6817459036151,113.64019835247146,-97.96570829068048,-4.355538988793754,-13.48142181456833,231.04904832013753,102.88115402872982
226,12.353652302567353,-200.79937737229707,113.45667134620071,-96.64890135442676,-3.297999603574325,-15.922389841019745,231.08755691005862,101.97708887476406
227,12.90439496898222,-200.93806892575225,113.284734133503,-95.40298677134663,-2.300631307640629,-18.336889059898756,231.1482342329846,101.13012384407561
228,13.385731734501672,-201.09561382892159,113.12537760150849,-94.24248975306415,-1.370380527337348,-20.70111260795331,231.2291873980889,100.35073253881194
229,13.79156151843282,-201.26942449951454,112.97954151025274,-93.18131079773593,-0.5125450419901016,-22.992340327019654,231.32820231915068,99.64887351513008
230,14.116741640941926,-201.4566272351568,112.8480931883778,-92.23238771309474,0.26933252261811363,-25.18946259205159,231.44282672801643,99.0337631917319
231,14.357223733637877,-201.65416081336264,112.73180448869203,-91.40731707020922,0.9735381957831015,-27.27345585167122,231.57045475947422,98.51361697497423
232,14.510164460913678,-201.8588741146096,112.63132796928024,-90.71594634465241,1.6002207031321989,-29.227790161333417,231.70840894613372,98.09536285242979
233,14.574006314411836,-202.06761838481466,112.54717372591105,-90.16595359341852,2.1513803760483223,-31.038750945111513,231.85401611119192,97.78433640310979
234,14.54852449317105,-202.27733055490518,112.47968859147777,-89.76243550910247,2.63080871599788,-32.69566047088156,232.00467450992448,97.58396987627947
235,14.434837043089285,-202.4851050370826,112.4290394662267,-89.50752665738962,3.0439766016120946,-34.19098899219981,232.1579105287142,97.49549043686778
236,14.235377397363044,-202.68825238011834,112.3952023779965,-89.40007263438989,3.397872060578641,-35.520351012212046,232.31142414436584,97.51764394125117
237,13.953831046827693,-202.8843438039747,112.37795860921541,-89.43537809245701,3.7007920306710282,-36.6823883395412,232.46312296548686,97.64646094256194
238,13.595040564013015,-203.07124087466613,112.37689895938551,-89.60504748200484,3.962096207077341,-37.678548042606835,232.6111449438219,97.8750811810385
239,13.164884984999327,-203.24710979513026,112.39143679506434,-89.89693228658138,4.191934305136344,-38.51276946018923,232.75386997000868,98.19365154399418
240,12.670140390141086,-203.41042050113296,112.4208297233404,-90.29519376602056,4.400960207843138,-39.19109951340376,232.88992088557603,98.58931025681656
241,12.118328488655672,-203.55993205374793,112.4642086607991,-90.78048503043163,4.6000470918227885,-39.72125924768937,233.0181551032421,99.04626685700596
242,11.517559403971486,-203.6946672617444,112.52061229360969,-91.33025096926347,4.8000167051171765,-40.112186544810946,233.1376488954808,99.54598347564522
243,10.876374065228449,-203.81388049889915,112.58902461232715,-91.91913960309773,5.011393802299452,-40.373580194328596,233.24767710713454,100.0674585188459
244,10.203590806671425,-203.91702303661972,112.66841296611044,-92.51951430669783,5.244193741118987,-40.51546906255301,233.34769117380515,100.58760954915311
245,9.508159887953562,-204.00370990084147,112.75776370989855,-93.10205337415896,5.507747805369374,-40.5478271030907,233.43729780874685,101.08174841479224
246,8.799028664890695,-204.0736913821525,112.85611241895602,-93.63642149335693,5.810567307236278,-40.48025067197675,233.5162398467014,101.52413852953477
247,8.085019216931965,-204.12683106484934,112.962566225707,-94.09199647069808,6.160244291104803,-40.32170941606142,233.5843798659461,101.8886214357789
248,7.37471948206295,-204.16309098575982,113.07631687488605,-94.43863348251092,6.563384018322444,-40.08037633968122,233.64168657858673,102.149297044741
249,6.676388298446697,-204.18252372018418,113.19664407581266,-94.64744784480972,7.025562557918508,-39.763536970820404,233.68822369810158,102.28123901784906
250,5.9978740422480605,-204.18527093684028,113.32290956626223,-94.69159571559712,7.551301786196073,-39.377572277771954,233.72414111740832,102.26122369989132
251,5.346545643401375,-204.17156801792882,113.45454330726949,-94.54703051628961,8.144053848465841,-38.92800551561151,233.7496687041188,102.06844819787467
252,4.729233704338927,-204.1417543662623,113.59102440978693,-94.19321161628098,8.806187605369745,-38.419599805061665,233.76511356039765,101.68521114600358
253,4.152178620702682,-204.09628879257764,113.73186020385045,-93.61374143481635,9.538970733261413,-37.85649117731656,233.77086174817867,101.0975289371282
254,3.620982567201042,-204.03576883563568,113.87656679902162,-92.79690793996824,10.342542825785392,-37.24234116884887,233.76738496355796,100.29566111166987
255,3.140563209168334,-203.96095218798206,114.02465362293067,-91.73611174577199,11.215876766762253,-36.58049376195499,233.7552516462482,99.27452129775612
256,2.7151086372237607,-203.87277790672854,114.17561320541103,-90.43016061595165,12.156727532379783,-35.87412330316222,233.73514101903436,98.03395446478983
257,2.34803459788279,-203.77238496388165,114.32891631241806,-88.88341898418226,13.161569298397755,-35.126362671936825,233.7078579071727,96.57886697332226
258,2.0419461837857287,-203.66112581951384,114.48401168720277,-87.1058057189069,14.225523286160493,-34.340404106046925,233.6743459013198,94.91920251138009
259,1.7986066933045184,-203.54057290772027,114.64032920427691,-85.11263929356761,15.342280249523808,-33.51956843227938,233.63569638729095,93.06976393845244
260,1.6189163576086678,-203.4125162648328,114.79728507898271,-82.92433528110136,16.50402292903494,-32.66734171557344,233.59315117893664,91.04988775925035
261,1.502903092165134,-203.27895116967616,114.95428776862141,-80.56596628793307,17.701355157726255,-31.78738125016157,233.54809704571906,88.8829839572409
262,1.4497266764562113,-203.14205553716835,115.11074333765855,-78.06669879742255,18.923245509669965,-30.88349515773408,233.5020512586311,86.59595888373298
263,1.4576972083652355,-203.00415762863489,115.266059371435,-75.45912472900125,20.15699432299075,-29.959601500281153,233.45663815488658,84.21854259612094
264,1.5243083401742654,-202.8676952703908,115.41964693918379,-72.77850777491743,21.388233466293713,-29.01967370611694,233.41355747929455,81.78254437094813
265,1.6462853707551548,-202.73516824524498,115.57092049108199,-70.06196579648623,22.60096817673182,-28.067679265884504,233.37454586400503,79.32106109959929
266,1.8196475845434263,-202.6090858290294,115.7192958448069,-67.34761088761007,23.777669516033185,-27.107518172477,233.34133321059383,76.86766303595432
267,2.039783459401215,-202.4919115069027,115.86418656179703,-64.67366839097164,24.899424431506432,-26.142966599195386,233.3155958652442,74.45558017281054
268,2.301536776238167,-202.3860067494252,116.00499905634305,-62.07759550291235,25.946148201948116,-25.177630006461367,233.2989083652186,72.11691075472542
269,2.599301400464404,-202.29357551814746,116.14112676677738,-59.595219407641906,26.89686140562338,-24.214908433461712,233.29269534611174,69.88187145446557
270,2.9271225572310535,-202.21661103327915,116.27194367351211,-57.25991425696278,27.730030680402148,-23.2579753587395,233.29818505953304,67.77810676552627
271,3.2788026523284866,-202.15684624209982,116.39679738805292,-55.101835713758895,28.423969633336622,-22.309770312133637,233.31636584070992,65.83007323348747
272,3.648009912308973,-202.11570928363852,116.51500200756297,-53.14723112731368,28.957293405070676,-21.373004379668455,233.34794672643824,64.05851221824528
273,4.028388199689959,-202.09428505072646,116.62583099171417,-51.41784267446777,29.309417622193344,-20.450176820895923,233.39332328281512,62.48002291558172
274,4.4136662774953415,-202.09328375355184,116.72851051713805,-49.93041992554145,29.46108979141787,-19.543600227417507,233.45254962423695,61.10674534297314
275,4.7977645988968165,-202.11301717853016,116.82221410497877,-48.69635708298723,29.39493870861527,-18.655431031341955,233.52531758514908,59.94616081308467
276,5.174897450796667,-202.15338308073663,116.90605968068239,-47.721468262808116,29.096025348277536,-17.787701736699812,233.61094395866917,59.00101489544096
277,5.539668049784728,-202.21385786064997,116.97911037805373,-47.00591128416495,28.55237711071263,-16.9423510004562,233.70836653635482,58.26936480668616
278,5.887154048154028,-202.29349739754988,117.04038021092371,-46.54426626493944,27.755486311474588,-16.121247669360127,233.81614934231007,57.744749483110574
279,6.212980998207227,-202.39094573797414,117.08884532076024,-46.325769932345665,26.700753453403795,-15.326205140843356,233.93249709797792,57.4164764000692
280,6.51338180342846,-202.50445140921147,117.12346105789027,-46.334700329334865,25.38785621131575,-14.558982995553544,234.0552788055524,57.27001486672527
281,6.785240987591388,-202.63189142863948,117.14318472916742,-46.55090014479805,23.82102629582797,-13.821273765436377,234.18206041269912,57.2874815237158
282,7.026123386164958,-202.770803340745,117.1470034297633,-46.95042087394545,22.009218535599135,-13.114673992555897,234.31014656508074,57.44820056487391
283,7.234287322021502,-202.91842558105196,117.13396601585693,-47.506264964925435,19.966159652750022,-12.440640409398402,234.4366312574526,57.729319106997
284,7.408682545019462,-203.07174616492443,117.10321806923216,-48.189199374489405,17.71026824547068,-11.800433995677839,234.55845683316196,58.10645723873971
285,7.548933485626855,-203.22755934349996,117.05403870392514,-48.968611676049484,15.264442262301339,-11.19505653124678,234.67248047669514,58.55437245230468
286,7.65530886233253,-203.38252960770177,116.98587819116443,-49.81337901403412,12.655715487166638,-10.625185719416196,234.77554719091574,59.04761912477341
287,7.728679281063706,-203.53326222469857,116.8983954645479,-50.69272067091102,9.914789973303275,-10.091115774180123,234.8645681374994,59.561185212464714
288,7.77046491530763,-203.67637923802687,116.79149448244091,-51.57700665280044,7.075456704799799,-9.592710491722972,234.9366029679086,60.07109016378205
289,7.782575474986554,-203.80859948426766,116.66535817583974,-52.43849731848191,4.173921727148028,-9.129375296727861,234.98894432203687,60.55493008179075
290,7.767344467010066,-203.92682070692365,116.52047842960684,-53.25199252200242,1.2480592149886316,-8.700053624817718,235.01920211590232,60.992358277423385
291,7.727459387605193,-204.02820136746305,116.35768037712349,-53.99537297107703,-1.6633839347056394,-8.303251354817506,235.0253847284766,61.36549160990047
292,7.665889176424225,-204.11023936730336,116.17813929763756,-54.65002153124758,-4.521605686251307,-7.937090975288398,235.00597385738874,61.65923559631153
293,7.585810148545096,-204.17084472017322,115.98338856960312,-55.20111788537444,-7.288562173933294,-7.5993949593318515,234.95998973904156,61.861524284282645
294,7.490531738000509,-204.2084033350051,115.77531734571716,-55.63780586044067,-9.92775162959001,-7.287795654310735,234.8870436420055,61.963474159976144
295,7.383423653327117,-204.22182942819725,115.55615674589419,-55.9532382407526,-12.404946438085013,-6.999867043702112,234.78737492662364,61.959454522867915
296,7.267846285922428,-204.2106045083103,115.32845342661531,-56.144508447580236,-14.688854346982877,-6.7332720807145625,234.6618703688008,61.84707939048198
297,7.147086275167131,-204.17480128708527,115.09502959355102,-56.212481801185284,-16.75169383174172,-6.485917933105883,234.5120639040472,61.62712786744424
298,7.024299005411662,-204.1150913575286,114.85892909887373,-56.16154118065734,-18.56967264139973,-6.256110450167731,234.340115645282,61.30340099970822
299,6.902459550902006,-204.03273611487603,114.62335021225086,-55.999262861645114,-20.123362333177703,-6.042698589617843,234.14877003382475,60.88252351064418
300,6.784323192861174,-203.92956110027924,114.39156679280362,-55.736038262368474,-21.397964988079952,-5.845199588237727,233.94129413977865,60.373698579156205
301,6.672396030769196,-203.8079145612962,114.16684071434041,-55.384656435955065,-22.38347124456836,-5.663896410844091,233.72139819639594,59.78842312719121
302,6.5689154100011775,-203.67061144316574,113.95232933225167,-54.95986065006141,-23.07471136079302,-5.499900407784233,233.49314125699863,59.140170159649244
303,6.475839122671846,-203.52086429110943,113.75099236251206,-54.4778905516485,-23.471303330262664,-5.355173999457153,233.26082536227355,58.444043778942806
304,6.394841922948028,-203.36220281872818,113.56550271686245,-53.956019504212044,-23.57750419780207,-5.232510422140082,233.02888192097112,57.71641179272389
305,6.327317947738569,-203.19838429665342,113.39816571268182,-53.41209501149927,-23.401972607692116,-5.1354699531596655,232.8017542947264,56.97452052052111
306,6.274387968850165,-203.03329735641063,113.25085075645258,-52.86408895218787,-22.957452127305242,-5.068274444410657,232.58378081373826,56.23609656367384
307,6.23691070460986,-202.87086206927245,113.12493904736021,-52.32966374332124,-22.260385911426187,-5.035664328152669,232.37908241855425,55.518940905232995
308,6.215497453540528,-202.71492913718743,113.02128996683197,-51.82576048978837,-21.330473822771996,-5.042724401863156,232.19145867507083,54.840521669525316
309,6.210529069072646,-202.56918086439265,112.94022760844585,-51.368215541542746,-20.19018336502822,-5.094686470527199,232.0242951685271,54.21757309203795
310,6.22217396137187,-202.43703651915374,112.88154751075878,-50.971412482821655,-18.864225942551272,-5.196718154701645,231.88048454878782,53.66570959556253
311,6.2504056243444825,-202.32156484139648,112.84454233733757,-50.64797717211778,-17.379010216530233,-5.353707790441037,231.7623629856098,53.19906514897219
312,6.2950182795580405,-202.22540665569764,112.8280442250492,-50.408523753208826,-15.762084717509916,-5.570055349489308,231.671663478411,52.82996903375374
313,6.355639606897522,-202.15071057388988,112.83048086170413,-50.261459297550125,-14.041582263756544,-5.849478694320729,231.609487176406,52.568669447708054
314,6.431740101240612,-202.0990844549202,112.84994198002242,-50.212853781211436,-12.245678865089477,-6.1948432751068525,231.57629342090928,52.42311581368977
315,6.52263921662809,-202.0715645989683,112.88425276735283,-50.266380553811345,-10.402079346756258,-6.608021665829862,231.5719085433084,52.3988092532933
316,6.627508995747899,-202.06860371502606,112.9310506938229,-50.42333059937115,-8.5375406597798,-7.08978728790171,231.59555264981014,52.498728657184714
317,6.745376243174725,-202.0900777526081,112.98786253251764,-50.68270187119125,-6.67744178607613,-7.639744505608793,231.6458829392255,52.72333731627452
318,6.875124466688506,-202.13531087949352,113.05217884959828,-51.041362612519784,-4.845406693611197,-8.256295262495353,231.72105164626007,53.07067208956637
319,7.015496803108658,-202.20311715652974,113.1215237757486,-51.49428448610986,-3.062984458867176,-8.936640802692741,231.8187763259339,53.536513341799306
320,7.165100992069886,-202.29185666458818,113.19351825168926,-52.03483743175596,-1.3493887404538525,-9.67681591533538,231.93641968176178,54.11462937715775
321,7.322417214118146,-202.39950298640227,113.26593517185397,-52.65513386857408,0.27870274071886436,-10.471752519499855,232.07107550110607,54.79708426444097
322,7.485809353782415,-202.52371827134553,113.33674506425407,-53.346405900063544,1.8072893014156253,-11.315369108559313,232.2196567670527,55.57459351691137
323,7.653540062352072,-202.66193188995297,113.40415129515617,-54.09939625999326,3.2251305954332574,-12.200682409479672,232.37898198544892,56.43690872164399
324,7.8237898961365255,-202.81141894768362,113.46661435583351,-54.9047422899292,4.523774553000234,-13.11993747100836,232.5458562656094,57.373210323616995
325,7.9946807381525025,-202.96937542419303,113.52286548383641,-55.753332441107545,5.697532992369549,-14.064752254664787,232.71714445949308,58.37248753300318
326,8.164303585382612,-203.13298721712925,113.57191046386589,-56.63661664282389,6.74340833377999,-15.026272694501273,232.88983439204108,59.423885747164164
327,8.33075053360877,-203.29949093859477,113.61302476504584,-57.546855210568474,7.6609751397729,-15.99533415921621,233.06108885167407,60.51700480982552
328,8.492150398755724,-203.4662250485191,113.64574120982032,-58.47729538317137,8.452220459938006,-16.962625330857378,233.22828565570762,61.64213548797294
329,8.646706899530933,-203.63067072223637,113.66983131813637,-59.422269478397425,9.12134715528135,-17.918850710373523,233.3890457730105,62.790426139753734
330,8.792737751741488,-203.79048253723428,113.6852815288543,-60.37721347836565,9.674544455864785,-18.85488821690658,233.54125009776578,63.95397610492189
331,8.928712505996009,-203.94350958546582,113.69226566840496,-61.338609322935426,10.119729953727647,-19.761938590056857,233.68304598998284,65.12585658388763
332,9.053286659868133,-204.08780809187962,113.69111513809467,-62.3038582898481,10.46626714817905,-20.63166351245449,233.81284515231272,66.30006367725932
333,9.165329629485386,-204.22164707274607,113.68228823363845,-63.27109662940248,10.724662718611341,-21.45630959945395,233.92931478106118,67.4714119226238
334,9.263944599147061,-204.34350885342303,113.66633986584483,-64.23896805489561,10.90624806181698,-22.228815721468113,234.03136412279588,68.6353800870113
335,9.348478986071015,-204.4520862676706,113.64389279660917,-65.20637053264805,11.022850348324486,-22.942901551956922,234.11812852005497,69.78792394627816
336,9.418525110390458,-204.54627814010436,113.61561134986731,-66.17219663564326,11.086459347439739,-23.5931357547906,234.18895279315473,70.92527289400779
337,9.473911508458649,-204.62518436386407,113.58217841314081,-67.13508704923295,11.10889739240402,-24.17498283474112,234.2433755138587,72.04372801885451
338,9.514686085555821,-204.68810162570313,113.54427641883451,-68.09321535864245,11.101500945714813,-24.684828390628507,234.28111546683,73.13947849800631
339,9.541092945062061,-204.73452059804245,113.50257282614578,-69.04411904312785,11.074823116222587,-25.119983324419664,234.30206133417008,74.20845078867657
340,9.55354521333313,-204.76412515266307,113.457710328187,-69.9845870369061,11.038366968947793,-25.47866839939852,234.3062652810783,75.2462014496566
341,9.552596406775733,-204.77679380633052,113.41030157487641,-70.91060895896808,11.000359322602527,-25.75998129640937,234.29394061635256,76.24786000882727
342,9.538912807993176,-204.7726032039526,113.36092770707104,-71.81738591380717,10.967573786400925,-25.963848895209452,234.26546310258937,77.20812372748516
343,9.513248980868845,-204.75183306696272,113.31013956049107,-72.69939820587004,10.945210042781602,-26.09096784469917,234.22137493504573,78.12130191316241
344,9.476427996187706,-204.7149717839614,113.25846016613576,-73.5505216760434,10.936833965412896,-26.142736555254785,234.162390057296,78.98140388546983
345,9.429327150153282,-204.66272173739378,113.20638725259047,-74.36418170567732,10.944380248585416,-26.121181584771183,234.08939942220695,79.78226190239079
346,9.372869044263458,-204.59600347246072,113.154394785278,-75.13353219998304,10.968216007722095,-26.0288810806842,234.00347494908507,80.51767833173204
347,9.3080171008677,-204.51595778889464,113.10293295573852,-75.85164603824798,11.007260529322092,-25.868887560410418,233.90587106345274,81.1815851380034
348,9.235774089262033,-204.423944730087,113.05242631947472,-76.51170361031447,11.059153281610344,-25.64465190960732,233.79802273399957,81.76820343072653
349,9.157182050961017,-204.32153836166677,113.00327000778465,-77.10716721878838,11.120459718730391,-25.359950083255455,233.68153895077455,82.27219148754784
350,9.0733220962278,-204.2105162902318,112.95582418531218,-77.6319312870539,11.1869025720027,-25.018813645577016,233.55819076010852,82.68877134096167
351,8.985312826597783,-204.09284308629455,112.9104071655618,-78.08044126402284,11.253605442990242,-24.62546503455516,233.42989328348014,83.0138265561333
352,8.894306528568057,-203.97064708476495,112.8672877441601,-78.447777518801,11.315335724368875,-24.18425833882601,233.2986815028008,83.24396695981497
353,8.801482728290061,-203.8461903746392,112.82667734310174,-78.72970402390881,11.366735131447912,-23.699626429589483,233.16667992284326,83.37655949406569
354,8.70803915528316,-203.7218321116045,112.7887225677455,-78.9226849399105,11.402528210078133,-23.176035405782827,233.03606652436594,83.40972774681337
355,8.615180526042113,-203.59998558808843,112.75349886127185,-79.02387508465847,11.417701788034641,-22.617947334494637,232.9090317377131,83.34232573734278
356,8.524105713726085,-203.48306980008564,112.72100606839282,-79.03109247548508,11.407651152543064,-22.02979207422542,232.787733498922,83.17389391885754
357,8.435993843591218,-203.373456571472,112.69116674762572,-78.94278252492781,11.368291508299887,-21.415948520956146,232.67424974134425,82.90460690737245
358,8.351989782579105,-203.27341462116638,112.66382789245402,-78.75798400078662,11.296135800787782,-20.7807349616586,232.5705298678503,82.53522308361109
359,8.273189462122698,-203.18505228694443,112.63876633961642,-78.47630652996912,11.188342130505426,-20.128407430227185,232.47834684777973,82.06704593353467
360,8.200625470395948,-203.11026098101883,112.61569763312616,-78.09792823547063,11.042735592627903,-19.463164120300764,232.3992516509481,81.50190579288129
361,8.135253336013147,-203.05066182335693,112.59428760103741,-77.62362006507082,10.857810327526101,-18.78915313080799,232.3345318076052,80.84216856756868
362,8.077938877442653,-203.007558131317,112.57416556268132,-77.05480057919993,10.632717837294265,-18.110480237967227,232.28517592216127,80.09077512582407
363,8.029446903313179,-202.98189636643798,112.55493804725381,-76.39362159594019,10.36724731051334,-17.431213121707504,232.25184588088746,79.25131162712131
364,7.9904314587223295,-202.9742377343231,112.53620212388918,-75.6430814179354,10.06180291894348,-16.755378610888943,232.23485824302293,78.32810737993285
365,7.961427791052901,-202.98474205340383,112.51755771938272,-74.80715870611215,9.717381871776864,-16.086950103654182,232.2341759293302,77.32635324010428
366,7.942846258551638,-203.01316491908216,112.4986184554296,-73.89095674091784,9.335555515149764,-15.429823367036164,232.24941088219882,76.25223039567105
367,7.934968446206989,-203.0588686408321,112.47902054579856,-72.90084512561725,8.918454128116219,-14.787780322263428,232.27983789531027,75.1130369114356
368,7.937945710628413,-203.12084684106335,112.45842926399122,-71.8445841759516,8.46875454450806,-14.164441970234222,232.32441927957228,73.91729782066331
369,7.951800233179103,-203.19776186913498,112.43654255460763,-70.73141645712501,7.9896685318055125,-13.563213065642897,232.3818394155655,72.67484395356327
370,7.976428463239926,-203.28799332468066,112.41309156699558,-69.57211029955998,7.4849290884593405,-12.987222320036285,232.45054758634026,71.39684517662296
371,8.011606658153982,-203.38969520253693,112.3878382262662,-68.3789418148447,6.958771512259807,-12.439262681753968,232.52880695963253,70.09578543606801
372,8.056998120592462,-203.50085868476376,112.3605704115265,-67.16560503191596,6.415906218152066,-11.921736522232363,232.61474738018936,68.78537004024365
373,8.11216168049504,-203.61937744037564,112.33109580667764,-65.94704408970736,5.861480724232096,-11.436610295257562,232.70641972636105,67.48035978963735
374,8.17656090742581,-203.7431123145255,112.29923583164681,-64.73920649029304,5.301028784407998,-10.985382410220652,232.80184976654007,66.19633140635707
375,8.249573413228104,-203.86995241962555,112.26482108874792,-63.55872169036514,4.74040518019569,-10.569066735439542,232.89908957369732,64.9493686946773
376,8.330499441358864,-203.99786995130987,112.22768947958848,-62.422514293924934,4.185705204355824,-10.18819248848414,232.99626468772323,63.75569351750831
377,8.418568883249446,-204.12496660866321,112.18768767377145,-61.347365406593305,3.6431684931174635,-9.84281951536293,233.09161547318715,62.631249643554604
378,8.512946036609259,-204.2495102148907,112.14467604550981,-60.34943907038978,3.119067662904202,-9.532566373519941,233.183531484054,61.591255591271576
379,8.612731784276344,-204.36996083669607,112.09853663775353,-59.44379304496219,2.6195831479028366,-9.256647468287893,233.27057800918857,60.64974472272202
380,8.716963313150531,-204.48498630666947,112.04918325779971,-58.64389462789332,2.1506666568057824,-9.013914941630405,233.35151430081794,59.81911213560252
381,8.824611983231701,-204.59346761619167,111.99657249590618,-57.96116285936063,1.717896755719264,-8.802901136065644,233.42530334831713,59.10968852536735
382,8.934580488587674,-204.69449522503848,111.9407143241347,-57.40455833289319,1.3263312400090235,-8.621858152729175,233.49111352002683,58.529361136068765
383,9.04570090690116,-204.78735789709603,111.88168105863348,-56.98024069696027,0.9803621274091348,-8.468792092347147,233.54831296443007,58.08326093113917
384,9.156735460310406,-204.87152610948274,111.8196138839895,-56.69131151000087,0.6835801530323046,-8.341490826858168,233.596458250596,57.77353289476238
385,9.266381778336257,-204.94663225894243,111.75472670157545,-56.53765637280502,0.4386563957166428,-8.237545469419096,233.6352791480906,57.599202860184604
386,9.373284227694242,-205.01244974112677,111.68730753773697,-56.515895470973255,0.2472489534314995,-8.154366983212991,233.66466153190547,57.55614968897876
387,9.476052463618728,-205.06887259959353,111.61771798178367,-56.619446229972134,0.1099422859710923,-8.089200459277611,233.68463016000138,57.63718638321742
388,9.573287715932866,-205.11589701920272,111.54639113978051,-56.83869611517834,0.026225856744903936,-8.039140336309298,233.69533268331364,57.83224818315022
389,9.663616487822097,-205.15360558832768,111.47382848626808,-57.1612780071723,-0.005483000281894449,-8.001150088395992,233.69702585989947,58.12868019176737
390,9.745730477591646,-205.1821549558115,111.40059579085607,-57.57243530457735,0.012230597201206481,-7.972089603256566,233.69006455267768,58.51161183954176
391,9.81843081326724,-205.20176719180108,111.32731797326598,-58.055459252743674,0.07589535943292075,-7.9487526394622865,233.6748936303732,58.964400866319934
392,9.880674236558578,-205.21272481085234,111.25467244224504,-58.59217732285892,0.18131345756210643,-7.927915502812416,233.6520424236096,59.46912581189961
393,9.931618724349063,-205.21536908896607,111.18338044413845,-59.16346911285685,0.32375721753958975,-7.9063966210830925,233.62212108187344,60.007103609247466
394,9.970666129322094,-205.21010106430924,111.11419622576148,-59.74978550878994,0.49819385381713815,-7.881125268173276,233.58581810216944,60.559408056501134
395,9.997499634962452,-205.1973844488187,111.04789419896146,-60.33164800097767,0.699527162487342,-7.849216513336706,233.54389834856053,61.10736597088175
396,10.012114072476392,-205.1777495669999,110.98525458930528,-60.890108213191,0.9228439250208134,-7.808048680224663,233.49720093459118,61.63301083411819
397,10.014837427603638,-205.1517974071552,110.92704818455285,-61.40715262407836,1.1636524733958737,-7.755339192613333,233.44663638808004,62.11947850019431
398,10.006342175282432,-205.1202029381496,110.87402074415697,-61.866043412545864,1.4181012435693472,-7.6892145484321315,233.39318256551553,62.551335349533346
399,9.987645400611159,-205.083716929065,110.82687744675474,-62.25159231845812,1.6831660144923457,-7.608270200415833,233.33787878486487,62.91483513327111
400,9.96009700000694,-205.0431655180813,110.78626759165302,-62.55036944329564,1.956795815142226,-7.511616335207401,233.28181759217253,63.19810574616081
401,9.92535564951411,-204.99944674539046,110.75276971931598,-62.7508525561196,2.238009162246525,-7.398906000527337,233.22613354177696,63.391270853200886
402,9.885352689322314,-204.95352331421807,110.7268773302128,-62.84352478679177,2.5269343360490266,-7.270342770832415,233.17198843859367,63.48651375432939
403,9.84224455250359,-204.9064110598091,110.70898542503049,-62.820929866909154,2.82478976503959,-7.1266661578576755,233.12055272025717,63.478092394012585
404,9.798354819362714,-204.85916300475222,110.69937818920184,-62.677694467603494,3.133803238505966,-6.969114222187897,233.07298307276423,63.362315157679085
405,9.756107423943142,-204.81284943347703,110.69821829093505,-62.410526653748626,3.4570715727220906,-6.799364238655605,233.03039694874627,63.13748700908591
406,9.717952980985197,-204.76853503135493,110.70553839864264,-62.01819800866301,3.798365472154915,-6.619453694048571,232.9938452808624,62.80383457212623
407,9.686290574867225,-204.727254612184,110.72123563757772,-61.501514692448154,4.16188753123517,-6.431685258696303,232.9642851752257,62.36341701988912
408,9.66338760257228,-204.68998913419298,110.74506980529152,-60.86327980343922,4.551994395577421,-6.2385206260701285,232.94255458399255,61.82002727124524
409,9.651300417850065,-204.65764357870808,110.77666620688451,-60.108246241442984,4.972896748471884,-6.042469187443536,232.92935087100284,61.179085264243675
410,9.651798632007722,-204.6310279646023,110.81552387130377,-59.24305627613398,5.4283527209253,-5.845978249629199,232.9252148748339,60.447522354593744
411,9.666295997542086,-204.6108424092737,110.86102958655718,-58.276161719809586,5.921371328478487,-5.651331721449604,232.93052160205272,59.63365364858889
412,9.695790811764121,-204.5976667702603,110.91247761368753,-57.21771739634893,6.453942473043198,-5.4605637687583775,232.94547807619588,58.7470337355935
413,9.74081866876353,-204.59195502801876,110.96909421271832,-56.07944067522278,7.026808838354983,-5.275392871090989,232.97012818800997,57.79829106732306
414,9.801420063651918,-204.59403421687776,111.030065441917,-54.874431228345145,7.639292703881526,-5.097180096868379,233.00436374711626,56.798937218171815
415,9.877124756370277,-204.60410739743514,111.09456622816867,-53.61694780015232,8.289187518523677,-4.926913381842818,233.04794041286965,55.761149418595615
416,9.96695399862259,-204.62225991653614,111.16178850767699,-52.32214241326766,8.972720337762794,-4.765217315082574,233.10049683649663,54.69752784683919
417,10.069440875884142,-204.64846804859582,111.23096627270822,-51.005756548431144,9.684587271694065,-4.6123856344046645,233.16157519429396,53.620832669698416
418,10.182668243722038,-204.68260906182658,111.30139552405984,-49.68378773122878,10.418060196655821,-4.468431594787255,233.23064129257278,52.54370902605943
419,10.304323067792039,-204.7244717813245,111.37244737928835,-48.37213794690347,11.165159385151194,-4.333149886025817,233.3071025404283,51.47841037700306
420,10.431765381149619,-204.77376678521432,111.44357307697848,-47.08625693247729,11.916883633797843,-4.206183041224285,233.39032235225662,50.436531490450136
421,10.562109518365896,-204.83013543477173,111.51430049390974,-45.840793557271084,12.663487107160968,-4.0870853645204335,233.4796299960247,49.428761752023505
422,10.692314741505456,-204.89315699431697,111.58422289541029,-44.649267442197534,13.394790550103478,-3.975378259954226,233.57432545764632,48.46466781976932
423,10.819281864686499,-204.9623531491311,111.65298157770108,-43.5237711065851,14.100513715587605,-3.870592308784956,233.67367936524698,47.55251234992384
424,10.939952145028,-205.03718930781855,111.7202445563821,-42.47471067000601,14.770615695354303,-3.7722932900790487,233.77692830656036,46.699113029442024
425,11.051404662367895,-205.11707224743856,111.78568351341194,-41.51059082879501,15.395630170716924,-3.68009131438252,233.88326604667725,45.9097437685105
426,11.15094861707202,-205.201344011178,111.84895101289263,-40.637847829667244,15.96698325048192,-3.593634113304466,233.99183137092425,45.18807790903918
427,11.236207276787344,-205.28927252647594,111.90965971810861,-39.860732766804965,16.47728242455037,-3.5125871004912144,234.10169364450283,44.53617191798724
428,11.305190598414711,-205.38004007414258,111.96736510983844,-39.181246832474976,16.920566237964657,-3.436603922983465,234.2118376604466,43.95448734756726
429,11.356353858992284,-205.47273129967496,112.02155303142817,-38.59913003953061,17.292505638914395,-3.3652917583387407,234.3211497658893,43.441948785720335
430,11.388640030971448,-205.5663227384058,112.07163315993022,-38.111905132039624,17.590549602644117,-3.2981755917738784,234.42840740956217,42.996035879883664
431,11.401504212365195,-205.65967577347232,112.11693911389102,-37.71497852667824,17.81400957876304,-3.23466522110421,234.53227404702295,42.612907995358356
432,11.39491917789386,-205.75153461622367,112.1567353744628,-37.401799782943485,17.96407955618251,-3.1740279160065503,234.6313008331337,42.2875603607743
433,11.369361967349402,-205.84053042438913,112.19023062916509,-37.16407999122059,18.04379106397652,-3.115368663761663,234.72393588749642,42.01401042705582
434,11.32578226553477,-205.92519221423845,112.21659667940209,-36.992067475435036,18.057905118141587,-3.0576189530011013,234.80854133521,41.78551248961477
435,11.265554102559761,-206.0039648587,112.23499180774259,-36.87487638791035,18.012745812222516,-2.9995342451098916,234.88341792824863,41.594797361801625
436,11.190413112299112,-206.07523414451748,112.2445874987506,-36.80086037541857,17.91598277558374,-2.9396997574140626,234.94683680725063,41.43433214755079
437,11.102382244774471,-206.13735848905492,112.24459749859803,-36.758019957420245,17.77637195511777,-2.8765439545074787,234.99707771149798,41.29659320314197
438,11.00368942702394,-206.1887064399735,112.23430820103259,-36.73442912395373,17.60346596043054,-2.808359156364908,235.03247255375362,41.174343540563385
439,10.896681130383792,-206.22769854804923,112.21310923995988,-36.71866445135621,17.40730635743824,-2.733328800798855,235.05145277687043,41.060904544617976
440,10.783736000125975,-206.25285175164893,112.18052311566402,-36.700219131722214,17.198110646209113,-2.6495610174818762,235.052598493391,40.950411242819065
441,10.667182545179658,-206.26282416055898,112.13623283919776,-36.66988484625632,16.985966209555173,-2.5551282029940374,235.03468725408095,40.83804065176373
442,10.549224392851002,-206.25645809278006,112.0801068853252,-36.62008620821934,16.780542433289853,-2.448112181586055,234.99674038239337,40.72020389601768
443,10.431875911329186,-206.2328193624962,112.01222096274593,-36.54515516613481,16.590830691975917,-2.3266542530229275,234.93806500926564,40.59469462350547
444,10.316910245187447,-206.1912311311416,111.93287609526331,-36.441535838031285,16.4249201042938,-2.1890089644079804,234.85829017502098,40.46078837590732
445,10.205821090189191,-206.13130109989604,111.84261232377249,-36.30791335215317,16.28981496325046,-2.033599870476044,234.75739565273756,40.31928967677529
446,10.099798865865159,-206.05294135144123,111.74221713947692,-36.14526315371285,16.19129763171381,-1.8590750036748676,234.63573248495487,40.172525467241776
447,9.999721306790988,-205.9563806153469,111.63272766863601,-35.956819812419546,16.133838588608736,-1.6643593934065861,234.49403456115095,40.02428509610157
448,9.906157870751946,-205.84216905337266,111.51542572916891,-35.74796662843583,16.12055332031694,-1.4487018179871451,234.33342086358385,39.87970838003361
449,9.819386752684624,-205.71117583770803,111.3918251765554,-35.52604929553369,16.153203962846604,-1.2117130601135733,234.15538827695886,39.745124325417045
450,9.739422722134664,-205.56457987623713,111.26365135726418,-35.30011857319743,16.232242123518933,-0.9533932784217678,233.96179509279548,39.627844012239756
451,9.666053524242814,-205.40385404282293,111.13281288534685,-35.080608467976454,16.356888226962432,-0.6741466997831127,233.754835509551,39.53591202437078
452,9.598882266801038,-205.2307431715051,111.00136636943766,-34.87895806804553,16.525241993534326,-0.3747826399826113,233.53700552340374,39.47782187761153
453,9.537373115120216,-205.0472358923249,110.87147524705011,-34.70718716966558,16.73441812844358,-0.05650279098025385,233.311060693755,39.462202338680335
454,9.480897760750103,-204.85553024085965,110.74536446323883,-34.577438267893264,16.980700883274142,0.2791243711637663,233.07996642574844,39.49748338953668
455,9.428780487637503,-204.65799302029876,110.6252730341166,-34.501500157911245,17.25971088010605,0.6302004610088249,232.84684162023777,39.59155269276599
456,9.38034012625685,-204.45711322690627,110.51340632412794,-34.49033086953794,17.566577556296462,0.9945432515283172,232.61489676197056,39.75141538601505
457,9.334927644221393,-204.25545041932014,110.41188929773516,-34.55359942555451,17.89611083165781,1.3697395628884272,232.38736777498102,39.98287143823005
458,9.291958501297893,-204.0555795501486,110.3227214272065,-34.69926656134953,18.242966064310384,1.753202445008519,232.16744728093002,40.290225274981225
459,9.250939175357345,-203.86003428230023,110.24773355673167,-34.933223850357926,18.601796984701746,2.142230062371099,231.9582151714817,40.67604175467878
460,9.211487451033143,-203.67125102911376,110.18854692142746,-35.259008647957714,18.967392082046967,2.5340637375843054,231.76257055604822,41.1409609145176
461,9.17334620066225,-203.49151585601373,110.14653472499292,-35.677609061289786,19.33479090678661,2.925942779821817,231.58316716058556,41.683581425492605
462,9.136390548622428,-203.32291607478686,110.12278707096107,-36.187368983519974,19.699377972441553,3.3151539608865783,231.4223541763194,42.300419638532716
463,9.100628528527043,-203.16729801437774,110.11808038479313,-36.78399828528659,20.05695336529789,3.6990737398999016,231.28212442329993,42.98594763761164
464,9.066195573104967,-203.02623216635445,110.13285263091794,-37.46068775297956,20.403780695009445,4.07520158822561,231.16407152966678,43.73270995208794
465,9.033343347783678,-202.9009866888068,110.16718566243837,-38.208322640002294,20.736614446893185,4.441183104231965,231.06935765930095,44.531514631941846
466,9.002423525490794,-202.79251005673365,110.22079597900243,-39.01578321740025,21.052709892818612,4.794822092720162,230.99869311914986,45.37169043483244
467,8.973867130933602,-202.70142339156678,110.2930349502314,-39.870315995830396,21.3498193021131,5.1340814418062966,230.95232884733605,46.241398206469654
468,8.948160121826717,-202.6280226437307,110.38289914116397,-40.75795580998042,21.62617820886925,5.457073468031906,230.93006226646972,47.127981537854765
469,8.925815984873102,-202.57229038719203,110.48905081730177,-41.663977014412225,21.880485008768442,5.762041373689589,230.9312563581025,48.01833981085199
470,8.907346300590001,-202.53391661064816,110.60984812212371,-42.57335172780153,22.11187632003326,6.0473344512106415,230.95487121176768,48.899306008978535
471,8.893230404691668,-202.51232759553687,110.74338386136124,-43.47119428096504,22.319899493248098,6.311380530258604,230.99950678160462,49.758012196763566
472,8.883885402398484,-202.50672170277014,110.88753131292798,-44.34317351638624,22.504482545431774,6.55265973955189,231.06345510464902,50.58222721242095
473,8.879637881830337,-202.51611056786268,111.0399950693867,-45.17587796808691,22.665900847947743,6.769683786357676,231.1447597566631,51.36065361120828
474,8.88069871769755,-202.5393638288595,111.1983646646692,-45.957122792484256,22.804739381656084,6.960984525803407,231.24127987031576,52.08317394617267
475,8.887142330185803,-202.57525522411046,111.36016863961022,-46.676191277158914,22.921849449357165,7.125114592908385,231.3507557400749,52.741039831246475
476,8.898891657119126,-202.62250786817037,111.52292681665624,-47.32400761238907,23.01829936959455,7.260661424446189,231.47087306491764,53.327000708856765
477,8.915709909770992,-202.6798367456835,111.68419897691506,-47.89324123262272,23.095319688958785,7.366274345624951,231.59932328126294,53.835372667237245
478,8.937199891522178,-202.74598676881038,111.841628770539,-48.37834627428728,23.154244619486242,7.440702839232423,231.73385800516823,54.26205081898203
479,8.962811244300463,-202.8197649407317,111.99298225891688,-48.77554237806039,23.196452495880827,7.48284290836382,231.87233603469522,54.604471425208
480,8.991855491126016,-202.90006525321579,112.13618081023262,-49.082745059600335,23.22330882043588,7.491787729875417,232.01276157475826,54.861531932308175
481,9.023528252061656,-202.9858850900358,112.26932823894636,-49.29945516901896,23.23611576413091,7.466878600245058,232.15331253381157,55.03347831419225
482,9.056937567881832,-203.07633226578736,112.39073226680541,-49.42661762833029,23.236071787482913,7.407752432256779,232.29235812634224,55.12176963611747
483,9.091136853135556,-203.1706223867081,112.49892064331992,-49.4664597602576,23.224244399523563,7.314382656842687,232.42846561133487,55.128929671737914
484,9.125160644701745,-203.26806686354777,112.59265256344794,-49.42231917124614,23.20155810247758,7.187111215647249,232.56039669061434,55.0583948124546
485,9.158061091944038,-203.36805257097376,112.6709263279131,-49.29847040401883,23.16879839788779,7.026670307513205,232.68709481195557,54.91436651366011
486,9.18894305689137,-203.4700147977819,112.73298441873811,-49.0999585108906,23.126631472349327,6.834193562309928,232.80766529605523,54.701675221955554
487,9.216995702750207,-203.57340569224363,112.77831713012976,-48.8324463905468,23.075637956977772,6.61121721508023,232.92135068030345,54.42566120460869
488,9.241518581879191,-203.6776608068604,112.80666552425195,-48.50208128003484,23.01635808760804,6.359672521057791,233.02750384874355,54.092076075605924
489,9.261940617112781,-203.78216655178534,112.81802393884401,-48.115384350751675,22.94934478495732,6.081871027930668,233.1255614520062,53.707007250808964
490,9.277831047893471,-203.88623132836437,112.81264179471057,-47.67916603108443,22.875220701283833,5.780484397111017,233.2150198867622,53.27682620240939
491,9.288902258033932,-203.9890628066117,112.79102410385528,-47.20046841982471,22.79473517815526,5.458520259421333,233.29541570429413,52.80816020245222
492,9.295005197052788,-204.089753310675,112.75392980057697,-46.68653475451078,22.708817293654107,5.119295145526416,233.36631177951293,52.30788606034565
493,9.296118663531441,-204.18727471833722,112.70236679978382,-46.144804120988354,22.61862166273891,4.766404922149431,233.42728999995066,51.78314294201796
494,9.292333957525294,-204.2804837513883,112.63758261479889,-45.58292735320252,22.525564314700343,4.403692501930451,233.47795074384223,51.24135961964554
495,9.283836396258376,-204.36813805145113,112.5610495250641,-45.00879756073216,22.43134674721131,4.035212019295689,233.51791906778567,50.69028958703334
496,9.27088509717053,-204.44892295872964,112.47444368402314,-44.430586359710766,22.33796708309854,3.6651883143019504,233.54685729481875,50.138045732146665
497,9.253792421256733,-204.5214883594412,112.37961810288067,-43.85677520934116,22.24771805569341,3.2979705094510474,233.56448347327068,49.59312511904956
498,9.232904561427647,-204.5844942944941,112.27856994603313,-43.296170768843226,22.163172247358183,2.9379786677580757,233.5705948320214,49.064414295726124
499,9.20858483932621,-204.63666328973562,112.17340288001874,-42.757894178430156,22.087155561173198,2.589642905061923,233.5650948660021,48.56116664984787
500,9.181201155858206,-204.67683674722505,112.06628536006684,-42.2513365900576,22.022710296779717,2.2573348741435497,233.54802220403118,48.092945646728644
501,9.151118585881433,-204.70403237334392,111.95940586255476,-41.78607673887738,21.973049386977443,1.9452922989879151,233.51957913375384,47.669530953955416
502,9.118697351324942,-204.71749948433552,111.85492625085872,-41.371760228328476,21.941503278116652,1.657538233841727,233.4801575974176,47.30078790573741
503,9.08429556860605,-204.71676897256444,111.75493462267708,-41.0179438474182,21.9314606027802,1.397797832933604,233.43036046721437,46.99650388114469
504,9.048275474875112,-204.7016946888635,111.66139902218917,-40.73391119146077,21.94630328896908,1.169416438143574,233.3710158732658,46.76619756491824
505,9.011011397396299,-204.67248314390105,111.57612330442373,-40.52846796488175,21.989336233751953,0.9752835526012174,233.30318242022807,46.618908642836956
506,8.97289755539534,-204.6297089318283,111.50070630674381,-40.40972669053934,22.063711307949117,0.8177676369500135,233.22814349262057,46.562976410679944
507,8.93435385705415,-204.57431414956474,111.4365054383447,-40.38489128829164,22.172345388040366,0.6986664886536398,233.14738958943298,46.605816271801736
508,8.895828141287708,-204.50759118597344,111.38460592316439,-40.460052191700484,22.317832415495303,0.619177106482139,233.0625886611895,46.75370330817624
509,8.857793794355498,-204.43114942573965,111.34579715387666,-40.64000228848934,22.502350173638707,0.5798874130414097,232.97554557296775,47.011572028774445
510,8.820742333774229,-204.3468675402159,111.32055771321528,-40.92808287113641,22.72756348327455,0.5807902136238491,232.88815288080224,47.382840910937205
511,8.785171311193395,-204.25683400871227,111.30905041153879,-41.32606690732304,22.99452672595019,0.6213176119645729,232.80233589563318,47.869269339967545
512,8.751568572588171,-204.1632791812375,111.31112816146234,-41.834084398809956,23.303589849974124,0.7003920667792521,232.71999537283077,48.470853011600326
513,8.720394380935685,-204.06850246836828,111.32635076271418,-42.45059169126961,23.654313135932384,0.8164885910585051,232.64295106938764,49.18576192648194
514,8.692063098638899,-203.97479819632494,111.3540118629754,-43.17238372954022,24.045396833187638,0.9677014630716596,232.5728889913663,50.01032300882526
515,8.666926065871781,-203.88438346978512,111.39317465753874,-43.99464581167646,24.474632137541622,1.1518083766408704,232.51131464339787,50.9390473644619
516,8.645257053412195,-203.79933114139035,111.44271436223426,-44.911039659615724,24.938879647151847,1.3663252662506578,232.45951411370075,51.96470043108817
517,8.627241278269862,-203.72151061627508,111.50136510150577,-45.913817705602675,25.43408027137474,1.6085460655453823,232.41852429790916,53.078411857792915
518,8.61296852888366,-203.6525385997309,111.56776854214068,-46.99395934087365,25.955301663622077,1.8755632987293727,232.38911285275972,54.26982092923739
519,8.602430558655843,-203.59374110754868,111.64052139665658,-48.141323340289695,26.496820927597355,2.1642675185580837,232.37176766237135,55.527252754741006
520,8.595522641487165,-203.54612737495702,111.71821894292924,-49.34481158443685,27.052241986565242,2.471325992220586,232.3666949973312,56.83792026306028
521,8.59204901735675,-203.5103758777268,111.79949208149162,-50.59254035226185,27.614643872975403,2.7931434589619744,232.37382534665176,58.18814718411911
522,8.591731814885785,-203.48683238960385,111.88303616877796,-51.872016644280684,28.17675444173485,3.125810006316517,232.39282598626068,59.563607507257196
523,8.594222888953702,-203.47551962956874,111.96763077827005,-53.17031801719033,28.73114273769342,3.46504294619189,232.42311945703656,60.949577228979074
524,8.59911786818439,-203.47615755225658,112.05215046468834,-54.47427508551523,29.27042247792433,3.8061308873082664,232.46390712783352,62.33119438860858
525,8.605971553505576,-203.4881928230222,112.13556739491831,-55.770656050840444,29.787458735142167,4.143888895539162,232.51419694601404,63.693723290079035
526,8.614313632068818,-203.5108356221228,112.21694730203768,-57.04635234389453,30.275569786027354,4.472633611847345,232.57283440953356,65.02281836573785
527,8.623663562291892,-203.54310170352412,112.29544058721753,-58.288563827356384,30.72871616280807,4.786186394625426,232.6385357759062,66.30478245370904
528,8.633543574284996,-203.58385764297336,112.37027049718837,-59.48498120142403,31.141669256168473,5.077910979116888,232.70992258384587,67.52681354237322
529,8.643489007359207,-203.6318674695149,112.4407201633792,-60.623962494658976,31.510152425077557,5.340789889488848,232.78555673249215,68.67723351650515
530,8.65305552052946,-203.68583925404008,112.50612002418313,-61.694700009902526,31.83094852633926,5.567541045403553,232.86397557928876,69.74569232578764
531,8.66182292712122,-203.74447046367354,112.5658368725866,-62.687373950502455,32.10196911555853,5.750772868883768,232.94372659675003,70.72334140741602
532,8.66939552939719,-203.80649082850985,112.6192654922227,-63.59328916031363,32.32228228304092,5.883172967167692,233.0234009438167,71.6029711056615
533,8.675399000390918,-203.87070122246456,112.66582353355516,-64.40499186227647,32.49209808916961,5.957722435194851,233.10166494974482,72.37910809882578
534,8.679474197224856,-203.9360068954904,112.7049499196469,-65.11636387948252,32.612712692012856,5.967925290966097,233.17728820307764,73.0480703059086
535,8.68126875365273,-204.00144349087884,112.73610668349926,-65.72269254404098,32.68641432609673,5.908040811053893,233.24916685422548,73.60797830163852
536,8.680427702913493,-204.0661946242675,112.75878379338636,-66.22071534996817,32.71635612129831,5.77330578974852,233.31634088975892,74.05872387151139
537,8.676584530042064,-204.12960027758166,112.77250626274687,-66.6086393481385,32.70640218814294,5.5601341077378414,233.37800443491884,74.40189791878971
538,8.669353869736836,-204.19115584155185,112.77684268160046,-66.8861361967925,32.66095432906975,5.266282444639219,233.43350856692462,74.6406813727931
539,8.658326643852417,-204.250502364309,112.77141432959964,-67.05431453407816,32.58476714060445,4.890973377100032,233.48235675390285,74.77970392779532
540,8.643067978629245,-204.30740935305275,112.7559043370381,-67.11567186094494,32.48275919009335,4.4349702466312335,233.52419385986474,74.82487630994937
541,8.623117929237724,-204.36175212824696,112.73006685709646,-67.07402843816503,32.35982744611134,3.900601743470868,233.55879045810218,74.78320233102768
542,8.597994891466545,-204.4134861222266,112.69373661829064,-66.93444588965892,32.22067131541381,3.2917377434878454,233.58602472992996,74.66257728588641
543,8.567201514965594,-204.4626206649474,112.64683931895225,-66.70313332398882,32.06963164123608,2.6137211385698054,233.60586439934121,74.47157932424683
544,8.530232874428693,-204.50919474066285,112.58940308877965,-66.38734381331514,31.91054898417151,1.8732628715851705,233.6183509846336,74.21926025990143
545,8.486586573864694,-204.5532569270956,112.521570816802,-65.99526390869225,31.74664451785971,1.0783089139052753,233.62358819991942,73.91494181011697
546,8.435774368386808,-204.59485125297132,112.44361272281269,-65.53589840717946,31.58042600418566,0.23788840019660923,233.62173571494642,73.56802244301426
547,8.377334869370515,-204.63401007573214,112.3559382418469,-65.01895173775284,31.413620683155237,-0.6380484863031033,233.6130087771432,73.18779887600742
548,8.310847065106762,-204.6707543810557,112.259106074561,-64.45470611324284,31.247136597926723,-1.538795957912446,233.59768348835615,72.78330490881764
549,8.235944754495192,-204.70510124934543,112.15383109454764,-63.853895150678504,31.081053802657852,-2.453056978855642,233.57610688943996,72.36316881853898
550,8.152332404023987,-204.73707765493876,112.04098676080096,-63.227570229535104,30.914646864971818,-3.3691050308027104,233.54871049289633,71.93548910758645
551,8.059803186232399,-204.7667392019816,111.9216018634241,-62.58695571257098,30.74643986158455,-4.274944572852419,233.5160255073217,71.50772709469008
552,7.958259921894618,-204.7941918179025,111.79685088226697,-61.94328862100911,30.57429452207949,-5.1584736311155455,233.47869770329925,71.08661386049474
553,7.847739321139742,-204.8196138971588,111.66803790721464,-61.30763877665627,30.395531190250587,-6.007653107874113,233.43749971939135,70.67806865153203
554,7.728439318599305,-204.84327606837647,111.53657475940734,-60.69070700788646,30.207080773136475,-6.810687410790654,233.39333864085205,70.28712618653923
555,7.600748454263055,-204.8655557657651,111.40395441695067,-60.10260172252618,30.005663876975454,-7.556219888896491,233.3472568884222,69.91787140206031
556,7.465275300840535,-204.88694414364983,111.27172099738746,-59.55259773545178,29.78799109456847,-8.233544435512828,233.30042481098,69.57338189325621
557,7.322875133612284,-204.90804352886062,111.14143748392932,-59.04888534159654,29.550976211375247,-8.832831641834193,233.25412389393293,69.25568043253001
558,7.174670598141247,-204.9295544645109,111.01465221307343,-58.598321744687716,29.291952199392586,-9.345364317239369,233.20972015103874,68.96570210880034
559,7.022063118228682,-204.95225235488442,110.892864915277,-58.206200441991754,29.008878441156185,-9.76377345820581,233.1686279937946,68.70328229271266
560,6.866732158351313,-204.97695469554606,110.77749290451546,-57.876056378780504,28.700526816945278,-10.082262414011952,233.13226564118975,68.46717230057759
561,6.710620144840046,-205.00448079923694,110.66983798002356,-57.6095251337261,28.366634280210206,-10.296804639271734,233.102003947556,68.25508905608349
562,6.555901777913331,-205.03560670486607,110.57105477127998,-57.40627277594284,28.008010540263573,-10.405299502729868,233.07911131363778,68.06380328600919
563,6.404937550019369,-205.07101847311378,110.48212150427076,-57.26400924065743,27.62659158505581,-10.407671439942904,233.06469794819134,67.88926810481468
564,6.260212471240402,-205.1112672990999,110.40381433633463,-57.17859229722392,27.225432944496955,-10.305900382984856,233.05966306215913,67.72678663474589
565,6.1242622355185485,-205.1567298607047,110.33668643230766,-57.14422199150494,26.808640548801606,-10.10397567756738,233.0646486145695,67.57121397146778
566,5.9995902444388856,-205.2075770985837,110.28105285652234,-57.15371764742639,26.381241383802365,-9.807771147190348,233.08000301847406,67.41718562636014
567,5.888579921984969,-205.26375416409715,110.23698217840986,-57.19886196914161,25.94900047920327,-9.42484500175625,233.1057577501203,67.25936171051218
568,5.793407491304826,-205.3249735460316,110.20429544480521,-57.27079029180041,25.51819472982528,-8.964174330379963,233.14161906270067,67.09267370020564
569,5.715960724991337,-205.39072240012422,110.18257280686367,-57.360398308514476,25.09535732429467,-8.435839377864193,233.1869759640506,66.91255884198581
570,5.65776902086898,-205.46028390363387,110.1711675730356,-57.45873927197979,24.68700883055723,-7.850677062873754,233.24092430191396,66.7151664179435
571,5.619949431843512,-205.5327711475353,110.16922692590167,-57.557382142070765,24.299391985042824,-7.219925692209235,233.30230537134278,66.49752055858335
572,5.603171998398446,-205.60717083909825,110.175718241754,-57.64870549945579,23.93822676027751,-6.554883208889595,233.3697561963313,66.25762636080282
573,5.6076460600044316,-205.68239313385436,110.1894599821876,-57.7261079246515,23.60850030297525,-5.866599507128208,233.4417677804439,65.99450979614798
574,5.6331274767000625,-205.75732341173284,110.20915626646554,-57.784123247841606,23.31430301240803,-5.165619529062892,233.51674721158514,65.7081870001239
575,5.678945156855432,-205.83087180055938,110.23343416797111,-57.818437757550775,23.05871776577073,-4.461788427589957,233.59307943675438,65.3995645054871
576,5.744044051029126,-205.90201669367502,110.26088246480136,-57.82581531020978,22.84376465766358,-3.7641236636376965,233.66918474267356,65.07027822325128
577,5.827040813788888,-205.96983934796185,110.29009029045504,-57.80394456783182,22.67039921432797,-3.080752309923576,233.74356856583097,64.72248484299081
578,5.926287675594668,-206.03354777819354,110.3196841177434,-57.7512295651387,22.53855839411357,-2.4189059154019463,233.81486123009324,64.35862413375
579,6.0399397920208315,-206.09248940722495,110.34836170102884,-57.66654969749347,22.44724615058374,-1.7849607810720896,233.88184638647493,63.981173703808814
580,6.166021540667306,-206.14615310598384,110.37492180466315,-57.549017312557375,22.39464907833615,-1.18450886433924,233.94347806029668,63.59241859141101
581,6.302487935454599,-206.1941622224308,110.39828871716409,-57.397759971489826,22.378272649600046,-0.622443894590571,233.99888715660717,63.194256425885364
582,6.447278404231258,-206.23626083983325,110.4175307661329,-57.21175026807957,22.39508956060748,-0.10304850532995212,234.04737896775637,62.78805511396029
583,6.598361402584108,-206.27229576766715,110.43187235705206,-56.98969957047421,22.441693382708564,0.36992910124969397,234.08842363616563,62.37457471560825
584,6.7537694801614006,-206.30219672433438,110.44069946655604,-56.73002421107371,22.514452617446675,0.7932168293810696,234.12164170905837,61.95395907416138
585,6.911625296637046,-206.32595692919796,110.44355898452584,-56.430884578486896,22.609661923484662,1.163982770680186,234.1467869503199,61.5257964338404
586,7.070159608257485,-206.34361589615256,110.44015271347551,-56.090290256147426,22.72368831396371,1.4798223809238957,234.16372840662683,61.089242244689196
587,7.227722435349572,-206.35524560107476,110.43032710281281,-55.706258619632884,22.85311030721208,1.7387668726817511,234.17243330661242,60.64319220707734
588,7.3827886070349935,-206.3609404848797,110.41405992315923,-55.27701064891286,22.994847422827814,1.9393092973013648,234.1729518007998,60.18648990138246
589,7.533958813807964,-206.36081112264122,110.39144518017311,-54.80118621823909,23.1462763393445,2.0804439994034705,234.1654040324906,59.718151396202764
590,7.679957251938885,-206.35498095145778,110.36267771443653,-54.27806152525023,23.305328832698343,2.161715011773966,234.14996970981795,59.237589007725894
591,7.819626886749159,-206.3435852415857,110.32803900973022,-53.707753176514785,23.4705656585907,2.1832692893875785,234.1268801997619,58.74481765449437
592,7.951923236680093,-206.3267714910764,110.28788546798904,-53.09139631094303,23.641220185328248,2.145911240160401,234.096413035131,58.240629725169136
593,8.075907363151416,-206.30470054498224,110.24263975918306,-52.431287563043576,23.817206133532576,2.0511556027167677,234.0588885224441,57.72672773663009
594,8.190738472342558,-206.27754788819144,110.19278512821677,-51.73098714723363,23.99908538079711,1.901276162763716,234.0146679212964,57.20580790645532
595,8.295666277528323,-206.24550467638866,110.13886206762133,-50.99537740665373,24.187994347624336,1.6993479352214884,233.96415253794333,56.681591639700926
596,8.390023140230221,-206.20877818251773,110.0814665934865,-50.230677502404056,24.385530665278797,1.4492802085670482,233.90778309057666,56.158805428093636
597,8.473216076007454,-206.1675915367356,110.02124936510911,-49.44441541271731,24.593605163290842,1.1558373149363688,233.84603888381858,55.64311248070654
598,8.544718967846817,-206.122182961952,109.95891497520921,-48.64535907654882,24.814267229337297,0.824643307339954,233.7794366645674,55.14100133713124
599,8.604065674543873,-206.0728050784764,109.89522086316843,-47.843408418191764,25.049513931037907,0.46216608832818473,233.7085294293762,54.659637638068
600,8.650844999661668,-206.01972514080316,109.8309754006862,-47.04944928942227,25.30109475460314,0.07567615617820762,233.63390576368357,54.2066851867184
601,8.684698589454934,-205.9632271699127,109.76703472146961,-46.27516939482033,25.57032434046572,-0.32682477158269857,233.55619039529168,53.79010169431119
602,8.70532273491652,-205.90361679688957,109.70429785606596,-45.532835527667714,25.857915174830733,-0.736709254461717,233.47604650584455,53.41791363353166
603,8.712474794892378,-205.84122923670287,109.64369976674105,-44.83503147321054,26.163840873127892,-1.1448662589284149,233.39418000082745,53.09797395705011
604,8.705984596139926,-205.77644023817254,109.58620198797463,-44.19435708009236,26.487238590176567,-1.5418802535105394,233.31134547284486,52.837706465681514
605,8.68577078807496,-205.70967923973188,109.5327807331739,-43.62309130035735,26.826356422418755,-1.918244901868332,233.22835310867063,52.64384145507917
606,8.65186178093829,-205.64144341508856,109.48441244028967,-43.13282524568165,27.178548699905754,-2.2646060559530774,233.14607534935118,52.52214881779295
607,8.604420523859758,-205.57231085316903,109.44205674288189,-42.73407513532485,27.540319077314425,-2.5720259088190236,233.06545171801673,52.47717675428982
608,8.543771881463329,-205.5029507645536,109.40663685301666,-42.43588890227799,27.907408554836564,-2.832257706479348,232.98748990276385,52.51200623519931
609,8.470430737596462,-205.43412836035102,109.3790174738407,-42.24546352677735,28.27492317119386,-3.038018567407429,232.91326100668255,52.62803284179942
610,8.385128368327797,-205.36670202740072,109.35998063411863,-42.16779224275214,28.637494254857536,-3.183246866388378,232.8438869686648,52.82478813161512
611,8.288834313775228,-205.30161079686752,109.35020011382534,-42.20536121980782,28.989462867534527,-3.2633304032610653,232.78051860840117,53.099812017049445
612,8.182771007798,-205.23985095418726,109.35021531227032,-42.35791413411943,29.32507940080141,-3.2752922670650557,232.7243035856669,53.44858591382365
613,8.068418687477928,-205.1824418621886,109.36040557770833,-42.6223004621874,29.638709102653706,-3.217922951119972,232.6763447286461,53.86453392913305
614,7.947508503484925,-205.1303824300039,109.38096629482332,-42.99241974267222,29.925034508742105,-3.0918498218193737,232.63765052634304,54.33909646997301
615,7.82200231546833,-205.08460093051755,109.41188836185087,-43.45926984086234,30.17924625037622,-2.8995383377856343,232.6090808735101,54.861877648334165
616,7.694058443055351,-205.04590188541496,109.45294285506978,-44.01110270813788,30.39721447289616,-2.6452232033318217,232.59129215618472,55.420864910334316
617,7.565983632351673,-205.01491436381772,109.50367248866955,-44.633686402430676,30.575634109831302,-2.334771596044785,232.5846862650008,56.0027164441117
618,7.440172623234594,-204.99204617299932,109.56339095524845,-45.310667321799556,30.712138486327472,-1.9754843929184496,232.58936803757598,56.59310907781125
619,7.319037874608797,-204.9774480319026,109.63119058748855,-46.02402185922622,30.805377109353355,-1.5758446480340176,232.60511503261873,57.177136556352906
620,7.204933032678724,-204.97099096786727,109.70595824666057,-46.75458220669129,30.85505497606407,-1.145225250750482,232.63136257748016,57.739745339084635
621,7.100074375695632,-204.97225900554474,109.78639900916941,-47.48261698892641,30.861932256969133,-0.6935695975252046,232.66720586392987,58.26619249228787
622,7.006464649862037,-204.98055797021465,109.87106704090175,-48.18844398108772,30.82778479822463,-0.23106017689463143,232.71141968474313,58.74250805122223
623,6.9258234910884156,-204.9949401469361,109.95840294117232,-48.853049642524034,30.75532756218721,0.2322098423048619,232.7624953861403,59.1559426936214
624,6.859528065318168,-205.01424365748153,110.04677670830011,-49.45868892338039,30.64810484741996,0.6865476326842144,232.81869374995853,59.49538102320149
625,6.8085666866161,-205.03714459616958,110.13453518831082,-49.98943907023744,30.51035274805524,1.1229415204373232,232.87811162692142,59.75170144568713
626,6.773507088994978,-205.06221914357891,110.22005236683691,-50.43168313989252,30.346840600045066,1.5333010893248502,232.93875914577654,59.91806563042788
627,6.754479909844553,-205.0880121736406,110.30178035999789,-50.77450261972279,30.162698908765716,1.910648956639148,232.9986434310635,59.99012384655692
628,6.751176946473893,-205.1131084228037,110.37829875130097,-51.00996374076129,29.96324136850101,2.2492597845973012,233.05585424110157,59.96612686769163
629,6.762862973034853,-205.1362021412178,110.4483600071563,-51.13328833557479,29.753788141158932,2.544745330349369,233.1086468250908,59.8469403347651
630,6.788399428086473,-205.15616129583762,110.51092879577632,-51.142906841109486,29.53949674096113,2.794087425514185,233.15551746088158,59.63596299498088
631,6.826278145981493,-205.1720828481591,110.56521304462272,-51.040397606719914,29.32520586694495,2.9956235045296524,233.19526753766942,59.33895555193999
632,6.874663447881773,-205.183336336597,110.61068478909085,-50.830322420964926,29.115296485945812,3.148991423704785,233.2270527829753,58.963791440719795
633,6.931441174909676,-205.18959383677307,110.64708949672898,-50.51997265364793,28.913573512444245,3.2550415922630638,233.25041528657601,58.5201442923495
634,6.99427350947053,-205.190845245857,110.67444338334117,-50.11904338253967,28.72317065440809,3.31572475581152,233.26529714378037,58.01912900498606
635,7.060658642452371,-205.18739868065518,110.69301893725554,-49.63925432540135,28.546480435946766,3.333963212376356,233.27203561569124,57.4729142267099
636,7.127994448452598,-205.17986652732344,110.70331937872348,-49.093936449261996,28.3851110049645,3.3135120546114374,233.2713406004767,56.89432378855534
637,7.193645229645979,-205.16913826596905,110.70604328279464,-48.49760194239209,28.239870931142022,3.2588155411076296,233.2642559531746,56.2964432982598
638,7.255010239433475,-205.15634160158726,110.70204122922975,-47.86551304949189,28.110782621763413,3.1748621998242057,233.25210683767972,55.692245845219794
639,7.309592202799081,-205.14279367570347,110.6922670446398,-47.21326247847023,27.99712412517263,3.0670409719128324,233.23643582406984,55.09424785639979
640,7.355063599407421,-205.12994423428484,110.67772674056663,-46.556375162470836,27.89749797648333,2.9409997349042905,233.21893077286816,54.51420299703792
641,7.389328228955238,-205.11931269108732,110.65942841749033,-45.909938508080536,27.809924503091203,2.802506954289394,233.20134767259182,53.962839046106566
642,7.4105756495843815,-205.1124211980449,110.6383361217805,-45.28826613907593,27.731955806119778,2.657317015765092,233.18543161633622,53.449640199255605
643,7.417326515921574,-205.1107261349536,110.61532999497771,-44.70459867117094,27.660805558277985,2.5110399545172295,233.17283907757323,52.98267540562196
644,7.408467514408323,-205.11555073268346,110.59117428715925,-44.17084420095794,27.593488836031312,2.3690167428512128,233.16506457361345,52.568472114158816
645,7.383275195043884,-205.12802175242945,110.56649417751535,-43.69736080339079,27.526965483108462,2.2362019043191426,233.1633747134084,52.21193406737344
646,7.341428305652939,-205.1490132655371,110.54176191854454,-43.29278317849644,27.458280094496317,2.1170558333687297,233.16875254186672,51.91630138301713
647,7.2830083468342295,-205.17910057108244,110.51729247406404,-42.96389543197194,27.38469172605715,2.015449647170831,233.1818549246552,51.68315095349169
648,7.208488302094291,-205.21852697264768,110.49324844414753,-42.715551582801645,27.303786911579827,1.9345855717626672,233.20298526854742,51.51243499624782
649,7.1187100321208385,-205.26718539842813,110.4696536403213,-42.550644563850184,27.21357047521197,1.8769357367216135,233.2320830400598,51.40255524107659
650,7.014851481258917,-205.32461585021633,110.44641420961176,-42.4701231255697,27.11252990467337,1.8442018045542674,233.26873047168286,51.35046965535391
651,6.898385311776232,-205.39001870242055,110.42334577547834,-42.47305423049095,26.999670624612094,1.837297057050028,233.3121758101105,51.35182780916092
652,6.771030750036059,-205.46228310502238,110.40020480258983,-42.5567264237968,26.87452126920124,1.8563514155423928,233.36137166740124,51.40113005706288
653,6.634700461352233,-205.54002917974617,110.37672237280648,-42.716787511341316,26.737109838538185,1.9007385226010152,233.41502652919993,51.49190473980908
654,6.491444343014621,-205.621662282003,110.35263868731238,-42.94740787833043,26.58791326333318,1.9691226855499604,233.47166716782291,51.61689663635947
655,6.34339221738163,-205.70543723235465,110.32773673295742,-43.24145914277036,26.427784295044514,2.059522381355171,233.52970944186447,51.768259021589046
656,6.192697377352566,-205.78953000215677,110.30187360184618,-43.59069680609418,26.25786077670511,2.169386244323183,233.58753461547866,51.93774111807089
657,6.041482730884151,-205.87211387406302,110.27500796014108,-43.98593541996256,26.079463246475775,2.295677005198243,233.64356791664449,52.11686274336826
658,5.891790997450892,-205.9514366805176,110.24722222964702,-44.417205752807234,25.893987438654417,2.4349587094199223,233.69635570759928,52.29706875438206
659,5.7455401161072235,-206.0258954235806,110.2187382935146,-44.87388555941683,25.70279847792279,2.5834827348639147,233.74463748427496,52.46985752054202
660,5.60448472720961,-206.09410443556948,110.18992594800346,-45.34479867443139,25.50713330819694,2.737268696755535,233.78740897976144,52.62687998797015
661,5.470184268989944,-206.1549533232472,110.16130373705381,-45.81828096049169,25.308017103325824,2.8921772738823557,233.8239729057784,52.7600086823759
662,5.343977935553973,-206.20765134549504,110.13353213593274,-46.28221574354999,25.10619813460767,3.0439732373688466,233.8539743696718,52.86137893315382
663,5.226966535093261,-206.25175562498558,110.10739934764965,-46.7240453149804,24.902104024984087,3.1883783737763403,233.8774187968077,52.92340736751234
664,5.120001149542448,-206.28718157576992,110.08380028834061,-47.13076846857427,24.69582076117109,3.321115429349637,233.89467119282227,52.938795050392784
665,5.0236783711905035,-206.31419497282303,110.06370965350536,-47.488936564795004,24.4870944291468,3.4379455289921173,233.9064366420024,52.90052431493252
666,4.938341777848055,-206.33338607723698,110.04815028577862,-47.784662054836666,24.275354420326853,3.5347025871850697,233.91372295654907,52.80185915189115
667,4.864089263058355,-206.3456271237993,110.03815841794821,-48.00365361144615,24.059755827875236,3.607328865036763,233.91778733983233,52.63635888522721
668,4.800785876961224,-206.35201529253456,110.03474766025744,-48.13129094929055,23.839237968858214,3.651915930471948,233.9200697819601,52.39791375105409
669,4.748081876323719,-206.35380403724477,110.03887369600794,-48.15275011541417,23.612595489736243,3.664754839972269,233.92211661321335,52.08080901059163
670,4.705435611555716,-206.35232630262087,110.05140147322227,-48.05318666089727,23.37855830885895,3.642398442234092,233.92549813941292,51.679821523893146
671,4.672140665121279,-206.3489136663572,110.07307628058612,-47.81798001515873,23.135876593660797,3.581737384836033,233.93172454187908,51.190349541946766
672,4.647356410399427,-206.3448157386291,110.10449956922649,-47.433038049019906,22.88340696102502,3.480089775945864,233.94216424022204,50.608573200281
673,4.630141017175134,-206.34112420319613,110.14610982537639,-46.885156673500056,22.620196155616195,3.335302636498999,233.95796870304275,49.93164020634874
674,4.61948592409426,-206.3387056670068,110.19816835375197,-46.16242563285991,22.345558707215908,3.145861422694056,233.98000729338534,49.15786876897281
675,4.614350901098911,-206.33814697130097,110.26074967075631,-45.254668478271924,22.059145506280114,2.911002183196511,234.0088152115328,48.28695797369933
676,4.613699000522434,-206.33971581156297,110.33373636508301,-44.15390207342846,21.761000727915555,2.630819559954356,234.04455696935668,47.320194500130945
677,4.616530870688266,-206.34333850009946,110.41681855697311,-42.85479896985549,21.451604930589976,2.3063630577844703,234.08700707348572,46.26064379650275
678,4.621917977976433,-206.34859560382162,110.50949821777809,-41.355134721783216,21.131902455439736,1.9397139066291342,234.13554868894406,45.113313671993325
679,4.6290341855515305,-206.3547350887275,110.611098506393,-39.65620177027392,20.803311588835143,1.534035397187802,234.18919003238835,43.88527886149889
680,4.637184867583313,-206.3607015892483,110.72077799357429,-37.76317189586452,20.467716466051954,1.0935906903576953,234.2465972089635,42.585756488445256
681,4.645832361731071,-206.36517961508812,110.83754926814127,-35.68539030488691,20.12744042245363,0.6237236938898331,234.30614130953603,41.226124383263574
682,4.654616215789992,-206.36664799238426,110.9603010618341,-33.4365860288827,19.785201351491924,0.1308005665730946,234.36595695379137,39.81987669424169
683,4.6633665573556815,-206.3634426053068,111.08782283016829,-31.03498533198059,19.444050459127478,-0.37788842889366914,234.42400916470007,38.382513897156
684,4.672109153420349,-206.35382450725112,111.21883075264438,-28.5033170811883,19.107296481964276,-0.8942648976894458,234.4781654807813,36.93136690234558
685,4.681061292920607,-206.33605064195285,111.35199428356292,-25.868701404122856,18.77841789244855,-1.40963243819018,234.52627045547078,35.485357259067705
686,4.690618332361379,-206.30844467293807,111.48596254799872,-23.162415387190972,18.460965859824235,-1.9148757594446455,234.5662200118788,34.0646973859278
687,4.701331449910537,-206.2694656884882,111.6193899623119,-20.419532076675935,18.15846085797016,-2.4006825201502178,234.59603341088706,32.690536349658025
688,4.713877837592199,-206.21777279437154,111.75096046214887,-17.678431693263676,17.87428594151922,-2.8577809007320956,234.61392081950547,31.38455806812726
689,4.7290252154270425,-206.15228383101805,111.8794096453545,-14.980186906354609,17.611579946870748,-3.2771855635579366,234.6183446390883,30.168540086041165
690,4.747593056067352,-206.07222666219093,112.00354400140415,-12.36782750062548,17.373134203201385,-3.650444563243207,234.60807288232394,29.063882465662733
691,4.770413068882063,-205.97718167686227,112.12225629138007,-9.885494004689145,17.16129665174473,-3.9698798230899848,234.5822230107278,28.091117952334685
692,4.798291215109709,-205.86711431195553,112.2345361977801,-7.577494787164905,16.977887450767618,-4.228813942371785,234.5402948114163,27.269416300833846
693,4.831972921478585,-205.74239653272002,112.33947565924741,-5.487286480152585,16.82413012198601,-4.421776366735392,234.48219113523487,26.61609721174664
694,4.872112455441803,-205.60381634189935,112.43626879319729,-3.6564029853405757,16.70060204794167,-4.544682364895217,234.4082256561423,26.146167406558437
695,4.91924683566392,-205.45257459145853,112.52420686766021,-2.123363297013808,16.607207638969236,-4.594978777437148,234.3191172450756,25.871897618141105
696,4.973774293964487,-205.2902686381187,112.60266934125059,-0.9225924144729039,16.5431767187824,-4.571751088151085,234.21597104522345,25.802454365794844
697,5.035937145037505,-205.11886267310894,112.67111254384984,-0.08339225127654606,16.50708959197091,-4.475787011249268,234.10024684942408,25.943599195434977
698,5.105808849559153,-204.9406448768641,112.7290580497985,0.3709995811555686,16.496928839271135,-4.309592545836411,233.97371588676123,26.297464822716442
699,5.183285047163259,-204.75817194966046,112.77608300178122,0.4242259948124013,16.51015619689847,-4.077357409173009,233.8384075722078,26.86241388111965
700,5.268078436993081,-204.57420205782995,112.8118144040776,0.06746698286742728,16.543811099446636,-3.784868011503034,233.6965480868821,27.632982468320346
701,5.359717583483909,-204.39161776991398,112.83592872660401,-0.7000940666910415,16.594625869745776,-3.439367763144226,233.55049280422062,28.59990802708684
702,5.457549910464159,-204.2133411124077,112.84815721055956,-1.8710192787663906,16.659151352497112,-3.049366573267793,233.40265461264164,29.750239595736414
703,5.560749188204253,-204.04224346685314,112.84829627622032,-3.4295984860313053,16.733886132336266,-2.6244038894582298,233.25543023070824,31.067528044496065
704,5.668327660016407,-203.8810536153277,112.83622165795511,-5.352074816714206,16.81540238926623,-2.1747723700323784,233.11112674877077,32.532094241649965
705,5.779152665553078,-203.73226765592764,112.81190450743183,-7.607115054688436,16.900461911386383,-1.7112119611242964,232.9718908046064,34.121373696794166
706,5.891967352289783,-203.59806463136616,112.77542770592389,-10.156516988123188,16.986116736617568,-1.2445863940457078,232.83964290274787,35.81033657348779
707,6.005414909688483,-203.4802315970419,112.72700088708008,-12.956136733644987,17.06979020564508,-0.7855556350968154,232.71601940866486,37.571981531858356
708,6.118065656164818,-203.38010157867032,112.66697311463334,-15.957010075955179,17.14933572039945,-0.34425847765748513,232.60232472096658,39.377900260582635
709,6.228446210421,-203.29850739686526,112.59584274864923,-19.10663350666039,17.223072068910973,0.06998075331349696,232.49949599720352,41.19890660290653
710,6.335069945590671,-203.23575365420584,112.51426464112042,-22.350363229750563,17.2897956904995,0.4489084747477707,232.40808250909456,43.00571993819552
711,6.436468006805461,-203.1916084084335,112.42305520183461,-25.63288437386706,17.34877162579878,0.78555000147234,232.32824122533992,44.769687285300996
712,6.531220310204369,-203.16531529004442,112.32319588586793,-28.899698477434935,17.39970602094486,1.0743609428793324,232.25974955827405,46.46352305262727
713,6.617986023064017,-203.1556260068393,112.21583525977222,-32.098575320797316,17.442703851022554,1.3113161951471684,232.20203530552217,48.062040273614606
714,6.69553300641043,-203.16085223736187,112.10228918062145,-35.18091552729376,17.478215988200834,1.4939343145174568,232.1542226895498,49.542843364855806
715,6.762765645479584,-203.17893493992437,111.9840380405358,-38.1029731308806,17.50697991622364,1.6212387235903454,232.11519225842292,50.88695061577977
716,6.81875047873655,-203.20752826711066,111.86271969984512,-40.82689260920488,17.529958318848696,1.6936608206234354,232.08365151571206,52.07931523630966
717,6.86273906581048,-203.24409462121272,111.74011672074047,-43.32152273668074,17.54827942769744,1.712893330973674,232.05821256668744,53.10921707072538
718,6.894187560561471,-203.28600684816982,111.61813676643104,-45.56297981102179,17.56318237807003,1.6817048944780493,232.03747271681115,53.970502931711636
719,6.912772422515909,-203.3306531488585,111.4987854574604,-47.53494480064751,17.575969914126016,1.6037287207919053,232.02009379356133,54.66166146259692
720,6.918401560742349,-203.3755400670348,111.38413150297649,-49.22869187809541,17.587969684616823,1.4832390571775125,232.00487601664238,55.18572771146161
721,6.911219995715406,-203.4183889355186,111.27626447429331,-50.642858546336655,17.600504174465193,1.3249291710281992,231.9908225166954,55.55002217028418
722,6.891609011908496,-203.45722141989307,111.17724605331297,-51.78297900310294,17.61486815670746,1.1337035505932167,231.97719104653686,55.765737832994375
723,6.860177932266546,-203.49043029247213,111.08905588879696,-52.66081163113018,17.632311609890923,0.9144950981548171,231.96353000893868,55.84739603121801
724,6.817748124286838,-203.51683231458284,111.01353338765814,-53.29349808797041,17.654025506346034,0.6721153521366494,231.94969668503344,55.81219700211685
725,6.765329547887259,-203.5357010912031,110.95231704371422,-53.70259542101254,17.681127805818463,0.41114246471350435,231.9358565644689,55.67929435211766
726,6.704090876101373,-203.54677889144443,110.9067833874532,-53.913024363092156,17.714647333088624,0.1358480832668458,231.92246391958943,55.46902415210435
727,6.635324741557773,-203.55026754427678,110.87798824232885,-53.95197703643862,17.755503867368287,-0.14983921339403392,231.91022504521823,55.20211978671979
728,6.560409871000577,-203.54679954711122,110.86661348811305,-53.84782616933887,17.804483603170116,-0.4423392967741179,231.90004673577852,54.898943212470876
729,6.480771822009368,-203.53739152398822,110.87292278385222,-53.62907583949521,17.86221004019303,-0.7384022314970752,231.89297356307873,54.57876207305908
730,6.397843875158199,-203.52338316205837,110.89672957876871,-53.32339069955496,17.92911124316792,-1.035074980677536,231.89011832177002,54.25910012155755
731,6.313029456647177,-203.5063655746994,110.93738020193922,-52.95673646296116,18.005385239110566,-1.3296615633059223,231.89259046533704,53.9551854602143
732,6.227667293852237,-203.4881034466021,110.993753973281,-52.55265899463083,18.090966035987773,-1.6196840135893225,231.901427300657,53.679517095848844
733,6.143000367539493,-203.4704552169248,111.06428131002117,-52.131722719212746,18.185493272187873,-1.9028496078702946,231.9175321522406,53.44156523308986
734,6.060149626817919,-203.45529503817198,111.14697981544072,-51.71112153990094,18.288288776679458,-2.1770275352817126,231.94162277456203,53.24761480413696
735,5.980093245995357,-203.44443945169357,111.23950729466273,-51.30446750516469,18.3983433127758,-2.44023581967897,231.9741920898253,53.10075530262033
736,5.903651758804973,-203.4395808079656,111.3392295471964,-50.92175448926835,18.514316480296703,-2.690637135399358,232.01548200044937,53.0010133691387
737,5.831478800438037,-203.44222866195452,111.44329980488267,-50.569486468541186,18.634552146606506,-2.926540461076716,232.06546985163058,52.9456180076801
738,5.764056785849758,-203.4536598901379,111.5487460302022,-50.250952845155375,18.757110885592567,-3.1464045405806567,232.12386637894053,52.92938205463204
739,5.70169689282046,-203.47487811341497,111.65256204978974,-49.966627044489805,18.879819799057973,-3.3488390400264505,232.1901237201072,52.94517796143121
740,5.644543067957256,-203.50658302422258,111.75179862760797,-49.71465972041875,19.000338894344353,-3.532600077102964,232.26345214989598,52.98448156142441
741,5.592580103437007,-203.5491502567482,111.84365096369534,-49.49143472042506,19.116242027715042,-3.69657821918169,232.342844418948,53.037954674907226
742,5.545645888401884,-203.6026223999588,111.92553955470055,-49.29215468369643,19.225109398829517,-3.8397787701981763,232.42710675554522,53.09603636353585
743,5.503447675522524,-203.66671157768403,111.99518172053808,-49.11142375093833,19.324627738744095,-3.961295872893417,232.51489560171532,53.14951334500172
744,5.465581795064436,-203.74081371025693,112.05065143474535,-48.9437971722585,19.41269366577775,-4.060283380299046,232.60475903281434,53.190042324925216
745,5.431555967699941,-203.82403414633694,112.09042561355957,-48.78427135442877,19.487515184661998,-4.1359264320761735,232.69518168179997,53.210600544756694
746,5.400813345395796,-203.915223823723,112.11341584911396,-48.628692845344034,19.547706008170564,-4.187418141675287,232.7846319303484,53.205845467549395
747,5.372757533369509,-204.01302453036845,112.11898556835735,-48.474070670584204,19.59236736099161,-4.213945729152574,232.87161010234172,53.172370038282565
748,5.346777912098033,-204.11592126872384,112.10695346036688,-48.318782969545055,19.621152257812653,-4.214689786176591,232.9546963161765,53.1088460749062
749,5.322274499889042,-204.2222992408522,112.0775845476994,-48.162675515479144,19.634307956881184,-4.188839153383382,233.0325964803305,53.01605461177478
750,5.2986814430154725,-204.33050262149126,112.03157049877055,-48.00705590288748,19.632693342273726,-4.135622264414398,233.10418470879554,52.89680792521671
751,5.2754881174433965,-204.438892145481,111.9700008106374,-47.85459257672154,19.617769322164012,-4.054353992945345,233.16854031786164,52.75577317521569
752,5.252256852447167,-204.54589867497575,111.89432643123807,-47.70913229124076,19.591561881639254,-3.94449527988402,233.22497765435838,52.59921193961971
753,5.228636442807148,-204.6500703101838,111.80631727145197,-47.57545293210858,19.556599098230258,-3.8057213543551267,233.27306729717156,52.43465330054043
754,5.204370843585698,-204.75011111420218,111.70801488493575,-47.458970824402115,19.51582505384481,-3.637993363340688,233.3126475372132,52.27052044366944
755,5.179302664432759,-204.84490998024964,111.60168137476185,-47.36542261085508,19.472494968741117,-3.4416277426321535,233.3438253391005,52.1157318307454
756,5.153371284247015,-204.9335585978611,111.48974536831993,-47.30054150556254,19.430056892539096,-3.2173576552506233,233.36696626042115,51.97929784865849
757,5.126605677292841,-205.01535805838765,111.37474580361403,-47.26974625686295,19.392025843592993,-2.9663812284265507,233.38267327324613,51.8699324545338
758,5.099112472954316,-205.08981447955244,111.25927440371856,-47.2778585870803,19.361856397828696,-2.6903920929174054,233.391755242477,51.79569682874425
759,5.071060311946285,-205.1566249432314,111.14591802288587,-47.32886141367939,19.342819426128397,-2.3915888500789557,233.3951867787066,51.76368862211554
760,5.042662009171038,-205.21565570701156,111.03720226328875,-47.42570618582458,19.33788797693777,-2.0726615141594698,233.39406188348727,51.77978639705142
761,5.01415621852684,-205.26691491785996,110.93553765420802,-47.5701737346129,19.34963621694452,-1.7367545462565428,233.3895439941639,51.848454790429116
762,4.985790206317275,-205.31052203555376,110.84316931763698,-47.762789596914025,19.380153980513427,-1.3874075918874527,233.38281483956496,51.97261219472046
763,4.957805042435008,-205.34667604382287,110.76213071084669,-48.00279202354885,19.430978034153192,-1.0284763115146731,233.37502423758568,52.15355959514994
764,4.930424071196036,-205.37562436344066,110.69420196828781,-48.28814880563439,19.503039864497566,-0.6640367438623764,233.36724277928585,52.39096669290995
765,4.903845019346303,-205.39763415574282,110.64087354498471,-48.615617599927894,19.596628852953113,-0.29827752469708113,233.36041922081878,52.68290963619932
766,4.878235659467142,-205.41296737448243,110.6033160950647,-48.980843571061776,19.71136924762101,0.06461495197004773,233.35534421514384,53.0259536052818
767,4.853732632979333,-205.4218605089981,110.58235762734562,-49.378487817944176,19.846209408296172,0.42057271023101606,233.35262169562338,53.41527309849501
768,4.8304428420814425,-205.42450956664183,110.57846892335093,-49.80238008038902,19.99942228720812,0.7657575838194186,233.35264884566357,53.84480288695815
769,4.808446748381072,-205.42106057735393,110.59175800873292,-50.24568946759422,20.168616879306576,1.0966616623311547,233.35560526303493,54.30741304846066
770,4.787802979108522,-205.4116057648148,110.62197414576484,-50.70110724547032,20.350761320561723,1.4101910293394744,233.36145165555587,54.795102067422015
771,4.768553796550836,-205.39618538819795,110.6685213635496,-51.16103596334644,20.542219299985664,1.7037278451274498,233.36993807193193,55.29920256232365
772,4.750731139534052,-205.37479499344863,110.73048101499545,-51.61777940615171,20.738802253431302,1.9751670051245815,233.38062119144428,55.81059470626079
773,4.734363024811356,-205.34739742995697,110.80664237597051,-52.06372809518982,20.93584014366296,2.222925108893906,233.3928896352872,56.319922805095686
774,4.719480091749657,-205.313938594266,110.89554001889488,-52.49153538498517,21.128273302777025,2.4459212747174464,233.40599577949138,56.81781077980046
775,4.706122005831912,-205.27436556087815,110.99549661493171,-52.894279662291005,21.310766788511245,2.643531346086487,233.41909224362925,57.29507250217083
776,4.694343317917938,-205.22864564775924,111.10466984747207,-53.26560875915801,21.477847104259777,2.815519081395465,233.4312711398047,57.74291309684963
