time,ax,ay,az,gx,gy,gz,accmagnitude,gccmagnitude
0,-11.141967871684093,-261.05211306162636,-8.068367569066044,-16.45606516921624,69.22481231701825,-6.077527257777101,261.414302533078,71.29348616248471
1,-11.261484627072093,-260.57778576880315,-8.110539065585414,-16.999600039881553,68.93865303223676,-6.258135639613013,260.948292422756,71.18712547543274
2,-11.3740908401506,-260.10992435274017,-8.144667476172106,-17.541494260903704,68.65033397297451,-6.431120168975216,260.48820259714086,71.07863287166158
3,-11.478706807340261,-259.6525556273472,-8.170694604186286,-18.080321786920486,68.36241723898041,-6.595375661193665,260.0380002563054,70.97038640182649
4,-11.574344138528904,-259.20945982093656,-8.18869041141858,-18.61503294266629,68.07733240480782,-6.749921847726801,259.6014142258299,70.86477786215171
5,-11.66012518530812,-258.7840846218362,-8.198857235015465,-19.144966365532948,67.79732420162514,-6.8939161459240985,259.18185015125374,70.76415811531987
6,-11.735301894087131,-258.37947542620213,-8.201530665404032,-19.66984859238812,67.52440678295265,-7.026666820584715,258.7823217406937,70.67078416722266
7,-11.799273460813085,-257.9982241363867,-8.197176840812013,-20.18978059815562,67.26032624491296,-7.147646191296821,258.405400365761,70.58676955031282
8,-11.851602204472306,-257.642437455339,-8.186386123997087,-20.705210753711178,67.00653291545325,-7.25650315053356,258.05318393863746,70.51403944716077
9,-11.8920271703186,-257.3137243302032,-8.169863284288594,-21.21689400350741,66.76416457388558,-7.353073998459862,257.72728470180317,70.45429173565255
10,-11.920474964377561,-257.01320110749697,-8.148414427554624,-21.725837488352255,66.53404128007656,-7.437390456409736,257.42883448098786,70.40896479462275
11,-11.937067182933532,-256.74151216888583,-8.122931015558619,-22.233233281123834,66.31667193293816,-7.5096836699016665,257.1585051567856,70.37921250601808
12,-11.942123678567931,-256.498863312671,-8.094371433541792,-22.740379374797868,66.11227202499306,-7.570383055423927,256.9165416057483,70.36588642126111
13,-11.936160931824984,-256.2850648363005,-8.063740732320671,-23.24859063348807,65.92079130216398,-7.620108999373586,256.7028040590143,70.36952454151843
14,-11.919884955623568,-256.099581104887,-8.032069353750176,-23.75910213779241,65.74194925643795,-7.659658688487518,256.5168166686575,70.39034568800943
15,-11.894178361248272,-255.941583403636,-8.000391769557256,-24.27296820406454,65.57527573236595,-7.689984737429937,256.3578190961889,70.42824815067516
16,-11.860081440862167,-255.8100031192711,-7.96972598764292,-24.790961249482006,65.42015356182013,-7.712166788140173,256.22481819338253,70.48281130872229
17,-11.818767424641738,-255.7035827191574,-7.941054820999192,-25.3134754884238,65.2758601135531,-7.72737687939073,256.116637278898,70.55329922414018
18,-11.771512495874145,-255.62092245972067,-7.915309663951388,-25.840441028297118,65.14160492075928,-7.736840062773076,256.03196099125745,70.63866572482753
19,-11.719661655488483,-255.56052120057893,-7.893357253501374,-26.37125413621976,65.01656105290171,-7.741792364582693,255.96937416022763,70.73756107861234
20,-11.664591992102721,-255.52081021480075,-7.8759895803961815,-26.904729186559532,64.89988854668988,-7.743438641211696,255.92739366645927,70.84834089363207
21,-11.607675206439911,-255.5001795595487,-7.863916895746708,-27.43907706289244,64.79074892909867,-7.742913051196622,255.90449293984165,70.96907827900542
22,-11.550241295879548,-255.49699733431942,-7.85776365410084,-27.971913597067182,64.68831060330926,-7.741244729487167,255.8991195065894,71.09758052086171
23,-11.493545127682234,-255.50962279310312,-7.858067119266695,-28.50030002273226,64.59174562885327,-7.73933083141956,255.90970661829596,71.23141159372244
24,-11.438737294338765,-255.5364146135391,-7.865278152233969,-29.02081551344961,64.50021920836843,-7.737918506352313,255.93468030702934,71.36792177993225
25,-11.386840296504513,-255.5757356474674,-7.879763444919912,-29.529659873810875,64.4128739026051,-7.737596664897156,255.97246320426174,71.50428549861776
26,-11.338730851643723,-255.62595529582686,-7.9018082717799505,-30.02278258176174,64.32881108146988,-7.738797668205352,256.0214762590944,71.63754808760152
27,-11.295128926599014,-255.68545040049602,-7.93161881156232,-30.496032787724573,64.24707230026657,-7.741808292996957,256.08013922880804,71.76468171406891
28,-11.256593722788148,-255.7526053329429,-7.969323283764589,-30.94532360835164,64.1666231959136,-7.746788551557913,256.14687059366116,71.8826498693004
29,-11.223526174516254,-255.82581184300543,-8.01497150621664,-31.36680311874493,64.08634217773809,-7.753796296534124,256.22008742190667,71.98847910456556
30,-11.196176776334418,-255.90346921108005,-8.068532922009942,-31.75702388508578,64.00501565055751,-7.762815140612788,256.29820568423116,72.07933584049226
31,-11.174657136131847,-255.98398528167613,-8.129893556844706,-32.113102767940745,63.92134078275148,-7.773783098430048,256.3796415548196,72.1526053068079
32,-11.158953679978508,-256.0657789795257,-8.198852642854483,-32.432863135808596,63.833936036193805,-7.786619467419958,256.4628142712924,72.20596908868242
33,-11.148942188379978,-256.14728485269933,-8.275119698175635,-32.714952574962815,63.741358971609046,-7.801247760930167,256.5461510786129,72.23747753069898
34,-11.144402101624781,-256.2269600355441,-8.35831266528785,-32.958930613601474,63.64213034295554,-7.81761294882165,256.6280946305365,72.2456134583617
35,-11.145029777428402,-256.30329385171257,-8.447957375283826,-33.16532277587462,63.53476321933801,-7.835691792756637,256.70711304390164,72.22934428014403
36,-11.15045020474263,-256.37482015719917,-8.54348828911249,-33.33563926213635,63.41779578440423,-7.85549564354314,256.78171267946414,72.18816040454738
37,-11.160227100732834,-256.44013240078067,-8.64425032672443,-33.472358513253354,63.289826495437495,-7.877065685260702,256.8504536113351,72.12209888812244
38,-11.173871706086368,-256.4979011271979,-8.749501699005929,-33.578877705200924,63.149550367806185,-7.900461261830891,256.91196751546437,72.03175218469826
39,-11.190850734602753,-256.54689324303206,-8.8584179500345,-33.65943375655804,62.9957952439729,-7.925742573178684,256.96497732103916,71.9182627145482
40,-11.21059378785126,-256.5859919569709,-8.970097738848406,-33.71899967465042,62.827557012023256,-7.952949600015173,257.00831756880774,71.78330468705323
41,-11.23250030723058,-256.6142161240133,-9.083571092940245,-33.76316197236834,62.64403286075535,-7.982079515157896,257.0409542373143,71.62905516323369
42,-11.2559460160112,-256.63073787001395,-9.197810898355609,-33.79798540782508,62.44465175279176,-8.01306502034831,257.0620029415001,71.45815666957937
43,-11.280288863460285,-256.6348977196197,-9.311748209565186,-33.82987139395819,62.22910130418901,-8.045756021798958,257.0707447512564,71.27367370605431
44,-11.304874644373779,-256.6262168079581,-9.42429150334748,-33.865416090813135,61.99735018547914,-8.07990683774284,257.06663922690524,71.07904523906468
45,-11.329042611713753,-256.60440606956627,-9.53434935684339,-33.91127348672923,61.749665087194266,-8.115170710476482,257.0493345667958,70.87803483560955
46,-11.352131437213185,-256.56937259047976,-9.640855456557164,-33.97402780239391,61.4866213139459,-8.151102796667116,257.0186750360151,70.67467961001361
47,-11.373485763218678,-256.52122356070356,-9.74279452501633,-34.060078417808484,61.20910624108791,-8.187172107492046,256.9747060784714,70.47323872341039
48,-11.392463365402564,-256.4602684026904,-9.8392277223879,-34.17553930028097,60.9183151943489,-8.222782144934815,256.9176776399362,70.27814184540047
49,-11.408442722309589,-256.38701959645806,-9.929316338090938,-34.3261536713618,60.6157397381764,-8.257299290769877,256.8480461727945,70.09393774157705
50,-11.420830663030687,-256.30219244317163,-10.012343061543193,-34.517223500674184,60.30314876639365,-8.290087394361148,256.76647552576253,69.92524293837067
51,-11.429069770175168,-256.20670357161197,-10.087730613148226,-34.753552500737456,59.98256304464106,-8.32054650231756,256.67383650217783,69.77669018879355
52,-11.432645340855787,-256.10166752138764,-10.155057807724186,-35.03940074213641,59.65622387453574,-8.348153309858404,256.5712044149934,69.65287620956543
53,-11.431091900267827,-255.98839035386482,-10.214073104750074,-35.37844885854542,59.32655638449973,-8.372500754145722,256.45985359021466,69.55830795933338
54,-11.423999427773143,-255.86835904948592,-10.264705408050007,-35.77377002903807,58.99612778797455,-8.393334260106442,256.34124757378106,69.49734673303153
55,-11.411019544224203,-255.74322552154865,-10.307071483937156,-36.22780839680586,58.66760097464222,-8.410582453445025,256.2170238566006,69.47414966348312
56,-11.391871952758057,-255.61478440925967,-10.341479102512114,-36.74236313735643,58.34368406204072,-8.424380581940925,256.0889722553857,69.49260879248655
57,-11.366351428311228,-255.48494434965036,-10.368425016120634,-37.31857786875881,58.02707693470609,-8.435085349064504,255.95900662171127,69.55628852477506
58,-11.334335517101591,-255.35569313296384,-10.388587170595896,-37.956935432012195,57.72041618875831,-8.443280304339117,255.82913025948318,69.66836284028919
59,-11.29579276194711,-255.22905794913734,-10.402810995908586,-38.65725826574513,57.42622017790925,-8.449771337809368,255.70139623514766,69.8315540241968
60,-11.250790825230553,-255.1070626056041,-10.412090100436124,-39.41871466308678,57.146835996922256,-8.455572232404842,255.57786443620324,70.04807486584092
61,-11.199503598523739,-254.99168387143905,-10.417542094008873,-40.23983109787343,56.884390267304155,-8.461880681680968,255.46055751133545,70.3195762870875
62,-11.142216446865396,-254.88480895167092,-10.420380565196108,-41.11851050153135,56.64074552436285,-8.47004566015919,255.35141768856357,70.64710217579588
63,-11.079329062327531,-254.7881957381782,-10.421884426893303,-42.05205588206624,56.41746382978147,-8.481527466248165,255.25226613258263,71.03105281003924
64,-11.011355727374093,-254.70343711694886,-10.423365877353595,-43.0371981181506,56.215778944045056,-8.497852084823025,255.16476615227336,71.4711577144619
65,-10.938922903987978,-254.6319302699557,-10.426138095416981,-44.07012627988391,56.03657802627962,-8.52056171858898,255.09039122856734,71.96645820241201
66,-10.862764007161543,-254.57485158001694,-10.43148358810413,-45.14651849614205,55.880393449005126,-8.551163409202507,255.0303984935508,72.5152993206143
67,-10.78371118010814,-254.53313746765676,-10.440623970389458,-46.26157119637649,55.74740497328805,-8.591077600662723,254.98580800781187,73.11533046583708
68,-10.702683965420224,-254.50747129402765,-10.454691951508652,-47.41002450511121,55.637452239874605,-8.641588280999027,254.9573879966192,73.76351360532051
69,-10.620674924745064,-254.4982763278892,-10.474706352576206,-48.586181727772384,55.55005726367593,-8.70379600081392,254.9456460847925,74.45613783361702
70,-10.538732463941919,-254.50571466561343,-10.501550928150285,-49.78392130604578,55.48445630798779,-8.778574704466786,254.95082647241952,75.18883894897964
71,-10.45794138395789,-254.52969188048928,-10.535957543525795,-50.99670036062141,55.4396401038737,-8.866533044729303,254.97291288482245,75.95662282373019
72,-10.379401951958146,-254.56986695224802,-10.578493935853974,-52.21754998566748,55.41440088862711,-8.967980732197743,255.01163690324654,76.75389160792024
73,-10.30420842720271,-254.62566660560677,-10.62955595857605,-53.439063814174425,55.40738428923047,-9.08290044666077,255.0664908529194,77.5744723371596
74,-10.233427877234172,-254.69630275290243,-10.689363943252632,-54.653382960745994,55.41714381867462,-9.210925839592877,255.13674397623953,78.41164836357886
75,-10.168079837620569,-254.78079161706893,-10.757962640262948,-55.85218205544616,55.44219573895199,-9.351326150681603,255.22146048035944,79.25819508176514
76,-10.109117047655433,-254.87797334838413,-10.835224114095872,-57.02666239255207,55.481072231844806,-9.502997947728083,255.31951826691656,80.10642242744538
77,-10.057407242721341,-254.98653130173662,-10.92085294483271,-58.16755893558591,55.532371140115934,-9.66446449257421,255.42962749094264,80.94822733088125
78,-10.013715876367016,-255.1050104859031,-11.014393099622078,-59.2651679122744,55.59480091600226,-9.833883226687973,255.55034843359286,81.77515955518636
79,-9.978689760462853,-255.23183508473264,-11.115235886166067,-60.309401075317155,55.66721972190562,-10.00906183355166,255.68010856502787,82.57850410365312
80,-9.952841941823893,-255.3653253671758,-11.222628519541702,-61.2898715756366,55.748667779272466,-10.187483299319172,255.8172191063579,83.34938270012448
81,-9.936538487327361,-255.5037146370968,-11.33568304894607,-62.196014929115144,55.838392095284384,-10.36634043868226,255.9598917554725,84.0788758620875
82,-9.92998797213502,-255.64516703864422,-11.453385665400326,-63.017246795701034,55.93586275903137,-10.542580478116724,256.10625642318365,84.75816592725499
83,-9.933234283293556,-255.7877969931442,-11.574606683504424,-63.74315724404323,56.04078020322589,-10.712960325296686,256.2543807919053,85.37870012847848
84,-9.946153010457548,-255.92969083775432,-11.698111734033658,-64.36373892404464,56.15307315162604,-10.874112885458961,256.4022923018004,85.93237144972954
85,-9.968451363960313,-256.06893099365146,-11.822574892401747,-64.86964426702203,56.272887274611506,-11.022624128899935,256.54800292287325,86.41171353409003
86,-9.99967131676002,-256.20362280980754,-11.946594547559592,-65.25246464439445,56.4005647217953,-11.155119653547702,256.6895368837145,86.81010438660721
87,-10.039195569102564,-256.33192405400627,-12.068712782523432,-65.5050224856722,56.53661468826589,-11.26835841185519,256.82496134710027,87.12197214444882
88,-10.086256023643584,-256.4520767249578,-12.187438928873549,-65.6216658097895,56.681675122289995,-11.359330310796652,256.95241972205145,87.34299497532969
89,-10.139944683687215,-256.5624404141435,-12.301277744936046,-65.5985535475288,56.836465742817886,-11.425353739196916,257.07016685413333,87.47028639828868
90,-10.199227134435148,-256.66152600077794,-12.40876228343675,-65.43391945958872,57.001732800513516,-11.46416881491743,257.1766048807934,87.50255709878938
91,-10.262958936479816,-256.74802818965594,-12.508490989363715,-65.12830238469085,57.178186506628236,-11.47402225476895,257.27031824559646,87.44024464611776
92,-10.329905255232013,-256.82085532770503,-12.599168037813701,-64.68473098548957,57.36643270607764,-11.45374017089956,257.35010626511627,87.28560336513672
93,-10.398763772895217,-256.8791549746346,-12.679645496949997,-64.10885211792075,57.56690105872463,-11.402785702389263,257.4150116510872,87.04274789010557
94,-10.468190405413548,-256.92233380441274,-12.748965622030072,-63.40899347857262,57.779772590018815,-11.321299128978117,257.4643434601044,86.71764557981787
95,-10.53682680202653,-256.95007061592446,-12.806401473316988,-62.59615332510409,58.0049099098538,-11.21011890323158,257.4976931216596,86.3180549747991
96,-10.603328321076814,-256.9623215734593,-12.851494077485302,-61.683912783779775,58.24179366062926,-11.070782783146665,257.5149425313874,85.85340977809346
97,-10.666391263695028,-256.9593172227274,-12.884084404891825,-60.68826941481574,58.48946881986763,-10.905508889880014,257.51626363019193,85.33465030901138
98,-10.72477850074445,-256.9415512340633,-12.904338447270954,-59.627394088579386,58.74650430209835,-10.717157057347185,257.5021093120074,84.774006819983
99,-10.777343052479644,-256.9097612214721,-12.912763727061849,-58.52131660159713,59.01096887166142,-10.509171331098202,257.47319591887003,84.18474130148157
100,-10.82304952099905,-256.8649024785556,-12.91021573322902,-57.39154858033467,59.28042576340008,-10.285504982348606,257.43047809359604,83.58085628958618
101,-10.860993451597192,-256.80811603633896,-12.897893057800957,-56.260654801403135,59.55194769191672,-10.050529978613046,257.37511734136314,82.97678058188541
102,-10.89041867547882,-256.74069287858987,-12.87732040105701,-55.15178583461005,59.82215313530987,-9.808933482921555,257.3084460970887,82.38704248516747
103,-10.910732487215235,-256.66403631865046,-12.850319160993344,-54.08818574469073,60.08726390495472,-9.56560455357692,257.23192928113184,81.82594116053639
104,-10.921518254616391,-256.57962452799944,-12.818966019570512,-53.0926885080681,60.34318308372718,-9.325514660589869,257.14712533586686,81.30722584772997
105,-10.922544908193478,-256.4889750711077,-12.78554066273985,-52.18721602033903,60.58559148200998,-9.093595824419227,257.0556486299024,80.8437914304315
106,-10.91377278589487,-256.3936129489839,-12.752464354151646,-51.39228940238438,60.8100598936793,-8.874620090428733,256.95913479427406,80.44739722949215
107,-10.895355434311506,-256.2950430620955,-12.72223147752067,-50.726564091450776,61.01217371604263,-8.673083720385783,256.8592099869987,80.12841438537804
108,-10.867637041982862,-256.19472736780654,-12.697336487707071,-50.206398173763596,61.18766598491559,-8.493098997476995,256.7574644647937,79.89560593723934
109,-10.831145163240897,-256.0940665306311,-12.680199038513992,-49.84546266597099,61.33255455321149,-8.338296008129507,256.655430378726,79.75594278441243
110,-10.786578400633564,-255.99438556048068,-12.673090244548032,-49.654401937144975,61.44327893437252,-8.211736276247269,256.55456341800357,79.71445805003188
111,-10.734788877572992,-255.8969227337938,-12.678062917841018,-49.6405520641761,61.51683217694001,-8.115839748992583,256.456227729405,79.77414183740103
112,-10.676759656836342,-255.802820989764,-12.696888290980826,-49.80772448756581,61.550883022860376,-8.052326385046227,256.36168343705174,79.93587787819288
113,-10.613577683388815,-255.71312103314858,-12.731001465203423,-50.15606173908248,61.54388354554348,-8.02217343617878,256.27207613103934,80.19842303308026
114,-10.546403291392988,-255.62875556630476,-12.781457712424078,-50.68197113174315,61.495157484254335,-8.02558938934637,256.1884278961539,80.55842995581305
115,-10.476437729576444,-255.55054434324686,-12.848901642290357,-51.37814105593961,61.40496465292705,-8.062005435149487,256.11162973053774,81.01051246928716
116,-10.404890424159209,-255.47918994363994,-12.933550848989702,-52.23364287289999,61.274537231867754,-8.130085238911386,256.04243539956957,81.54735240147052
117,-10.332947767635979,-255.4152742015705,-13.035194891167446,-53.23411935215117,61.106084569707654,-8.227753638740598,255.98145677323222,82.15984588339808
118,-10.261745102242067,-255.35925514956637,-13.153209542268279,-54.362058215454596,60.90276436341457,-8.352244556518668,255.9291605713262,82.83728646077087
119,-10.192343254067119,-255.31146432555767,-13.286585471927404,-55.59714667047084,60.66861970255903,-8.500167810304246,255.88586637515158,83.56758179237367
120,-10.125710460761958,-255.27210446332145,-13.43396996958356,-56.91669989921747,60.40848336476521,-8.667593711803747,255.85174588478722,84.33750015416956
121,-10.062709887541752,-255.2412479220708,-13.593719862017116,-58.296153463306574,60.12785274174097,-8.850153453680159,255.82682368180923,85.13294237694646
122,-10.004092297019241,-255.21883657283917,-13.763963240572728,-59.70960676798223,59.83274056318904,-9.043152468509952,255.8109800620472,85.93923414681795
123,-9.950493011645923,-255.20468409204418,-13.942666986915233,-61.13040237739263,59.52950789208534,-9.241693267085028,255.80395668262886,86.74143276442621
124,-9.902432176392892,-255.19848159374098,-14.127706572127204,-62.5317243090061,59.2246865766504,-9.440803788710731,255.8053657148696,87.52464157171407
125,-9.86031739529522,-255.19980721722564,-14.316934522026955,-63.88719757189918,58.92479851941102,-9.635567026366122,255.81470288115028,88.27432448257478
126,-9.82444788271749,-255.20813977866604,-14.508244443892702,-65.17147118196434,58.63617888512907,-9.821247618267282,255.83136428542005,88.97661256207839
127,-9.795019288253279,-255.22287609290254,-14.699628359139663,-66.3607676518169,58.3648098216185,-9.993411235695337,255.85466650391623,89.61859449198917
128,-9.772128466719748,-255.243351176023,-14.889225849272282,-67.43338341993822,58.116170486247945,-10.148032952042245,255.88386906198483,90.18858306301478
129,-9.755777785828942,-255.2688602111801,-15.075364001270174,-68.37012669558845,57.89510822656689,-10.281591310247387,255.91819813559877,90.67635049943239
130,-9.745879016429939,-255.29868088058336,-15.25658744892242,-69.15468157049239,57.705734724005744,-10.391145428672099,255.95687006888474,91.07332636201394
131,-9.742257247345252,-255.33209451569778,-15.431678089718867,-69.7738898436337,57.551349811355045,-10.474393121503018,255.99911317486996,91.37275290648245
132,-9.744655472402176,-255.36840459335863,-15.599664339836833,-70.21794473960725,57.43439450203714,-10.529708652164214,256.04418638088515,91.56979402879395
133,-9.752740486776203,-255.4069514367851,-15.759820081109648,-70.48049350919301,57.35643349573633,-10.556159434413685,256.0913936217784,91.66159524475411
134,-9.766110558224467,-255.44712249801273,-15.911653812796821,-70.55864871124271,57.31816609798775,-10.553501757553086,256.14009341062234,91.64729349731016
135,-9.784305093642612,-255.4883581711789,-16.054889011533245,-70.45291073238548,57.319463253995984,-10.522156381443963,256.1897036052256,91.52797698495894
136,-9.806816279870358,-255.53015358669805,-16.18943728638945,-70.16700677597107,57.35942740180728,-10.46316556194396,256.2397019126039,91.30659670813476
137,-9.833102455344788,-255.57205716371155,-16.315366409932768,-69.70765409636967,57.43647117093658,-10.378133701774784,256.289623020563,90.98783303174925
138,-9.862602724345514,-255.61366680602484,-16.432865523723457,-69.08425756965643,57.548410594138765,-10.269154345217839,256.33905335580295,90.57792217572057
139,-9.894752051976488,-255.6546245705648,-16.542209728598305,-68.30855365504127,57.692568431401654,-10.138726603521393,256.38762439467956,90.08444904715574
140,-9.928995860912563,-255.6946105288375,-16.643725970858988,-67.39421430771651,57.86588334587782,-9.989664308455037,256.4350053164383,89.51611408330966
141,-9.964803090449458,-255.7333364471126,-16.737761725439398,-66.35642536142127,58.06502090900169,-9.825001289017516,256.48089566523214,88.88248264993108
142,-10.001676790986782,-255.77053984050596,-16.824657537429324,-65.21145423201273,58.28648268197499,-9.647896177427274,256.52501859237407,88.19372594479945
143,-10.03916156317129,-255.80597889381323,-16.904724089156073,-63.97622147593184,58.52670992734471,-9.461540049311466,256.567115171038,87.46036227789128
144,-10.076847475880314,-255.83942862935058,-16.978224171715855,-62.6678898110188,58.78217886315304,-9.269069949297434,256.606940156598,86.69300708250886
145,-10.11437050160081,-255.87067848665177,-17.045359795548645,-61.30348275604993,59.0494847925755,-9.073490935168836,256.6442593573071,85.90213913482029
146,-10.151409941096404,-255.8995312333503,-17.10626466823356,-59.89954315686983,59.325412956906824,-8.877608724018017,256.67884855246837,85.0978893261828
147,-10.187683653555876,-255.92580301350057,-17.161002325199156,-58.47183959265918,59.60699461510837,-8.683974415089912,256.71049380088675,84.28985703529396
148,-10.222942056141477,-255.94932440975344,-17.209570199352626,-57.03512601594022,59.89154765782958,-8.494842163385918,256.7389930593425,83.48695772770749
149,-10.256961796274595,-255.9699425234427,-17.25190973604697,-55.60295704572744,60.17670195298258,-8.312140097126676,256.7641591461477,82.69730388067053
150,-10.289539804871753,-255.98752413165556,-17.287922252654884,-54.187558299528746,60.46041046218908,-8.137454188990624,256.7858241098202,81.9281197251069
151,-10.320488207967935,-256.0019599637235,-17.31748972004164,-52.799748285073946,60.74094783244301,-7.972024209329415,256.8038450087749,81.18568869210765
152,-10.349630387591304,-256.01317009941005,-17.34049920306009,-51.448905914560875,61.01689860386255,-7.816750351892661,256.81811103579537,80.47533096618682
153,-10.376798379111296,-256.02111039756096,-17.35686941331288,-50.142975825327575,61.287137404171,-7.672208692912315,256.8285518059384,79.80140731283613
154,-10.401831772108352,-256.0257796534989,-17.366577635995643,-48.88850250755367,61.55080355341208,-7.538673390459894,256.8351464016879,79.16734446447916
155,-10.424578308920474,-256.0272268851238,-17.36968517252722,-47.6906838141286,61.80727240594333,-7.4161434847621095,256.8379324625906,78.57567687762484
156,-10.444896355886286,-256.02555788783627,-17.366359463525555,-46.553434782131056,62.05612556556997,-7.304372287027046,256.8370143464038,78.02809966392834
157,-10.462659238444406,-256.02094008569657,-17.356891261778653,-45.47945380715709,62.29712188029248,-7.202897585903252,256.8325692817207,77.5255279685005
158,-10.477761056971918,-256.01360477279064,-17.34170557051053,-44.47028496792995,62.53017086529242,-7.111071233789759,256.82485050654657,77.06815894817329
159,-10.490123161517971,-256.0038460946194,-17.32136551410398,-43.52637248995801,62.75530988966873,-7.0280870869502765,256.8141866563847,76.655533628975
160,-10.49970014972227,-255.99201656119496,-17.296568867421282,-42.647105724746886,62.97268607920054,-6.953006706799332,256.8009771336018,76.28659712092858
161,-10.506484196626777,-255.97851939770007,-17.26813757493495,-41.83085538458212,63.18254345609059,-6.884782608890203,256.7856837443366,75.95975680601912
162,-10.5105067479193,-255.9637984008435,-17.23700109843006,-41.07500389977351,63.38521540139373,-6.8222791468620185,256.76881929603866,75.67293909211921
163,-10.511837023568713,-255.94832601105338,-17.204174746815728,-40.37597443406908,63.581122119034,-6.76429137735578,256.750933929242,75.42364604273786
164,-10.510577259805233,-255.93259006111774,-17.170734284353955,-39.729264099689054,63.77077240484891,-6.7095624951870905,256.7325997367829,75.20901354597237
165,-10.506855047252818,-255.91707935250417,-17.137788132808993,-39.12948714735819,63.95476866510727,-6.6568006135762925,256.71439393268787,75.02587261354448
166,-10.500813404145042,-255.90226812737063,-17.106448386986788,-38.57043341560812,64.1338137802701,-6.604695716261145,256.6968807534268,74.87081493382077
167,-10.492599315740296,-255.8885997284387,-17.077801668676816,-38.04514625715624,64.3087181033554,-6.55193749720552,256.68059248681806,74.7402630651911
168,-10.482351432667269,-255.87647005859668,-17.052880636716186,-37.54602267264197,64.4804046910995,-6.49723456200826,256.66601032580337,74.63054481009122
169,-10.470187563290454,-255.86621161996888,-17.032636865387538,-37.06493662677759,64.64991085703579,-6.439335149678459,256.65354590119483,74.53797050266431
170,-10.456192597170622,-255.85807890737678,-17.017915819648625,-36.593384694461086,64.81838432812347,-6.377049202804526,256.6435243427671,74.45891129125438
171,-10.440407566487783,-255.85223587685118,-17.009434675027197,-36.12265147524032,64.98707267039755,-6.309271314171802,256.6361696667125,74.38987608323812
172,-10.422820627377332,-255.84874616739302,-17.007763634747647,-35.643990736212494,65.15730520778617,-6.235003822541737,256.63159324032665,74.32758468049946
173,-10.403360725621976,-255.84756671696223,-17.013311218916392,-35.148817064399545,65.33046734984536,-6.153379125191455,256.6297860238385,74.26903476085077
174,-10.381894563479731,-255.84854539123717,-17.026313869345376,-34.62890199552206,65.50796798515293,-6.0636801539283,256.63061525135276,74.2115607089256
175,-10.358227292675236,-255.85142324108796,-17.046830179529014,-34.076568133660054,65.69120128286602,-5.965357951690544,256.6338261997741,74.15288277328189
176,-10.332107242661007,-255.855841959286,-17.07474001539984,-33.48487458837574,65.88150477479238,-5.858045358537981,256.6390496415551,74.09114548466513
177,-10.303234961255212,-255.86135690603112,-17.10974857715287,-32.84778705761578,66.08011588365831,-5.741565925912199,256.6458153616262,74.0249446016917
178,-10.271276779711025,-255.8674556700172,-17.15139504229917,-32.16032610141585,66.28812909342687,-5.615937332429216,256.65357168859856,73.95334204083238
179,-10.235882896325368,-255.87358162344063,-17.199065012293836,-31.418687645081725,66.50645578273725,-5.481368791057201,256.6617104489015,73.8758683755413
180,-10.196709601321706,-255.87916144014775,-17.252005793834684,-30.62033055916244,66.73578846320456,-5.338252193151731,256.66959623920553,73.79251265475705
181,-10.153444853854774,-255.88363510506323,-17.30934364781136,-29.76402731270254,66.97657083035097,-5.187147000470916,256.6765984646657,73.70369954356597
182,-10.105836067897258,-255.8864865837931,-17.370102425480873,-28.849875188316346,67.22897463255444,-5.028759179764385,256.68212423805727,73.61025411462673
183,-10.0537186923216,-255.88727315571177,-17.433223351011264,-27.879267317139615,67.49288389910181,-4.863914787955654,256.6856500815264,73.51335498954325
184,-9.997044012533554,-255.88565147450444,-17.497586014760508,-26.854824712378445,67.76788661469989,-4.693529138925211,256.68675044665457,73.41447694281231
185,-9.93590461841431,-255.8813985985247,-17.562030825554995,-25.780292417311962,68.05327357020478,-4.518572777194652,256.68512125855636,73.31532454446103
186,-9.870556180632615,-255.8744264637922,-17.62538315647716,-24.660404705453715,68.34804389334462,-4.340035715312904,256.6805969253978,73.21775890288
187,-9.801434462052073,-255.86478863227666,-17.686479213757277,-23.50072582132565,68.6509166557787,-4.158891539303437,256.6731596097685,73.12372000471119
188,-9.729166729233349,-255.85267871910733,-17.744193341318542,-22.307473871716038,68.9603479378086,-3.976063050741901,256.66294011442403,73.03514745853231
189,-9.65457683128075,-255.83842060744595,-17.7974661164439,-21.08733607454846,69.27455277619411,-3.7923911098587757,256.65021041691386,72.95390258500625
190,-9.578683206048847,-255.82245118503906,-17.845332255672297,-19.84728363145303,69.59153146004897,-3.6086082802158956,256.63536848782,72.8816947176501
191,-9.502689083467729,-255.8052967209722,-17.886947126483616,-18.594394034382987,69.90909959079171,-3.425318751518349,256.61891639620774,72.82001424165796
192,-9.427964298384538,-255.78754416637324,-17.92161062296704,-17.335687679239587,70.22492114984232,-3.242985824827771,256.6014328733549,72.77007430751486
193,-9.356018445813268,-255.7698087346305,-17.948787292046973,-16.07798430788204,70.53654358228657,-3.061927957703334,256.58354159713105,72.73276241009958
194,-9.28846561761667,-255.75269918844617,-17.968121816418286,-14.827783182869485,70.84143370960476,-2.882323962151698,256.56587656336717,72.70860227451502
195,-9.226981619008344,-255.7367823596526,-17.97944921012905,-13.591169245390898,71.1370131987931,-2.70422745649244,256.54904604940214,72.69772586534536
196,-9.173255253163731,-255.7225485298464,-17.982799318201675,-12.373746027357504,71.42069236893418,-2.5275901754592622,256.5335968175264,72.69985491701222
197,-9.128935821145,-255.7103793569643,-17.978395423781514,-11.180594864253695,71.68990133318809,-2.3522933009776623,256.51998029629203,72.71429121183355
198,-9.095579338476869,-255.70052004029998,-17.966647012389036,-10.016258945123061,71.9421178568323,-2.1781855797535594,256.5085225119954,72.7399149023247
199,-9.074596132957756,-255.69305742818193,-17.94813708916319,-8.88474988796377,72.17489180059863,-2.005126602803009,256.4993995807516,72.77519041186804
200,-9.067202447442092,-255.6879057835892,-17.92360486943132,-7.789573847559374,72.38586649544871,-1.8330332387701822,256.492620607468,72.81817973221077
201,-9.07437835369707,-255.68480179723414,-17.89392502707641,-6.733773688003168,72.57279774189476,-1.6619269060041135,256.48801972544214,72.86656315191469
202,-9.096833639315765,-255.68331002856044,-17.86008479593817,-5.71998349972029,72.73357127826144,-1.49197921986722,256.485258591052,72.91766752960487
203,-9.134982448668723,-255.68283928245836,-17.82315998516899,-4.750491660201856,72.86621950752654,-1.3235535921228991,256.4838399404448,72.96850214780797
204,-9.18892662739798,-255.68266968382605,-17.784290527701017,-3.8273086241652523,72.96893804035238,-1.157240563070617,256.4831320254204,73.01580195787558
205,-9.258447259369992,-255.68198954871667,-17.744655775052717,-2.9522355868067174,73.04010228670131,-0.9938849653647253,256.48240304996796,73.05607772147435
206,-9.343003857366112,-255.67994054119347,-17.70544950236891,-2.126930065741517,73.07828404345771,-0.8346033814813495,256.48086410577525,73.08567229312837
207,-9.441740838691006,-255.67566896787164,-17.66785450334527,-1.3529643280622936,73.08226786782939,-0.6807906726713709,256.4777184678747,73.10082215426362
208,-9.553501028268514,-255.6683804415396,-17.633016752445013,-0.6318724857770655,73.05106696449809,-0.5341145691347671,256.4722145000178,73.09772326842305
209,-9.676845924462151,-255.65739465476196,-17.602019383023904,0.03481798261692364,72.98393827645114,-0.3964974487666947,256.4636989453035,73.07260030573315
210,-9.81008241073763,-255.64219669894925,-17.57585708322568,0.6455744893303088,72.88039644983807,-0.27008456122701463,256.4516670918718,73.02177827579122
211,-9.951295522112584,-255.6224812860609,-17.555411824033904,1.1988712998140718,72.74022637840874,-0.1571981099078713,256.4358062399918,72.94175564825089
212,-10.098386709549436,-255.5981865109799,-17.541431008980688,1.693228452607645,72.5634941186051,-0.060276823576134377,256.4160291785385,72.82927812643173
213,-10.249116780826885,-255.56951455321632,-17.534509115372,2.1272797115722684,72.35055605676386,0.018198975774053727,256.3924951225159,72.6814123288869
214,-10.401152475046212,-255.5369378436626,-17.53507367041043,2.4998699261989916,72.1020662790189,0.07579617473520764,256.36561666085055,72.49561870314031
215,-10.552115579322583,-255.5011903993228,-17.543376014332097,2.8101800549422062,71.81898216342708,0.11023001437353365,256.33605240706675,72.26982306142078
216,-10.699633557869351,-255.46324502387236,-17.559486842861915,3.0578757926579905,71.50256831832316,0.11947499800200592,256.3046860065115,72.0024862119351
217,-10.841390654699229,-255.42427785520812,-17.58329611985891,3.2432735134975874,71.15439913269597,0.10188192282911959,256.2725929047249,71.69267124534181
218,-10.975178259808109,-255.3856223406959,-17.614516725909898,3.3675153064496657,70.77636035406522,0.05629650330568985,256.24099685463324,71.3401080855637
219,-11.098943060140162,-255.34871512888512,-17.652691212919034,3.432743350792102,70.37065024746413,-0.01782559335179808,256.2112185339884,70.9452549117449
220,-11.210831266074642,-255.31503659409512,-17.697201190491736,3.4422628322831543,69.93978100017542,-0.12031287898532816,256.18461887015025,70.50935600561922
221,-11.309227131507047,-255.28604881668824,-17.747278999135638,3.4006821744910947,69.48658106938214,-0.25018708506006077,256.1625397790013,70.03449545215808
222,-11.392784122336838,-255.26313389605224,-17.802021322238208,3.3140197304467462,69.0141990496505,-0.40559272556646264,256.1462450825092,69.52364588330855
223,-11.460447390922917,-255.24753549819619,-17.860404324464497,3.189767359391272,68.52610931706216,-0.5837522957879175,256.13686440113344,68.98071109616887
224,-11.51146661803441,-255.24030645766965,-17.92129991761865,3.0369034737145917,68.02611918886132,-0.7809513215428446,256.135342752465,68.41056092830006
225,-11.545398793991748,-255.24226493003965,-17.983492894126424,2.865851019925801,67.51837667854065,-0.9925562378708326,256.14239829663063,67.81905629543071
226,-11.562101138431885,-255.25396101239048,-18.045698846041198,2.6883791914469524,67.00737724533076,-1.2130666137177206,256.1584901329212,67.21306188284701
227,-11.56171501070095,-255.27565509507514,-18.106582852388442,2.517451138197828,66.49796738117101,-1.4362016477352069,256.1837974348037,66.6004437295213
228,-11.544642190415395,-255.30730865916328,-18.164778809953738,2.367023196806337,65.99534253420886,-1.6550191977766746,256.2182106806647,65.99004888968001
229,-11.511515231195947,-255.3485877799769,-18.218909146068956,2.251803865995054,65.50503670316512,-1.8620639297552273,256.26133529123337,65.39166442797168
230,-11.463163734016408,-255.39887911058122,-18.267604697053372,2.1869825871395676,65.03290096429599,-2.0495395905012974,256.3125075111602,64.81595309289864
231,-11.400578413766512,-255.45731751696687,-18.309524761759274,2.187939230752495,64.58506822028228,-2.2094990646724972,256.37082179132136,64.27436313350321
232,-11.32487477767178,-255.52282381380573,-18.343377508727038,2.2699451616559245,64.16790175182119,-2.334044879835673,256.43516821888613,63.779010074761246
233,-11.237258078096785,-255.5941502908758,-18.367940829125516,2.4478661353803894,63.78792590487585,-2.4155322679634663,256.5042777733763,63.34252908809264
234,-11.13899090797279,-255.6699311253459,-18.38208340858334,2.735876291142189,63.451738524623295,-2.446766861203904,256.5767725585792,62.97789798271808
235,-11.031364379952779,-255.74873455452635,-18.384785399231273,3.1471912058680966,63.165906427085105,-2.4211896155439163,256.6512178941813,62.69823269367848
236,-10.915673331246351,-255.82911389075392,-18.375157766336248,3.693826303746987,62.93684698848294,-2.333042535473277,256.7261733143705,62.51655916349503
237,-10.79319550151336,-255.90965498224918,-18.352459260952923,4.386384886437074,62.7707004411651,-2.1775100848326017,256.8002400113398,62.44556730837868
238,-10.665174224681511,-255.98901839308672,-18.3161100555391,5.233877822340825,62.673198367918715,-1.9508326807924368,256.872102917382,62.49735397891772
239,-10.532803966600126,-256.0659752067355,-18.265701320336188,6.24357476352801,62.649534085217034,-1.6503902253144476,256.9405662565506,62.68316233866377
240,-10.397218104216288,-256.1394357840285,-18.201000319007374,7.420884919293559,62.704240246959735,-1.2747550545394453,257.0045818457753,63.01312500927238
241,-10.25947862509953,-256.2084710204599,-18.12195090118417,8.769264170991045,62.84107833229347,-0.8237148444206677,257.06326967174095,63.4960179079575
242,-10.120567780621364,-256.27232582641716,-18.028669584052064,10.290144856176946,63.06294387719013,-0.29826686366581784,257.1159304850415,64.13903112264157
243,-9.98138202405249,-256.3304248453717,-17.92143777957699,11.982884901767505,63.37179041563009,0.2994144334884397,257.16205048171696,64.94756250564372
244,-9.842728742748541,-256.3823708171944,-17.80069110695919,13.844733970089916,63.768574136233866,0.9660340540477044,257.20129856738663,65.92503895172655
245,-9.705326352296243,-256.4279364161023,-17.6670070322377,15.870815605089406,64.253220321135,1.6972546360112104,257.2335171434369,67.07276962578185
246,-9.56980830608727,-256.46705076622146,-17.52109216854505,18.054125730284667,64.8246118092126,2.487793243454705,257.25870773235715,68.3898347679252
247,-9.436731496716895,-256.4997820319954,-17.36377034024761,20.385549045664717,65.48059903020219,3.331533759478296,257.2770129340358,69.87301310164236
248,-9.306589328297676,-256.5263174155095,-17.19597197891669,22.853895811118687,66.21803054073911,4.221651662988593,257.2886960965763,71.51675023288934
249,-9.179829367806954,-256.5469416662612,-17.01872478817649,25.44596217667439,67.03280241945357,5.150747696211364,257.29411980419627,73.31316970913119
250,-9.056874944156966,-256.56201500292485,-16.833145161886176,28.146617606081264,67.91992436357609,6.11098666426369,257.2937240306306,75.25212761625961
251,-8.938149450563266,-256.5719512416172,-16.640429701090437,30.93892298213354,68.87359993388213,7.094237517313937,257.28800467063036,77.3213107697256
252,-8.824101609246908,-256.5771968585938,-16.44184631682904,33.80428260078667,69.88731815999503,8.092211038540006,257.27749308577575,79.50637772229241
253,-8.715229742595406,-256.57821158195134,-16.238724740501738,36.722632381240274,70.95395362704228,9.09659186654769,257.262737178814,81.79114092131786
254,-8.612103163136618,-256.5754508676383,-16.03244666903985,39.672665184313516,72.0658721669125,10.099162098589266,257.24428429705836,84.15778732449267
255,-8.515379022279188,-256.56935032478947,-15.82443603640678,42.63209214450646,73.21503933041639,11.09191421857899,257.22266599802987,86.58713357099245
256,-8.42581325906494,-256.56031191448386,-15.616149808814246,45.57793651852336,74.39312888193103,12.06715150270954,257.19838447376594,89.05891041390674
257,-8.344264694095672,-256.5486916355572,-15.409069217807833,48.486854036098094,75.5916285952477,13.017574367094554,257.17190030420477,91.55206963405216
258,-8.271691837276625,-256.5347884531086,-15.204690684697468,51.335471484712535,76.80194064940437,13.93635134426143,257.1436212295306,94.04510525027854
259,-8.209142490558826,-256.51883437253656,-15.004515164364665,54.100733562270946,78.01547402272966,14.817173538573764,257.1138917624649,96.51637975455039
260,-8.157736563820583,-256.50098572859315,-14.81003446714665,56.760247012521134,79.22372655730449,15.654291587460897,257.082983626188,98.94444551336227
261,-8.11864268329084,-256.4813159033769,-14.6227133597489,59.29261070736878,80.41835479660146,16.44253442991544,257.0510871644618,101.30835142129261
262,-8.093049298313542,-256.45980986914725,-14.443966865099968,61.67772063077347,81.59123019047912,17.177309625221167,257.0183040906599,103.58792531971847
263,-8.082131199202223,-256.4363612413205,-14.27513308684271,63.897039678861226,82.73448078330799,17.85458564626208,256.9846422900954,105.76402363442426
264,-8.087012681961818,-256.410772833487,-14.117442847949503,65.93382385971302,83.84051813714277,18.470857551975836,256.95001376187037,107.81874125960887
265,-8.108729040417455,-256.3827618008744,-13.971988129735047,67.77329880280396,84.90205008590021,19.023098686291892,256.9142369343112,109.73557697111882
266,-8.148188579134272,-256.35197021551977,-13.83969155337866,69.40278330786367,85.91208095153266,19.508702386301913,256.8770443743383,111.49955245121859
267,-8.206137705448313,-256.3179814378256,-13.721279054408777,70.81175975667637,86.86390194748978,19.9254188566741,256.83809643840874,113.09728606895915
268,-8.283131550637963,-256.2803421273486,-13.617257632452626,71.99189433798922,87.75107547973415,20.27129312212243,256.7970008765597,114.51702555438112
269,-8.379511855870346,-256.2385892716296,-13.527899663826506,72.9370129243942,88.56741779333082,20.544610130341304,256.7533379040508,115.74864631729646
270,-8.495392819920939,-256.19228119049916,-13.453234739824085,73.6430408040816,89.30698481649036,20.743852633865227,256.70668978747005,116.78362413216315
271,-8.630654695119327,-256.1410310825552,-13.393049433789653,74.10791606377411,89.96406607656307,20.867676568519656,256.65667355404946,117.61499205854153
272,-8.784944334485987,-256.08454138802205,-13.346894933846448,74.3314870977441,90.53319119426692,20.914907427563914,256.60297510147797,118.23729170900322
273,-8.957681576386388,-256.02263710396386,-13.314102098580333,74.31540446632916,91.00915275647743,20.884559693371653,256.545382816607,118.64652835120376
274,-9.148070241519294,-255.95529616873847,-13.293803095994013,74.06301625278883,91.38704842664555,20.775879791301815,256.4838187658661,118.84013798710367
275,-9.355112572550478,-255.88267508295544,-13.28495836039101,73.57927436875462,91.66234404754182,20.588411375228034,256.41836554733817,118.81697267928999
276,-9.577626057612939,-255.80512806185473,-13.286387249764479,72.8706571689341,91.83095822568195,20.322080164003545,256.34928700324764,118.5773081507117
277,-9.814261617655317,-255.72321825332193,-13.296800564611912,71.94511144783023,91.88936745571574,19.977294082992668,256.2770412152591,118.1228751885826
278,-10.063522085881214,-255.63771992928565,-13.314832966735748,70.81201451995679,91.8347293051459,19.555053117302553,256.2022845648298,117.45691374605386
279,-10.323779891547066,-255.54961106939285,-13.339073322505438,69.4821547154943,91.66501964559518,19.057062083041973,256.125866146242,116.58424599503684
280,-10.59329304661876,-255.46005636666527,-13.368091186978573,67.9677263912328,91.37917848826211,18.48583861415682,256.04881244465855,115.51136212093334
281,-10.87021896111823,-255.37038128795228,-13.40045810461359,66.28233363885603,90.97725773184752,17.84480824816529,255.97230283321505,114.24651055853526
282,-11.152626147187659,-255.2820382979942,-13.434763048191437,64.44099539391065,90.46056315195344,17.138378710807153,255.89763697245036,112.79978281391944
283,-11.438504324874751,-255.19656670276467,-13.469621994591542,62.46014364009663,89.83178237717502,16.371986354863033,255.8261955932611,111.1831821161033
284,-11.72577370938871,-255.11554789340767,-13.503682242350182,60.35760584551439,89.09509049779282,15.552109105808189,255.75939650838131,109.41066493434317
285,-12.012294363827543,-255.0405580985959,-13.535622573402287,58.15256264903177,88.25622533429659,14.686242051436173,255.69864804849425,107.49814484205098
286,-12.2958765367699,-254.97312092249174,-13.564150721365353,55.865472185386906,87.32252520640374,13.782833808204838,255.64530230282944,105.46344926086081
287,-12.574292916477434,-254.91466179762514,-13.587999808868133,53.51795341677778,86.30292325980518,12.851183839098045,255.6006104019874,103.32622129092945
288,-12.845293672220953,-254.86646605498305,-13.605925420249694,51.132622516005604,85.20789400289175,11.901302842657817,255.5656816475421,101.10776113090363
289,-13.106624970153852,-254.8296417950491,-13.616704690043685,48.73287866127139,84.04934961258543,10.943740060613312,255.5414477504508,98.83080440649034
290,-13.356051395902643,-254.80508827929611,-13.619138173553605,46.34263836664687,82.84048567654374,9.989382792148065,255.52863293480243,96.51923785670914
291,-13.591382461231648,-254.79347019548152,-13.612054526919543,43.98602047342372,81.59557823744446,9.04923455343655,255.52773025065494,94.19775606962305
292,-13.810503098484167,-254.7951979106113,-13.594317521738423,41.68698696505412,80.32973622159082,8.134179207450222,255.53898416322687,91.8914661602846
293,-14.011407684047173,-254.8104137437392,-13.564834859331516,39.46894763405003,79.0586155082618,7.2547390021768425,255.5623793831812,89.62545029465383
294,-14.192236674996424,-254.83898431668553,-13.522568551391075,37.354339123598265,77.79810290385568,6.420834733718268,255.5976359214139,87.42429858531261
295,-14.351314483476633,-254.8804990606046,-13.466547044447932,35.36419083586592,76.56397993314745,5.641556128575685,255.64421037163427,85.31162688860474
296,-14.487186885377744,-254.9342749327822,-13.395879499419726,33.51769156560028,75.3715775035108,4.924950010422263,255.70130339994688,83.30959527743336
297,-14.598656137998422,-254.99936739972583,-13.309772526620298,31.831771486842015,74.23543314453784,4.277832950032033,255.7678734147154,81.43844348914533
298,-14.684812028980494,-255.07458779402597,-13.207549293532665,30.32071431869173,73.16896278155734,3.7056340084026616,255.8426564272126,79.7160595932662
299,-14.745057224484256,-255.15852713698092,-13.088670481530615,28.995814090138254,72.18415890443298,3.212271995057704,255.92419208495213,78.15759753886303
300,-14.779125513452131,-255.24958630106806,-12.952756213887584,27.86508984744575,71.29132642573134,2.800070466220115,256.0108556375338,76.77515801474955
301,-14.78709187185219,-255.34601199274863,-12.799607841631751,26.933069905752564,70.49886630661703,2.469712511279152,256.10089520914335,75.57754504069194
302,-14.769373668627596,-255.44593764411775,-12.62922837094512,26.20065493502268,69.81311509183448,2.220236203364983,256.19247337902493,74.57010788418097
303,-14.726722741220577,-255.54742804081363,-12.441840390346421,25.665066397016734,69.23824595244763,2.0490704050358133,256.2837118389185,73.75467442111663
304,-14.660208455929112,-255.6485263336515,-12.237900609778347,25.319883717806174,68.7762339382293,1.9521094475618523,256.37273775319665,73.12957820406683
305,-14.571192268776935,-255.74730187027896,-12.01811043677518,25.15517025741234,68.42688516276534,1.9238241030910055,256.45773027648363,72.6897775733841
306,-14.461294740304742,-255.84189708067993,-11.783422199239139,25.157684872917542,68.1879268016426,1.9574053147872437,256.53696551648943,72.42706141666088
307,-14.332356377236028,-255.93057165912018,-11.535040593595387,25.311172910460428,68.05515223526682,2.0449363943351506,256.60885826095614,72.33033286276599
308,-14.186393966466959,-256.0117426436273,-11.274418800403552,25.596727961131467,68.02261352279557,2.1775888454277434,256.67199915376875,72.38595942898922
309,-14.025554187670393,-256.0840195942575,-11.003248665573105,25.99321372543695,68.08285172550138,2.3458365902972425,256.7251866053146,72.57817600141104
310,-13.852066324313128,-256.1462346174331,-10.723444511543187,26.477733834444273,68.22715446876099,2.5396831322813314,256.7674532716301,72.88952557021771
311,-13.668195949203398,-256.19746720835724,-10.437120521267882,27.026136431779282,68.44582960547035,2.7488960814595176,256.7980871762574,73.30132190936577
312,-13.476201509381026,-256.2370637366889,-10.146562159524235,27.61353969216421,68.72848394904304,2.9632435152423264,256.81664742419883,73.79411839934994
313,-13.27829558605005,-256.2646510798563,-9.854192601445293,28.21486423776162,69.06429674677196,3.1727268282140813,256.8229741499609,74.34816791058037
314,-13.076612087930167,-256.28014371461217,-9.562535412614373,28.805358654119512,69.44227880642185,3.3678049962200345,256.8171921342447,74.94386005272897
315,-12.873179821018613,-256.2837437119669,-9.274174692922564,29.361105049847687,69.85150992505024,3.5396054916481554,256.79970761703714,75.56212412741336
316,-12.669902100030573,-256.2759335109506,-8.991713721140528,29.859492860170295,70.28134941199212,3.680117435119761,256.77119821882195,76.18478872554445
317,-12.468541666041748,-256.257461813712,-8.7177330254965,30.279650816142603,70.72161685698701,3.7823629668087158,256.7325963226187,76.79489189762981
318,-12.270710199653436,-256.2293231656862,-8.454748793991035,30.602829058421758,71.16274260638706,3.8405432455689286,256.68506648913643,77.37693890388637
319,-12.077861940430266,-256.19273171870805,-8.205172559231551,30.812725552977582,71.59588940875183,3.850155892897826,256.6299774196841,77.91710738944619
320,-11.891291101500675,-256.1490895352159,-7.9712731145839815,30.89575301763065,72.0130481516059,3.8080811205659093,256.5688688462947,78.40340212258765
321,-11.712132842047295,-256.09994979249353,-7.755141597030646,30.841244285995344,72.4071113941426,3.7126343428130606,256.503413726596,78.82576297256894
322,-11.541367605215157,-256.0469754364133,-7.558660508988096,30.641595303309106,72.77192848646992,3.563583882255537,256.4353763031353,79.17613052317353
323,-11.379828687069066,-255.99189417481634,-7.383477129702244,30.29234576426039,73.1023455603426,3.3621333978598975,256.3665669152685,79.44847370428442
324,-11.228212896265406,-255.93645115728555,-7.230981414801189,29.792197892480967,73.39423278654243,3.110869747610709,256.2987948922974,79.63878330018895
325,-11.087093991244963,-255.88236117141722,-7.1022882377763485,29.142974247732493,73.6445002669466,2.81367800696066,256.2338213200065,79.74503445941664
326,-10.956938263916452,-255.83126248377084,-6.998223723476255,28.349515945412637,73.85110296979538,2.475626225209975,256.17331375008786,79.7671206505851
327,-10.83812133152334,-255.78467435531076,-6.919315413465017,27.419523387591646,74.01303434034624,2.10282319804758,256.11880480791154,79.70676102373486
328,-10.730945030445579,-255.74395977238584,-6.865786033717013,26.363342499800716,74.13030765482645,1.7022530662214521,256.0716561585509,79.56738285561376
329,-10.635653270224456,-255.71029430191413,-6.837550700673918,25.193700418701976,74.20392381186609,1.2815909316101648,256.03302865963803,79.3539806098534
330,-10.552445751915725,-255.68464146878085,-6.83421751803356,23.92539546070055,74.23582405903188,0.8490039572866328,256.0038590253354,79.07295307128659
331,-10.481488574785425,-255.66773475560376,-6.855091662632848,22.574946978239566,74.22882617563386,0.4129426517816255,255.98484303813964,78.7319200468731
332,-10.422920949415694,-255.66006618778462,-6.899183175409389,21.160211424135323,74.18654295639,-0.018072740992441806,255.9764252212942,78.33952036126225
333,-10.376857528461107,-255.6618814022022,-6.965218709106495,19.699971673636014,74.11328249756927,-0.43566565699302306,255.97879483787403,77.90519337863805
334,-10.343386320284257,-255.67318102801124,-7.051657427382492,18.213507454591028,74.0139307182149,-0.8318112983619109,255.99188803843253,77.43894702360136
335,-10.322562690246826,-255.69372811781182,-7.156711156049704,16.720155616572214,73.89381763439758,-1.199034359709387,256.01539591873785,76.9511161503858
336,-10.314400311413644,-255.72306130801803,-7.278368808006323,15.23886989057982,73.75857000559289,-1.5305915778398522,256.0487782102565,76.45211598746053
337,-10.318859937177939,-255.76051334626683,-7.41442496610423,13.7877906645506,73.6139539476005,-1.8206345620248972,256.09128228609393,75.95219611481139
338,-10.335836681179883,-255.8052344961244,-7.562512196203286,12.383835983048163,73.46571184636858,-2.064348689262552,256.1419670230698,75.4612008877004
339,-10.365146359169364,-255.85622009557795,-7.720136252963857,11.0423252910086,73.31939837079346,-2.2580642906618844,256.1997308105092,74.98834234336675
340,-10.406511472910687,-255.9123413365511,-7.8847131069988015,9.776647228334824,73.18022058746195,-2.3993369757812317,256.26334278073523,74.54199142670463
341,-10.4595475563135,-255.97237824799194,-8.05360686307044,8.59798197320755,73.052887174082,-2.486994737548714,256.33147625983776,74.12949291159254
342,-10.523750799554382,-256.0350538625344,-8.224168084356881,7.5150872129929835,72.94147157279592,-2.521150402100272,256.4027434543734,73.75700877203596
343,-10.598488054539935,-256.0990685621899,-8.393772499792114,6.534154800677089,72.84929365294097,-2.503179015596883,256.47573042506224,73.42939404303439
344,-10.6829904000646,-256.1631336536398,-8.55986026637575,5.6587426056534404,72.77882402434606,-2.4356609028116907,256.549031460228,73.1501083972632
345,-10.776351297105908,-256.22600335969804,-8.719975812407203,4.889783177862507,72.73161448793863,-2.322292364104192,256.62128208418693,72.92116570314386
346,-10.877529955864063,-256.2865046132212,-8.871807932657074,4.225667861196356,72.70825722604029,-2.167767212035665,256.69119010574104,72.74312272493219
347,-10.985359964032284,-256.3435642364188,-9.013229401845166,3.662402132941702,72.70837428102531,-1.9776334642190019,256.75756427253765,72.61510692881882
348,-11.098562714893143,-256.39623319528266,-9.142335018351632,3.1938253795901095,72.7306377078727,-1.7581303805172195,256.81934017287153,72.53488211496658
349,-11.215764922533761,-256.443707590505,-9.257476794016963,2.811886186002291,72.77281956549992,-1.5160115713368116,256.8756029820653,72.49894934158691
350,-11.335519528635336,-256.4853459425228,-9.357295068384165,2.506962612943717,72.83186971183996,-1.2583600849527292,256.925606548595,72.5026794143352
351,-11.45632944273901,-256.5206822608509,-9.440744578519855,2.268215900869332,72.90401828295266,-0.9924012378444735,256.96878825970964,72.54047217565765
352,-11.576673656139906,-256.54943441859865,-9.507114712944261,2.0839655438002764,72.9848988399906,-0.7253185453072398,257.004779164962,72.60593701755104
353,-11.695035243237356,-256.5715074721211,-9.55604316050613,1.9420736764843671,73.06968749505538,-0.4640775191764498,257.0334089495134,72.69208849185947
354,-11.80993062410363,-256.58699171051205,-9.587522040945343,1.830327157178547,73.15325288503962,-0.2152614135925172,257.05470547888103,72.79155060884766
355,-11.919939306453246,-256.59615532469974,-9.601895584028009,1.7368065518062679,73.230311657046,0.015077703453801727,257.0688887300405,72.8967633976832
356,-12.023733273496344,-256.5994316889893,-9.599848595774729,1.6502323419138198,73.2955841862226,0.2215498434967674,257.0763590274772,73.00018556834517
357,-12.120105256211644,-256.59740149423976,-9.582385325760026,1.560279950680077,73.34394559493646,0.39953784408014625,257.0776797642242,73.09448767736757
358,-12.207995213796346,-256.59077042569015,-9.550798964620693,1.4578564907821359,73.37056775956296,0.5452863551745434,257.07355526852916,73.17273102530821
359,-12.286514363823212,-256.58034358312455,-9.506632775250498,1.3353334560023595,73.37104877868866,0.6559678662096998,257.0648050132988,73.228528497066
360,-12.354966113658945,-256.5669981264536,-9.451634516673002,1.1867309241867487,73.34152719582168,0.7297249740094583,257.052335678607,73.25618455790183
361,-12.412863298286354,-256.55165552710054,-9.387706155910916,1.0078501927390084,73.2787790240057,0.765688540669018,257.0371124915322,73.25081253844675
362,-12.459941141644725,-256.53525436802965,-9.31685098415375,0.7963530804255285,73.18029629352525,0.7639718853951571,257.02013083487446,73.20842815986569
363,-12.496165255879482,-256.5187241041647,-9.241120340455318,0.551787413720917,73.04434645565068,0.725641649516177,257.0023885823171,73.12601898217412
364,-12.521733879276647,-256.50295984368984,-9.16256214421729,0.2755595461676969,72.87001250378628,0.6526664357033302,256.98485925986193,73.00159008608023
365,-12.537073606725926,-256.4887981769438,-9.0831731455696,-0.02914385402728961,72.65721404975541,0.5478447589156971,256.9684660915522,72.83418675349978
366,-12.542828135927579,-256.47699429894556,-9.004856190653332,-0.357481175847233,72.40670977158071,0.41471429213412137,256.95405719852613,72.62389514275499
367,-12.53983994950687,-256.46820095421356,-8.929383086423234,-0.7031236577291813,72.12008167177521,0.25744484774284426,256.9423824972131,72.37182199679009
368,-12.529125290399099,-256.462949923652,-8.858363089691213,-1.0584599080220285,71.7997015602019,0.08071794607185608,256.93407303414824,72.080054383377
369,-12.511843230822473,-256.46163682666554,-8.79321674258034,-1.4148307043326123,71.44868019811913,-0.1104038831012527,256.92962355734403,71.75160044384243
370,-12.489260029999755,-256.4645099323762,-8.735154713333197,-1.7627870207148615,71.07079965197265,-0.3106147510779883,256.9293790597585,71.39031216920846
371,-12.462710238911177,-256.4716634916653,-8.685161411744806,-2.0923637468466727,70.67042962160969,-0.5145065961652844,256.9335258630568,71.00079135152416
372,-12.433556135787477,-256.4830358964215,-8.643983329201395,-2.393361211331065,70.25242883148803,-0.7167103897593496,256.94208761569087,70.58828008444799
373,-12.403147151587104,-256.49841283072834,-8.612122184516693,-2.655626491742594,69.82203297815822,-0.9120337508182905,256.95492644543265,70.15853749183613
374,-12.372780981148628,-256.5174355139695,-8.589832954928688,-2.86932667280636,69.38473116825236,-1.0955913224193972,256.9717494434859,69.71770470982518
375,-12.343667939139488,-256.53961407870133,-8.577126708778625,-3.025206687552785,68.94613324610349,-1.2629243240049781,256.9921205885167,69.27216052959413
376,-12.316899749501953,-256.5643460044686,-8.573777854332397,-3.1148250403819846,68.51183092605429,-1.4101058139892095,257.0154780704174,68.82837055253347
377,-12.293423519641413,-256.59093933515965,-8.579335061345159,-3.1307614697818162,68.08725622342892,-1.5338283659153187,257.0411567485612,68.39273322933734
378,-12.27402134777486,-256.6186401583712,-8.593134846401364,-3.0667914300142995,67.67754127107872,-1.6314711625457485,257.0684152076998,67.97142670545416
379,-12.259295843230488,-256.64666348850096,-8.61431680405701,-2.918023157765743,67.287384120194,-1.701144081578967,257.096466529932,67.57026089023721
380,-12.249661648213198,-256.674226237619,-8.64183979529665,-2.680994060246468,66.92092545452628,-1.7417072415218868,257.1245114465059,67.19453951221529
381,-12.2453427211117,-256.70058046425856,-8.6744989826774,-2.353724272282316,66.58164121030885,-1.752765602158548,257.15177204517624,66.84893703343454
382,-12.246374724396121,-256.72504475989916,-8.710944181873423,-1.9357265553311136,66.27225583157337,-1.7346393863102885,257.17752387991004,66.5373951089944
383,-12.252611538306004,-256.7470316249178,-8.749700311560895,-1.427973275143174,65.99468029507574,-1.6883121565328967,257.20112431726324,66.26304277728023
384,-12.263734856388806,-256.7660690047453,-8.789190629954115,-0.8328229384133048,65.74997815202552,-1.6153592747237646,257.2220352658926,66.02814377945448
385,-12.27926600122676,-256.7818147091049,-8.827763059744333,-0.15391056966954933,65.53836171006631,-1.5178601963366267,257.2398389831446,65.83407337127082
386,-12.298579371889176,-256.794063124597,-8.863719531419425,0.603992085475915,65.35921916933104,-1.3982986515697877,257.2542463407787,65.6813257413646
387,-12.320917155570823,-256.80274433519577,-8.895348109938542,1.4351390981832355,65.21117210165488,-1.2594552789332618,257.26509764165996,65.56955174812006
388,-12.345405077721718,-256.8079163270611,-8.920957581726904,2.332987179665951,65.09216123373412,-1.1042976662269801,257.2723566455108,65.49762523971941
389,-12.371069074705924,-256.80975128927633,-8.938913966656905,3.2903778768600502,64.99955717906698,-0.9358729350734427,257.2760987954766,65.46373485094394
390,-12.39685290078727,-256.80851721584924,-8.947678125295871,4.299716403634547,64.93029163184708,-0.757207897632616,257.27649482657415,65.46549696716878
391,-12.421636853898113,-256.8045561870938,-8.94584341728622,5.353139151660452,64.88100364484471,-0.5712213574725167,257.2737911090489,65.50008459587255
392,-12.444257972858598,-256.798260835117,-8.932172237470242,6.4426632240716595,64.84819504617843,-0.380652301869998,257.2682882075896,65.56436629996477
393,-12.463532083708957,-256.7900504752959,-8.905630112095677,7.560313047425965,64.8283888617232,-0.1880066083687342,257.260319108916,65.65504919728355
394,-12.478277863318052,-256.78034821446886,-8.865415897744038,8.698221108930062,64.81828474788209,0.004476386161258976,257.2502283833579,65.76882026320268
395,-12.487342722840188,-256.7695601090453,-8.810986638686359,9.848701943240162,64.81490577245076,0.19483736570501528,257.23835329161045,65.90248063576313
396,-12.489629976717318,-256.7580571535319,-8.742075902774918,11.004300423477119,64.81573129419134,0.3813915962083619,257.2250075497234,66.05306816409244
397,-12.484126589966099,-256.74616049453283,-8.658704871724549,12.157816980646883,64.81881112949675,0.5627065076561761,257.2104680906269,66.21796396904585
398,-12.469930772953584,-256.73412986126675,-8.561185913602523,13.302313435434797,64.82285665191971,0.7375649206712511,257.19496477486376,66.3949792671042
399,-12.446278709007906,-256.72215495810616,-8.450118614193029,14.431103627368149,64.82730498292922,0.9049170476157691,257.1786727698541,66.58241916926039
400,-12.412569714397023,-256.7103495499879,-8.326378283205358,15.537733047547077,64.83235307036614,1.0638248010089,257.16170730520935,66.77912068637957
401,-12.368389201264645,-256.69874807461287,-8.191097005704464,16.615951396899867,64.8389592857268,1.213402265276013,257.1441206192558,66.9844628476939
402,-12.313528962924098,-256.68730470816274,-8.045637587002274,17.659681580684016,64.84881123288635,1.3527563808004632,257.12590102017367,67.1983477263967
403,-12.24800444266699,-256.67589489087953,-7.891561194044303,18.662988230896406,64.86425973697187,1.4809318929256587,257.1069740854792,67.42115227264658
404,-12.172068667913342,-256.6643194205693,-7.730589911955724,19.620048491467045,64.8882204413921,1.5968644169808033,257.08720613775773,67.65365216344438
405,-12.08622237905012,-256.65231130464645,-7.564565679723628,20.52512756138782,64.92404603262551,1.699345059736712,257.0664102144478,67.89692035661552
406,-11.991219601828838,-256.6395455702368,-7.395407152164308,21.37256140181866,64.97537374647871,1.7869994012065251,257.0443547443396,68.15220460715948
407,-11.888067638647088,-256.6256521803717,-7.225065974261888,22.15674905752521,65.04595434989452,1.8582828003042067,257.0207750752443,68.42078973600765
408,-11.778020381126646,-256.6102320880996,-7.055483764467254,22.872157151285425,65.1394700619639,1.9114930512588355,256.9953878721463,68.70385174776823
409,-11.662564132309454,-256.5928761868783,-6.888550872858727,23.513339169246166,65.25934968801526,1.9448005150936905,256.9679081403245,69.00231176337284
410,-11.54339573660914,-256.5731864307207,-6.7260677917818015,24.074972006269057,65.40858946347139,1.9562950273050985,256.9380681689064,69.31669799428815
411,-11.422393484475887,-256.5507978282845,-6.569709932019573,24.551911719951843,65.58958774118175,1.9440481011860364,256.90563714950815,69.64702358607295
412,-11.301581702050816,-256.5253996033704,-6.420996299633821,24.93926948192814,65.80400083254793,1.9061881672608112,256.87043982832,69.99268719541243
413,-11.183090091099736,-256.496753734544,-6.28126247232593,25.232507385838744,66.05262620023431,1.840985805838613,256.83237247112936,70.35240181706234
414,-11.069108899744476,-256.4647093764866,-6.151638270595398,25.427552219213926,66.3353179334674,1.7469451646983556,256.79141470707975,70.72415581486256
415,-10.961841039553365,-256.4292122599634,-6.033030639984246,25.52092369421992,66.65093808661246,1.6228970795989952,256.7476364109675,71.10520844947028
416,-10.86345235904037,-256.390308896353,-5.926112376894682,25.509872162690595,66.99734605681498,1.4680889457686799,256.7011995147875,71.492120527346
417,-10.77602139103031,-256.3481460348357,-5.831317317853322,25.39251974807834,67.37142671918495,1.2822662340651232,256.6523552607097,71.88081920310155
418,-10.70148998494904,-256.3029661660942,-5.7488424419202655,25.167998252195016,67.76915649668331,1.0657407757375144,256.60143774912893,72.26669447229101
419,-10.64161633592736,-256.2550999443697,-5.678657012972713,24.836577099371684,68.18570487801028,0.8194415569768341,256.5488547073947,72.64472344547771
420,-10.597932008218175,-256.2049563451143,-5.620518411458936,24.39977481997758,68.61556714037174,0.5449446903364487,256.4950763419485,73.00961706862148
421,-10.57170451223665,-256.1530113087189,-5.5739937665837545,23.860448010682568,69.05272232946677,0.24448034070046798,256.44062305644326,73.35598262296857
422,-10.563906748269241,-256.0997955503193,-5.538486111560574,23.222852246436542,69.49080910415616,-0.07908442469402542,256.3860527298157,73.67849424562432
423,-10.575194218693163,-256.0458820777276,-5.513263681824676,22.492670022148733,69.92331103929125,-0.42228668075722137,256.3319480915602,73.97206299597106
424,-10.605890457927181,-255.99187374167656,-5.497491073526104,21.677001511159002,70.34374250414761,-0.7811312304076599,256.27890449732996,74.23199776176952
425,-10.65598072450203,-255.93839093819585,-5.490261125705085,20.784314853033397,70.74582639181017,-1.1511743228953308,256.22751819082345,74.4541486773671
426,-10.725113665206123,-255.886059524987,-5.490626556647651,19.8243539689299,71.12365584441545,-1.5276241930970647,256.17837507209526,74.63502583598742
427,-10.812610404880843,-255.83549915390094,-5.497630561827982,18.80800367143937,71.47183365683605,-1.90545434334493,256.13204013040007,74.77188792068533
428,-10.917480340225758,-255.7873124408513,-5.510335615373228,17.747114105865545,71.78558504118614,-2.2795248699753685,256.08904791818645,74.86279776990027
429,-11.038442791195893,-255.74207545113174,-5.527849495541362,16.654289168567942,72.06084160736313,-2.6447067595162372,256.0498944946954,74.90664451201322
430,-11.173953561571013,-255.7003297127501,-5.549347251050721,15.542646138959942,72.29429647382118,-2.9960040508533465,256.0150309947401,74.90313437276104
431,-11.32223540957346,-255.66257547069847,-5.574087753187852,14.425555858423657,72.48343212862028,-3.328669104381708,255.9848584763412,74.85275422678734
432,-11.481311475084473,-255.6292654368759,-5.601423756977824,13.31637394757651,72.62652385989661,-3.638306863396342,255.95972325084878,74.75671318782382
433,-11.64904083284721,-255.60079811984502,-5.630804905212959,12.228173547871453,72.72262222260251,-3.92096481941884,255.93991174412432,74.61686794775599
434,-11.823155459115686,-255.57750998890035,-5.661773706025694,11.173488993855198,72.77151817605622,-4.17320633039073,255.9256441239861,74.4356373166568
435,-12.00129796214668,-255.5596661217541,-5.693955126052329,10.164077995890784,72.77369438400132,-4.392166001470427,255.91706633775726,74.21591075785507
436,-12.181059473415567,-255.5474494468383,-5.727040993931024,9.210707746080876,72.7302659077193,-4.575587022228127,255.9142406770776,73.96095493664349
437,-12.360017183601146,-255.54094910169505,-5.7607707872979645,8.32296822454656,72.64291326961327,-4.721841532959652,255.91713540699368,73.67432158240285
438,-12.535771113722191,-255.54014874357424,-5.794910513726858,7.5091141685195995,72.5138106503616,-4.829936049742352,255.92561431552997,73.35975934839013
439,-12.705979763699133,-255.54491590342516,-5.8292313461769,6.775935856380458,72.34555176718989,-4.899504538118469,255.93942729259663,73.02113180611208
440,-12.868394259790591,-255.55499370025638,-5.863489530315011,6.128658117512191,72.14107570887862,-4.930791829947536,255.95820326506592,72.6623431796791
441,-13.02089057326746,-255.56999634627334,-5.897408872272823,5.570866773579854,71.90359465879379,-4.924629786415124,255.98144691833875,72.28727289494049
442,-13.161499316825436,-255.58940972941323,-5.930666839358919,5.104461964362197,71.6365250390182,-4.8824080602023,256.0085404799721,71.89971950643698
443,-13.288432535823695,-255.61259791708736,-5.962885014425322,4.729638380184468,71.34342317119385,-4.806040652581165,256.03875138745843,71.50335408018258
444,-13.400106895563626,-255.63881580479682,-5.993624404725972,4.4448930887579206,71.02792609239314,-4.697928828661489,256.0712460378468,71.10168265372512
445,-13.49516287729856,-255.66722750915585,-6.022385915404729,4.247062113212291,70.69369774373233,-4.560920463104913,256.1051092015708,70.69801700029338
446,-13.572480030073255,-255.6969295766789,-6.048616100549423,4.131386953396635,70.34438043991291,-4.398265608668327,256.1393681742118,70.2954526494672
447,-13.631188747990088,-255.72697769612728,-6.071718073494586,4.091611763148606,69.98355137747097,-4.213567980935262,256.17302037384405,69.89685300615692
448,-13.670679165848643,-255.75641544016793,-6.091067190384263,4.120110971904478,69.61468396549044,-4.010732037417875,256.20506293027677,69.50483848200783
449,-13.69060750522216,-255.78430366934438,-6.106030792660658,4.20804594806814,69.24111396165596,-3.7939053379491345,256.23452289882687,69.12177980994767
450,-13.690899766155876,-255.80974950439065,-6.115990906093788,4.345548088822433,68.8660107229781,-3.5674159449039635,256.2604869726869,68.74979511471955
451,-13.671752356920875,-255.83193400701973,-6.120368440129146,4.52192470868345,68.49235422535885,-3.335704852795254,256.28212977831186,68.3907507585578
452,-13.633629217884128,-255.85013780167932,-6.118647247062466,4.725883383961437,68.12291872821447,-3.103253872198608,256.29873992514416,68.04626633184515
453,-13.577255128327222,-255.86376390437982,-6.110396458150332,4.945769952727555,67.760263949607,-2.874509955547238,256.3097430242394,67.71772429405378
454,-13.503605033825018,-255.87235711967892,-6.095289784193565,5.169815074986959,67.40673433466083,-2.653807482325791,256.31472100091463,67.40628463549855
455,-13.413889328739897,-255.87561950972827,-6.073120846019727,5.38638406105751,67.06446647737134,-2.445290371871351,256.313427184175,67.1129045444711
456,-13.309535089380917,-255.87342150776365,-6.043813951022946,5.584224574751483,66.73540409035293,-2.2528360018347477,256.30579673581013,66.83836252030505
457,-13.19216330875351,-255.86580818240535,-6.007429963714587,5.752706836805696,66.42131926069698,-2.0799828236394613,256.2919519244775,66.5832858259983
458,-13.063562244421618,-255.85300007233266,-5.964167049826455,5.882051091486175,66.12383823557424,-1.9298633830721812,256.2722016695685,66.34817978030222
459,-12.92565709223021,-255.8353881054231,-5.91435621053369,5.963537325699358,65.844469732663,-1.8051442435509994,256.24703488206035,66.13345723288705
460,-12.780476404810974,-255.81352247672604,-5.858451759722784,5.989692532962606,65.58463376300158,-1.707974084853275,256.2171075047192,65.93946664164932
461,-12.630115966209573,-255.78809587136487,-5.797017237008744,5.9544512137982055,65.34568910532484,-1.639941025989829,256.18322368729025,65.7665173977898
462,-12.476701069621353,-255.75992189218283,-5.730707596330942,5.853285310924417,65.12895775591478,-1.6020400523846021,256.1463120247573,65.61490129776968
463,-12.322348190685762,-255.72990986577446,-5.660248762347334,5.683300349244219,64.93574481314529,-1.5946513655293653,256.10739810676074,65.48490925326377
464,-12.169126902368669,-255.6990373368999,-5.586415802341276,5.443295097008743,64.76735236627654,-1.617530504717047,256.0675747558193,65.37684247336507
465,-12.019022658847526,-255.66832156855176,-5.5100110617446845,5.133782524320533,64.62508612852629,-1.6698111339073882,256.0279713268814,65.29101752117367
466,-11.873900967202903,-255.63879127946248,-5.431843627566602,4.756970244346779,64.51025383552512,-1.7500213325049738,255.98972334652132,65.22776488924532
467,-11.735473629389139,-255.6114596526658,-5.352711333644925,4.316699090430591,64.4241548204521,-1.856113991974569,255.95394357426278,65.18742106224612
468,-11.605268157793233,-255.58729932344804,-5.2733861544562055,3.8183391227756442,64.36806065973218,-1.9855114793063862,255.92169525591234,65.17031443517925
469,-11.484601873738468,-255.56721966292594,-5.1946032982903745,3.268643264800687,64.34318732918038,-2.135164118150449,255.89396795736403,65.17674591389587
470,-11.374562265385292,-255.5520463171601,-5.117053774386656,2.6755599987460448,64.350659855107,-2.301621331080843,255.87165600612184,65.20696548464721
471,-11.275994823275898,-255.54250273160017,-5.041379841773006,2.048008074489716,64.3914708993278,-2.4811136107297385,255.85553931530634,65.26114641137774
472,-11.189498961866677,-255.53919334446277,-4.9681725663310345,1.3956178701490323,64.4664350155104,-2.6696430173558747,255.8462662874634,65.33935892549701
473,-11.115432008730757,-255.54258826297098,-4.897970652070545,0.7284457022117047,64.57614044657538,-2.8630797342756433,255.84433859625204,65.44154528556989
474,-11.05392073266193,-255.55300948108018,-4.831259776711478,0.05666885601906515,64.72090032950543,-3.0572622618485026,255.85009786757186,65.56749791969213
475,-11.004879481968553,-255.57061900425444,-4.768471860051912,-0.6097297150283791,64.90070507244701,-3.2480988888979105,255.86371457520897,65.71684205274636
476,-10.96803365883701,-255.59540955634435,-4.709983964991698,-1.2612772673251689,65.11517751698084,-3.431668014682479,255.88517976539623,65.88902381830081
477,-10.942946989609672,-255.62719873100647,-4.656116839044778,-1.8893175825426636,65.36353236532749,-3.60431473976946,255.91430040537435,66.08330444871314
478,-10.929050962541663,-255.66562739653745,-4.607133445942159,-2.4862976237482193,65.64454128824757,-3.7627410149035936,255.95069909887116,66.2987608021214
479,-10.92567492182788,-255.71016287906903,-4.563238128619098,-3.0460248776681254,65.95650511847948,-3.9040865947532133,255.99381863677365,66.53429222945744
480,-10.932075529219363,-255.7601070763901,-4.524577153897534,-3.563886535229828,66.29723450494838,-4.025998096778632,256.0429314888839,66.78863355794014
481,-10.947464514660192,-255.81460934667655,-4.491241256395523,-4.037022801985994,66.66404027436838,-4.126683661072234,256.09715404017356,67.06037371045421
482,-10.971033804400761,-255.87268382808486,-4.463270453710422,-4.464448079670858,67.05373448504189,-4.204951114823273,256.15546518714467,67.347979177091
483,-11.001977263009733,-255.93323074188086,-4.440660939036861,-4.847115501034733,67.46264279972483,-4.260228152175629,256.21672880478076,67.6498212518322
484,-11.039508443330368,-255.99506117916792,-4.423373413386954,-5.187922294379645,67.88662841626211,-4.292563755171248,256.2797195410972,67.9642057078774
485,-11.082873980337906,-256.0569248662099,-4.411341925016619,-5.491655620887801,68.32112741523564,-4.302610841329632,256.34315139709884,68.2894034400321
486,-11.131362670396216,-256.11754042684873,-4.4044821924547515,-5.764880733264893,68.7611950341025,-4.291590918758468,256.40570859126007,68.62368055653604
487,-11.184310748126348,-256.17562765870616,-4.402698499146212,-6.015775387926648,69.20156209579547,-4.261242324796935,256.46607823115255,68.96532646701075
488,-11.24110414449745,-256.2299412607581,-4.4058885395536835,-6.253916278708163,69.63670065103332,-4.2137543244491535,256.52298425548236,69.312678703089
489,-11.301178445676898,-256.2793052861181,-4.413946006296775,-6.490024769921378,70.06089785295967,-4.15168987455958,256.5752219522111,69.66414352042403
490,-11.364017011984133,-256.32264740922403,-4.426761114372725,-6.735680293974,70.46833714908465,-4.077900225088487,256.6216921700621,70.01821173433042
491,-11.42914748053727,-256.3590319921169,-4.4442195449848745,-7.003010323532119,70.8531860061426,-3.9954347591568813,256.6614342301302,70.37346968504721
492,-11.496136753652436,-256.38769095273983,-4.466200447299216,-7.304365809715666,71.20968952745163,-3.9074495323803085,256.69365655810293,70.72860565781123
493,-11.564584541476886,-256.40805152800993,-4.49257422890169,-7.6519905275039335,71.53226941465063,-3.8171177823589795,256.7177641453341,71.08241243890215
494,-11.634115552684507,-256.4197600982555,-4.523200894520531,-8.057692048446942,71.81562767988594,-3.7275452277185237,256.733382020749,71.43378689516457
495,-11.704370503098671,-256.42270123820776,-4.557929570592566,-8.532521168124328,72.05485426698452,-3.6416923484554857,256.74037391461417,71.78172746360259
496,-11.774996210154308,-256.4170111021204,-4.596599543463859,-9.086465643289925,72.24553730885474,-3.562305150942144,256.7388552364734,72.12533025058579
497,-11.8456351297,-256.4030842281131,-4.639042716309923,-9.728163168260389,72.38387421073938,-3.4918552521766126,256.72919946407245,72.46378414721595
498,-11.91591478213304,-256.38157292449824,-4.685087002772318,-10.464637761550772,72.46678117115728,-3.432489521481785,256.7120371164085,72.79636503681364
499,-11.985437617283786,-256.353378556827,-4.734559990089301,-11.301063225298451,72.49199817881501,-3.385989048469933,256.688246643952,73.12242884876245
500,-12.053771934582045,-256.31963424475015,-4.787292266766141,-12.240557130353734,72.4581860255001,-3.3537369217116684,256.6589367663004,73.4414029720017
501,-12.120444478882442,-256.2816787084738,-4.843119965089607,-13.284008866027124,72.36501155238808,-3.3366942485041147,256.62542002254713,73.7527754766353
502,-12.184935328973967,-256.24102132399935,-4.901886156721027,-14.429945607968927,72.21321725326683,-3.3353840286866685,256.58917762024737,74.0560817414476
503,-12.246675714986637,-256.1992988819179,-4.963440785403937,-15.674440482671182,72.00467145100406,-3.3498828495577415,256.5518161047892,74.3508883796682
504,-12.305049372448213,-256.15822502912704,-5.027638914522601,-17.01106759275973,71.7423954649341,-3.3798207657531645,256.51501685374893,74.63677467810699
505,-12.359397913763681,-256.1195337740289,-5.094337190015038,-18.430908760491317,71.43056447305726,-3.4243900382514387,256.480479795415,74.91331204943567
506,-12.409030502667237,-256.0849187221429,-5.163388503634461,-19.922616726090986,71.0744792098502,-3.4823635555332864,256.4498630264383,75.18004227327464
507,-12.453237853312825,-256.0559700105248,-5.234634895545061,-21.47253901651231,70.68050633587504,-3.552123729777961,256.42472029170494,75.43645564864184
508,-12.491310194364551,-256.0341113228196,-5.3078988121951625,-23.064905714183052,70.25598630083744,-3.6317024741385278,256.40643868658907,75.68197060930594
509,-12.522558389823057,-256.0205398015187,-5.3829729432237725,-24.682082870919384,69.80910867128861,-3.7188325697620224,256.39617935905835,75.91591672889336
510,-12.546337073731161,-256.01617195780943,-5.45960896803366,-26.30489134886148,69.3487560032881,-3.8110103669750726,256.3948242607751,76.13752316312895
511,-12.562068580158556,-256.0215986821709,-5.537505644841957,-27.912988501055647,68.88431830520638,-3.905569341405492,256.4029319982039,76.34591435182601
512,-12.569266595533657,-256.0370520940946,-5.616296824736913,-29.48530744782469,68.42548105301371,-3.999763502369908,256.42070548029636,76.54011435129723
513,-12.567558654871682,-256.06238624575826,-5.69554023903867,-31.00054592917993,67.98199080410372,-4.090858985128052,256.44797335142215,76.71906074012254
514,-12.556706717061237,-256.097072778067,-5.774708264492331,-32.43769402260646,67.56340381091557,-4.176231388484816,256.4841862962919,76.88162880482295
515,-12.536625076868114,-256.1402117501437,-5.853182122773768,-33.77658760380918,67.17882449451317,-4.253465680728093,256.5284284351647,77.02666658506283
516,-12.50739482794572,-256.1905571745436,-5.930250887068528,-34.99847244147355,66.83664187196158,-4.320454943231822,256.579443338293,77.15304110811913
517,-12.469274023480978,-256.24655628512545,-6.005116203324577,-36.08656235076146,66.54427282951204,-4.37549395049975,256.63567367337305,77.25969564864494
518,-12.422702705876228,-256.3064011141441,-6.076902946206056,-37.026573935311234,66.30792151796092,-4.417363632435269,256.69531303826443,77.3457172032833
519,-12.36830220935031,-256.3680904477557,-6.144675351168628,-37.807220129523934,66.13236421198887,-4.445402796822415,256.7563680221182,77.41041271226602
520,-12.306868557894571,-256.4294996886442,-6.2074577216690106,-38.42064497723756,66.02076870178608,-4.459564018374116,256.8167280097113,77.45339190531054
521,-12.239360229961408,-256.48845569659676,-6.264258731752187,-38.86278281803924,65.97455655148032,-4.460451242726706,256.87423980711276,77.47465391658567
522,-12.166880855309241,-256.5428134071789,-6.314098539055037,-39.13362634134388,65.9933152779968,-4.449337375919642,256.92678391494604,77.4746739916351
523,-12.090657469038518,-256.59053099752214,-6.356038167953921,-39.2373899506961,66.07476568165214,-4.428160906269578,256.9723492518632,77.45448581702973
524,-12.01201489336856,-256.6297405370223,-6.389210758616447,-39.18255771379794,66.21478727412752,-4.399501374880249,257.00910329819715,77.41575442229919
525,-11.932346858895006,-256.6588112964305,-6.412854255827681,-38.981808904362104,66.40750215903978,-4.366534204482444,257.035454864043,77.36083440073034
526,-11.853084676106928,-256.6764031121338,-6.426344934255589,-38.65181862547561,66.64541507511768,-4.33296597251752,257.0501069107459,77.2928084779162
527,-11.77566449520781,-256.6815075217954,-6.429230852271053,-38.21293592087688,66.91960489373668,-4.302951657782011,257.05209717265274,77.21550223214425
528,-11.701494297057835,-256.673474991513,-6.421263944908484,-37.68874673672885,67.21996088682683,-4.28099572963149,257.0408249199369,77.13347194480355
529,-11.63192169655207,-256.652027474954,-6.402429114614017,-37.10553374230966,67.53545563172479,-4.271839286212668,257.01606310617194,77.05196397441101
530,-11.568203479522113,-256.61725658996687,-6.372968521747873,-36.49164910649358,67.85444544309429,-4.280335896848467,256.97795617225734,76.97684551902333
531,-11.51147764942092,-256.5696086370237,-6.333399404674217,-35.876819693192886,68.16498858761437,-4.311319372375763,256.92700470789316,76.91450797147165
532,-11.462738683879332,-256.5098584212506,-6.284524054993722,-35.29140662581442,68.45517113070827,-4.369467255055109,256.86403890722806,76.87174512049151
533,-11.422816646381532,-256.4390743659341,-6.227430812908251,-34.7656425759973,68.71343005566295,-4.459164224280425,256.790183279144,76.85560910809814
534,-11.392360699342417,-256.35857768688913,-6.163485065576359,-34.328870272196575,68.92886333879446,-4.584369740151423,256.70681534761366,76.87324731757403
535,-11.371827389764197,-256.26989838713774,-6.094309460939129,-34.00880458152016,69.0915170572208,-4.748494057652347,256.6155210628063,76.9317233629406
536,-11.361473808263245,-256.17473048880595,-6.021753226914009,-33.83083831366218,69.19264045594299,-4.954286272266315,256.5180493075798,77.03782531949282
537,-11.361355397493204,-256.0748882200957,-5.947851658219833,-33.81740901878863,69.22490134078116,-5.2037373607949275,256.4162672068947,77.19786459028722
538,-11.3713279534838,-255.9722639336014,-5.874778067218466,-33.9874409502013,69.18255633710623,-5.49800033703001,256.3121170380669,77.41746966340692
539,-11.391053347555875,-255.86878766611716,-5.804791149711352,-34.35587346689893,69.06157342033994,-5.837328824721939,256.20757470281313,77.70138059509217
540,-11.420008652289116,-255.7663877900584,-5.740180501384651,-34.93328478954829,68.85970719772413,-6.2210348124721335,256.1046092768177,78.05325201123071
541,-11.457498528595494,-255.6669522545105,-5.683212261296289,-35.725618308866885,68.57652988385112,-6.647466229268681,256.0051431993572,78.47547402143798
542,-11.502670802280402,-255.57229032062696,-5.6360761320762345,-36.73401740144529,68.21342213297056,-7.1140051502184445,255.91101306159217,78.96902101525306
543,-11.554535085679975,-255.4840951896478,-5.600834650591565,-37.954773530296976,67.7735277965485,-7.617087667779628,255.82393143153263,79.53333761179417
544,-11.611984112015401,-255.403908257479,-5.5793755527494024,-39.37939086418055,67.26167567302274,-8.152246552950306,255.74545047566758,80.16626923977616
545,-11.67381722774313,-255.33308583287584,-5.573368243306092,-40.9947684984256,66.68427000775583,-8.714177674954245,255.67692822998882,80.86404235724716
546,-11.73876531098625,-255.27276913398012,-5.5842255083333905,-42.783498612261155,66.04915042945085,-9.29683068806947,255.6194983428927,81.62129665639736
547,-11.805516286426156,-255.22385835593937,-5.613071460331524,-44.724275710769746,65.3654215254091,-9.89352374195691,255.57404408081004,82.43116910510288
548,-11.872740376442552,-255.1869916056079,-5.660716274347526,-46.79240865310693,64.6432524930036,-10.497081019895122,255.54117737784046,83.28542753859071
549,-11.9391142499404,-255.1625295008955,-5.727637808236361,-48.96042364395826,63.89364821801644,-11.099990856822028,255.52122370068926,84.1746497676963
550,-12.003343347193837,-255.15054621360198,-5.813969980690426,-51.198742979616014,63.12819457846746,-11.69458108585579,255.51421348018155,85.08844278159337
551,-12.06418193378778,-255.1508276560284,-5.919497889984189,-53.476421340726596,62.35878256121242,-12.273207164726355,255.51988079686475,86.01569555094767
552,-12.120450811763881,-255.1628773040945,-6.043659940387393,-55.76191903456202,61.59731766892119,-12.828447657585382,255.53766982500912,86.94485812904523
553,-12.171052897400209,-255.18592980854737,-6.185557454840751,-58.02388997687453,60.85542279691705,-13.353300908084389,255.5667492157936,87.86423911967582
554,-12.214986928050145,-255.21897219310446,-6.343972247693796,-60.231961476434456,60.1441439989696,-13.841376288114828,255.606034247954,88.76231306082303
555,-12.251359461454614,-255.26077220199343,-6.517392419162668,-62.35748307230408,59.47366919278403,-14.287073257951652,255.65421632468951,89.62802886330753
556,-12.279395261183472,-255.30991321732748,-6.704046277431221,-64.37422268196113,58.85306987378572,-14.685741642275778,255.70979923789324,90.45111018301684
557,-12.29844619263476,-255.36483498993277,-6.901943822281502,-66.25898997060054,58.29007533655805,-15.033817012116895,255.77114143025796,91.22233849559025
558,-12.307998796539977,-255.42387913392483,-7.108924631157201,-67.99216899429696,57.790887743093755,-15.32892583456293,255.83650317725477,91.93380965542029
559,-12.307680653603068,-255.48533794878054,-7.322710338257236,-69.55814474115178,57.360044665369564,-15.5699560653925,255.90409720461304,92.5791548927766
560,-12.297265503418531,-255.5475047502455,-7.540959386369232,-70.9456112099096,57.000333635283575,-15.757090071570302,255.97214085433623,93.15371768130842
561,-12.276676917458353,-255.60872363170435,-7.761321564518347,-72.14775215701613,56.71276100445256,-15.891798144962769,256.03890763994224,93.65467888232057
562,-12.24599023563988,-255.66743651563013,-7.981490074678929,-73.16228960745379,56.49657524269527,-15.976792379541571,256.10277596995564,94.08112415654753
563,-12.20543249483302,-255.72222550716697,-8.199249430471626,-73.9913995673119,56.34934277399093,-16.01594228982177,256.16227298618094,94.43404979009675
564,-12.155380162283619,-255.7718489240906,-8.412518259046255,-74.64149886666368,56.267072596507006,-16.014155144519663,256.21611185143354,94.71630560584616
565,-12.096354530705483,-255.81526991726966,-8.619386828220748,-75.12291138391306,56.24438430747656,-15.977225417606569,256.26322138625187,94.93247624223125
566,-12.02901456488059,-255.85167721559603,-8.818149577734289,-75.44942579666674,56.274712835448,-15.911658875472794,256.302767584903,95.0887045612088
567,-11.954146858353353,-255.88049808633215,-9.007332974869888,-75.6377603492687,56.35054224200143,-15.82447755237572,256.33416709220046,95.1924632061036
568,-11.872652285956454,-255.90140398005767,-9.185718733593069,-75.70695289225571,56.46366038171208,-15.723012234765262,256.35709308688064,95.25228232673894
569,-11.785529040127313,-255.91430948992667,-9.352362027890953,-75.67769659780689,56.6054259191161,-15.614689169445207,256.3714741680352,95.27744315407908
570,-11.693852064979273,-255.91936524889562,-9.506604022345464,-75.57164321845752,56.76703914269399,-15.50681761797574,256.3774868402612,95.27764836393497
571,-11.598749361945409,-255.91694533499927,-9.648078020691203,-75.41069646443414,56.9398082142326,-15.406384608279724,256.3755421618894,95.26268097698937
572,-11.501376022081528,-255.90762975072883,-9.77670879427168,-75.21631799126317,57.11540296437819,-15.319862755575853,256.36626714484964,95.24206387483268
573,-11.402887008005603,-255.89218256600523,-9.892705001058589,-75.00886762846822,57.28608902655661,-15.253036367646741,256.350481537941,95.22473184527209
574,-11.304409754444604,-255.87152626351406,-9.996544833378445,-74.806997919613,57.44493589293813,-15.21085029643408,256.32917058248574,95.21872741879818
575,-11.207017746588388,-255.8467126794676,-10.088955085997894,-74.62712089871496,57.58599333221435,-15.197285214131233,256.30345418642713,95.23093069453611
576,-11.111706364881622,-255.81889083159552,-10.170883848540438,-74.48296239357855,57.70443154159322,-15.21526219440886,256.2745528653883,95.26683196314146
577,-11.019372277323818,-255.78927205116057,-10.24346718746063,-74.3852160814229,57.79664142793337,-15.266578652221105,256.2437509291895,95.33035426640532
578,-10.930797403946636,-255.75909320957288,-10.307990541631096,-74.341306086856,57.86029254120088,-15.351876822514063,256.21235776929956,95.42373114191527
579,-10.846638087323637,-255.72957924819997,-10.365845976398424,-74.35526319810185,57.8943474737721,-15.470645047839248,256.18166852082675,95.54744279275037
580,-10.7674197698098,-255.70190641104975,-10.418486770123863,-74.4277158971984,57.899033029031074,-15.62125122858134,256.1529255622219,95.7002119083459
581,-10.693537213402198,-255.67716744766994,-10.467381005525027,-74.55599348162391,57.8757700836171,-15.801006905153374,256.1272821799596,95.87905839217619
582,-10.625259973707216,-255.65633975997622,-10.513965957144643,-74.73433475608148,57.827065700321185,-16.006259619404638,256.1057694239025,96.0794103583279
583,-10.562742447991024,-255.64025726914065,-10.559605164413089,-74.95419227066795,57.75637261537821,-16.232510462814467,256.0892669708736,96.29526701901088
584,-10.506037504053522,-255.62958676921275,-10.605550128092426,-75.20461902530248,57.66792264117527,-16.474553085531365,256.07847879489543,96.51940755882237
585,-10.455112573072746,-255.62480956602118,-10.652908429457192,-75.47272205973093,57.56654162375317,-16.726629930303517,256.073914464573,96.74363876097101
586,-10.409867147659979,-255.62620909360305,-10.70261963835886,-75.74416550063764,57.45745415942457,-16.982601049239054,256.07587676756697,96.959072963502
587,-10.370150778643964,-255.63386496008778,-10.755439695834978,-76.00370451300577,57.34608616864699,-17.23612052793444,256.08445610182804,97.15642686277226
588,-10.335780790656953,-255.64765364142787,-10.811933701308453,-76.23573119402337,57.23787269123728,-17.48081529715059,256.0995318158251,97.32633079109948
589,-10.306558939600873,-255.66725588900965,-10.872476407798677,-76.42481368659384,57.13807713207324,-17.710461007720877,256.1207805033525,97.45963748619246
590,-10.282286099160787,-255.69217078633932,-10.937259368472631,-76.55621064110547,57.051626933082055,-17.919149709262186,256.14769110727104,97.54771920192654
591,-10.262773895553085,-255.72173618272683,-11.006303575840628,-76.6163446452475,56.98296946482026,-18.101444323183145,256.17958646688413,97.58274242925069
592,-10.247852215174658,-255.75515488412978,-11.079476473355761,-76.59322036938525,56.93595087558321,-18.252515372566045,256.2156505964406,97.55791054622664
593,-10.237371859027915,-255.7915254909422,-11.156512283316163,-76.47677583014303,56.913719689975466,-18.36825615337209,256.2549605094192,97.46766630746906
594,-10.2312022809008,-255.82987625974945,-11.237034636160386,-76.25915818882125,56.918656095602515,-18.44537346517704,256.296520922417,97.30784806319994
595,-10.229225078620326,-255.86920005146817,-11.32058051618739,-75.93491872667788,56.95232711160509,-18.48145207050152,256.3392998929568,97.07579583648852
596,-10.231324444068559,-255.90848843554926,-11.4066245824118,-75.50112494320838,57.0154672088617,-18.47499211350316,256.3822634783924,96.77040576041738
597,-10.23737603983372,-255.94676324050624,-11.494602985155757,-74.9573909478886,57.10798341917385,-18.42541970985184,256.42440773555705,96.39213371949828
598,-10.247235842106791,-255.98310409611372,-11.583935866024488,-74.30583029892496,57.228983485832565,-18.33307176947875,256.46478663813,95.94295118454973
599,-10.260730426548688,-256.01667078416875,-11.674047782335622,-73.5509380602463,57.37682515276952,-18.199156837393275,256.5025347564737,95.42625806679591
600,-10.27764993948672,-256.0467196116473,-11.764385363911146,-72.6994110051888,57.54918425469658,-18.02569435941411,256.5368839332384,94.84675886799985
601,-10.297744577694578,-256.0726135987085,-11.854431686817621,-71.75991651481519,57.743138833688825,-17.81543530359196,256.56717375789725,94.21030939649728
602,-10.320724893359472,-256.0938269569919,-11.94371717291214,-70.74282175641214,57.955266061058516,-17.571767477722013,256.5928563218199,93.52374181521391
603,-10.34626578953135,-256.1099449292103,-12.03182718964143,-69.6598951714968,58.18174833758924,-17.2986091557459,256.6134963303501,92.79467581029296
604,-10.374013735925486,-256.12066038793506,-12.118406803297683,-68.52399215740057,58.41848468309904,-17.000294741799486,256.62876797476406,92.03132328982689
605,-10.403596465657078,-256.1257686379798,-12.203163280905082,-67.3487361246933,58.66120349265685,-16.681456145835742,256.63845000929166,91.24229332713857
606,-10.434634169509545,-256.1251617464984,-12.285866953137432,-66.14820494489946,58.90557293372084,-16.346903313868474,256.6424203490013,90.43640313295802
607,-10.466751053901126,-256.1188235029947,-12.366351005389324,-64.93663131422937,59.14730562034981,-16.001506984920276,256.6406512738551,89.6224997606653
608,-10.499586178439706,-256.10682578105485,-12.444510708410387,-63.728123885353796,59.38225465595457,-15.650086327509355,256.633205992551,88.80929610001226
609,-10.53280274845822,-256.0893266324312,-12.520302496158699,-62.53641423117588,59.606498651664154,-15.297303722235078,256.6202368834008,88.00522355102807
610,-10.566095393317902,-256.06656992220013,-12.593743085666215,-61.374632851303744,59.81641391883584,-14.947568597843826,256.60198521135584,87.21830264258453
611,-10.599195251706725,-256.03888580594906,-12.664908540514944,-60.25511563251088,60.008732731917746,-14.60495182952861,256.5787816103146,86.45603186544008
612,-10.631872802918846,-256.00669102179666,-12.7339328951631,-59.189240605970646,60.18058734364447,-14.27311173714092,256.5510462832518,85.72529423331851
613,-10.663938355988071,-255.97048793247154,-12.801005735693222,-58.187293632826766,60.329540219605356,-13.955232226650233,256.51928782379355,85.03228060079368
614,-10.69524007929501,-255.93086146346678,-12.866367999464563,-57.25836082447453,60.453601636974426,-13.65397319964136,256.4840997662566,84.38242851314988
615,-10.725659533794786,-255.88847343240406,-12.930305280182402,-56.41024505067912,60.551236307294694,-13.371433085430013,256.44615432478355,83.78037530175035
616,-10.755104851689387,-255.84405414935358,-12.99313818778673,-55.64940379196014,60.621361041744755,-13.109123233449822,256.406193187088,83.22992426057634
617,-10.783501905818452,-255.79839145549607,-13.055209787062767,-54.98090581711011,60.66333569657668,-12.867953920136733,256.36501554813765,82.73402302734688
618,-10.81078399202427,-255.75231745788787,-13.11687064751611,-54.40840464257336,60.67694970206024,-12.648231862668409,256.3234636925947,82.29475368317514
619,-10.836880681392886,-255.70669316666994,-13.178462374296734,-53.93412737769869,60.6624063515152,-12.449669337673274,256.28240640581635,81.91333448409802
620,-10.861706590472318,-255.66239118694904,-13.240300588499785,-53.55887831237688,60.620306681263145,-12.271405168920076,256.2427204468494,81.59013346161389
621,-10.885150859825528,-255.62027662599075,-13.302658275086385,-53.282057396108776,60.55163423569212,-12.112037895643907,256.2052703229798,81.3246943380451
622,-10.907068117652402,-255.58118645627331,-13.365750316728697,-53.10169449119413,60.45774138441523,-11.969671348812074,256.1708866782866,81.11577529663916
623,-10.927271637635345,-255.5459077570944,-13.429719888013752,-53.014500817976845,60.34033725862606,-11.841972647355496,256.14034377953806,80.96140111518993
624,-10.945529265868652,-255.51515554866623,-13.494627202450548,-53.01593921005308,60.20147686002086,-11.726242280101413,256.1143368581163,80.858928965789
625,-10.961562457402565,-255.48955126151048,-13.560440988944139,-53.100314585731,60.04355047647059,-11.619495496118045,256.09346037906147,80.80512776356487
626,-10.975048446821877,-255.46960312719028,-13.627033112891892,-53.26088543448851,59.86927222924217,-11.518553753772492,256.0781885400856,80.79627034642662
627,-10.98562528455248,-255.45568981188453,-13.694176871511335,-53.4899962130102,59.68166640484991,-11.420144521663424,256.0688593327118,80.82823707722133
628,-10.992899293254078,-255.4480484109159,-13.761549519727474,-53.77922948678942,59.48405020588345,-11.321007270956752,256.06566328826386,80.89662877928622
629,-10.99645441990539,-255.44676758269108,-13.828739450974423,-54.11957558307624,59.28001167439218,-11.218003024606162,256.0686376809393,80.99688632083688
630,-10.995862906399676,-255.45178624026764,-13.895258203141886,-54.50161655795829,59.07338173841785,-11.10822436323771,256.0776665832841,81.12441368486841
631,-10.990696666919705,-255.46289785778734,-13.960557126133759,-54.91572050354013,58.86819952954359,-10.989102405697386,256.09248678862485,81.27470099954789
632,-10.980538815955686,-255.47976006880606,-14.024048170847474,-55.35224166845295,58.668670294046045,-10.858507050865699,256.1126992176961,81.44344377513738
633,-10.964994967410338,-255.50190886120654,-14.08512793412644,-55.8017215392505,58.479115418883524,-10.714836717141987,256.1377850462478,81.62665453930903
634,-10.94370413163612,-255.52877638900614,-14.143203906028205,-56.25508588950482,58.303914348135216,-10.557093943531667,256.16712550675044,81.82076318083674
635,-10.916349148608441,-255.5597113125089,-14.197721770905106,-56.70383277371094,58.147438432333544,-10.38494348661986,256.20002420944877,82.02270251831749
636,-10.882666601852604,-255.59400067809975,-14.248192539405196,-57.14020648354528,58.013976978714766,-10.19874993262933,256.2357309247597,82.22997583679255
637,-10.842456195169762,-255.63089262909435,-14.294218282573215,-57.557352623424684,57.90765597157906,-9.999592371491131,256.273466051097,82.44070341853214
638,-10.795589771379143,-255.6696196182135,-14.335515354398092,-57.94944975788,57.83235015922831,-9.789254393727607,256.312445387345,82.65364551911865
639,-10.742020439352737,-255.7094220952496,-14.371934134002188,-58.311813564416745,57.79158946797579,-9.570188533443087,256.35190515369004,82.86819983125788
640,-10.681792425311409,-255.74957266155505,-14.403474371051496,-58.64097007747762,57.788460995887945,-9.345455189416239,256.3911272321362,83.08437220640458
641,-10.615052120147158,-255.78940037686144,-14.430295203067308,-58.934695390134,57.8255082035529,-9.11863695988083,256.42946428429065,83.30272026302174
642,-10.542060366271611,-255.8283144628137,-14.452718994777841,-59.19202005654744,57.90462945363659,-8.893730256998841,256.46636394893216,83.52427054945812
643,-10.463205442767135,-255.86582628448036,-14.471228467602261,-59.413197406089054,58.02697881161429,-8.675017055300275,256.501390952923,83.75041119102328
644,-10.379015677911795,-255.90156825439888,-14.486457109735419,-59.599636032198255,58.192872931059036,-8.4669206308012,256.53424574147135,83.9827633727997
645,-10.290170343105776,-255.9353081434827,-14.499173395944156,-59.753797786058904,58.4017087108199,-8.273850046997426,256.5647780940992,84.22303639179509
646,-10.197507506836818,-255.96695722173766,-14.510259727538438,-59.87906356923414,58.65189701699773,-8.10003881894562,256.5929941543642,84.47287211019584
647,-10.102027750710958,-255.99657077947776,-14.520687197552578,-59.97957002306951,58.94081798051504,-7.949383596532407,256.6190554489463,84.73368532336532
648,-10.004892939754502,-256.024339928122,-14.531487379046457,-60.06002093929578,59.264803156946414,-7.825288894429091,256.643268836718,85.0065068549987
649,-9.907419497770757,-256.0505741258428,-14.543722408944053,-60.125478041036835,59.61914914154081,-7.730523893280357,256.6660668889003,85.29183622669659
650,-9.811065834507167,-256.0756746327807,-14.558454686244374,-60.18113684501464,59.99816609062606,-7.66709712694547,256.68797897030123,85.58951063942447
651,-9.71741373666599,-256.1001000724813,-14.57671744251248,-60.23209462767671,60.39526312174542,-7.636154452918228,256.7095942642835,85.89859683550358
652,-9.628143706737802,-256.1243263023378,-14.599487243223868,-60.28311895373461,60.80307089360083,-7.637905136804283,256.73151900239435,86.21731218998318
653,-9.545004443236445,-256.1488036029112,-14.627659207960113,-60.33842652732866,61.21359989365253,-7.671580191488704,256.7543309567715,86.54298098220896
654,-9.469776929192856,-256.17391460783193,-14.662025499210655,-60.40148294714405,61.61843112860664,-7.735426182863617,256.77853466138384,86.87203099085372
655,-9.404233884568956,-256.19993641133414,-14.703257490022077,-60.47483396832128,62.00893408071875,-7.826736372906817,256.8045208473819,87.20003414219565
656,-9.350095521682775,-256.2270099476945,-14.751891956206205,-60.55997791359581,62.37650505272,-7.941919277586083,256.8325332395237,87.52179286464794
657,-9.308982578729847,-256.2551190417565,-14.808321547186317,-60.6572869059376,62.71281746956537,-8.076602630585816,256.8626451625771,87.8314711360327
658,-9.282367621591835,-256.2840805601289,-14.872789606718667,-60.76598173462896,63.01007443400785,-8.22576861813659,256.89474742815963,88.12276614101775
659,-9.27152576397876,-256.3135460366654,-14.945389179350085,-60.88416170710427,63.2612529948484,-8.383914335777689,256.9285479106773,88.38911332260137
660,-9.277486275431112,-256.3430141826804,-15.026065805229608,-61.00888721162774,63.46032939325672,-8.545229937077538,256.96358225851515,88.62391488444695
661,-9.300986892906607,-256.37185291739627,-15.114623498395218,-61.13630935399697,63.60247518611904,-8.703786059335782,256.99923441445804,88.82077992109618
662,-9.342432914701112,-256.3993290023937,-15.210733192527092,-61.26183824898307,63.68421562037472,-8.85372188746705,257.0347650721133,88.97376354733193
663,-9.401863311790585,-256.4246430131545,-15.313943026363129,-61.38033955880079,63.70354374790439,-8.989425639575929,257.0693458558386,89.07759265722476
664,-9.478926085064902,-256.4469671634745,-15.423690113745236,-61.48634784221134,63.65998620738176,-9.10570025584747,257.1020968103878,89.12786713158302
665,-9.572864801647569,-256.4654834030902,-15.539313731363634,-61.57428527144477,63.55461905473464,-9.19790851189923,257.13212469776767,89.12122723519853
666,-9.682517635270006,-256.4794193388702,-15.660069976849954,-61.63867517168379,63.39003427830187,-9.26209346312188,257.15855971409974,89.05548034888102
667,-9.806329487434171,-256.48807996420925,-15.785147833541775,-61.674341356600976,63.17025956565301,-9.295071839258647,257.1805886385702,88.9296827695925
668,-9.942377074479301,-256.4908738120357,-15.9136862927532,-61.67658602635922,62.900635463542564,-9.294499556948754,257.1974830127477,88.74417480802452
669,-10.088406265672266,-256.48733276797765,-16.044791876215342,-61.641340784268735,62.58765531921451,-9.258909777060857,257.20862152663295,88.50056963523457
670,-10.24188040355081,-256.477125288931,-16.1775557304952,-61.56528699712506,62.23877435263966,-9.187724851821754,257.2135062641441,88.20169822432266
671,-10.400037893945314,-256.4600631881401,-16.311069528668078,-61.445943269529735,61.8621948952608,-9.081244092506138,257.2117728631032,87.85151430858764
672,-10.55995714884135,-256.43610249812906,-16.444439671274807,-61.281719211558425,61.46663522005219,-8.940609605625623,257.2031950014618,87.45496451839803
673,-10.718626974788473,-256.4053391803069,-16.576799579019198,-61.07193587899584,61.06108948437221,-8.767752598259625,257.18768389430846,87.01782972765002
674,-10.873020524427998,-256.36800057017047,-16.707320101265324,-60.81681417098298,60.654586170078055,-8.56532264722039,257.16528361619294,86.54654412876296
675,-11.020170812651413,-256.324433458769,-16.83521823130643,-60.51743303400736,60.25595211557319,-8.336602533999676,257.13616307449405,86.04799869252561
676,-11.157245554527726,-256.27508972888586,-16.959764468741604,-60.175659566172484,59.8735888636829,-8.085411380479481,257.1006054703355,85.5293355226288
677,-11.281618824735995,-256.2205105643403,-17.080289310311272,-59.7940531688313,59.51526763657476,-7.815998924841977,257.0589961754342,84.99773929640519
678,-11.390936887147657,-256.1613103750044,-17.19618945886184,-59.375745959124764,59.18794876682831,-7.532933772633902,257.0118100721518,84.46023161246997
679,-11.48317559971768,-256.09816157632423,-17.30693435341026,-58.9243019194381,58.897630785810634,-7.240988323323856,256.9595993993258,83.92347371893665
680,-11.556687150108418,-256.03178109853883,-17.41207341769184,-58.44355783113342,58.64923354962178,-6.9450228942528405,256.90298288455494,83.39358283124368
681,-11.610234543833043,-255.96291899111316,-17.511243935354482,-57.9374499893946,58.44651878382869,-6.649871458756227,256.8426364367451,82.87596714084415
682,-11.643013144325032,-255.89234892669083,-17.604178866922528,-57.40983200344395,58.29205027942484,-6.360231392912522,256.7792851207265,82.37518467382195
683,-11.654659425482855,-255.82086002573277,-17.69071354663297,-56.86429043747513,58.1871946765862,-6.080559572884891,256.71369577435934,81.89483121747459
684,-11.645247686812816,-255.74924929862968,-17.770790172265855,-56.3039662765958,58.13216232036314,-5.81497698360135,256.6466695330348,81.43746230782664
685,-11.61527567271814,-255.67831407556508,-17.844459209668354,-55.73139088435751,58.12608607023683,-5.567183704031676,256.579033623227,81.00455352913244
686,-11.565639945867476,-255.60884400605224,-17.911877117684277,-55.14834508123184,58.16713424933635,-5.3403858035295535,256.51163201234186,80.59650204189823
687,-11.497601777378105,-255.54161254108166,-17.973300096256512,-54.55574916766028,58.25265226387249,-5.13723537874932,256.4453148470927,80.212670404372
688,-11.412744471158426,-255.47736819059085,-18.029073859715343,-53.953590192484086,58.37932599668611,-4.9597847043315575,256.3809270172137,79.85147157088896
689,-11.31292346584739,-255.41682611681836,-18.079619726356942,-53.34089067973393,58.54335904074403,-4.809455234283903,256.3192964868876,79.51049167649977
690,-11.200211099259487,-255.36066063229583,-18.125417590784426,-52.71572058572568,58.74065527305442,-4.687021884632844,256.26122308832674,79.18664506994394
691,-11.076838364595808,-255.3094989042108,-18.16698660641064,-52.07525168448112,58.96699821329384,-4.592612570680318,256.2074682440372,78.87635422083734
692,-10.94513618513094,-255.2639157618845,-18.204864624670204,-51.41585108710887,59.218219091797714,-4.525722386998866,256.1587457035565,78.57574577381664
693,-10.80747862248221,-255.22442918938577,-18.239587571178248,-50.73320840916251,59.49034656627696,-4.48524122027299,256.11571306925657,78.28085330126355
694,-10.666230017709958,-255.19149604908662,-18.271669947865917,-50.022489418762234,59.77973250873848,-4.4694930934984995,256.0789638307004,77.98781730331547
695,-10.523697442564576,-255.16550782091835,-18.301587520886454,-49.27850795270987,60.08315011372788,-4.47628522404456,256.04901982860025,77.69307370608828
696,-10.382089201710553,-255.14678645836986,-18.329763042670738,-48.49590746472232,60.39786259512836,-4.502964652544136,256.026324341901,77.39352338282912
697,-10.243479651649132,-255.13558064901417,-18.356555655371498,-47.669343681065214,60.72166271992356,-4.54648033563386,256.01123614179056,77.08667683947029
698,-10.109780335331177,-255.1320627676518,-18.382254461045438,-46.793660408154814,61.052885126988535,-4.6034487428756155,256.0040248315449,76.77076992321199
699,-9.982717289723704,-255.13632669355232,-18.40707658090509,-45.86405148545302,61.390394637096264,-4.670221217529133,256.00486765437694,76.44484805233726
700,-9.863814245873915,-255.14838652566374,-18.431169808047215,-44.87620309023057,61.733554560691665,-4.742951636032312,256.013847790376,76.10881793823769
701,-9.754381251774454,-255.1681761374172,-18.454619613656668,-43.82641196990305,62.08217940784063,-4.81766322292109,256.03095403796897,75.76346704615393
702,-9.655508041117132,-255.19554945124068,-18.477459759435426,-42.711676641550916,62.43647642802335,-4.890313729739282,256.0560816702508,75.41045209604832
703,-9.568061303751426,-255.23028119531017,-18.499685246459965,-41.529760122595945,62.7969800564993,-4.956858536665472,256.0890340985988,75.0522587093551
704,-9.492684930444295,-255.27206774763656,-18.521266068366288,-40.279224304265405,63.16448267981867,-5.013311540710523,256.1295248018046,74.692134875351
705,-9.429802359286713,-255.32052767702288,-18.542160335049978,-38.959437592557656,63.53996432569588,-5.055803930143888,256.17717899696345,74.33400133196112
706,-9.379620373767686,-255.37520188930955,-18.56232561556726,-37.570558819006685,63.924523128339494,-5.080641119426833,256.2315348576283,73.98234232031412
707,-9.342134015322612,-255.43555372189894,-18.581727612753244,-36.113501525792955,64.31930782004495,-5.084358216982425,256.2920445492503,73.6420804776816
708,-9.31713253176524,-255.5009696307713,-18.600345508348614,-34.58988343061644,64.72545305805393,-5.063774335061116,256.3580756775317,73.31843981437142
709,-9.304206443064412,-255.57076118685777,-18.618173606493325,-33.001966128438305,65.14401811520287,-5.016045746592914,256.4289138435528,73.01680076172534
710,-9.30275597311327,-255.64416901253455,-18.635219293846273,-31.352589946373044,65.57592937119327,-4.938717397503164,256.503766947062,72.7425512493387
711,-9.312001358481995,-255.72036909796518,-18.651497727990304,-29.64510846018549,66.0219271316248,-4.829771768682848,256.58177172575745,72.50093774734717
712,-9.33099582147792,-255.79848163622157,-18.6670239270597,-27.88332663094434,66.48251749786603,-4.687673708807918,256.6620027457505,72.2969202046012
713,-9.358642109941925,-255.87758215103656,-18.681803027649877,-26.071445902459107,66.95793019737212,-4.511409686149879,256.7434837029786,72.1350347672028
714,-9.393713370461711,-255.95671440164438,-18.695819477451423,-24.21401891948255,67.44808337234056,-4.300519926265893,256.82520059919256,72.01926800128334
715,-9.434878795875768,-256.0349044683589,-18.70902592818225,-22.315915735839976,67.95255628732367,-4.0551220776335715,256.9061162615551,71.95294602597431
716,-9.480734092097565,-256.111175564339,-18.721332642132413,-20.382302439141085,68.47057075261212,-3.775925317605361,256.9851858038661,71.9386414667604
717,-9.529836393183334,-256.1845633770598,-18.732598291365534,-18.418632043282788,69.00098176145359,-3.464234094966007,257.0613728730903,71.9781004594381
718,-9.580742790889763,-256.2541319819273,-18.742623028740926,-16.430646358647103,69.54227743095755,-3.1219409288736575,257.1336667447441,72.07219111546394
719,-9.632051143753644,-256.31899050670484,-18.751144615314708,-14.42438640063528,70.09258791810115,-2.7515078245068527,257.2011004396305,72.22087401671224
720,-9.682441364287069,-256.3783107081598,-18.757838285073678,-12.406207766475026,70.64970268109745,-2.355935974107628,257.2627699910025,72.4231945782404
721,-9.730715022117607,-256.4313453687712,-18.7623210070233,-10.382796351992413,71.21109534599097,-1.938723565092121,257.3178547227836,72.67729658852822
722,-9.775830912824395,-256.47744687989484,-18.764160799174576,-8.361178944603234,71.7739554956039,-1.5038117420029977,257.36563785282317,72.98045591284134
723,-9.816934332621608,-256.51608472684023,-18.76289154464857,-6.348722820149452,72.33522682392912,-1.0555190384354862,257.40552607742086,73.32913316063437
724,-9.85337826536549,-256.546860256831,-18.758033220766443,-4.353118617390664,72.89165119563332,-0.5984648855861322,257.43706644442864,73.71904398860295
725,-9.884735487192353,-256.56951738214684,-18.74911669769066,-2.3823414623871924,73.4398181924403,-0.13748312521135062,257.45995907809197,74.14524560005827
726,-9.910801471918047,-256.5839485355523,-18.735711573123297,-0.4445864957000746,73.97621973742784,0.3224731839862554,257.47406497529266,74.60223790515845
727,-9.931588644202522,-256.5901957689773,-18.71745508363013,1.4518234647684773,74.49730933445555,0.7764339874627693,257.47940866551653,75.08407767017778
728,-9.947312914317587,-256.588447151454,-18.694079994770885,3.2985585228480363,74.99956525220003,1.219519391062272,257.47617579603025,75.58450369402621
729,-9.958373678342815,-256.5790287360825,-18.665439462543524,5.087428940780988,75.47955658401499,1.6470492132281764,257.464705829963,76.09707054993444
730,-9.965328656261052,-256.562392528576,-18.631527141091095,6.810555342404277,75.93401061734532,2.054651933315173,257.4454802311572,76.6152877984719
731,-9.968865007825242,-256.53910109591476,-18.592491252640304,8.46055624828617,76.35987951590023,2.4383696372369683,257.4191067464857,77.13276098043207
732,-9.969768083152116,-256.50980955859654,-18.54864185617257,10.030745552834778,76.7544040996518,2.794755314049124,257.38630053301233,77.64333029164823
733,-9.96888901000177,-256.47524566376495,-18.50045106793309,11.515331163055693,77.11517256476004,3.120958820883233,257.3478628602878,78.14120271350119
734,-9.967112183908597,-256.436188566907,-18.448546442615548,12.9096051504478,77.44017228753135,3.4147980412942376,257.30465807361816,78.62107352861801
735,-9.965323642899484,-256.3934469844312,-18.393698038364523,14.210115528262516,77.72783331995672,3.6748122208940153,257.25758955494337,79.07823354915756
736,-9.964381266133765,-256.3478374969416,-18.3367997838864,15.414810178390347,77.97706272084231,3.900295141512791,257.20757553716123,79.50865897198497
737,-9.96508770517543,-256.3001638749933,-18.2788457024062,16.52314445607298,78.18726939587822,4.091306613865968,257.1555257109431,79.90908148993665
738,-9.968166902774,-256.25119826125626,-18.22090153530602,17.536145504919002,78.35837957013571,4.248661636229924,257.1023195205627,80.27703706516198
739,-9.974244959337964,-256.20166482225056,-18.16407251100084,18.45642824815951,78.49084333803837,4.373897433591165,257.0487868352295,80.61089256283645
740,-9.983835952301012,-256.15222614941206,-18.109468359394274,19.288160312810348,78.58563290337078,4.469219475270554,256.9956913695166,80.9098502212583
741,-9.997333068276516,-256.10347242356363,-18.05816694839549,20.036975643148292,78.64423312191398,4.53742848184563,256.9437169727431,81.17393064817624
742,-10.015005086130682,-256.0559132727402,-18.011177956015985,20.709839034635692,78.66862481078218,4.581831295455135,256.8934568152004,81.40393562665534
743,-10.03699792485715,-256.0099722773913,-17.969407840595327,21.314866053279893,78.66126106766322,4.606139158576615,256.84540550180594,81.60139248005763
744,-10.063340702473782,-255.96598406795087,-17.93362717320254,21.861104695797852,78.62503663900813,4.614357344913146,256.7999541117885,81.76848212471766
745,-10.093955520525826,-255.92419389090006,-17.904441221128184,22.35828666032949,78.56325022135572,4.610670260405061,256.75738807374125,81.90795324650132
746,-10.128669935709604,-255.88475948159103,-17.882264544528415,22.81655716979561,78.47955946505273,4.599326172369699,256.7178877292355,82.02302524552884
747,-10.167230829064742,-255.8477551453282,-17.867300302510078,23.24619282926298,78.37792838938095,4.5845256363564335,256.6815314868453,82.11728268726806
748,-10.209318269406738,-255.81317805734645,-17.859524919790466,23.657316989959977,78.26256695710786,4.570317397055228,256.64830156911665,82.19456400996947
749,-10.254558111777223,-255.78095679499359,-17.85867869690095,24.059621636637246,78.13786273072802,4.560504988572802,256.61809235768476,82.25884722550732
750,-10.302532460387365,-255.7509619121371,-17.864262869358313,24.462104067702487,78.00830485765708,4.558566487346366,256.59072114833714,82.3141353699053
751,-10.352787623455095,-255.72301803664297,-17.87554352578101,24.872825731989664,77.87840109638485,4.567588980819035,256.5659408127873,82.36434453860468
752,-10.404839613611317,-255.6969167233643,-17.891562614195873,25.29869960140841,77.7525891433769,4.590218427315036,256.54345362139543,82.41319744983058
753,-10.458177475893121,-255.6724292722753,-17.91115598546751,25.745311431022515,77.63514406061883,4.628624807654111,256.522925448833,82.46412554371169
754,-10.512264776814845,-255.6493188821651,-17.93297813328056,26.21677918908072,77.53008405699192,4.684481879177321,256.50399972726314,82.52018257388809
755,-10.566539608951246,-255.62735170229206,-17.955533095327183,26.715653798526006,77.4410772035702,4.758960445829764,256.4863106900488,82.58397243967418
756,-10.620413596515148,-255.60630648301918,-17.977210896251982,27.242863083889123,77.37135185901299,4.852733814956457,256.46949558617996,82.65759363041865
757,-10.673270647224543,-255.58598262728145,-17.9963288351734,27.79769947656778,77.32361366110081,4.965993977015182,256.4532056508998,82.74260213179652
758,-10.724466466307863,-255.5662065102069,-18.011176708621274,28.377850678307826,77.29997191430775,5.098476966478554,256.437115679001,82.83999401357956
759,-10.77332998401403,-255.5468359418072,-18.020064705911757,28.9794712105476,77.30187806229524,5.249495778024532,256.42093203451003,82.95020820240723
760,-10.819167788290095,-255.52776265000662,-18.02137238500306,29.597291609948,77.33007867127787,5.417979092531792,256.4043989053755,83.07314914780582
761,-10.8612724071168,-255.50891276408325,-18.013596995620436,30.224760930132287,77.38458498084171,5.602513940556877,256.38730269160004,83.20822823002045
762,-10.898934871593124,-255.49024549340683,-17.99539945273222,30.85421718951269,77.46466062506497,5.801390338361503,256.36947461205295,83.3544218744315
763,-10.931461465109344,-255.47175041262355,-17.96564634410716,31.477079601772644,77.56882860730141,6.012645897250135,256.3507918117745,83.5103435074222
764,-10.958194024133448,-255.45344388635766,-17.923446387826882,32.08405602629515,77.69489804948819,6.23410845395561,256.33117734990975,83.67432581385282
765,-10.978532703752403,-255.43536519692123,-17.868179749986197,32.66535917744722,77.84001064966321,6.463434925990946,256.3105994565914,83.84450930540305
766,-10.991959828476041,-255.41757292299616,-17.79951869627121,33.21092568222737,78.00070619401913,6.6981448780383,256.28907042266076,84.01893300142457
767,-10.998063348757883,-255.4001420763067,-17.7174383851562,33.7106329382797,78.17300594264617,6.935647697817828,256.26664546822354,84.19562307563882
768,-10.9965585021846,-255.3831624236105,-17.62221734186077,34.15450977237717,78.35251229199854,7.173262836351419,256.2434219214692,84.37267564091412
769,-10.98730648325266,-255.36673827925685,-17.514428073822373,34.53293805611506,78.53452277419602,7.4082332828612865,256.2195389841716,84.54833037235343
770,-10.970329197832692,-255.35098984603812,-17.394918996016735,34.83684364062827,78.71415610132838,7.6377332608034445,256.1951782242039,84.72103230160319
771,-10.945819469015278,-255.3360559457419,-17.26478917103684,35.05787612659772,78.88648759038885,7.858871888750372,256.17056473836465,84.88947978013852
772,-10.914146315445198,-255.3220977979571,-17.125357502640156,35.188577944225266,79.0466909646535,8.068695084614008,256.1459687641833,85.05265726937712
773,-10.875855089884388,-255.3093034643854,-16.97812811020302,35.22254384131101,79.19018324733409,8.264188238827874,256.12170748710724,85.20985222244754
774,-10.831662353331417,-255.29789265971198,-16.82475360798645,35.15457208348055,79.31276923818669,8.44228216869358,256.0981468722645,85.36065583183714
