time,ax,ay,az,gx,gy,gz,accmagnitude,gccmagnitude
0,25.531159763007025,-255.2041445599632,-26.35669520932882,-92.63235537868242,-52.22976576159427,24.437323481542887,257.8691037189156,105.04519791762958
1,24.41408206212432,-255.65589167655972,-27.291112507811658,-105.54926770101811,-54.88054131113206,23.58917444668632,258.3443560466312,117.98856397255965
2,23.322709590539336,-256.103607530202,-28.210139580402632,-118.66104884186412,-57.26971457779253,22.65626870166201,258.8150912625863,131.1001595505669
3,22.265537263124234,-256.5426302706727,-29.10731591440868,-131.92779175155343,-59.33796307116957,21.621709762086095,259.2766080584579,144.33384877671875
4,21.250705000135245,-256.96833698013194,-29.97642777528507,-145.31016527344553,-61.02847870795419,20.471882130789137,259.7242448049908,157.64483308379317
5,20.28586648854324,-257.3762229535539,-30.811607882461413,-158.76949638259705,-62.288256127592604,19.1972142975712,260.15345837989827,170.98994153307623
6,19.378062266009678,-257.7619826659996,-31.60743548538934,-172.267835987862,-63.06934842879665,17.79280588088907,260.559905665582,184.3278708085136
7,18.53359949670595,-258.12159148341283,-32.3590354139116,-185.76802031738544,-63.330058375898695,16.25888833307452,260.93952687749976,197.61937965392565
8,17.757940956951725,-258.45138675951057,-33.06217427622673,-199.2337354223728,-63.036033238104515,14.601095044722795,261.2886293924618,210.82744018633298
9,17.05560594041607,-258.7481464525443,-33.71335160276166,-212.62958796686405,-62.161231941552046,12.830524533790056,261.603970164276,223.91734634680623
10,16.430085904608234,-259.0091629785662,-34.30988344247464,-225.92118210928493,-60.688734258769,10.96358941827844,261.8828343256467,236.85677848856855
11,15.883777628685092,-259.2323098095082,-34.849975675872294,-239.0752005920062,-58.61136363636414,9.021653585689144,262.12310728814543,249.61582334437026
12,15.417936423422185,-259.4160983374113,-35.332784110772906,-252.05948845680777,-55.93209836389942,7.030469787650083,262.32333758113083,262.16695066508646
13,15.032651525313769,-259.5597227536513,-35.75845838605635,-264.8431399080729,-52.664250465715504,5.019439142709436,262.4827878273956,274.4849515115738
14,14.726845213199628,-259.66309115460035,-36.12816698539522,-277.3965919737073,-48.83139812454776,3.020722074276759,262.6014716821275,286.54684776377377
15,14.498296448793095,-259.72684173506013,-36.44410129436396,-289.69173158415424,-44.467065508136955,1.0682364893275134,262.6801752242899,298.331786704926
16,14.343689041040927,-259.7523435941658,-36.709457453184186,-301.7020242957075,-39.61415312976838,-0.803416859025162,262.7204619963592,309.8209372830882
17,14.258683500282885,-259.7416821773524,-36.928395541972236,-313.4026722277886,-34.324131634672916,-2.5600600366826862,262.7246614351146,320.99740484183775
18,14.238010894861427,-259.6976296713504,-37.10597633429228,-324.77080547425044,-28.656021368907155,-4.1690332101325165,262.69584077557744,331.84617823609136
19,14.275586284837209,-259.62360085706655,-37.24807656450991,-335.78570547850103,-22.675188492793527,-5.6002404647746795,262.6377607603327,342.3541174088971
20,14.36463886926681,-259.52359514686,-37.36128440241629,-346.4290513444066,-16.451995084754152,-6.827110933173151,262.5548157963591,352.50998137623435
21,14.497855817744108,-259.40212583830925,-37.45277753633352,-356.68517183421756,-10.060345150311633,-7.827444865356674,262.45195960634373,362.30448722556946
22,14.66753662623801,-259.2641379256987,-37.53018689718004,-366.5412780359764,-3.5761704728635593,-8.584119672010772,262.3346178232882,371.73038144295964
23,14.865754584571759,-259.1149160208712,-37.60144961945973,-375.9876454814183,2.9241001062094187,-9.085636570785018,262.2085892675193,380.7824969197811
24,15.084521619639219,-258.9599840387339,-37.674655264967605,-385.017710845128,9.365046737871502,-9.326494029315,262.07993780911244,389.45776350396574
25,15.315952506502331,-258.80499836195145,-37.757889540575256,-393.6280480152816,15.673702458986712,-9.307379553287971,261.95487681116987,397.7551378417919
26,15.552424296463206,-258.65563626446453,-37.859079741211154,-401.818191774959,21.78090195510134,-9.03517642558371,261.83964822623904,405.6754200677903
27,15.786726840783865,-258.5174814706656,-37.98584600716068,-409.5902847651935,27.62250698055907,-8.522786774681828,261.74039851601594,413.22093088106305
28,16.012200494930884,-258.3959088908146,-38.145362176798955,-416.9485346970841,33.14048493268276,-7.788776912448438,261.6630537136018,420.3950325961915
29,16.222857385227815,-258.29597083894106,-38.34422948954323,-423.89848344693735,38.28382158605301,-6.856855340522956,261.61319617047747,427.20149138903116
30,16.413482890745588,-258.2222873872942,-38.58836571169805,-430.4461067575039,43.00925323855629,-5.755198301906878,261.5959458100943,433.6436942257604
31,16.57971426819988,-258.1789438268445,-38.882911585649,-436.596781320585,47.28180750057524,-4.515642316324689,261.6158489597092,439.72375140919655
32,16.718093822447795,-258.16939833455666,-39.23215594174787,-442.3541731867678,51.07514576675304,-3.172767702694194,261.6767779285491,445.44153245984006
33,16.826094815570052,-258.1964028253451,-39.63948029319131,-447.71911581957227,54.37170426099304,-1.7629013984010464,261.7818443707345,450.7936972683488
34,16.902119291194207,-258.2619396257145,-40.10732315803377,-452.68855596787495,57.16263469568455,-0.3230710246102625,261.9333291270631,455.7727944180214
35,16.945467964562543,-258.3671761065396,-40.63716376822463,-457.25464952394924,59.44755017797431,1.1100553579017356,262.1326307320745,460.36650294972594
36,16.95628321176615,-258.51243880653936,-41.229524339528446,-461.4040868573574,61.23408699309923,2.5012083910984897,262.3802341632103,464.55709182391655
37,16.935467040283548,-258.69720793469145,-41.8839896918672,-465.1177176501513,62.53729813539811,3.8175007092055546,262.6757007702245,468.3211627941513
38,16.884576838976802,-258.92013250819014,-42.599242691322075,-468.37052959874893,63.378899678590294,5.029321675148531,263.0176797063667,471.62972789071887
39,16.8057027260309,-259.1790657494017,-43.37311375537543,-471.13201469444346,63.786395893355376,6.111113885933594,263.40394058166845,474.4486533321826
40,16.701331345445535,-259.4711197040744,-44.20264255321432,-473.36693281116334,63.79211298133027,7.042005395042391,263.8314264448955,476.7394789769748
41,16.574201832818915,-259.7927373583736,-45.084150056788936,-475.0364569941105,63.43217401183827,7.806275690389661,264.2963255695475,478.46059825839075
42,16.42716022705558,-260.13977982330545,-46.01331929652793,-476.09966027625586,62.74544886884237,8.39363815335788,264.79415986787103,479.56875995527423
43,16.263018758063854,-260.5076254261343,-46.98528356610806,-476.5152820251018,61.77251261846292,8.799327287689357,265.3198870885917,480.02083207536094
44,16.08442616272746,-260.89127689470723,-47.99472130327368,-476.24369422134856,60.55464369322146,9.023985667849374,265.8680133458054,479.775751050667
45,15.893754535433658,-261.2854724108218,-49.03595727009275,-475.248975512879,59.13288979765486,9.073353335896735,266.43271211908916,478.79656720780304
46,15.6930073893572,-261.68479626598156,-50.10306981599757,-473.5009936724609,57.54722474664994,8.957771011759299,267.0079457651052,477.05249041131
47,15.483752779551637,-262.0837852135333,-51.19000383947017,-470.97739529284075,55.83581393558903,8.691517325221595,267.58758581996176,474.5208379762083
48,15.267084516873629,-262.47702734145525,-52.290688571496794,-467.66540511659605,54.03440023224008,8.29200832220506,268.1655289174967,471.18879033842666
49,15.04361348295758,-262.8592512682918,-53.39915862711942,-463.56334593113974,52.17581613408486,7.778893753530285,268.7358058980102,467.0548681622894
50,14.813489641703333,-263.22540451090714,-54.50967609219957,-458.6818026548298,50.28962230228461,7.173088669768874,269.29268248235496,462.1300567640835
51,14.576453532475679,-263.57072082799357,-55.61685082644781,-453.0443700813573,48.401867266084594,6.495780894464135,269.83075060125,456.4385189714573
52,14.33191411590088,-263.8907771008223,-56.715755743651414,-446.68794180626435,46.53495843463033,5.767455706325351,270.34501002232054,450.01785495227426
53,14.07904827202383,-264.18154084718896,-57.8020336758645,-439.662517482718,44.70763087845787,5.006979040843633,270.83094032033966,442.918886543946
54,13.816916281424977,-264.43940985691074,-58.87199253332092,-432.0305263641677,42.93499798438166,4.230779637264912,271.28456357750656,435.2049638665555
55,13.544587167101865,-264.6612457747676,-59.92268570755022,-423.8656866567385,41.22866729288835,3.4521681036605014,271.7024985389817,426.950813126549
56,13.261267625042205,-264.84440370173144,-60.95197496387407,-415.2514416023878,39.59690571949469,2.680825986175988,272.0820072291,418.24096564685135
57,12.966428312826576,-264.98675990284414,-61.958573438587905,-406.2790329394386,38.0448409302289,1.9224902240206458,272.4210351229508,409.16782784297794
58,12.659921476765117,-265.08673940202397,-62.942066726494545,-397.04528873481104,36.57468965372833,1.1788482774158728,272.7182457544498,399.8294684132002
59,12.342084272481241,-265.14334462967486,-63.90291030084438,-387.6502141699489,35.18600857948024,0.4476478097476362,272.97305011903194,390.32721097794894
60,12.013822725593768,-265.15618548860033,-64.84240166378576,-378.19447991450613,33.87596825043076,-0.2769866184609257,273.1856305211926,380.7631268698461
61,11.676672229300603,-265.1255103444139,-65.762625839495,-368.7769030164802,32.6396538771729,-1.0040477828492964,273.3569577931869,371.23752335070725
62,11.332831829661536,-265.0522365529686,-66.6663732527535,-359.4920098999068,31.470398359842722,-1.7449778065828405,273.4888001355871,361.8465172285867
63,10.985171071356035,-264.9379781532965,-67.55702977498649,-350.4277605332204,30.36015163142389,-2.512872332168121,273.5837211581783,352.67977309461077
64,10.63720949649047,-264.78506731553443,-68.43843983430243,-341.66349814767017,29.299886977303835,-3.3215976038225055,273.64506406081983,343.81847028813473
65,10.293069812518697,-264.5965652497546,-69.31474496962585,-333.2681719022642,28.28003988763779,-4.184866234412834,273.67691847941404,335.3335451573384
66,9.957406317477028,-264.37625781363215,-70.1902018777134,-325.2988629715126,27.29096904319892,-5.115320437017913,273.6840665395738,327.2842376319401
67,9.635310541377912,-264.1286311786127,-71.06898557637366,-317.7996297025667,26.323423037554843,-6.123671697322481,273.67190521477147,319.7169556563899
68,9.332196421518177,-263.85882367235706,-71.95498460254959,-310.8006756953782,25.368991308736565,-7.217942864545167,273.6463431820567,312.66445868044815
69,9.053667844267343,-263.572551184526,-72.85159608922235,-304.3178357171271,24.42051452777867,-8.402852738794289,273.6136718681512,306.14535209553486
70,8.805372065028061,-263.2760050325435,-73.76152901326009,-298.3523676437227,23.472429346973453,-9.679375223925494,273.58041199174164,300.163877723955
71,8.592843212028702,-262.9757227113416,-74.68662379526621,-292.89103392970117,22.52102547474032,-11.044495807758773,273.5531383905809,294.7099810865286
72,8.42134065019795,-262.67843345139613,-75.62769580674524,-287.9064539902401,21.564599250738006,-12.491177934837971,273.538287235342,289.75963472494726
73,8.295687383978816,-262.3908820077734,-76.58440934735997,-283.3577101471456,20.603496186068263,-14.008540718014102,273.5419509346288,285.27539903505874
74,8.220113933597844,-262.1196355766784,-77.55518745880401,-279.19119471866406,19.640043836421388,-15.582237337408163,273.56966714568745,281.2072079598578
75,8.198113297066326,-261.87088014082735,-78.53716164397211,-275.3416936385712,18.678384506264777,-17.195010889380054,273.62620930703116,277.4933755062511
76,8.232312750690545,-261.65021384000005,-79.5261641712775,-271.73371079860596,17.724223682615225,-18.82739261639213,273.7153869662985,274.0618283586133
77,8.324368237267969,-261.4624460726236,-80.51676415723767,-268.2830445171334,16.784514294647426,-20.458497998682073,273.83986481256466,270.83157722403513
78,8.474886720259782,-261.31141181238667,-81.50234710901744,-264.89863046285166,15.86709876989379,-22.066870505947513,274.0010096127042,267.7144423837478
79,8.683380987308624,-261.1998108607636,-82.47523621004673,-261.48466191892936,14.980330529994736,-23.631321571147122,274.19877403144466,264.6170453829085
80,8.948259984968661,-261.12908130625226,-83.42685241753622,-257.94298738036997,14.132694418264425,-25.131718434426794,274.4316254688015,261.4430680596631
81,9.266855972436765,-261.09931540184124,-84.34790929425587,-254.17576721284928,13.332442243145147,-26.549678232300607,274.69652662527244,258.0957625056522
82,9.635487743063534,-261.1092245845979,-85.22863721601296,-250.08834675153207,12.587255978955438,-27.86913620384083,274.98897262697477,254.4806724743669
83,10.049557138176068,-261.1561584456323,-86.059030185986,-245.5922752254983,11.90394790223112,-29.076767261243926,275.3030872175129,250.50850060107942
84,10.50367437858924,-261.2361799794534,-86.82910721329634,-240.60837164360302,11.288204427915163,-30.162252421388548,275.6317777021359,246.0980296805537
85,10.991806471837121,-261.34419642812503,-87.52917932901241,-235.0697142021256,10.744378612307816,-31.11839347638993,275.96694511777184,241.17898363984943
86,11.50744202845875,-261.4741417440324,-88.15011290853245,-228.92441264348156,10.275334908957959,-31.941089417779487,276.2997427781227,235.69469803481476
87,12.04376524093111,-261.61920344318605,-88.68358005951939,-222.13801602456587,9.882348436656475,-32.6291953180842,276.62087322530255,229.60446330330896
88,12.593831686698413,-261.77208372206246,-89.12228741686313,-214.69541270099663,9.565059477558858,-33.184287918286124,276.92091101703664,222.88540773872964
89,13.150739065797366,-261.9252825007188,-89.46017573959051,-206.6020948748258,9.321482090155587,-33.61036209247287,277.1906370078595,215.53380122677885
90,13.70778683552034,-262.07138882412505,-89.6925841836843,-197.884686027046,9.148063745364281,-33.91347947061845,277.4213691011393,207.56568467585433
91,14.25861973380767,-262.2033668762968,-89.81637494423225,-188.59066484121033,9.039791112885748,-34.101386271340985,277.6052748894551,199.0167628589145
92,14.797351201910267,-262.3148235098191,-89.83001601267662,-178.78726205559605,8.990335951322498,-34.18311354847179,277.73565290539926,189.9415384858328
93,15.31866365937217,-262.40024533539537,-89.73362188655705,-168.5595542623672,8.992234777195048,-34.16857087697621,277.80717099546007,180.41171007327054
94,15.817883534266509,-262.4551949428113,-89.52895379617492,-158.0078271578501,9.037096551051313,-34.06814431613104,277.81605237520847,170.51390178405788
95,16.29103003468423,-262.4764578840256,-89.21938198559403,-147.2443256603129,9.11583358863607,-33.892310642029265,277.76020224011404,160.3468353627642
96,16.734837872487596,-262.4621347558436,-88.80981288054487,-136.38954519942462,9.218911688741409,-33.651281165768296,277.6392705224801,150.01808805765666
97,17.14675542942373,-262.41167592130205,-88.30658405198032,-125.56824365600816,9.336615594551477,-33.3546887684001,277.4546495003831,139.64060220059176
98,17.52492111743308,-262.32585971469524,-87.71733002282352,-114.90536463087903,9.459325152977089,-33.011330298421335,277.20940819857464,129.32911960484438
99,17.868121809415992,-262.20671795721745,-87.05082211896679,-104.52205951640731,9.577795960284382,-32.62897305149965,276.9081684472175,119.19670681094003
100,18.17573795851932,-262.05741500321176,-86.31678571945235,-94.5319796356076,9.68343619107836,-32.21422922078829,276.5569298095034,109.35151729357273
101,18.447680185925343,-261.88208828199504,-85.52569858373812,-85.03798334232816,9.768569191883929,-31.77249694018133,276.16285233804723,99.89390779836167
102,18.684321735192913,-261.685659451244,-84.68857451394565,-76.12937003591905,9.826669824215212,-31.30796189494033,275.7340073543156,90.91399290134335
103,18.88643047265653,-261.47362591188147,-83.8167372858834,-67.87971712204079,9.85256194926947,-30.823650258632696,275.2791072002123,82.48968935410674
104,19.05510326278677,-261.2518425902574,-82.92159033673842,-60.34536011844923,9.842565213498096,-30.321522271672784,274.8072251658532,74.68527294456999
105,19.191704669279886,-261.0263035512542,-82.01438809205426,-53.56452279282062,9.794581590500018,-29.802595900672987,274.3275165266882,67.55044668213247
106,19.29781108281229,-260.8029321617204,-81.10601511723785,-47.55707529693813,9.708115868076959,-29.267091120732875,273.84895084775576,61.119899998369824
107,19.37516068697687,-260.58738727140934,-80.20677941557082,-42.32487503584844,9.584229018733,-28.714586754895908,273.3800645102751,55.41332381389717
108,19.425609301654575,-260.3848913838983,-79.32622595654233,-37.85262813463657,9.425428412309067,-28.14418295022708,272.9287408907381,50.43583532753793
109,19.451092045510627,-260.2000852117148,-78.47297579955743,-34.109198782946955,9.23550323227132,-27.55466305121219,272.5020238920153,46.178758985731456
110,19.453590693232762,-260.03691147102677,-77.65459505443097,-31.04928874999961,9.019316539536435,-26.944648962386424,272.10596871554077,42.6207060917485
111,19.435106421848765,-259.898529386717,-76.87749656060184,-28.61540879440727,8.782566923521935,-26.312744355093706,271.7455320260912,39.728894560884356
112,19.39763742178392,-259.78726025562344,-76.146875807862,-26.74006613128044,8.531532758054157,-25.657660531031816,271.4245021734364,37.46065178943087
113,19.34316066492602,-259.70456357721906,-75.46668148525119,-25.348096196562413,8.272811144170353,-24.978320571036225,271.1454689891943,35.76504667693115
114,19.27361690597066,-259.65104262262327,-74.83962013951826,-24.359071545338498,8.01306209148125,-24.273938617398876,270.909831790607,34.58460072596245
115,19.19089775557334,-259.62647776547277,-74.26719352755842,-23.689725036725694,7.758766694488867,-23.544072703882534,270.71784343106043,33.85703217946855
116,19.096833624921807,-259.6298853465588,-73.74976618248894,-23.25632805420703,7.5160062555632745,-22.78865134155296,270.5686874150451,33.51699090765674
117,18.993181656343534,-259.6595992056947,-73.28665957973938,-22.976967377512146,7.290267693746513,-22.007975918601836,270.4605841996811,33.497745068929326
118,18.881613274627856,-259.7133712798005,-72.87626835662293,-22.77366686892373,7.086279274902212,-21.202702631675727,270.39092188747884,33.73278353536884
119,18.763701454502698,-259.78848692807946,-72.5161934598436,-22.57430302303898,6.907879702057935,-20.373808880859446,270.3564056860348,34.15730096916787
120,18.640908098017068,-259.881890032961,-72.2033868013746,-22.3142673435932,6.757922819710101,-19.522549686802055,270.3532198682662,34.70953566768849
121,18.514572093356897,-259.9903125457828,-71.93430186065889,-21.93783401412679,6.6382194914392825,-18.650409707938646,270.37719558121944,35.33193430652519
122,18.385898717792454,-260.1104030592614,-71.70504466351267,-21.399198755244136,6.549517486688106,-17.75905588693782,270.4239777783587,35.97212283721984
123,18.255951045621465,-260.23884919558145,-71.51151979596219,-20.66316417193511,6.491519321183261,-16.850294726671095,270.48918481711195,36.58366915622956
124,18.125643940793687,-260.37248905433194,-71.3495666746423,-19.705458107818966,6.462936809628868,-15.926036870651332,270.5685548552027,37.126630654143085
125,17.99574110480896,-260.5084076187554,-71.21508219712265,-18.512684162854153,6.4615795920687695,-14.988270285794298,270.65807405248694,37.567888084260744
126,17.866855546787082,-260.64401483800117,-71.1041269985086,-17.08191702129909,6.484473231437116,-14.03904209886099,270.7540826718254,37.88127583013368
127,17.73945371688406,-260.7771030443438,-71.0130136371629,-15.419968783828416,6.5280009015561955,-13.080448072713459,270.85335637272124,38.04752681842619
128,17.61386336134213,-260.9058823578933,-70.93837600304674,-13.542365165585798,6.588061449332359,-12.11462780976613,270.95316120259764,38.05405708635977
129,17.490284948223714,-261.02899370701965,-70.87722008835202,-11.472081300270274,6.660235907939173,-11.143763058995527,271.0512819472507,37.894619516830296
130,17.3688063328953,-261.14549999900777,-70.82695700374089,-9.238095236485767,6.739954457910951,-10.170076048646203,271.1460245643551,37.56885792585524
131,17.249420166369994,-261.25485677193006,-70.78541976733271,-6.87382250692142,6.822656422749971,-9.195824640558538,271.23619435381045,37.081791401905065
132,17.132043327873443,-261.35686432770115,-70.7508658900238,-4.415497112812122,6.903937147598352,-8.223291363954923,271.32105228382164,36.44325502228393
133,17.016537365616546,-261.45160391623835,-70.72196799503533,-1.9005628628794968,6.979677462696032,-7.254764070822575,271.4002524833177,35.667317846057955
134,16.902728642825494,-261.53936107428166,-70.69779456390478,0.6338655552192607,7.04615364675357,-6.2925070127301534,271.4737643739362,34.771693689237686
135,16.790426794292063,-261.62053975173257,-70.67778252596099,3.1524196798134927,7.1001280025018065,-5.338722421556215,271.54178332459236,33.77715567651879
136,16.679440411808017,-261.6955713168398,-70.66170300545753,5.6227298278099145,7.138921947921656,-4.3955040010286615,271.6046340734451,32.706962440868274
137,16.56958961769548,-261.7648227893815,-70.64962121515191,8.016480964377537,7.160474699052833,-3.4647849461288076,271.662671382921,31.5863020588205
138,16.460716029793304,-261.82850863422243,-70.64185130741437,10.310250657721662,7.1633912139372695,-2.5482840846845676,271.7161823975958,30.441758948067537
139,16.352691136878803,-261.8866101808042,-70.63890702699713,12.486118219478099,7.146983266243057,-1.6474543854570984,271.7652949682021,29.300808470070265
140,16.245424156154428,-261.93880628730415,-70.64144919145654,14.532043269757981,7.111307474115123,-0.7634383310304952,271.8098958268205,28.191343416091094
141,16.138870194108673,-261.984418336336,-70.65023117914122,16.442019581176446,7.057203851662296,0.10296550308764088,271.849562005956,27.14123564490837
142,16.03303914618574,-262.0223721491578,-70.66604361413302,18.21601604410855,6.986337897132254,0.9513208418263083,271.88350838469484,26.177934787032935
143,15.928005343134945,-262.0511789881801,-70.68965934631008,19.85972099375933,6.901248278383836,1.7815540631362277,271.9105537870681,25.32810415363118
144,15.823917569197349,-262.0689374015971,-70.72177976610219,21.384109114353027,6.805400769357424,2.5939345193969094,271.9291076128523,24.61729192597275
145,15.721008790649634,-262.07335714290184,-70.76298355053403,22.8048519683989,6.703247250747618,3.3890340150825207,271.93717847083076,24.069633601519907
146,15.619604743839163,-262.0618057631539,-70.81367908360671,24.141594225702114,6.600286395050209,4.167665922009199,271.9324056933421,23.70757983001989
147,15.520130459987445,-262.0313777581867,-70.87406194167109,25.4171182143401,6.503120270144937,4.930805771244929,271.9121139490813,23.551642445542818
148,15.423113877289532,-261.9789853386916,-70.94407888142196,26.656419776173365,6.419498791094847,5.6794964727313575,271.87339039705716,23.62015088004071
149,15.32918585719945,-261.9014689496085,-71.0233996478403,27.88571882476964,6.35834208801389,6.414742439079748,271.81318289024426,23.929011369125394
150,15.239076083518302,-261.79572463938683,-71.11139766513114,29.131428626538952,6.329729778571979,7.1373977157842186,271.72841668675136,24.491462510127512
151,15.153604458620501,-261.65884437820927,-71.20714038786555,30.419108696310378,6.344846052196761,7.848053682879648,271.6161260892062,25.317822802459276
152,15.073667777303768,-261.4882645467423,-71.30938983631569,31.772427281149024,6.415870454404302,8.54693199243134,271.47359652533083,26.415228722955387
153,15.000221677679885,-261.28191711258074,-71.41661360273034,33.212160600110074,6.555806258254357,9.233788215008145,271.2985118486954,27.78736553145209
154,14.93425808577573,-261.03837749967954,-71.52700632758754,34.75525705382727,6.778241201145258,9.907831276671796,271.08910107681095,29.434197065031235
155,14.876778512189862,-260.75700283654356,-71.6385212479447,36.41399506702447,7.097038954097662,10.567663190975088,270.8442783747559,31.35170474888097
156,14.828763580456972,-260.43805413367863,-71.7489109041836,38.195262621362744,7.525963736647825,11.21124276784871,270.5637698242659,33.531649369694094
157,14.791139099105367,-260.08279607073865,-71.85577548585456,40.099984626521014,8.078244731801762,11.835875870703736,270.24822047970395,35.96137143497379
158,14.764739013914483,-259.6935686931348,-71.95661668475287,42.122721057760906,8.766091122566323,12.438233414356251,269.8992756541139,38.62364699651833
159,14.750265930318147,-259.2738265715196,-72.04889449480937,44.251454414113645,9.600172426460112,13.014396706601579,269.5196315045755,41.49661562335742
160,14.7482505702947,-258.8281426320288,-72.13008438099483,46.46757978053919,10.589082170415383,13.5599280345229,269.1130516269522,44.55379587693445
161,14.759012195742033,-258.362175428885,-72.19773269052186,48.74610493229714,11.738805673544368,14.069962758081665,268.6843480433102,47.76420138711922
162,14.782622373564061,-257.8825998145814,-72.24950888951275,51.05606185866951,13.052214612279219,14.539317842318605,268.23932631660034,51.09256775092212
163,14.818874436739907,-257.3970018878529,-72.28325383873057,53.361125166008456,14.528611932839185,14.962610979686124,267.7846955835055,54.499697320471505
164,14.867260754553579,-256.91374007268865,-72.29702365189848,55.62042730478376,16.16335037766452,15.334384369805798,267.3279453044851,57.942925784423714
165,14.926959585790275,-256.4417753424852,-72.28912873522047,57.78955546296712,17.947546295910794,15.649227816410763,266.877191639074,61.376711312236424
166,14.996832886058883,-255.99047476699585,-72.25816756362195,59.82171001128095,19.86790746180867,15.90189690475287,266.4409974359048,64.75334366654293
167,15.075435968355198,-255.5693934012249,-72.20305476185192,61.66899917773651,21.90668936586761,16.08742339860596,266.0281706098864,68.02376667748406
168,15.161039368609995,-255.18803994776508,-72.12304319323677,63.28383887011834,24.041789113246548,16.201216422186004,265.6475460785664,71.13850247345557
169,15.251662658787517,-254.8556318457409,-72.01774000447125,64.62042024045415,26.24698015694209,16.23915430035333,265.3077566724905,74.04865981810701
170,15.345119334268814,-254.58084579675477,-71.8871168413304,65.6362010517297,28.492285220509196,16.197667947925815,265.0169988112963,76.70700212468067
171,15.439071357540291,-254.37157032270758,-71.73151458171084,66.29337085777632,30.744479437731993,16.073817203697093,264.78279929771765,79.06904385364041
172,15.531091489088249,-254.23466760003146,-71.55164278660642,66.5602353697369,32.96771127202495,15.865361308779539,264.6117901330335,81.09413796305405
173,15.618731118184527,-254.17575231572604,-71.34857365588407,66.41246319212505,35.1242253206181,15.570823823755559,264.5094985942575,82.74651294932526
174,15.699590874296547,-254.19899550788776,-71.12372981098996,65.83413928657316,37.175168660046836,15.189550890274722,264.4801598626505,83.99621677141171
175,15.771390915832413,-254.30696123783304,-70.87886495870193,64.81857455683968,39.081460816037655,14.721760248314773,264.52655927776664,84.81992713412127
176,15.832037569437185,-254.50048347447463,-70.61603648221983,63.36882975480653,40.80470651278555,14.168577218422653,264.6499108174653,85.20159313908358
177,15.879683017090727,-254.77858965923255,-70.33756922859315,61.49792390120136,42.308129818271,13.532053268011916,264.84977758204786,85.13288160994426
178,15.912775112722645,-255.13847584563047,-70.04601030081453,59.22871169419508,43.55750789178823,12.8151629832307,265.12403872329014,84.61341154605611
179,15.930095227478292,-255.57553595373093,-69.74407557633444,56.59342982149511,44.52208199945508,12.021776283515422,265.468905320018,83.65077102018084
180,15.930783065302206,-256.0834448246935,-69.43458972508432,53.63292745868476,45.17542264220109,11.156604427879282,265.8789853416171,82.26032119695249
181,15.914348268475921,-256.654291986121,-69.12042234189093,50.395610394013076,45.49622461015112,10.225120537843322,266.3473954781642,80.46480097635812
182,15.88066920579975,-257.2787607824003,-68.80442332607196,46.93614035601564,45.46900683792735,9.233457662207012,266.8659156216189,78.29375244065442
183,15.829979766071757,-257.9463458561259,-68.48936087421623,43.31394076797414,45.08469156378943,8.188289467621093,267.4251802520328,75.7827916665857
184,15.76284539027212,-258.6456007739684,-68.1778653711178,39.59156703903927,44.341038054530166,7.096700200331143,268.0148998186721,72.97275180246093
185,15.680129944284255,-259.3644068159758,-67.87238205118848,35.8330034201999,43.24290850341195,5.966051517832892,268.62410435350455,69.90872604311878
186,15.582955347306171,-260.0902536333272,-67.57513466952999,32.10194928152025,41.80234780570484,4.803854073096024,269.2414010853085,66.63903776256272
187,15.472656179768965,-260.81052269841507,-67.28810168270866,28.460155457975187,40.03846464882744,3.617651271334152,269.8552378423767,63.21416410627429
188,15.350731813500548,-261.51276524057283,-67.01300557520439,24.965866333085827,37.9771084585066,2.4149213788392854,270.45416455712416,59.6856383302712
189,15.21879883732224,-262.18496754404055,-66.75131489830825,21.672416034750412,35.650344902200075,1.203002245188309,271.02708606101015,56.10495554298502
190,15.07854652493022,-262.81579779077146,-66.50425736095028,18.62701810442196,33.095741508412694,-0.010959477896785723,271.5635003034436,52.522506496494486
191,14.931697691509813,-263.3948298097795,-66.27284118332082,15.869777977126292,30.35548408725785,-1.2200353192510596,272.05371695749943,48.986564634831865
192,14.77997653011308,-263.9127401167385,-66.0578812268613,13.432947318273724,27.475353497289237,-2.4175214080515617,272.4890521410235,45.5423523697903
193,14.625084075520943,-264.3614755992132,-65.86002633462793,11.340429366335224,24.50360024207635,-3.5969298040927886,272.8619958418695,42.23121287370309
194,14.468681046317116,-264.7343901571375,-65.67978479281076,9.607535412912565,21.489760670344396,-4.751971853733495,273.1663496194081,39.08991274548501
195,14.312377114894629,-265.0263494448491,-65.51754561599812,8.240984696455072,18.483462479845784,-5.876541435320766,273.39733311227604,36.15009791362789
196,14.157725157827844,-265.23380345844214,-65.37359418570583,7.239133429877819,15.53326817838274,-6.964705652810213,273.55165862836424,33.4379195525671
197,14.00621871871695,-265.35482703708794,-65.24812144630671,6.592413484540557,12.685602753057157,-8.01070925047342,273.6275735478714,30.973838782524258
198,13.859290815520607,-265.3891284788062,-65.1412263649621,6.283957385655022,9.98380602726479,-9.008997020234368,273.62487050888365,28.77260968718915
199,13.718312419584912,-265.33802657528196,-65.05291179759287,6.290383552239389,7.467341487705065,-9.954256110669116,273.5448655580169,26.84343151456488
200,13.58458941903757,-265.20439662660016,-64.98307437045396,6.582713790349678,5.171182591747769,-10.841477775218717,273.39034483515934,25.190254213250878
201,13.459357533088074,-264.9925864798576,-64.93148951783456,7.127393540182521,3.1253858088530664,-11.66603597537302,273.1654809951497,23.812216999194888
202,13.343775286258511,-264.70830426719465,-64.89779338470011,7.887384051819809,1.3548480647417664,-12.423778497512126,272.8757213581557,22.704196831369174
203,13.238915620013119,-264.3584801876874,-64.8814637928405,8.82329452795771,-0.12076405877824957,-13.11112488285431,272.5276505786905,21.857441603914975
204,13.145756934412756,-263.9511053554289,-64.88180270705374,9.894521529482516,-1.286934174691917,-13.72516457443333,272.12883135543154,21.260260943877743
205,13.065174344976258,-263.49505142251724,-64.89792254659964,11.0603628874942,-2.13409129777576,-14.263748379678153,271.6876273522921,20.898745757617956
206,12.99793178281837,-262.9998753249814,-64.92873832174296,12.281074320499462,-2.657309475630681,-14.72556673202121,271.21301303000547,20.757486659647963
207,12.944675303921063,-262.47561400140955,-64.97296702044626,13.518839203952846,-2.855941160159403,-15.110209283303373,270.71437543323736,20.820261860407115
208,12.905927672361747,-261.93257420768526,-65.02913501857948,14.73862563623861,-2.733211739771748,-15.418201891848438,270.20131307865364,21.07066742611895
209,12.88208408201577,-261.38112252656356,-65.09559364731491,15.908910022176299,-2.295799062959957,-15.65101881974489,269.683436908036,21.49266704831466
210,12.873408870889794,-260.8314803535568,-65.17054248592018,17.00225256881857,-1.5534170274256152,-15.811069660142552,269.1701778313796,22.07104420860502
211,12.880033144740336,-260.2935281431695,-65.2520594828708,17.995716928804246,-0.5184169760378212,-15.901662011272887,268.67060479749694,22.79174633410992
212,12.901953144617941,-259.7766226776328,-65.33813669457744,18.871133202068453,0.7945846644034378,-15.926942131289785,268.1932567470009,23.64211755416295
213,12.939028947638352,-259.2894306581211,-65.42672027407039,19.615210022127712,2.3690487975893624,-15.891816749858219,267.7459913063085,24.611023305336566
214,12.99098293058811,-258.8397814609696,-65.51575322963195,20.21950693818323,4.186826146609925,-15.801859895470747,267.3358526030068,25.688875663575484
215,13.057397572878958,-258.4345413252214,-65.60321928983774,20.680282338496408,6.228442263914381,-15.663209022583587,266.96895998582966,26.86757245202018
216,13.137712562814023,-258.0795105205217,-65.68718596683482,20.998234561350774,8.47335851096011,-15.482454883250337,266.6504186943736,28.140365665218187
217,13.231221550599606,-257.7793443222517,-65.76584472811405,21.178154671293555,10.900212137320826,-15.266529469706558,266.3842527948636,29.501675573397165
218,13.337069097040821,-257.5374980449204,-65.83754621405802,21.228508903112882,13.487037306974537,-15.022595936558764,266.1733601530538,30.94686620409836
219,13.454248413608987,-257.35619598449875,-65.90082872918413,21.160967374801693,16.2114672011471,-14.757943712034143,266.0194888971339,32.47199606735155
220,13.581600498962535,-257.236423840303,-65.95443869926925,20.98989373440396,19.05091568785503,-14.479891123842362,265.9232346633355,34.073555431192894
221,13.717815353045205,-257.17794395988983,-65.9973422953826,20.73180825117668,21.982735871715004,-14.195696934862305,265.88405782405533,35.748198652520514
222,13.861436076208138,-257.17933248845526,-66.028727974459,20.404834733784178,24.984352390301513,-13.9124813073848,265.9003197878937,37.492477505714284
223,14.010866719858274,-257.2380371424139,-66.04800034963249,20.028139797913603,28.033364793491646,-13.637155923361862,265.96933728425455,39.302579567237125
224,14.164384657778402,-257.3504539307461,-66.05476652092155,19.621371668801828,31.10762079691526,-13.376362290047926,266.08745334366637,41.17407483799711
225,14.320158000512938,-257.5120208786838,-66.04881656001183,19.204105064178055,34.185260512272954,-13.136416699147048,266.2501235586752,43.101674026453885
226,14.47626825581057,-257.717326761967,-66.03010013096983,18.79529874587678,37.2447355919081,-12.923259965235754,266.45201622227415,45.07900309089284
227,14.630738138119078,-257.96023299149715,-65.99870128449945,18.41277287223901,40.264810133413306,-12.742410012120924,266.6871250639771,47.098400340767476
228,14.781564180420268,-258.2340069527427,-65.95481335181371,18.072714077758455,43.224552753413704,-12.59891560297738,266.9488934174918,49.150744161793135
229,14.926753555828068,-258.53146514516425,-65.89871561803395,17.7892170007929,46.103331128380184,-12.497309969719945,267.2303486143342,51.225320843983276
230,15.064364243335163,-258.84512431943733,-65.83075311580448,17.57387155983536,48.88082122379178,-12.441563746783093,267.5242451513669,53.3097426919378
231,15.192547418139075,-259.1673585266502,-65.75132048169826,17.435405503535446,51.537043154228606,-12.43503742170525,267.82321478895483,55.38992629923158
232,15.309590779710275,-259.4905596625692,-65.6608503803788,17.379391590607963,54.05243408800124,-12.480434383337549,268.1199212945396,57.45013947548016
233,15.41396145670317,-259.8072987600833,-65.55980656575026,17.408028247653572,56.4079660450836,-12.579756400639514,268.40721711151247,59.47312296656356
234,15.504347093844322,-260.11048496420597,-65.44868127337921,17.52000182979402,58.58531319973041,-12.734263846951565,268.67829882666075,61.440290109996575
235,15.579693692877377,-260.39351883241915,-65.32799637719003,17.710437821200934,60.56706971000035,-12.944443169216164,268.9268579574471,63.33200423460528
236,15.639238741327892,-260.65043637947656,-65.19830761468481,17.97094753476737,62.33701534668511,-13.209984053452153,269.147223326959,65.12793015359368
237,15.682538101887808,-260.87604016619696,-65.06021111320989,18.28977598490869,63.88042241006227,-13.529768507479917,269.3344911555184,66.80745260330575
238,15.709485062669138,-261.066013719731,-64.91435130787498,18.652055299165276,65.18439376690476,-13.90187369751686,269.4846389467548,68.35015101428654
239,15.720319981860353,-261.2170156653233,-64.76142912732718,19.0401659199356,66.23821852242334,-14.323589908863276,269.5946192854066,69.7363166885431
240,15.715629252460504,-261.32675017982467,-64.60220918137057,19.434204646036058,67.03372905487034,-14.791454549670538,269.66242986989687,70.94749545483108
241,15.696332908029786,-261.3940108051777,-64.43752470439244,19.812554233440924,67.56564103382362,-15.301302709161073,269.6871565574935,71.96703633792828
242,15.663660997669197,-261.41869532976943,-64.26827915092932,20.15254408128038,67.83185677821729,-15.848334357019445,269.66898693144407,72.78062488870923
243,15.619119707042383,-261.4017903623906,-64.09544358945496,20.431185963048495,67.83371210245593,-16.427197754652642,269.6091928994945,73.37677881428777
244,15.564448887426389,-261.3453253658946,-63.92004944557378,20.62596333608249,67.57614785508696,-17.032088024498616,269.51008208053406,73.7472836491086
245,15.50157303619673,-261.2522972481285,-63.74317664058376,20.715647884313587,67.06778974761794,-17.656859135310174,269.3749191709568,73.88754752324748
246,15.432547894493627,-261.12656802860647,-63.565937563238016,20.6811129613827,66.32092368067684,-18.295146869145476,269.2078199657146,73.79685654470127
247,15.359504841182194,-260.97273940227245,-63.3894575380512,20.506110834018656,65.351358337003,-18.94049967787514,269.0136220306046,73.47851573304882
248,15.284595207154746,-260.7960089649899,-63.21485266080128,20.177979394282243,64.17817200261693,-19.58651374343039,268.79773698438254,72.93986461313547
249,15.209936453223664,-260.6020133418633,-63.04320615865779,19.68824459555808,62.8233460755397,-20.226968064985016,268.5659898682846,72.19216132881755
250,15.137561900650756,-260.3966635709707,-62.875544673648385,19.0330875036896,61.31129324767937,-20.855955036578724,268.32445122974366,71.25033436975475
251,15.0693755465268,-260.18597805652075,-62.712815892935424,18.213649671001114,59.66829368976366,-21.468001775636345,268.07926750502577,70.13260668269704
252,15.00711348456845,-259.9759183489517,-62.55586875397575,17.236157472581702,57.92185756278972,-22.058177476446062,267.83649518249894,68.86000301248889
253,14.952313382255841,-259.77223286492085,-62.405437147849106,16.111854761702286,56.10003664264514,-22.622182369974826,267.60194401097715,67.45575760810728
254,14.906293088031884,-259.5803132580532,-62.262127691682515,14.856743099796201,54.230711532671464,-23.156414494241563,267.381034022116,65.94464553120176
255,14.870138754535436,-259.40506743782294,-62.12641175995384,13.4911390685222,52.340883510828284,-23.65801136220153,267.1786703138377,64.35226607213824
256,14.844702119494201,-259.2508123413421,-61.99862163923317,12.039067848577039,50.45600112570094,-24.124864674939506,266.9991385550839,62.70431045106845
257,14.830606032449166,-259.1211886772618,-61.87895051401474,10.527520491644644,48.599350908814074,-24.555607413236242,266.84602324092805,61.02584742256622
258,14.828256987967366,-259.0190990606217,-61.767455988296234,8.985608484365121,46.79153886882898,-24.94957392735225,266.7221499253858,59.34065928707577
259,14.837863203042764,-258.9466701832659,-61.664066844063534,7.443653015561058,45.05008483014552,-25.306734990722354,266.6295518871955,57.67065718778927
260,14.859456564248212,-258.90523881451185,-61.56859260726426,5.932247875502093,43.38914546015413,-25.62761107882327,266.56946080816334,56.035398843060975
261,14.892916574995251,-258.89536046120844,-61.480735256216605,4.481334404674902,41.81937454261878,-25.91316822825983,266.54232003147337,54.45172472480113
262,14.937994315393942,-258.91683852219677,-61.400102171115236,3.1193246335078135,40.34792140927001,-26.164701613095353,266.54781793122197,52.93352097085939
263,14.994334474971852,-258.96877096823425,-61.32621925400432,1.8723049212248069,38.97856111303679,-26.383712428382843,266.5849380985131,51.4916098024174
264,15.06149381429144,-259.0496111593285,-61.258543122829124,0.7633472268701292,37.71194342117466,-26.571783837679302,266.65202264898454,50.13376152805289
265,15.138954934685112,-259.15723932286113,-61.19647159829333,-0.1880510992994921,36.545942340641226,-26.73046166466876,266.7468449807636,48.86481674204444
266,15.226134843212927,-259.2890412196416,-61.13935247918603,-0.9663850950803327,35.47608380226347,-26.86114521928569,266.86668855357016,47.68690320669475
267,15.322388355860268,-259.4419905318748,-61.08649151868495,-1.5604109415161722,34.49602634315954,-26.9649931816926,267.0084285430312,46.599729102084225
268,15.42700684803006,-259.6127316887878,-61.03716095774297,-1.9632662605489684,33.59806814352817,-27.04284885687253,267.1686135580531,45.600932700742
269,15.539213257240572,-259.79766040879946,-60.9906096661599,-2.1724489519503623,32.77365365293729,-27.095188378409105,267.3435451240028,44.68646794227554
270,15.65815458116782,-259.993000191815,-60.946075185746,-2.1896667273240342,32.013854348664466,-27.122094604654688,267.52935341248366,43.851005752419475
271,15.782893375186077,-260.1948741084408,-60.9027972457529,-2.020573096335577,31.309800894688937,-27.12325855212468,267.722068627264,43.08833224396656
272,15.912399894494323,-260.399372166862,-60.860031905347725,-1.6744076188748163,30.65304798980042,-27.098009278665455,267.91768827010793,42.391727136130164
273,16.04554652627758,-260.6026150711579,-60.81706541886544,-1.1635590149204076,30.03585826451201,-27.0453721327437,268.1122410058769,41.75430872235933
274,16.181106029352975,-260.80081529392936,-60.77322714400888,-0.503069613188044,29.45139736823042,-26.964154127374968,268.3018479869864,41.16933524571867
275,16.317754824049963,-260.99033614536836,-60.727901157218604,0.28990094002170386,28.893838476602582,-26.853053803684134,268.482782317679,40.630456256512346
276,16.45408210186876,-261.1677490176235,-60.680536515498765,1.1966354434983797,28.358380402143613,-26.71079138292115,268.6515268774248,40.131911077087004
277,16.5886048911562,-261.32988835335954,-60.6306562262239,2.197425689562992,27.8411888567736,-26.536253455438313,268.8048300950618,39.66867457220634
278,16.71978861946495,-261.4739033372093,-60.57786496206042,3.2721296321233853,27.33927479441596,-26.328645121350704,268.9397586849815,39.23655278093321
279,16.84607236699255,-261.5973050167198,-60.52185538912312,4.400703565677285,26.85032686811243,-26.087641527011968,269.05374601077636,38.83223248519462
280,16.96589792634168,-261.6980075592987,-60.462412748961746,5.563694467008242,26.372516705957494,-25.813530239921967,269.14463468430614,38.45328949719274
281,17.07774181648104,-261.77436253735226,-60.39941729271339,6.742678845794218,25.904295918691613,-25.507335956405136,269.2107121814983,38.09816053615156
282,17.180149423791033,-261.82518536330036,-60.332844445239644,7.920636323301992,25.44420262106283,-25.170919680137462,269.2507385450398,37.76608335558344
283,17.271770449047374,-261.8497731858189,-60.26276295721781,9.082248837919803,24.990693003618045,-24.807045679700902,269.2639655151152,37.457009569720576
284,17.35139481677439,-261.8479137021669,-60.18933144522562,10.214119774072431,24.542010412660073,-24.419411050663566,269.2501465982679,37.171494547551326
285,17.417988117300066,-261.8198844698826,-60.11279356038914,11.304911171774458,24.096100809756503,-24.01263439265505,269.2095376650519,36.91056882495649
286,17.470725530605478,-261.76644244305373,-60.033471762228004,12.345401200145112,23.650579710661386,-23.592201904931713,269.14288773436647,36.67559576222187
287,17.50902313466912,-261.68880363673316,-59.95175948384386,13.328467965982911,23.202751985791767,-23.164371123837462,269.0514197267789,36.46812064004289
288,17.532565598678907,-261.58861305649265,-59.868111411776546,14.249009144001816,22.749682393322644,-22.736034533873806,268.9368011862658,36.28971690860223
289,17.541329419740148,-261.4679053061914,-59.7830316713098,15.103809530305849,22.28831155042652,-22.31454724933335,268.80110526266316,36.14183567063236
290,17.53560092965748,-261.3290565710261,-59.69705986702659,15.891370201605726,21.81560938711456,-21.90752472857658,268.64676256250254,36.02566452968866
291,17.515988259274767,-261.1747289649551,-59.610755073895746,16.61171344065759,21.32875611573316,-21.522617912239525,268.476504788367,35.94200161644357
292,17.48342643522361,-261.0078085576623,-59.52467793176145,17.266177051047435,20.825339489537193,-21.16727417282597,268.2933014136121,35.89114996595737
293,17.43917489299607,-260.831338737457,-59.43937105317247,17.857210260386868,20.30355666905623,-20.84849300297975,268.1002909883613,35.87283656722788
294,17.38480688661989,-260.6484508486686,-59.35533819975938,18.38818114854101,19.762409341415317,-20.57258551843967,267.9007090129016,35.886159440213056
295,17.32219048891868,-260.46229418704667,-59.273023143936186,18.863202446790684,19.20188171513173,-20.34494671138628,267.6978145723506,35.92956503529501
296,17.253461082705407,-260.27596741082283,-59.19278952052722,19.286978784351646,18.623092435245276,-20.169849021748018,267.4948180027067,36.00085704796009
297,17.180985437741693,-260.09245326439134,-59.11490292611565,19.664674379877955,18.028413102070083,-20.0502651874679,267.29481170714087,36.09723632335864
298,17.107317628105704,-259.9145583037898,-59.03951604496091,20.001796252849644,17.421547685147146,-19.987727454794356,267.1007059467469,36.21536981390163
299,17.035147149206537,-259.7448591302183,-58.966657066031196,20.304084665159984,16.807568458788467,-19.98222908801934,266.91517114760484,36.35148452137269
300,16.967239674717764,-259.58565648129826,-58.89622144677161,20.577400025004327,16.19290501057736,-20.03217277049696,266.74058807359546,36.50148013574002
301,16.906371052607227,-259.4389383647982,-58.82796714981602,20.827594243209624,15.585283450748493,-20.134368966371078,266.5790070786453,36.661052036301285
302,16.855255501723818,-259.30635323527423,-58.761513602855146,21.060354930208764,14.993613418099327,-20.284085604602602,266.43211752194003,36.82581499059315
303,16.816469594347883,-259.18919400014954,-58.696344649431495,21.281013185078592,14.427821173275502,-20.475148563625154,266.3012282652183,36.99141783420345
304,16.792374408741818,-259.0883933428288,-58.631815631881985,21.494310070292588,13.898628328292045,-20.70009044281528,266.18725990537064,37.15364096299179
305,16.785038975337056,-259.00453040894917,-58.567164510076346,21.70412276019036,13.417277796747184,-20.950343091328797,266.0907489635631,37.30847149788738
306,16.796168559560833,-258.9378483346932,-58.501526614530796,21.913158021303886,12.99521136480116,-21.21646740255983,266.0118636614857,37.452154942674134
307,16.827041312900345,-258.888281496166,-58.43395228891422,22.12262721788197,12.643706674297128,-21.48841208353526,265.95043025484176,37.58122628674108
308,16.878456454206948,-258.855490834951,-58.36342637272044,22.3319225826871,12.373485053319339,-21.755791654897074,265.9059682923023,37.692527090386974
309,16.950696529973968,-258.838905250622,-58.28888836164337,22.538318367262725,12.194305163498306,-22.008173025599184,265.87773274865737,37.7832176004659
310,17.043505529836967,-258.837766878127,-58.20925223643131,22.73672223195555,12.114560464296751,-22.235359714332837,265.8647607978178,37.850794054928365
311,17.156083794672078,-258.85117804194687,-58.123425236053386,22.919501669088323,12.140900592671539,-22.42766311371466,265.86592097697684,37.893120926579755
312,17.287099831643356,-258.8781477361348,-58.03032507914186,23.076407442848808,12.277897528085127,-22.57615100477099,265.8799625484139,37.90848605081285
313,17.43471837988397,-258.91763562402684,-57.92889532217496,23.194611196502372,12.527776619449865,-22.67286474401032,265.9055629987504,37.895683733612614
314,17.596643377022154,-258.96859180725085,-57.818118838735934,23.258867797702262,12.890230156885107,-22.710998118238447,265.941371884972,37.85412751698739
315,17.770173895914596,-259.0299909369351,-57.697029849079335,23.251805031959744,13.36232730133016,-22.68503275311329,265.9860496098462,37.783990716874285
316,17.952270698955736,-259.10085957264755,-57.56472539047233,23.15433447540574,13.93852907939233,-22.590827108397676,266.03830010461974,37.68636940943879
317,18.139630864644634,-259.1802960465946,-57.42037740372184,22.946168558737284,14.610811163661765,-22.425658401693408,266.09689678822014,37.56345931182466
318,18.32876801957297,-259.2674825062121,-57.26324656448559,22.6064208450844,15.3688907579204,-22.188219140175914,266.16070157336026,37.41873498246112
319,18.516095974919374,-259.36168928353936,-57.092698614731866,22.114260209249668,16.200547630314666,-21.878572140262797,266.2286770929719,37.25711703735594
320,18.698013844557504,-259.46227220926585,-56.90822342646513,21.449585638879547,17.092023700773748,-21.498069806194607,266.2998926870675,37.085110961360684
321,18.870990892342764,-259.5686638953624,-56.709456506795334,20.593687319048268,18.028481005295898,-21.049244860936113,266.3735249878162,36.910900131060764
322,19.03164940662812,-259.68036034096895,-56.49620219130364,19.52986173812598,18.99449464936487,-20.535680529659697,266.4488541697654,36.744376411210304
323,19.176843871001118,-259.7969044440101,-56.26845748096068,18.243953543633733,19.974555789977135,-19.961868267493386,266.525257091617,36.597094422827176
324,19.303734661350983,-259.9178680542428,-56.02643544861797,16.724804064974183,20.9535599138772,-19.333060509270272,266.60219860015127,36.48214014277233
325,19.409854521684945,-260.0428340504496,-55.77058724717051,14.964594693383157,21.917257671277543,-18.65512473986064,266.67922214279633,36.413910268649396
326,19.49316616064373,-260.171379622146,-55.5016217730683,12.959081437069598,22.85264901825808,-17.93440368266596,266.75594055217925,36.407804931643156
327,19.55210942455751,-260.303061578293,-55.220521972482395,10.707723940257885,23.748306018764833,-17.17758486099906,266.83202751110747,36.479842129230335
328,19.585636625815553,-260.4374041684507,-54.928556794722596,8.213717478293319,24.59461491423356,-16.391581412730094,266.90720988881685,36.646207224916004
329,19.593234762623762,-260.57388961643784,-54.627287933007096,5.48393973726415,25.38393351376903,-15.583424921724779,266.9812608980664,36.92275479878234
330,19.574933625185512,-260.711951330072,-54.31857059669323,2.5288256600276156,26.11066510162992,-14.760170199476944,267.0539938291262,37.32448292694012
331,19.531299258929046,-260.8509696000476,-54.00454755216057,-0.6378164395600135,26.771254468351746,-13.928811442534972,267.12525599985594,37.86500159373039
332,19.463412998209613,-260.9902696061336,-53.687635654293814,-3.999035556307368,27.364115053009385,-13.096209024151015,267.1949226144961,38.556017439125434
333,19.372837144540235,-261.12912166468675,-53.37050419986383,-7.535005556899953,27.889498391268475,-12.269026289729602,267.262890419753,39.40685648114152
334,19.261569068809298,-261.2667437066758,-53.056044707549155,-11.223322091240155,28.34931805800514,-11.453675964809333,267.32907120526113,40.42404486652267
335,19.131985877775072,-261.40230589163804,-52.74733216141296,-15.039323648226581,28.74694013978822,-10.656275989729373,267.39338522483644,41.610965125679485
336,18.98678178679516,-261.5349371461373,-52.44757834193239,-18.956433483037678,29.086951192011522,-9.882614664321181,267.4557546169436,42.967601959940616
337,18.828900118221622,-261.66373337447044,-52.160078518438745,-22.946520397402853,29.374913004519755,-9.13812485810099,267.5160969747396,44.49038751179989
338,18.661461611888587,-261.7877671088636,-51.88815325249297,-26.980276818466788,29.617111742703596,-8.427866670958547,267.5743193097136,46.17215167438295
339,18.487690634305906,-261.9060983763523,-51.635087168258,-31.027612380755862,29.820307489151187,-7.756517339039408,267.6303126713168,48.0021786174385
340,18.310840862298647,-262.01778651250135,-51.40406636088537,-35.0580605056953,29.9914890834746,-7.128366517609211,267.6839475943666,49.966366664807836
341,18.13412195683556,-262.12190256131004,-51.19811591381072,-39.041194577611954,30.137638515735784,-6.547314560345712,267.73507040449795,52.047485217020075
342,17.96062861368218,-262.2175418841514,-51.020038951423025,-42.947049469721215,30.265508938997062,-6.016871226902031,267.7835003673991,54.22551972485408
343,17.793273312668287,-262.30383677977784,-50.872358706250445,-46.74654351014622,30.38142049192188,-5.540152442385792,267.8290278368133,56.47809378337661
344,17.634724180680145,-262.3799692153105,-50.75726511389762,-50.41189550290055,30.491078338142174,-5.119873275697792,267.87141384783956,58.7809560762896
345,17.48734956726186,-262.4451839638296,-50.676567459528,-53.91703101863842,30.59941740636092,-4.758336123467681,267.9103917938694,61.10851890830764
346,17.353171079680262,-262.4988024290178,-50.63165465726535,-57.23797166314707,30.710478106371493,-4.457414034166639,267.9456718163645,63.434434158741894
347,17.233826865073436,-262.54023723685793,-50.623464868071764,-60.35320027657086,30.827316736905267,-4.2185299846785265,267.9769483513549,65.73219148790501
348,17.13054682674839,-262.5690072924557,-50.652466265243525,-63.2439940366263,30.951953377917025,-4.042633591782421,268.00391090074885,67.97572251668873
349,17.04414117746836,-262.58475245839423,-50.7186506855458,-65.89471648257637,31.0853588131539,-3.930177174309571,268.0262575213912,70.13999369914423
350,16.975003218632338,-262.5872465126711,-50.821541471185824,-68.29305893724886,31.227480555112432,-3.881093274651163,268.04370991706196,72.20157009836518
351,16.92312648663299,-262.57640694260397,-50.96021582154147,-70.43022202184068,31.377306465615458,-3.894775657005958,268.05602869988536,74.13913259518841
352,16.888135504384753,-262.55230062955474,-51.1333404523632,-72.30102905285543,31.532962911157224,-3.9700654021939856,268.06302757228565,75.93393234102251
353,16.869328455082446,-262.51514534726186,-51.33921776563438,-73.90396498161736,31.69184300272013,-4.105243106122006,268.0645857252314,77.57016844109121
354,16.865729300457126,-262.4653077223054,-51.57583869495605,-75.24113698232662,31.850759356839095,-4.298027541983478,268.06065825418534,79.03527774585646
355,16.876146304107703,-262.40329856254505,-51.84093817554467,-76.31815563196889,32.006114997775356,-4.545580616721268,268.0512845866704,80.32012904054719
356,16.89923362834832,-262.329766298845,-52.132049674403376,-77.14393872836465,32.15408542718616,-4.844518089294141,268.0365948331771,81.41911767729754
357,16.933552644426523,-262.2454889621072,-52.446556185189024,-77.73044301795805,32.2908044356882,-5.190925312759954,268.0168138373208,82.3301605961984
358,16.977629856196074,-262.1513648953571,-52.781736259962706,-78.09233219965574,32.4125459041591,-5.580377226475505,267.99226272172604,83.05459546295234
359,17.03000890764146,-262.04840240900774,-53.13480468338374,-78.2465921947706,32.51589369444581,-6.007961998730452,267.96335796588716,83.59699099553934
360,17.08929493346893,-261.9377087409698,-53.50294809289809,-78.2121065308599,32.597891851934996,-6.468308115627675,267.9306083816467,83.96487820897767
361,17.154190336985163,-261.82047879317616,-53.88335618905899,-78.0092056399757,32.65616785371209,-6.955615277446744,267.89461057053944,84.16841418649842
362,17.2235217853933,-261.6979840785607,-54.27324923943287,-77.65920394004424,32.689022654656725,-7.463690099146975,267.85604345932165,84.2199911526516
363,17.29625871239975,-261.5715621367586,-54.6699024803834,-77.18393787638318,32.69548288426139,-7.985988192494934,267.8156623432008,84.13380422636442
364,17.371523881039796,-261.4426064171742,-55.07066782394574,-76.60531684002325,32.675312714967426,-8.515664590356824,267.7742925827569,83.92539143840966
365,17.448596635252446,-261.3125563665073,-55.47299294351443,-75.9448972828766,32.62898552430605,-9.045634535632345,267.7328227750138,83.6111595563651
366,17.52690949507012,-261.1828872816667,-55.87443739745443,-75.22348865610522,32.55761826720282,-9.56864637571023,267.69219695714384,83.20790907837491
367,17.606038864353017,-261.0550994320756,-56.27268518251427,-74.46079822666675,32.462874179692015,-10.077367767149706,267.6534052914632,82.73237151240299
368,17.68569082078137,-260.9307059877089,-56.665553162642304,-73.67512054066363,32.34684177374841,-10.56448570340496,267.61747272917336,82.20077178353516
369,17.76568309739463,-260.8112193773468,-57.0509951531124,-72.88307634072396,32.211899784937366,-11.022820058727588,267.58544530794114,81.62842823762156
370,17.84592432359144,-260.69813584827443,-57.42710190343428,-72.0994049858721,32.060578567955076,-11.445449380364455,267.5583739691434,81.02940204207766
371,17.92639142086677,-260.5929181944537,-57.79209767815456,-71.33681362028875,31.895428268699288,-11.825846577437927,267.5372960497642,80.41620657263573
372,18.00710588130844,-260.4969768019494,-58.14433447834907,-70.60588522752973,31.71890294613392,-12.158021030134531,267.5232148368814,79.79958541555338
373,18.08810956402143,-260.41164928063256,-58.48228511045987,-69.91504613330491,31.5332678433348,-12.436662602590573,267.51707771338715,79.18836486806545
374,18.169440623131347,-260.33817904283615,-58.804536287779754,-69.27059149072063,31.340534537344723,-12.657282231450914,267.51975350306645,78.58938345213805
375,18.251110223376916,-260.27769331010387,-59.10978279015472,-68.67676489872856,31.142426125645553,-12.816343324726263,267.5320097068708,78.00749724715124
376,18.33308077010956,-260.23118118234737,-59.39682343325842,-68.13588569757584,30.940372249565247,-12.911378235265767,267.55449041635933,77.44565606453038
377,18.415246401658425,-260.19947254442707,-59.664559190409136,-67.64851486961815,30.73553175365952,-12.941084539714277,267.5876957409466,76.90504188928418
378,18.49741644718731,-260.1832186692417,-59.91199332179705,-67.21364821003155,30.52883915842733,-12.9053966256679,267.6319635601754,76.3852579229686
379,18.57930251879449,-260.1828753798661,-60.13823297821681,-66.82892395177741,30.321069907317845,-12.805529055731139,267.68745433121416,75.88455436943435
380,18.66050990762135,-260.19868953178474,-60.34249159530513,-66.49083168867716,30.112918576247175,-12.643989319791332,267.75413955255675,75.40007614962549
381,18.740533901785692,-260.2306893554805,-60.52409143411184,-66.19491039521867,29.90508388234736,-12.424558925798955,267.83179427772905,74.92811815637205
382,18.818761474312563,-260.2786789067989,-60.68246574297546,-65.93592549299076,29.698354324108003,-12.152243271132166,267.91999380535685,74.46437534318798
383,18.894478550618025,-260.3422366017806,-60.81716020588379,-65.70801795006166,29.493688579305356,-11.833192243023493,268.01811443810027,74.00417756076712
384,18.96688281815268,-260.42071760808324,-60.927833638513995,-65.50482188742866,29.292285371455897,-11.47459484159448,268.125338057722,73.54270218853097
385,19.03510175363694,-260.51325969271596,-61.01425817982139,-65.31955063104826,29.09563837511018,-11.08455216075737,268.24066014554427,73.07516080431166
386,19.098215166588904,-260.61879197816944,-61.07631927759047,-65.1450541763491,28.905572819010523,-10.671933709710324,268.3629007244257,72.59695899912191
387,19.155281154355883,-260.7360460289819,-61.11401554549945,-64.97385338340736,28.724261680681245,-10.246222263432543,268.4907175962118,72.10383073178741
388,19.20536408207449,-260.86356887140545,-61.127458339151744,-64.79815782268433,28.554220614067635,-9.817352217869441,268.62262135727553,71.59195022763299
389,19.24756313816871,-260.9997378878092,-61.116870894960556,-64.60987503383308,28.39828184956813,-9.395545907506005,268.7569920036966,71.05802530779088
390,19.281040154947707,-261.14277785952305,-61.08258701808711,-64.40061904552695,28.25954814757331,-8.991151661976764,268.89209730658195,70.49937617893819
391,19.305045647379607,-261.2907806466604,-61.025049365995386,-64.16172538441376,28.141328517582895,-8.614486622914097,269.0261133820324,69.91400320532134
392,19.318942349050005,-261.44172809167304,-60.94480729104214,-63.884278597184434,28.04705799119002,-8.275686542912023,269.1571479811306,69.30064621429743
393,19.322225867039077,-261.5935187250342,-60.84251408208422,-63.55915667929315,27.980204362206653,-7.984563976423796,269.28326701336965,68.65883665046053
394,19.314542362213093,-261.74399870453254,-60.718923353535075,-63.177094921404915,27.94416541110605,-7.750475510246873,269.4025246729938,67.9889425299894
395,19.29570331226958,-261.8909971441476,-60.574884263168926,-62.72876974689452,27.9421605072978,-7.582198049853673,269.5129972650838,67.29220475622482
396,19.265697444391634,-262.0323656745319,-60.411335227850415,-62.20490131926497,27.97712044292375,-7.487813780804408,269.61282052267495,66.57076205298898
397,19.224699914508083,-262.16602178186093,-60.22929596203249,-61.59637218443007,28.051578867902563,-7.474603377976273,269.7002299543867,65.82766068275187
398,19.173078792958684,-262.2899951412652,-60.0298580247443,-60.894358022969506,28.167567932939356,-7.548947372547429,269.77360352148725,65.06684435462303
399,19.11139885916742,-262.40247573176737,-59.81417447706383,-60.0904657363607,28.326519997118837,-7.716236185903449,269.8315056150847,64.29311940601744
400,19.040422597207204,-262.5018620334534,-59.58344956473396,-59.17687365137843,28.529176839853857,-7.9807899878884205,269.8727308913599,63.512090624813226
401,18.96110812985316,-262.586807170401,-59.33892955068968,-58.14646871107386,28.775507971834738,-8.345790027228539,269.8963461297832,62.73006413258848
402,18.87460362007914,-262.65626055921445,-59.081895930462764,-56.99297618761083,29.06464040231064,-8.813223258255356,269.9017279895535,61.95391561295892
403,18.782237430276236,-262.70950252924683,-58.81366210949763,-55.711078645722104,29.39480336117968,-9.383841881775686,269.88859439577914,61.19092467077385
404,18.685503206964487,-262.7461695781065,-58.5355740770581,-54.29652243771386,29.763292578910566,-10.05713887969405,269.85702735174215,60.44857890283258
405,18.58603923654269,-262.76626840545265,-58.249014823115154,-52.74621171674495,30.16645938024359,-10.831339908207738,269.8074852824853,59.734353976769036
406,18.48560192039617,-262.77017747761306,-57.955411530593686,-51.05829168540519,30.599729778495654,-11.703411226318877,269.74080348933205,59.05547841428016
407,18.386033878339315,-262.7586354577953,-57.656244128229964,-49.23222449342362,31.05765786711258,-12.669082835338093,269.6581818097469,58.41869375311937
408,18.28922778283095,-262.7327163800631,-57.35305356859346,-47.26886271102742,31.53401613865793,-13.722885727842428,269.5611590963684,57.83002217622834
409,18.197087365250038,-262.6937920471696,-57.0474480958131,-45.17052628926633,32.02192309290739,-14.858202024210028,269.45157471351257,57.294554273337766
410,18.11148706268809,-262.6434828620368,-56.74110581293079,-42.941088967645804,32.51400591143224,-16.067326747005975,269.331517969005,56.816269074424326
411,18.034231653707952,-262.58359913198893,-56.435772150274666,-40.58607895688144,33.00259342025395,-17.341540047172142,269.2032672594584,56.3978968123667
412,17.96701720615236,-262.5160756984038,-56.1332513252481,-38.11279642046592,33.4799323593063,-18.671188878749433,269.06922160110287,56.040832248086495
413,17.911394757050438,-262.44290337335957,-55.8353913917821,-35.530446987239216,33.93841837801513,-20.04577742869593,268.93182794474296,55.745103196003164
414,17.86873815399223,-262.3660609308332,-55.544062981102286,-32.85028651046892,34.370832331911956,-21.454066028132353,268.7935080401811,55.50939550948455
415,17.840217236650535,-262.28745119033846,-55.261132465012174,-30.08576789546419,34.770572373068376,-22.88417876362472,268.65658852989856,55.33113254036498
416,17.826777074211776,-262.2088440911082,-54.988430952452006,-27.252676513738255,35.13187283924571,-24.323720489512553,268.52323744480486,55.2066041635114
417,17.82912346871394,-262.1318288020652,-54.727720942908455,-24.3692370567971,35.45000179796221,-25.75990425685383,268.3954095001336,55.131137941976455
418,17.847714501564653,-262.05777609703847,-54.480662483172694,-21.45617223886369,35.72143009130277,-27.179690127784134,268.27480177118696,55.099302982312835
419,17.882757559133623,-261.98781156149454,-54.24878054962648,-18.536693100452027,35.943965745066514,-28.569935836690977,268.16282063176743,55.1051356533807
420,17.93421101180053,-261.9227996526765,-54.03343535159721,-15.636402229265517,36.11684859815782,-29.917558888266278,268.06056028155973,55.142375833462474
421,18.001789573076685,-261.8633381338921,-53.835797254592684,-12.783095147502586,36.24080097754857,-31.209708684080802,267.968792688252,55.20470287173605
422,18.084972400445576,-261.80976192266286,-53.65682780450688,-10.00645116207999,36.318031253399745,-32.43394635168743,267.88796825734795,55.28596195902675
423,18.18301321422138,-261.7621549889702,-53.497267773243436,-7.337612490432235,36.352188253929384,-33.57842918633161,267.81822604908643,55.38037378847887
424,18.29495198557878,-261.7203686813245,-53.357632377773825,-4.808658547636912,36.3482658994612,-34.632095982829924,267.759411972602,55.48272277013233
425,18.419627962111463,-261.6840447222369,-53.23821311560885,-2.4519899473043325,36.31245910065659,-35.58484900771808,267.71110312487156,55.58852118951396
426,18.555693944203888,-261.6526410325375,-53.139085181159906,-0.2996432547591723,36.251973969875,-36.42772794559771,267.6726362712798,55.69414830291011
427,18.701631847093303,-261.625458551956,-53.06011915902482,1.6174375915347443,36.174797657588506,-37.153070874069336,267.64313842017185,55.79696441564706
428,18.855769741357417,-261.6016674724332,-53.000995552305035,3.270144105518451,36.08943549979061,-37.75465720375347,267.6215576622022,55.89540061657959
429,19.016300802531063,-261.5803318549993,-52.96122068616644,4.631929688294884,36.0046254146933,-38.22782758360796,267.6066929910202,55.98902517483678
430,19.181304871719867,-261.5604322749678,-52.94014262584177,5.679488930959323,35.929041382376596,-38.56957605648958,267.5972225091772,56.07858776514706
431,19.348773476702867,-261.54088663772313,-52.93696590804018,6.393360209168344,35.87099923099071,-38.77861034505779,267.5917299402116,56.16604283793707
432,19.516639054534057,-261.5205695154378,-52.95076408462175,6.758424264240575,35.838178746410726,-38.85537714977045,267.5887295908256,56.254553743337745
433,19.68280876883262,-261.4983303860704,-52.980489424987155,6.764274738020331,35.83737619361219,-38.80205073776761,267.5866899698765,56.348479669672344
434,19.845202846835,-261.47301112868246,-53.024979813582355,6.405440891396073,35.874300536942606,-38.62248474111263,267.5840563395468,56.45334794839487
435,20.00179686469047,-261.44346305806874,-53.082963961934205,5.68144808687181,35.95342489441017,-38.3221287760708,267.5792725818651,56.575814717796746
436,20.15066690488084,-261.4085636878296,-53.15306712989868,4.5967082071674215,36.07790208571882,-37.90791309823146,267.5708028547512,56.72361733607831
437,20.29003599472492,-261.3672334069142,-53.23381987053399,3.1602400788101486,36.2495496146413,-37.388105879838264,267.5571535510804,56.90552226916892
438,20.418319747886905,-261.3184524209708,-53.32367152873362,1.3852289661526878,36.468905179206544,-36.772148654512385,267.53689607716785,57.13127225123285
439,20.53416877829684,-261.26127848917304,-53.421008929480536,-0.7115563058966615,36.73534905405964,-36.07047586247588,267.50869089772914,57.41153595848241
440,20.636505376178615,-261.1948658577364,-53.524179851280195,-3.1104610343897674,37.04728483817928,-35.29432422110088,267.47131302382485,57.757861889529686
441,20.724552225203265,-261.1184852554096,-53.631520803525596,-5.789722185479358,37.40236564109162,-34.455537008526726,267.42367861380535,58.18263554057791
442,20.79785158015375,-261.0315441606719,-53.74138883294575,-8.726286138641996,37.797749336512126,-33.5663675800533,267.3648718037839,58.699035739072606
443,20.856274149747364,-260.93360612715094,-53.85219701618394,-11.896625533745874,38.230364479936306,-32.63928579522849,267.2941705120304,59.320983017363076
444,20.90001770447649,-260.82440786200954,-53.962452840358225,-15.277516172752865,38.69716810974711,-31.686790592937218,267.2110698304885,60.063071096560236
445,20.929595978721338,-260.703872887987,-54.07079809600524,-18.84674012507345,39.19537793591756,-30.72123161070464,267.1153016646465,60.94047252070768
446,20.94581868444062,-260.5721208798963,-54.17604854318679,-22.583688810234715,39.72266415550211,-29.754642352482097,267.0068494711484,61.968811345518304
447,20.94976344421044,-260.4294721208988,-54.27723163945424,-26.469848899007587,40.277289965789116,-28.798586907070586,266.8859572826381,63.163999204249954
448,20.942740375128547,-260.2764469769756,-54.37362095260767,-30.489163287697828,40.858194337352224,-27.864021677030152,266.75313270529017,64.54203540194825
449,20.926250135196376,-260.1137608232797,-54.46476623539187,-34.628268091916766,41.465015277290334,-26.961173103496524,266.6091441703448,66.11877612675734
450,20.90193653962695,-259.9423153790255,-54.55051825400336,-38.87661363459939,42.098056159320144,-26.09943201932916,266.45501327467167,67.90968156973477
451,20.871535254363888,-259.76318775595536,-54.631047269804036,-43.22648204296293,42.75820124200289,-25.287265064501977,266.29200337338597,69.92955196513057
452,20.83682045394313,-259.5776185853062,-54.70685367868162,-47.67291596023193,43.44678886553632,-24.53214363999555,266.1216055892721,72.19226384891036
453,20.79955162060436,-259.38700035284984,-54.778768949486555,-52.21357216692945,44.16545187757591,-23.8404912495787,265.9455231162188,74.71051617990042
454,20.761422808245474,-259.1928665839731,-54.847944984389706,-56.848511223782246,44.91593474864097,-23.217650742612282,265.7656542212291,77.49559278304181
455,20.72401667566813,-258.99688185732384,-54.91583056069639,-61.579930498004124,45.69989597600809,-22.667873708357714,265.58407381011347,80.55714350808552
456,20.688765419046995,-258.80083192700613,-54.98413453809918,-66.41184408925545,46.51870322826872,-22.19433476480381,265.4030129404023,83.90298233273847
457,20.656920360500287,-258.60661266341947,-55.0547767271647,-71.34971020276706,47.373227731165564,-21.79917340749066,265.22483533456426,87.53889726261437
458,20.629531282736373,-258.41621620651,-55.12982838672137,-76.40000529973516,48.26364395814092,-21.48356517813068,265.0520098127261,91.46846513454146
459,20.607435669694123,-258.2317127440485,-55.21144503229653,-81.56974541142523,49.18924079346588,-21.247822091528473,264.88707766288155,95.69286482197104
460,20.59125706494195,-258.05522669921527,-55.301794497463064,-86.8659582980072,50.14825072606672,-21.09151971188095,264.7326143131811,100.21068484653418
461,20.5814110703295,-257.8889067369106,-55.40298301456657,-92.29511511199561,51.137703912338125,-21.013645452544637,264.59118519321373,105.01772550841889
462,20.578117166652877,-257.7348896854826,-55.51698163397254,-97.86253600186616,52.15331375430202,-21.012760159134526,264.465296223577,110.10680054794989
463,20.581414467446088,-257.5952590425788,-55.64555487065398,-103.57178964309968,53.189399766814454,-21.08716332589867,264.3573398371752,115.46754812786139
464,20.591179642174353,-257.4719991065964,-55.790193338855055,-109.42411107363522,54.23885192433673,-21.235051680852166,264.26953778374696,121.08626476266531
465,20.607145553462356,-257.36694596698686,-55.95205238663505,-115.41786478978047,55.29313850703205,-21.454661375333423,264.20388223384106,126.94577816773867
466,20.62891961123208,-257.28173667821335,-56.13189915709111,-121.54808055627853,56.34235698383398,-21.744385427344305,264.1620769103281,133.02537566016505
467,20.656001374318354,-257.2177580296447,-56.33007076749249,-127.80608785534228,57.37532509043389,-22.102860107874847,264.1454801554992,139.30080384418392
468,20.68779945718584,-257.1760964701599,-56.54644624359896,-134.17927162973854,58.37970741254982,-22.529016341583986,264.15505201109517,145.7443531929679
469,20.723648263153095,-257.1574909213998,-56.780434435354856,-140.65096740546406,59.34217175507493,-23.022094621276526,264.1913075066773,152.32503820619033
470,20.76282535791356,-257.1622903099664,-57.03097935355583,-147.2005085268382,60.24856944762911,-23.58162407986916,264.2542783033995,159.0088804671136
471,20.804570305773677,-257.19041760997385,-57.29658328508501,-153.80343257824617,61.084134426363924,-24.207367933024965,264.3434845776044,165.759298442876
472,20.848105503851862,-257.2413420741,-57.57534690749941,-160.43184840335834,61.83369724862359,-24.899238356991233,264.4579186575598,172.53760440288795
473,20.892659059194454,-257.3140612249161,-57.865024689120055,-167.05495951563134,62.48191187621191,-25.65718406680832,264.59604158568067,179.30360530395748
474,20.937489196010908,-257.40709407454295,-58.16309325179174,-173.63973399083713,63.01349482270699,-26.48105368952407,264.7557935011783,186.0163007090292
475,20.98190921301244,-257.5184868750373,-58.46683004339203,-180.15170499195392,63.41347783443626,-27.370437888665283,264.9346184653082,192.63466658710607
476,21.025311754173455,-257.6458324350366,-58.77339942864111,-186.55587989192688,63.667476385278526,-28.324493446275415,265.12950401460415,199.1185091318689
477,21.067191102368874,-257.7863036811764,-59.079942967384525,-192.81772974386962,63.76197660760997,-29.34175331528613,265.33703529566776,205.42936765827108
478,21.107162261419482,-257.9367017117203,-59.38367019442594,-198.90422499153163,63.684642588717374,-30.41992797397435,265.5534631144175,211.53144047373294
479,21.144975689047996,-258.093518070597,-59.68194582312566,-204.78487830803456,63.42464410071444,-31.555705050507335,265.77478464386684,217.39250279473924
480,21.180526650546792,-258.2530103655998,-59.972369174301,-210.43275187271192,62.97300185120514,-32.74455585738467,265.9968349235771,222.98478185025994
481,21.213858266394226,-258.4112897262948,-60.252841898729585,-215.82538485675232,62.32294347644861,-33.98055886506526,266.21538673611684,228.2857519299992
482,21.245157450849298,-258.564417975437,-60.52162074620842,-220.94559789934468,61.47025917338113,-35.256250971072404,266.4262560021871,233.27881190089857
483,21.274743161472973,-258.70851172297427,-60.777353178280094,-225.78213519062405,60.413641666303974,-36.5625175360976,266.6254094443618,237.95381005116366
484,21.303046793623437,-258.8398499154547,-61.019094857511,-230.330111424817,59.154991759045565,-37.88853157203466,266.8090709290669,242.307386194455
485,21.330585176225803,-258.95498087766117,-61.24630927114987,-234.59124004044043,57.69966858022861,-39.22175126430935,266.9738227461679,246.34310863851206
486,21.357927338490676,-259.05082471080374,-61.45885082701244,-238.5738302196306,56.056663182575974,-40.54798326188501,267.1166982220117,250.07139341986772
487,21.38565682806659,-259.1247669997062,-61.6569336404193,-242.2925522558462,54.238675620972714,-41.85151695034991,267.23526239553803,253.50920440461007
488,21.414331738812532,-259.1747399964843,-61.84108889600093,-245.76798324430416,52.26207901686389,-43.11533238427165,267.3276778746305,256.6795446360978
489,21.444444773316395,-259.19928775792204,-62.01211409159552,-249.02595676177998,50.14675921307554,-44.32138185434202,267.39275339621236,259.61076083649766
490,21.47638575400125,-259.197612181141,-62.171017613068024,-252.09675045124993,47.91582503752132,-45.45094226627382,267.42997310144,262.33569335143346
491,21.510409110049434,-259.16959758886173,-62.31896196283453,-255.0141534145949,45.595191408201465,-46.48503260921001,267.4395051976488,264.8907121680228
492,21.546608962417846,-259.11581250718393,-62.45720866022861,-257.8144604337907,43.21304497156954,-47.40488784076157,267.42218957323877,267.3146852159238
493,21.58490433761826,-259.0374885014012,-62.587067399094295,-260.53544200146735,40.79920912964171,-48.192477624028726,267.3795050072186,269.6479275825811
494,21.62503661781056,-258.9364772219232,-62.7098514489566,-263.21533792043743,38.384431659888016,-48.83105560980967,267.31351769049184,271.93117940576747
495,21.666580579378742,-258.8151879900556,-62.82684053372884,-265.8919179136034,35.99962320438045,-49.30572243587282,267.226813686811,274.20465605268373
496,21.708969392692858,-258.6765092345087,-62.93925166110187,-268.6016454598239,33.675078337817,-49.60398343543605,267.1224186634467,276.507206915956
497,21.751532867759295,-258.52371781243227,-63.04821773626422,-271.3789713561429,31.439712454251538,-49.71628037743262,267.0037086924055,278.8756091913569
498,21.793547145158005,-258.3603806158704,-63.15477328693211,-274.25577203028615,29.320347176553465,-49.63647556906671,266.8743160779485,281.34401113032357
499,21.83429308693571,-258.1902528273334,-63.25984627416505,-277.26093541272667,27.3410744091732,-49.362266515179094,266.73803397410114,283.9435265899403
500,21.873119941325633,-258.01717682815706,-63.36425487872561,-280.4200854377654,25.522724810601332,-48.89551024836993,266.59872313319545,286.70197055785326
501,21.909510482406432,-257.84498521079036,-63.46870837688541,-283.75542618540544,23.88246084225764,-48.24243854043932,266.4602236139759,289.6437150127587
502,21.943143712728357,-257.6774106609497,-63.5738115680741,-287.28567930751444,22.433508145558182,-47.41374842387798,266.3262736866475,292.789637035481
503,21.973951271246374,-257.51800465875965,-63.68007241644327,-291.0260843901815,21.185032183853927,-46.42455660599061,266.20043743158266,296.15712717854757
504,22.00216388331543,-257.37006604777343,-63.787912523892054,-294.9884315784268,20.14216014301665,-45.29421125963278,266.0860416608222,299.7601259873099
505,22.02834460287707,-257.23657967667185,-63.89767988409076,-299.1810989761185,19.306141285088245,-44.04596016977528,265.98612196820517,303.6091600616989
506,22.053406284703865,-257.1201646833439,-64.00966321663634,-303.6090734884778,18.674632610136364,-42.706480097879016,265.9033771210498,307.7113555786725
507,22.07861160666918,-257.0230316458742,-64.12410710467769,-308.2739421125252,18.242091147720956,-41.3052781725827,265.84013072823603,312.07041592986604
508,22.105554883309647,-256.94694778021534,-64.24122720174871,-313.1738503177137,18.000249798440713,-39.87398177097171,265.79829916367396,316.6865601366273
509,22.136125756803768,-256.89320957201045,-64.36122497023632,-318.30343413354416,17.93865067073392,-38.44553848026165,265.77936504317194,321.55642900948686
510,22.17245559811705,-256.8626225676019,-64.48430172285738,-323.6537418423014,18.04520853432485,-37.053352200926824,265.78435601601217,326.6729756061246
511,22.216848141969212,-256.8554883609459,-64.61067208374098,-329.21216882889337,18.306777411198333,-35.730385120864355,265.8138290744018,332.02536449056913
512,22.271696549024536,-256.8715990043636,-64.74057729997281,-334.9624345387069,18.709695316369228,-34.50825790938101,265.86786089954273,337.59890996950776
513,22.339389759386187,-256.9102391644626,-64.8742989827317,-340.884633308872,19.240285472095458,-33.41638176136201,265.9460449438169,343.3750865265603
514,22.422211719428667,-256.970196452328,-65.01217370138318,-346.9553908511597,19.88529664621539,-32.48115560074297,266.04749607397235,349.3316448572293
515,22.52223782321552,-257.04978056916696,-65.15460847085087,-353.1481551590309,20.632270298072427,-31.725259621734043,266.17086377522776,355.44286400026675
516,22.64123351788337,-257.1468521825831,-65.30209680966456,-359.433644413163,21.46982755929865,-31.167072352776657,266.3143551425036,361.67996388384347
517,22.780560167005522,-257.25886263053553,-65.4552347989682,-365.78046506004534,22.38787421672094,-30.820232802175152,266.47576900974263,368.01169313916205
518,22.94109278985185,-257.38290549505734,-65.6147362764934,-372.1559009324838,23.37772629378255,-30.693362500659312,266.65254239943636,374.40509457151006
519,23.123153345818007,-257.5157807328196,-65.78144583161591,-378.52685978064915,24.43216221636501,-30.78995498234329,266.84180993539064,380.826435935435
520,23.326462114203576,-257.65407142203765,-65.95634784548625,-384.86094803541505,25.545409781718657,-31.108432816370712,267.04047605707416,387.2422777911379
521,23.550108649166894,-257.7942323972872,-66.14056984497917,-391.12762949905607,26.713077231312763,-31.642364789337474,267.2452990269765,393.6206346915473
522,23.79254282063569,-257.93268921915416,-66.33537908060795,-397.29941050293655,27.932037723456524,-32.380828246284466,267.4529849983298,399.93217231603313
523,24.051585542466537,-258.0659451037221,-66.54217227451777,-403.3529842622854,29.20027555538501,-33.30889422750036,267.6602897905792,406.15137281971346
524,24.32445793733889,-258.19069263631786,-66.76245943370671,-409.2702617365675,30.51670086296432,-34.408206652632195,267.8641254076165,412.25759469656526
525,24.607827014369043,-258.3039264582369,-66.99784296552866,-415.0392159686941,31.880937585073564,-35.657622406466174,268.0616677592088,418.23595263373704
526,24.897865584995536,-258.4030528304257,-67.24999288959039,-420.6544719912783,33.29308759084659,-37.03387757535529,268.25046166466274,424.0779476111463
527,25.19032407984809,-258.48599202264944,-67.52061817880977,-426.1175849149697,34.75347236269927,-38.51224655566993,268.428519110831,429.78178790315997
528,25.480611934167587,-258.55126962693936,-67.81143392230801,-431.4369642424037,36.262352770607045,-40.0671650480644,268.59440682901567,435.3523571876326
529,25.763886138295753,-258.5980929879556,-68.12412439029109,-436.62742178395604,37.81962743364141,-41.67279440013957,268.74731944164023,440.800805647056
530,26.035144510836034,-258.6264089928068,-68.46030295724557,-441.70934233058136,39.42451100025536,-43.303512456950585,268.8871346798299,446.14376223907277
531,26.289321459411997,-258.6369395718467,-68.82147080173206,-446.7074986868201,41.07519535341469,-44.93432406273579,269.01444751823493,451.40218936061
532,26.521384507303956,-258.631191555654,-69.20897703358533,-451.6495539705198,42.76849914218313,-46.541191817928414,269.1305805662221,456.59992304278285
533,26.72643051706481,-258.61143811854805,-69.6239832735156,-456.5643127018201,44.49951391608223,-48.1012940544625,269.23756874947844,461.76196098530744
534,26.89978108736115,-258.58066997234306,-70.0674357686561,-461.4797970634573,46.26125813637796,-49.59322183956827,269.338117254779,466.91257604032387
535,27.037076882744497,-258.54251576788175,-70.54004790237283,-466.4212352754021,48.044353090874125,-50.99712986479468,269.43553289882004,472.07334359098877
536,27.134370674338925,-258.50113276172584,-71.04229541129428,-471.40905517457526,49.8367369242571,-52.294857187226135,269.53363045769026,477.2611774884012
537,27.188218712112267,-258.4610705528467,-71.57442579973592,-476.45697795027996,51.6234343229201,-53.47003299706278,269.636616923079,482.48647091784585
538,27.19576978570542,-258.4271123767979,-72.13648246332635,-481.5703047295775,53.38639963592124,-54.5081800798636,269.74895796732227,487.751435935387
539,27.15485093588862,-258.40409988127067,-72.72834296090728,-486.744482412959,55.10445029019167,-55.39682478504358,269.8752319406752,493.048728558931
540,27.064048202716624,-258.39674835542826,-73.34976972945309,-491.9640248084715,56.75330529974708,-56.12561763414293,270.0199773558034,498.36043525085677
541,26.922780099669723,-258.40945993206833,-74.00047040826492,-497.20185072953063,58.30574050819365,-56.68646381361392,270.18753995517335,503.6574814849435
542,26.73136085576083,-258.4461422903036,-74.68016396201452,-502.41908258285474,59.73186796166997,-57.07365826196254,270.38192512454845,508.8995041830579
543,26.491050043758158,-258.51003994572466,-75.38864810187107,-507.56532774238224,60.99954160074965,-57.28401629029286,270.60666075059964,514.0352078540296
544,26.20408515444102,-258.6035844913487,-76.12586319626713,-512.5794417929294,62.07488555624138,-57.31698787814633,270.8646748262669,519.0032004235348
545,25.87369406467176,-258.7282692726282,-76.89194790179138,-517.3907490237015,62.922935112587304,-57.174742019501124,271.1581913063593,523.733280533997
546,25.50408507740653,-258.88455296404237,-77.68728196620526,-521.9206730288914,63.508374281545166,-56.8622067625082,271.4886468742105,528.1481252181495
547,25.100412993543298,-259.0717953283557,-78.512512006083,-526.0847105567464,63.79634833341383,-56.38705090806243,271.856630324106,532.165306963286
548,24.66872030661579,-259.2882270760865,-79.36855673476343,-529.794666250048,63.75332495843473,-55.75959474155053,272.2618452267405,535.6995537235155
549,24.21585321523157,-259.5309542643414,-80.25658928813826,-532.9610557113386,63.34797430285698,-54.99263976351188,272.70309555028535,538.6651555079861
550,23.749352961499305,-259.79599621367333,-81.1779958388892,-535.4955800037853,62.55203618697973,-54.10121139090144,273.1782930694549,540.9784174203704
551,23.277323971292528,-260.0783546473492,-82.13431132193432,-537.3135762744905,61.341142539684895,-53.10221425954344,273.6844847791384,542.5600615092322
552,22.80828111140861,-260.37211080596524,-83.12713467529396,-538.3363561352377,59.69556457736144,-52.0140068484872,274.2178981968119,543.3374879720575
553,22.350979017740663,-260.67054670227424,-84.15802749713166,-538.4933549007119,57.600857513188345,-50.85590967060849,274.7740024085188,543.2468191628798
554,21.91422708670295,-260.9662863938941,-85.22840130098514,-537.7240297164742,55.04838046860477,-49.64766783911621,275.34758290581,542.234666256349
555,21.506694470187355,-261.2514530854797,-86.33939944356705,-535.9794617498156,52.03567550464375,-48.40889339950464,275.9328285573142,540.2595769234385
556,21.136710162146862,-261.51783801707427,-87.49178027746801,-533.2236355081965,48.56669690208601,-47.158515102716,276.5234294301303,537.293141458862
557,20.81206387853307,-261.7570774693302,-88.6858082098308,-529.4343854602153,44.651889437529,-45.91426347151653,277.1126846454249,533.3207529111224
558,20.53981385696811,-261.9608347570128,-89.92115905981983,-524.6040150399238,40.30812169832365,-44.692217360752345,277.6936199340349,528.342032438767
559,20.326107881696995,-262.1209846407073,-91.19684522983097,-518.73960467814,35.55848668928193,-43.50643490543137,278.25911485354374,522.3709431519945
560,20.1760236766729,-262.22979801258543,-92.51116475337255,-511.8630329667455,30.43198653282804,-42.36868689779328,278.8020395937487,515.4356232959226
561,20.093434249996434,-262.2801249185176,-93.86167657651515,-504.0107380600417,24.963120669990797,-41.28830446948443,279.31540094311646,507.5779724274725
562,20.08090288821463,-262.2655739525496,-95.24520283417738,-495.23324501699693,19.191397579667072,-40.27214595869347,279.7924964162318,498.8530223405103
563,20.13961145003992,-262.18068580529365,-96.65785751335218,-485.5944795797825,13.16078875301643,-39.32468067004339,280.2270748002792,489.3281185593921
564,20.269324509235723,-262.02109820182125,-98.09509966333373,-475.17088101015753,6.919140765503096,-38.448180508775614,280.61350038830994,479.08192946338625
565,20.46839075022789,-261.7836985459064,-99.55180818558243,-464.0503176206247,0.5175572672478495,-37.64300461852753,280.9469168458332,468.2032901417685
566,20.733781804501103,-261.46675939070224,-101.02237434807552,-452.33080027341765,-5.990241749063336,-36.90795741247549,281.2234051404293,456.78987869094146
567,21.061167465059444,-261.0700507148513,-102.50080768967115,-440.1189831145651,-12.548580138904482,-36.24069691087703,281.4401286254508,444.94671561688295
568,21.44502498784137,-260.59492226679424,-103.9808509634081,-427.5284388007256,-19.10050496408451,-35.638168206728935,281.59545757855267,432.78447394794597
569,21.87877900887855,-260.0443491290476,-105.45610013302203,-414.67769882299496,-25.588486064379875,-35.097036259457646,281.68906539859154,420.41758995163457
570,22.354967540926665,-259.42293416758463,-106.92012600258084,-401.6880590309538,-31.955136436297337,-34.61409307949063,281.7219892195594,407.96217277054456
571,22.865428737591998,-258.73686220305405,-108.36659461756605,-388.68116606074216,-38.14395194797108,-34.18661663743332,281.69664887547657,395.5337257835506
572,23.401502745573364,-257.99380263761685,-109.78938402778938,-375.7764209950666,-44.10006565401252,-33.81266233892557,281.6168199776378,383.24471197310237
573,23.954242883561353,-257.2027598376054,-111.18269537801491,-363.0882601523584,-49.77100807706136,-33.491272407588085,281.4875592929339,371.2020179672728
574,24.51463034277231,-256.373873542671,-112.54115660408148,-350.7233966224142,-55.10746093974433,-33.222593710563935,281.31508337970354,359.50439396223635
575,25.073786478867937,-255.51817455239075,-113.8599172054054,-338.77812698114064,-60.06398856830498,-33.0079000695803,281.106604153669,348.2399664189967
576,25.623176622173602,-254.64730356385112,-115.13473261835496,-327.3358226633918,-64.59972901532232,-32.84952050137827,280.8701273821874,337.48393449381115
577,26.154799326842323,-253.77320309979976,-116.36203666067763,-316.46473241522716,-68.67902616718831,-32.75067972188526,280.6142218847238,327.2965674045206
578,26.661355261531508,-252.90779397724967,-117.53900036197929,-306.2162195248609,-72.27198485607832,-32.71526132723299,280.34776847073243,317.72161697627587
579,27.136390589668242,-252.06264877937164,-118.6635752318564,-296.6235445664735,-75.35493323906583,-32.747507165210166,280.07969843609163,308.7852470709955
580,27.574410669048483,-251.2486752779372,-119.73451870318284,-287.7012816834555,-77.9107801597264,-32.851668473168516,279.81873176556394,300.49556013881033
581,27.970961139410797,-250.47582264151632,-120.75139928071111,-279.4454254712642,-79.92925938489151,-33.03162542191868,279.57312505449187,292.84277225907806
582,28.32267488209173,-249.75282256178204,-121.71457904341347,-271.83420853539826,-81.40705692816505,-33.29049196062847,279.35043866513314,285.80005389271446
583,28.62728482756506,-249.08697614101237,-122.62517176537979,-264.8296095491776,-82.34782157439714,-33.63022265058821,279.157331848471,279.32501663715084
584,28.883604019490996,-248.4839954188125,-123.4849760442056,-258.3794911541903,-82.76206174806325,-34.05123787344635,278.99939340984815,273.36178921027243
585,29.09147560060519,-247.94790574102504,-124.2963842922662,-252.42026942567128,-82.66693370961184,-34.552083594652984,278.8810138662132,267.84359133984225
586,29.251696423970813,-247.48101199717703,-125.06227001892815,-246.8799847816218,-82.08592662112423,-35.12914164807126,278.8053030114078,262.6956847260339
587,29.36591884486466,-247.08392846433287,-125.78585730348581,-241.68162064193504,-81.04844953265663,-35.776405920484216,278.77405462840125,257.83855805546887
588,29.436535965535224,-246.75566896481843,-126.47057756141852,-236.74650265248422,-79.5893244026101,-36.485338440947864,278.7877580176292,253.19119000643767
589,29.466556137449093,-246.49379146180846,-127.11991949217548,-231.9976087746375,-77.74818864151811,-37.244816981337785,278.84565414004726,248.67423138771986
590,29.459472643790605,-246.2945890224016,-127.73727840117948,-227.36262890147538,-75.56881095616009,-38.04118239530081,278.9458323961151,244.21295512907517
591,29.41913397486755,-246.15331711583798,-128.32581103246363,-222.77663092504858,-73.09832572524462,-38.85838984968146,279.0853622702004,239.7398399906412
592,29.349619098764997,-246.06444552873128,-128.88830185347499,-218.18421670789868,-70.3863937115402,-39.67826373402668,279.2604524141794,235.19667904487412
593,29.2551210580971,-246.02192208799897,-129.42704646791972,-213.54108405216627,-67.48430033264839,-40.480851731622764,279.4666285781019,230.53613509560427
594,29.13984144488358,-246.01943519646593,-129.94375733748961,-208.8149469763495,-64.44400649927735,-41.24486953394711,279.6989213559846,225.72269969209344
595,29.007897839225794,-246.05066293587447,-130.43949610621306,-203.98580376417257,-61.31717059401391,-41.94822407539212,279.95205495514955,220.7330475929835
596,28.863245930799888,-246.10949796194686,-130.9146355402384,-199.04557796920494,-58.15416296708775,-42.56859992243774,280.2206289057881,215.55581202329446
597,28.70961756090359,-246.19023935923792,-131.3688525244437,-193.99718995878192,-55.00309604688128,-43.0840904368162,280.4992856102772,210.19083595796806
598,28.550475272930452,-246.28774489812383,-131.80115184080506,-188.853144188304,-51.90889374817787,-43.47385245448139,280.78285782256165,204.64797954601866
599,28.388983242710303,-246.39753967810265,-132.20991878114603,-183.63373893361472,-48.912423461201755,-43.7187606588491,281.0664915830644,198.94558253941364
600,28.227993785050195,-246.51587982822258,-132.59299721073384,-178.36501953515028,-46.04971277524893,-43.80203609611546,281.3457418020963,193.10869233551043
601,28.070048003989093,-246.6397725170519,-132.94778862801792,-173.07660249906226,-43.35127149965887,-43.70982299417213,281.6166394229266,187.1671724895217
602,27.91738852830198,-246.76695575468645,-133.27136709165504,-167.7994957815891,-40.841537660524295,-43.431689541410144,281.8757306979567,181.1538033376214
603,27.77198167520582,-246.89584326788824,-133.56060455019903,-162.56403067135912,-38.53846395063665,-42.96103148171843,282.120090483971,175.10247630275893
604,27.635545925819862,-247.0254411254478,-133.8123010266203,-157.398004037995,-36.45325840308017,-42.29536192314838,282.3473126044745,169.04656770583208
605,27.50958338212859,-247.15524375981795,-134.0233142340123,-152.32510815901207,-34.590289629968225,-41.43647614556529,282.5554812100085,163.01755810970997
606,27.39541092423195,-247.2851174934852,-134.19068352608292,-147.36370114353215,-32.94716271010933,-40.39048591143175,282.7431276241622,157.0439412999638
607,27.29418804291801,-247.41517960558969,-134.31174361309593,-142.52594654282038,-31.514966774127974,-39.16772339393428,282.90917736431953,151.15044494016504
608,27.206938738601366,-247.5456804302975,-134.3842241531253,-137.8173282425388,-30.278689712560894,-37.7825200183369,283.0528919028099,145.35756454579905
609,27.134565461336518,-247.67689508089583,-134.40633207793383,-133.23652775877713,-29.21778951140266,-36.25287005137525,283.1738093516019,139.681395083089
610,27.077853869487228,-247.80903021011363,-134.37681434881947,-128.77563641744504,-28.306905858700834,-34.59999255610642,283.27168768691604,134.1337310023216
611,27.037468257815803,-247.9421497196744,-134.29499991752422,-124.42066465369864,-27.51669026037374,-32.8478083356529,283.3464534411072,128.72239605265858
612,27.013938783684136,-248.07612157043582,-134.16082102508605,-120.15230435615676,-26.814728364460567,-31.022350735879346,283.39815803456594,123.45175851909833
613,27.007642811626496,-248.2105861157322,-133.97481530524527,-115.94689698863729,-26.1665249287059,-29.15113066445714,283.4269431783699,118.32338495556894
614,27.018783423521008,-248.3449450258969,-133.73811108169014,-111.77755916360785,-25.536520186718977,-27.26247690296605,283.4330161107504,113.33678524218008
615,27.047368235945978,-248.47836894261314,-133.45239867060295,-107.61541748365944,-24.88910634488878,-25.384872755679602,283.41663481735316,108.49020305360608
616,27.0931912439306,-248.60982131939144,-133.11989061630666,-103.43090519619088,-24.189614406420283,-23.546309323479438,283.3781027817516,103.78140802455358
617,27.155819701742992,-248.73809539393255,-132.74327377952903,-99.19507434801113,-23.405244195793486,-21.773674222049575,283.31777227063344,99.20844884510984
618,27.234587275302527,-248.8618610172831,-132.32565607054187,-94.88087881506483,-22.505914057199146,-20.092192395453452,283.2360548087295,94.77033028095427
619,27.328594037694593,-248.97971822521308,-131.87051030168286,-90.46438602157458,-21.46501092413528,-18.524932901084263,283.1334374058877,90.46758180294155
620,27.436713431611988,-249.09025485924911,-131.38161714445448,-85.92587850354367,-20.260026009776112,-17.092392325070005,283.0105031755184,86.30269117638818
621,27.557606050250197,-249.19210594987217,-130.86300863501063,-81.25081082219076,-18.87306599879225,-15.812162010347931,282.8679550382357,82.28038300170309
622,27.689739814510805,-249.28401270962033,-130.31891317023852,-76.43059275277372,-17.29123412870132,-14.698682727091967,282.7066410428598,78.4077297591456
623,27.831415705303822,-249.36487877933686,-129.75370248442883,-71.46317609293331,-15.506879738573566,-13.763086996591706,282.5275793902807,74.69409120150327
624,27.98079772688828,-249.43382101771059,-129.17184069601913,-66.35342958268832,-13.517718534589417,-13.013126225020226,282.33198069068663,71.15088656995881
625,28.135945464255087,-249.4902119864164,-128.57783522331783,-61.11329387347686,-11.32682882882676,-12.45317731268231,282.1212646883204,67.79121254165977
626,28.294847584304662,-249.5337116336161,-127.97618927502617,-55.761715763262195,-8.942531309351528,-12.084321583501314,281.8970689414194,64.62932750336469
627,28.45545486930363,-249.56428650080275,-127.37135575430248,-50.32436766799654,-6.378161510155173,-11.904487714434186,281.66124774237505,61.68002924065163
628,28.615711761810953,-249.58221580994783,-126.76769267433794,-44.83316432302204,-3.6517450835465928,-11.908649728244466,281.41586061940257,58.95795813907708
629,28.773585856901796,-249.58808471781285,-126.16942041455036,-39.32559390945062,-0.7855863240349449,-12.089070898710684,281.16315072283123,56.47686133154485
630,28.92709520154171,-249.58276568758964,-125.58058129798899,-33.84388511665695,2.194219611143703,-12.435584470787186,280.905514087633,54.24885477095592
631,29.074333554591348,-249.56738938542054,-125.00500209071808,-28.43403503913909,5.258340399659941,-12.935902339045947,280.6454612443243,52.28371988224301
632,29.21349386392863,-249.54330692296884,-124.44626010800243,-23.144725314747784,8.37481571615149,-13.575943227338511,280.385573058344,50.58826928197898
633,29.3428901142496,-249.5120456856505,-123.90765356094657,-18.026155724155156,11.509711184675144,-14.340172445264292,280.12845301081865,49.16581221735808
634,29.46097745368695,-249.47526128988443,-123.39217651082973,-13.128825836330057,14.627806141284754,-15.211945900927988,279.87667825620474,48.0157451383824
635,29.566370270451635,-249.43468828183856,-122.90249833832084,-8.50229638264054,17.69330390214203,-16.17385163936907,279.6327516233352,47.13328645812071
636,29.657857800670385,-249.39209204993537,-122.44094708667546,-4.1939628520521985,20.670552903534546,-17.208042695433754,279.39905634947536,46.509367313776245
637,29.734416948827217,-249.34922416186075,-122.00949555928753,-0.24787405858428513,23.52476669435071,-18.296555531840273,279.1778149044493,46.13068227030026
638,29.7952222483493,-249.30778295457188,-121.60974883859163,3.296372217057728,26.222730263671483,-19.421608909739305,278.97105285623417,45.979895833629605
639,29.839653155627484,-249.2693806571391,-121.24293209760043,6.40462618002615,28.733479606250768,-20.565878850079585,278.7805683641124,46.03599301540197
640,29.86729899203177,-249.23551765463554,-120.90987813680677,9.049048116825457,31.02894089095563,-21.712746413878826,278.6079075550064,46.2747557145941
641,29.87796175722939,-249.20756380985912,-120.61101469073179,11.20881205182592,33.084515226977125,-22.846516247753875,278.45434569094147,46.669341831270145
642,29.871656826037302,-249.1867460876685,-120.34635192301211,12.870632103398561,34.87959486164444,-23.952605068734037,278.3208735869701,47.19094095435894
643,29.848611366365937,-249.17414108775418,-120.11547068082469,14.029098063136207,36.39799669373475,-25.017700419843422,278.2081882233159,47.8094790830492
644,29.80926027798166,-249.17067060625163,-119.91751223305124,14.686812485216892,37.62829935063898,-26.029891052050083,278.116686130533,48.49434496645663
645,29.754239558622917,-249.17709818035524,-119.75117047838253,14.85432736521428,38.5640710398072,-26.97877104657708,278.04645810909744,49.21511209220824
646,29.684377179337947,-249.1940247247955,-119.61468785938224,14.549883985451944,39.2039773148262,-27.85552010875144,277.9972841169333,49.9422329737216
647,29.60068168472148,-249.22188167091974,-119.50585631869761,13.798964475993731,39.55176106454689,-28.65296223475933,277.96862749265387,50.64768605545245
648,29.504328779094884,-249.2609203411496,-119.42202461162384,12.633667938159688,39.61609148475215,-29.365604198193807,277.95962797153373,51.30556011258327
649,29.39664616511545,-249.3111966654351,-119.36011324963474,11.091927500292371,39.410284315616884,-29.98965414747484,277.96909327420246,51.89256618560011
650,29.27909692091282,-249.3725508461002,-119.31663829592095,9.216587373304783,38.951901767573894,-30.52301923067132,277.9954894790482,52.3884724231323
651,29.153261721649393,-249.44458224476062,-119.2877450678629,7.054360861948611,38.262246676622624,-30.96527980333389,278.0369309224886,52.77646217300251
652,29.020820191941944,-249.52662064716364,-119.26925244574261,4.654691441228207,37.365770865824985,-31.317636734211472,278.0911710126616,53.04341979378969
653,28.883531622554585,-249.61769613851413,-119.25670794553162,2.0685395850970067,36.28942190265612,-31.582827978867904,278.1555960760652,53.18015171036108
654,28.743215232761028,-249.71651087707184,-119.24545307367538,-0.6528816552487534,35.061955070981234,-31.765011251022706,278.2272250298772,53.18155217623866
655,28.60173009714351,-249.82141677157432,-119.23069792939728,-3.459398852623878,33.71323824862546,-31.869611309331656,278.30271807875914,53.04672406946638
656,28.460954740649044,-249.93040328279173,-119.20760376771854,-6.3031737009763535,32.27357650902624,-31.90313276598761,278.37839771150254,52.77906481240605
657,28.322766280006288,-250.04109935009518,-119.17137233348257,-9.139975637652007,30.773080797826882,-31.872941924228456,278.4502851079881,52.38632609008682
658,28.189018963162727,-250.15079292294388,-119.1173410358194,-11.930403204677429,29.24110118208252,-31.78702355529886,278.5141547112014,51.88065339563122
659,28.061522050800008,-250.25647076575922,-119.04108320480219,-14.641023365991195,27.705740179641257,-31.653720477855124,278.5656090766153,51.27860760518996
660,27.942017122836223,-250.35488002922455,-118.93851262083132,-17.245395890862845,26.193455886773776,-31.481465137872483,278.6001750485301,50.60116597576148
661,27.832155074217635,-250.44261155583033,-118.80599118297036,-19.72494865007914,24.728758500961373,-31.27851296373731,278.6134208208924,49.87369455799717
662,27.733473329267028,-250.51620317634604,-118.64043797548165,-22.069669794494946,23.33399793100047,-31.052687008687435,278.6010916668787,49.12587863627526
663,27.647374058805216,-250.57225958804847,-118.43943716928392,-24.278584668591858,22.029234974068558,-30.81114236043826,278.5592602950471,48.3915932033029
664,27.575104239290045,-250.60758399825457,-118.2013412697632,-26.35998902571024,20.83218428786197,-30.5601572371136,278.4844861316132,47.70869232188123
665,27.517738190272485,-250.61931572216213,-117.92536529663973,-28.33141543993358,19.758214185678728,-30.304955918837738,278.37397651537225,47.11869492908368
666,27.476162877669623,-250.60506740048544,-117.61166674866837,-30.219316412536433,18.820386197664885,-30.049566960817465,278.2257419700769,46.66634533815091
667,27.451065876991247,-250.56305541225925,-117.26140601301208,-32.05845528119278,18.029516508601677,-29.796718676379978,278.0387375129814,46.39902941991618
668,27.442925481437907,-250.4922173164301,-116.87678245620012,-33.891004553725445,17.394241963523584,-29.54777275655368,277.81298239227556,46.36603223291904
669,27.45200210631214,-250.3923106445908,-116.46104258704962,-35.76536071079815,16.92107540083571,-29.302696098114655,277.54965154001695,46.6176297276598
670,27.47833006597726,-250.2639879473432,-116.0184579664021,-37.73469482458811,16.614438535304924,-29.060070328848443,277.25113308247535,47.204015931930776
671,27.5217090736731,-250.1088436166714,-115.55427172453632,-39.855269291474734,16.47666516114537,-28.81713798915555,276.9210473305393,48.1740773078064
672,27.58169534176379,-249.92942878731822,-115.07461375614031,-42.184562062626206,16.507972533387555,-28.569883807953087,276.5642239308367,49.57403703984304
673,27.657592775082833,-249.7292317281212,-114.58638604004321,-44.77925031044141,16.706403754463427,-28.31314916347596,276.18663549033533,51.446003052949365
674,27.748445319962514,-249.51262256522205,-114.09712093319958,-47.69311488309336,17.067748325689358,-28.040777872304897,275.79528791659334,53.826463878926724
675,27.853031960169197,-249.2847627469983,-113.6148163967379,-50.97493464549357,17.58545148946276,-27.745791873892454,275.39806963080434,56.744785484080374
676,27.9698660982979,-249.05148119030005,-113.14775280371697,-54.66644532027256,18.250525530506202,-27.420595777668662,275.0035634975881,60.22176912068003
677,28.097201122782195,-248.81912048330966,-112.7042964493933,-58.80044016576952,19.051477764217474,-27.057209130763923,274.62082680615526,64.26833442098498
678,28.233043763307265,-248.59435786209033,-112.29269538425388,-63.39908935266509,19.974270437477017,-26.647524443678197,274.25914603134953,68.88439280487172
679,28.375176272966254,-248.38400691786134,-111.92087374010717,-68.47255099950507,21.00232720152771,-26.183587630375303,273.92777439449605,74.05797365191036
680,28.521187638071947,-248.19480710265154,-111.59623111861599,-74.01793935774867,22.116599320114357,-25.657895870943417,273.6356613336215,79.76465962847982
681,28.66851324226641,-248.033208991983,-111.3254536257512,-80.01870452467638,23.295702566587813,-25.063706240545624,273.3911837323181,85.9673781846176
682,28.814481941671396,-247.9051637595001,-111.1143426380553,-86.44446342981098,24.51613305964665,-24.39534695159577,273.20188895746537,92.61658379304795
683,28.956369261983166,-247.81592525562039,-110.96766639050396,-93.25130416689912,25.752567245826178,-23.648521838461818,273.0742592676964,99.6508504155135
684,29.09145519769735,-247.7698724274586,-110.88903815350135,-100.38256592335193,26.978247912974155,-22.820597791145275,273.01350599837724,106.99787654080814
685,29.217084795170738,-247.77035866328424,-110.88082341757749,-107.77007604774566,28.1654544641112,-21.91086419608995,273.0234003031637,114.5758867618917
686,29.330729404697045,-247.8195931264185,-110.94407739800475,-115.33580569577205,29.28605162001603,-20.920753151898992,273.1061453755932,122.29539541012724
687,29.43004631883827,-247.91855742603272,-111.0785133899464,-122.99388757590508,30.31210626376175,-19.854009561202883,273.2622931832273,130.06128074106329
688,29.51293454662905,-248.06695928274698,-111.28250192557276,-130.65292497020414,31.216557447267398,-18.716801530010308,273.4907069852684,137.7751041245693
689,29.577584668261537,-248.26322339480842,-111.55310011840803,-138.21851140438363,31.97391995038017,-17.517764114306658,273.7885693807693,145.33759884604794
690,29.622521007730704,-248.50451854426987,-111.88610997113835,-145.59587548394674,32.560997652737875,-16.267973308045242,274.1514343621339,152.65124805810612
691,29.646634746679847,-248.78681899395102,-112.27616388619984,-152.69256533017708,32.957579845140515,-14.98085176657001,274.57332077568293,159.62287103889497
692,29.649207087415068,-249.10499729974458,-112.7168352368752,-159.42109115163862,33.14709187916434,-13.672012164991719,275.04684364766604,166.1661406130316
693,29.629922116402984,-249.45294476380747,-113.20077152772244,-165.7014519331236,33.11717144333637,-12.359047239721933,275.56337894226573,172.20396150914394
694,29.588869547865734,-249.8237149085071,-113.71984723402849,-171.4634819631922,32.86014331556576,-11.061276785601958,276.1132564273406,177.67064856336972
695,29.526537940594537,-250.2096846216508,-114.26533284835841,-176.648963663597,32.37336868035753,-9.799461273577107,276.68597447493715,182.5138538898533
696,29.44379920683051,-250.6027271062773,-114.82807609925766,-181.21346356064453,31.659449977258156,-8.595490060989237,277.2704299445286,186.69620223628974
697,29.341885322250015,-250.99439057145287,-115.39869081947859,-185.12785722435848,30.72627856233476,-7.472050304711572,277.8551559219031,190.19660279619188
698,29.222358238320272,-251.3760768158289,-115.96774857018646,-188.37951630718462,29.58691979758256,-6.45228131702792,278.4285601304325,193.01121343824687
699,29.087074157837097,-251.73921455566108,-116.52596804911697,-190.9731369213684,28.259337993055507,-5.559418491050662,278.9791574394576,195.1540399909417
700,28.938143479090915,-252.0754235118767,-117.06439772867532,-192.9311944172019,26.765971340380286,-4.816430916430205,279.49579112307805,196.65715963621926
701,28.77788768755143,-252.37666661900533,-117.57458797261314,-194.29401604950414,25.133173959498055,-4.245656848213646,279.96783905822235,197.5705643365058
702,28.608794228283347,-252.63538881895212,-118.04874966443236,-195.11947050657892,23.39054772138982,-3.8684406025946947,280.38540232965073,197.9616278644152
703,28.433470098197162,-252.84464155555347,-118.47989688165019,-195.48228163158717,21.57019000920205,-3.7047730513010824,280.73947445889354,197.9142081695889
704,28.254594786433728,-252.99819242673846,-118.86197139245016,-195.47298222131806,19.70588487735221,-3.772936343836145,281.02208985071036,197.52740488503963
705,28.074873314983957,-253.09061965335633,-119.1899468057794,-195.19653193669583,17.83226454388705,-4.089152878448731,281.22645024654764,196.91399927810446
706,27.896990353511637,-253.11739113549947,-119.45991010504545,-194.77063087382038,15.983966448041565,-4.66723947908015,281.34702803362853,196.1986108014709
707,27.723566548579566,-253.07492789652204,-119.66911820520691,-194.323767142107,14.19480878702635,-5.518269982258518,281.37964524397137,195.51561060003283
708,27.557118248753845,-252.96065166200245,-119.81602744840943,-193.99304268816707,12.497004908070368,-6.6502522725471644,281.3215271392926,195.00683771447484
709,27.400021694267856,-252.77301613914764,-119.90029498085921,-193.92182640228393,10.920434427390425,-8.067828565524438,281.17132954772416,194.81916809809917
710,27.254482417936664,-252.51152124064308,-119.92275282394955,-194.2572871964638,9.491986566425737,-9.77201005343724,280.92913962821115,195.10198986195178
711,27.122510066767447,-252.17670920567178,-119.88535765244282,-195.14786220371107,8.234988867106397,-11.759958735645032,280.5964504095569,196.00464032065364
712,27.0058982605427,-251.77014160873125,-119.79112093663421,-196.74071631379638,7.168732062027274,-14.024830234436346,280.17611016534875,197.6738612036758
713,26.90620867482665,-251.2943567810469,-119.64402465920433,-199.1792486275545,6.3080994185171315,-16.55569151842657,279.67224837487623,200.25132750154054
714,26.824758346561296,-250.75280807270852,-119.44892746273979,-202.6006989053482,5.663306437486843,-19.33752663606089,279.0901806603296,203.8713026437461
715,26.76260919560142,-250.14978435515442,-119.21146538888722,-207.13390285473736,5.239754446814752,-22.35134180277193,278.4362956572321,208.6584681904292
716,26.720558901521397,-249.49031499447082,-118.93795077829367,-212.89723961002042,5.037999370586676,-25.574378550583948,277.7179272698791,214.72597041136942
717,26.699132586132233,-248.7800622433694,-118.63527252271736,-219.99680855717082,5.0538347305099,-28.980440234001687,276.9432162616036,222.17371956543397
718,26.698575212767267,-248.02520473115572,-118.31080056463125,-228.5248661116578,5.278485789843768,-32.540333118571176,276.12096569016495,231.08697073098483
719,26.718845138346218,-247.2323164655361,-117.97229708783115,-238.55854614170892,5.698909862202937,-36.22241871540422,275.26049520438136,241.53520764778762
720,26.759609721232177,-246.40824632741845,-117.62783602758464,-250.15888008395893,6.298196335715247,-39.99326914624199,274.37149941754365,253.57134285703546
721,26.82024419950417,-245.56000325429375,-117.28573137918633,-263.37012401654533,7.056058804894148,-43.818412332272274,273.46391530223707,267.2312380764489
722,26.89983517475739,-244.6946520093718,-116.95447361952218,-278.2193899705416,7.949410424931911,-47.663148905262496,272.54780279731756,282.53353817589755
723,26.997189987613474,-243.8192235115014,-116.64267269459587,-294.71656805937556,8.953011650833831,-51.4934181479388,271.6332416160496,299.4798008368537
724,27.110853090789337,-242.9406422520874,-116.35900547939218,-312.8545155548881,10.040176540798887,-55.27668622705123,270.73024569021,318.0548929904095
725,27.239130200568596,-242.06567168115794,-116.11216517498222,-332.6094800374817,11.183519819115192,-58.98282679948509,269.84869498657986,338.22761567943974
726,27.380120479289896,-241.20087690479102,-115.91080965541806,-353.9417173106792,12.355722302838009,-62.584962053519355,268.99828280543403,359.95151223693995
727,27.531756292853995,-240.3526026747657,-115.76350546532541,-376.79626160603226,13.530287747964122,-66.0602315857026,268.1884752507448,383.16581135099733
728,27.69184936146624,-239.5269634330119,-115.67866427900861,-401.10380584691495,14.68226047981572,-69.3904572918571,267.42847845350445,407.7964568575621
729,27.858141573619545,-238.72984112045322,-115.66446928930009,-426.78165305979206,15.78887121850002,-72.56267474338216,266.72720842562677,433.75717968579255
730,28.028358491898025,-237.96688568175344,-115.72879009536952,-453.73470588639253,16.830079077255697,-75.56950546802878,266.093258188448,460.9505738313685
731,28.20026368620488,-237.2435128633043,-115.87908603576409,-481.8564689886937,17.78898131293198,-78.40935032441351,265.53485714021696,489.2691470823612
732,28.37171238224142,-236.56489416499136,-116.12229942046314,-511.03004831259665,18.65206914125964,-81.08639177647292,265.05981856393646,518.5963278921074
733,28.540703259409014,-235.93593467532986,-116.4647415711805,-541.1291408693172,19.409317372426813,-83.6104019905224,264.67547263101784,548.8074214107388
734,28.70542736668753,-235.36123584479668,-116.91197577206428,-572.0190179424176,20.05410686801996,-85.99636346914043,264.38858397912355,579.7705190814278
735,28.86431307622971,-234.84504185540408,-117.46870201779222,-603.5575125535864,20.58299071646669,-88.26391830662074,264.2052547140758,611.3473762047004
736,29.016065949448535,-234.3911699868328,-118.13864880278766,-635.5960280111079,20.995326436861273,-90.43667013358203,264.1308153921148,643.3942795988494
737,29.159702481115627,-234.00292713620016,-118.92447722807745,-667.9805880626445,21.29280642491379,-92.54136882159398,264.1697081274172,675.7629324168182
738,29.2945769164238,-233.68301628319406,-119.82770257072306,-700.5529504025405,21.478926348932486,-94.60701181593656,264.3253673893651,708.3013850888979
739,29.42040059285775,-233.4334380578622,-120.84863824163662,-733.1518040088899,21.55843562141008,-96.66389762401828,264.60010520048763,740.8550402437683
740,29.537253292470925,-233.2553936135566,-121.98636660712441,-765.6140670238293,21.53681509389916,-98.74266679625167,264.99500819256303,773.2677554320641
741,29.645585725618236,-233.14919581828337,-123.23874015950395,-797.7762956500054,21.419824752290335,-100.87336404540738,265.509854251357,805.3830606668726
742,29.74621186812281,-233.11419627111042,-124.60241483402783,-829.476205913631,21.21315862826826,-103.084552188766,266.1430561679397,837.0454984022638
743,29.84029016475584,-233.14873538507143,-126.07291507472101,-860.5542995015614,20.922235691024685,-105.40250441797048,266.89163857291834,868.102082017811
744,29.92929370199906,-233.25012143170005,-127.64472793537145,-890.8555729568309,20.55214452954787,-107.8504960463678,267.75125234380135,898.4038559440517
745,30.01497056678893,-233.414642287014,-129.31142141993183,-920.2312773878202,20.107746731084415,-110.44821065613823,268.7162279556032,927.807527372178
746,30.099296081322414,-233.6376111961427,-131.06578064977708,-948.5406846523324,19.593929796102838,-113.21126910051305,269.7796664045626,956.1771272475925
747,30.18441855419394,-233.91344543327557,-132.8999544038834,-975.6528066289867,19.015986238480775,-116.15088381258926,270.93356367279944,983.3856479215751
748,30.272600011404865,-234.23577431221167,-134.80560424348835,-1001.4480074031862,18.380082422337964,-119.27363581682077,272.16896237789234,1009.3165971815357
749,30.366153197836464,-234.59757085969414,-136.77404899047906,-1025.819444865267,17.69376998509543,-122.5813679702032,273.47612260991735,1033.8654043058186
750,30.467375947498184,-234.9912999922901,-138.7963987782293,-1048.6742795357738,16.966485594927825,-126.07118539196864,274.84470334217673,1056.940614504165
751,30.57848383246349,-235.40907522115015,-140.8636749208984,-1069.9345954092228,16.209982182029453,-129.73555281150226,276.2639460457329,1078.4648146518819
752,30.701541910386293,-235.84281535347486,-142.96691397512097,-1089.5379903769635,15.438637090178224,-133.56247857456538,277.7228526754043,1098.3752457669311
753,30.83839659406587,-236.2843923208049,-145.0972561490721,-1107.4378113537898,14.669589733217494,-137.53577601199262,279.2103507781825,1116.6240752239762
754,30.990609312442885,-236.72576162941303,-147.24601940555723,-1123.603029782053,13.922672759662996,-141.63539437858714,280.71543940471673,1133.1783224142268
755,31.159394521234624,-237.1590683472566,-149.4047612676566,-1138.0177745843919,13.220115494249072,-145.83781319855288,282.2273110825091,1148.0194532570001
756,31.345565258596526,-237.5767238590242,-151.5653307247894,-1150.6805597713924,12.586015342850791,-150.11649528727693,283.7354472805075,1161.1426794712938
757,31.54948950812658,-237.97145146777225,-153.71991300115272,-1161.6032609527253,12.045590571178932,-154.44239473610244,285.2296873397299,1172.5560159183367
758,31.771060285930865,-238.33630194966767,-155.8610703465415,-1170.8099075722082,11.62424495070404,-158.78451657403718,286.7002735133843,1182.2791621734905
759,32.00968197369009,-238.66464300504947,-157.98178226254456,-1178.3353648739512,11.346489747590745,-163.1105245204259,288.1378771803071,1190.3422817932935
760,32.26427506499586,-238.95012884250318,-160.07548843253136,-1184.2239808697373,11.234780211260672,-167.3873921714909,289.5336130473013,1196.784753936294
761,32.53330095183801,-239.18665769567565,-162.1361369483959,-1188.5282687924462,11.308331470036121,-171.58209120580733,290.8790489892285,1201.6539669628698
762,32.814807474814906,-239.36832588831186,-164.1582392314954,-1191.307685145239,11.581982489660053,-175.66230788050296,292.16621906548505,1205.0042128814694
763,33.106494770586515,-239.4893871730919,-166.1369314931631,-1192.6275485613378,12.065176569595376,-179.59717628939808,293.3876463312626,1206.895726138626
764,33.40579968381508,-239.54422546384305,-168.0680410009673,-1192.5581267242933,12.76112261723468,-183.3580135967231,294.5363805293689,1207.393891750841
765,33.709995823489535,-239.5273476165393,-169.94815410684916,-1191.1738991279308,13.66619296116018,-186.91903886593738,295.60605367245523,1206.5686277523434
766,34.01630529235226,-239.43340047001362,-171.77468201231736,-1188.552984054861,14.769600904965678,-190.25805344915017,296.5909538536714,1204.4939270118348
767,34.32201729507421,-239.25721321727957,-173.54591958360922,-1184.7767004583511,16.05338535257992,-193.3570576312329,297.4861146023128,1201.2475253463635
768,34.62460840819958,-238.99386305652922,-175.26109234214812,-1179.9292212630621,17.49271196634287,-196.20277596949128,298.28741442681604,1196.910648411317
769,34.92185931503648,-238.63875960063083,-176.92038719705243,-1174.0972658700796,19.05648204178237,-198.78706328427913,298.9916794702038,1191.5677810497375
770,35.2119630661922,-238.18774193443207,-178.52496341925269,-1167.3697777631426,20.708223168664237,-201.1071651457288,299.5967815222269,1185.3064010966953
771,35.49362019924049,-237.63718146504203,-180.07694142757546,-1159.8375382206227,22.40722116022336,-203.16581119976493,300.10172372435244,1178.2166252408722
772,35.766116347486864,-236.98408368379896,-181.5793678982335,-1151.5926780605535,24.10984168971286,-204.97112657454784,300.50670690811666,1170.390726265172
773,36.02937846350612,-236.2261824767038,-183.03615649999927,-1142.728064137221,25.77098297367045,-206.5363553258943,300.8131704936302,1161.9224968359372
774,36.28400657771343,-235.36202150081763,-184.45200436096724,-1133.3365538521257,27.345597327733707,-207.87939964614174,301.0238032055348,1152.9064528026613
