time,ax,ay,az,gx,gy,gz,accmagnitude,gccmagnitude
0,-1.089321424483826,-259.0598081986838,-33.992688743535,-38.14633219952664,14.745741645201225,-6.926528962942594,261.28109907588146,41.455343444213995
1,-1.0112408475229229,-259.3222776462369,-34.23557283709396,-38.1006250297799,14.688946549467376,-6.976551049792202,261.5750272898352,41.40221965978342
2,-0.9334784492473035,-259.57655758591613,-34.47278805209403,-38.050123518747526,14.636674573590177,-7.026419715012008,261.86012084310516,41.34669832074602
3,-0.8565346576862684,-259.82048660723586,-34.70115941548378,-37.991622627158854,14.588873288243596,-7.076322228508622,262.13379242080833,41.2859419010553
4,-0.7808558557522607,-260.0521110050184,-34.917712371464255,-37.92205344946252,14.545587839758198,-7.126471560421424,262.3936883012353,41.21728060942953
5,-0.7068245623494794,-260.2697351951443,-35.119748806200406,-37.838579112611,14.506981343137193,-7.177096573843181,262.6377490841857,41.138304116782976
6,-0.6347550435022891,-260.4719620347259,-35.30491104840897,-37.738682878341585,14.473345375755375,-7.228433816916998,262.8642587107454,41.046942493376136
7,-0.5648945000548025,-260.6577212847077,-35.47123180821772,-37.62024552985827,14.445099473189984,-7.280721170782708,263.0718797333164,40.94153336104504
8,-0.49742914788840814,-260.8262852877702,-35.617169003955404,-37.4816095543208,14.422779250031116,-7.334193173433618,263.2596737618983,40.82087286800846
9,-0.43249392014272187,-260.97727190712203,-35.74162522963029,-37.32162818963928,14.407013504354948,-7.389077517909924,263.4271070929544,40.68424883195966
10,-0.3701844060347081,-261.110635711355,-35.843952145329546,-37.13969807466239,14.39849142319959,-7.445592083835432,263.57404253858584,40.53145527525128
11,-0.31056991725898053,-261.22664904845846,-35.923940472446894,-36.93577497534392,14.397921721024813,-7.503941918461483,263.7007191883198,40.36278852725735
12,-0.25370694241573133,-261.3258749404879,-35.981796804730564,-36.71037283091617,14.405986108464893,-7.564315786628307,263.8077221998945,40.17902602354586
13,-0.19965249220213807,-261.4091337249349,-36.01810914347327,-36.46454715925222,14.42328984480336,-7.626882165132255,263.8959448080633,39.98138983774562
14,-0.14847690955431714,-261.47746516733366,-36.033803693111,-36.1998646168729,14.450312280605168,-7.691784793165894,263.9665446264162,39.771497772312586
15,-0.10027564207941252,-261.53208746827073,-36.03009578629101,-35.91836113738451,14.487360282118482,-7.759138086957042,264.0208960618253,39.55130543720891
16,-0.05517929945022949,-261.574354322501,-36.008437834173456,-35.622491496512176,14.534527274090191,-7.829022890076819,264.0605403979275,39.32304310271164
17,-0.013361156747900468,-261.60571109082423,-35.97046702053807,-35.31507329887378,14.591660350866825,-7.901483155883353,264.0871349790938,39.08915115870311
18,0.02495875553688996,-261.62765124291377,-35.917955099555144,-34.99922821104916,14.658337493781314,-7.976524207550476,264.1024029700007,38.8522177057711
19,0.059513646423605286,-261.6416743911055,-35.8527620548934,-34.678322833564295,14.733856421595224,-8.054113132841431,264.1080852420902,38.614921191510774
20,0.08999435373398693,-261.6492472657029,-35.77679457272159,-34.35591102679821,14.817236020307568,-8.134181613376725,264.1058958585847,38.37998019846698
21,0.11605799758680654,-261.65176878710605,-35.69196949852326,-34.035678864778895,14.907230657074718,-8.216631110700403,264.09748232978757,38.1501115753056
22,0.13734032279631014,-261.6505400196737,-35.6001819019363,-33.721392736545596,15.002356985650014,-8.301339934571914,264.08439136843083,37.927997146967144
23,0.1534707542446577,-261.64673935859724,-35.503277106609346,-33.41685051823365,15.100932145934255,-8.388171364945242,264.06804040788717,37.71625833707454
24,0.16408894363293197,-261.641402936175,-35.40302605591703,-33.125835274395605,15.20112162896238,-8.4769816782886,264.04969478604704,37.517437282078525
25,0.16886159265900452,-261.6354100574271,-35.30110372779987,-32.852070651725725,15.300994571520697,-8.567626631526897,264.0304503693023,37.333982463175886
26,0.1674985160020566,-261.6294734825472,-35.19907086493706,-32.59917701918612,15.398583868564458,-8.659964754231968,264.0112214729044,37.16823656417039
27,0.15976707693674544,-261.6241344293856,-35.0983596780211,-32.37062749512219,15.491948266050201,-8.7538558145834,263.99273404059704,37.0224242275776
28,0.14550424686533517,-261.61976218533005,-35.000264083147336,-32.16970325862185,15.579233574126421,-8.849153125509227,263.9755240481877,36.898637644583694
29,0.12462572306513964,-261.6165582405212,-34.90593449114529,-31.999447897893223,15.658730350409932,-8.945688911217738,263.95994104562425,36.79881842238447
30,0.09713186238608972,-261.61456492899345,-34.81637655689598,-31.86262091551861,15.728925803480095,-9.043252670626515,263.9461567458833,36.72473481358725
31,0.06311057539126112,-261.61367863055085,-34.73245298635404,-31.761650818169233,15.788548168051763,-9.141563261144464,263.9341785928034,36.67795404778946
32,0.022737635170977537,-261.61366754505997,-34.65488754606699,-31.698588425506216,15.836602326823652,-9.240236208279619,263.92386820178285,36.659810088255426
33,-0.023724962747814028,-261.61419386812804,-34.5842706479391,-31.675061129571652,15.872395962862871,-9.338748451058303,263.9149644102626,36.67136760362876
34,-0.07593185465805334,-261.61483989451756,-34.52106611981181,-31.692228846314826,15.895556021049751,-9.436403277464054,263.9071103996807,36.71338329482169
35,-0.13345763284561163,-261.6151371645283,-34.465618915024464,-31.750742376397234,15.906035756169853,-9.532298515673421,263.8998839561868,36.7862659838079
36,-0.1958000680370279,-261.6145972898775,-34.41816349731318,-31.85070488077037,15.904113142645164,-9.625301105089402,263.8928294577523,36.890037087595594
37,-0.2623830433237853,-261.6127427154843,-34.378832514563385,-31.991637202742243,15.890381832831743,-9.714031012974615,263.8854897837796,37.02429326270588
38,-0.33255944727533954,-261.60913560981635,-34.34766529932337,-32.17244784810907,15.865736040614495,-9.79685713094949,263.877436276043,37.188173079650824
39,-0.4056144809128859,-261.60340337928363,-34.32461572922543,-32.39140857513257,15.831350636066805,-9.87190727119129,263.868295188164,37.380329553652736
40,-0.4807696695372131,-261.59525976726906,-34.30955889932994,-32.64613672540388,15.788657471328747,-9.93709363892876,263.8577695212477,37.59891023547875
41,-0.5571874934791277,-261.5845208480799,-34.30229589640795,-32.933585613553895,15.739318697083313,-9.990154196308506,263.84565547759485,37.84154640686109
42,-0.6339762723803796,-261.571115369752,-34.30255597390211,-33.250044485334996,15.6851976698117,-10.028709268561084,263.8318529130448,38.10535279173076
43,-0.710194932653833,-261.55508898668313,-34.30999579406955,-33.59114975775863,15.628327990072147,-10.050331726814425,263.8163693039352,38.386939124957586
44,-0.7848575123881865,-261.5366021501324,-34.32419602018248,-33.95190943494941,15.570881244112686,-10.052628203511086,263.7993170495054,38.68243489807983
45,-0.8569375483205337,-261.51592181619725,-34.34465612554859,-34.32674266496576,15.515134137322098,-10.03332808581718,263.7809043937183,38.98752855628664
46,-0.925372687986879,-261.4934075215939,-34.37078865219266,-34.70953628470274,15.463435826185876,-9.990376515753253,263.7614206831348,39.29752225416059
47,-0.9890699210765882,-261.46949262560696,-34.40191434326495,-35.09371984481316,15.41817626613755,-9.922027341778573,263.7412169442684,39.60740291302377
48,-1.0469117956698295,-261.4446616713882,-34.437259710733066,-35.47236000570031,15.381756279967746,-9.826931931286987,263.7206829307532,39.91192975189049
49,-1.0977639888050914,-261.41942499992484,-34.475958643076424,-35.838274382214244,15.35655987348091,-9.704219933768048,263.70022197161006,40.20573773380751
50,-1.1404846748887387,-261.3942919590654,-34.51705943663863,-36.18416394918303,15.344929123016438,-9.553568418397685,263.6802251293119,40.48345553450526
51,-1.1739362227392458,-261.3697442090149,-34.55953807797812,-36.50276205493063,15.349141764699484,-9.375256251037554,263.66104626269293,40.73983574712027
52,-1.196999803251741,-261.3462106658524,-34.602317830657775,-36.786996958562305,15.371391464273227,-9.170201097144126,263.6429795312049,40.96989412100074
53,-1.2085935000506252,-261.32404550628803,-34.644294418283515,-37.03016365803041,15.413770617212604,-8.939976996131255,263.6262406629784,41.16905371533853
54,-1.2076944248402925,-261.30351041536534,-34.68436556614353,-37.2260997100881,15.47825534137559,-8.686810996305956,263.6109530022841,41.33328896902347
55,-1.1933650405602492,-261.2847620013715,-34.721463442552036,-37.36935889404256,15.566692052167403,-8.413557860128462,263.59713906854967,41.45926395012849
56,-1.1647834031041016,-261.26784506823225,-34.754588523356304,-37.455376054574025,15.680784730214018,-8.123652407110681,263.58471812493093,41.544458599811726
57,-1.121276533084488,-261.25269213486774,-34.782843433305935,-37.4806163401067,15.82208178905177,-7.821039743412497,263.57350995973997,41.58727674084334
58,-1.0623558218811566,-261.23912915362445,-34.80546531144364,-37.44270234983076,15.991961325890093,-7.510084479803085,263.56324464837365,41.587130009746794
59,-0.987753276316828,-261.2268868907057,-34.82185519220537,-37.34051339278678,16.191613452213616,-7.1954610160183226,263.55357756954805,41.54449264774477
60,-0.8974573130154868,-261.21561704293316,-34.831602836601455,-37.17425207636267,16.42201836679976,-6.882027958000045,263.5441085556649,41.46092316241095
61,-0.7917465248291319,-261.2049119339568,-34.83450548320284,-36.94547466764568,16.683918915046696,-6.57469065431198,263.5344038320164,41.3390501514695
62,-0.6712194149125776,-261.1943265071158,-34.830579190861066,-36.65708300459206,16.97778661320746,-6.278256658366128,263.52401930103525,41.182520977385664
63,-0.5368177968894089,-261.1834012566064,-34.820061810538085,-36.31327710739328,17.30378049159925,-5.997289587873504,263.51252370052714,40.99591342429271
64,-0.3898415568535115,-261.1716847219211,-34.80340707231237,-35.9194689978868,17.661698596470046,-5.735967266016581,263.49952020643593,40.784611882143416
65,-0.23195268942488134,-261.1587542625395,-34.78126970355545,-35.482159522897426,18.050922556531106,-5.4979501173176,263.48466519698854,40.554650921145125
66,-0.0651668345984093,-261.14423406143123,-34.75448187554728,-35.00878119590396,18.470356233198892,-5.286265526007856,263.4676831727919,40.31253033526401
67,0.10816901519341013,-261.12780965808145,-34.724021674113864,-34.507511289405244,18.91836010075858,-5.103213246091701,263.44837722732706,40.06500690734996
68,0.2854132840156223,-261.10923871703733,-34.69097477222826,-33.98706068009899,19.392683633564456,-4.950296020136079,263.42663492749296,39.81886933706088
69,0.4636807676551639,-261.08835807321094,-34.65649102294897,-33.45644523059862,19.89039862985213,-4.828178390509629,263.4024298689697,39.5807039642792
70,0.6399064360233853,-261.06508723729394,-34.62173813820259,-32.9247476878207,20.40783710284445,-4.736675342174926,263.3758193730503,39.35666005491022
71,0.8109197711989488,-261.0394285237725,-34.587854757725175,-32.400879084881595,20.94053811641174,-4.674770972136305,263.34693879036166,39.15222441011588
72,0.9735265872871758,-261.01146398113127,-34.5559049629587,-31.89334931174503,21.483208654284002,-4.640665939555664,263.3159928604621,38.97201576408146
73,1.1245948320418668,-260.9813495025163,-34.526835846204726,-31.410056694196907,22.02970412562454,-4.631851117358913,263.28324471207026,38.81960962414958
74,1.2611406913920722,-260.9493067967768,-34.50143940477263,-30.958105956048353,22.573034243371364,-4.645203695874545,263.24900333797535,38.697403677958114
75,1.3804113438487708,-260.9156141154205,-34.480319903315156,-30.54366277999302,23.10539963900049,-4.677101007608741,263.2136105693453,38.60653254060161
76,1.4799608997506966,-260.8805966466337,-34.463867815112074,-30.171851334115267,23.618263653611848,-4.723546617467924,263.17742857868274,38.54683843755486
77,1.5577163779399437,-260.84461731274854,-34.45224136799936,-29.846698701102,24.102462297322635,-4.780302865983331,263.14082875025633,38.51690154024542
78,1.6120310015723385,-260.8080684225789,-34.44535653011636,-29.571127384814147,24.54835348079298,-4.843024137160497,263.1041824447989,38.51413035913762
79,1.6417226667819593,-260.7713643370484,-34.4428859628217,-29.346994267900293,24.94600441351528,-4.907385618543499,263.0678538524732,38.534909165012486
80,1.6460962190011572,-260.73493511196807,-34.444267032507085,-29.175171739103885,25.28541366890453,-4.969203110223401,263.0321948805693,38.574796065354555
81,1.6249491993781529,-260.69922105226834,-34.448718435852854,-29.055664260665075,25.55676200028408,-5.024540370800522,262.9975419323786,38.628762225244884
82,1.578561906505477,-260.66466819908476,-34.45526446154485,-28.987751492437596,25.75068376339729,-5.0698014417260175,262.96421446822677,38.69145995411706
83,1.5076736712944367,-260.63172483212026,-34.462765576848405,-28.970147461233832,25.858548969633716,-5.101806313342891,262.9325152767202,38.75750526857047
84,1.4134478626207496,-260.6008390088784,-34.46995402817148,-29.00116445118586,25.8727446949482,-5.117849173940073,262.90273233762366,38.82175938553914
85,1.2974282906604793,-260.57245700443235,-34.47547337820057,-29.078870463997657,25.786943869158126,-5.115739279800825,262.87514203438997,38.87959356306855
86,1.1614895469579707,-260.54702232321364,-34.47792110563687,-29.201230243522907,25.59634943756661,-5.093825122257227,262.85001330548266,38.9271228056547
87,1.0077835861991782,-260.5249747508205,-34.47589343715791,-29.366221824388713,25.297902590518987,-5.051003006346273,262.827612119676,38.96139610359235
88,0.8386845937061209,-260.50674872183026,-34.468031546086536,-29.571923114804648,24.890445196045754,-4.9867114447794405,262.80820545704734,38.980533904206034
89,0.6567339573686721,-260.4927701717076,-34.453068240569955,-29.816565904726094,24.37482866111789,-4.900912986403964,262.7920638615558,38.98380717584857
90,0.464587023174439,-260.4834510999144,-34.42987424904905,-30.098557649852534,23.7539640475088,-4.794065245936461,262.77946168380186,38.97165643919
91,0.2649632177249244,-260.4791813298346,-34.39750307487863,-30.416474117893767,23.03281117883388,-4.667082921456968,262.77067437196035,38.945653136879656
92,0.060600868809808535,-260.4803173767741,-34.355233091678485,-30.769028158394168,22.218307444918175,-4.521292444645021,262.76597255617827,38.90840926508738
93,-0.14578256237286327,-260.48716883376545,-34.302605218502954,-31.155021245952874,21.31923979560986,-4.358380665453595,262.7656131280404,38.863443966779876
94,-0.3515250010374316,-260.49998313375175,-34.23945432887142,-31.573285025951417,20.346065821905658,-4.180338737171611,262.7698279411949,38.81501763671965
95,-0.5540499061846019,-260.5189298719385,-34.16593254144438,-32.02261994104267,19.310691690546427,-3.989402200041584,262.7788110806006,38.767944959352796
96,-0.7508931447541294,-260.54408606430184,-34.082522627976935,-32.50173719323305,18.226215932564976,-3.787988155480721,262.7927058457929,38.72739816416233
97,-0.9397274928355421,-260.57542376499794,-33.99003995256921,-33.0092088716903,17.106648697257434,-3.5786303745353707,262.81159265705486,38.698710702498005
98,-1.118385316590703,-260.6128013380162,-33.889621752644985,-33.543429247290476,15.966616170208994,-3.3639132138084777,262.83547901257316,38.68718975996571
99,-1.2848796508426747,-260.65595938783207,-33.7827032845118,-34.102588312047494,14.821059522751192,-3.1464053112811783,262.8642924247109,38.69794385700429
100,-1.4374235677142204,-260.70452195514406,-33.670981311852394,-34.68465691256781,13.684937087596822,-2.9285941452879887,262.89787699028216,38.73572956337591
101,-1.5744474333486793,-260.75800313950174,-33.55636641130374,-35.28738147521099,12.572937526503269,-2.712822605027198,262.93599393812895,38.804819293780945
102,-1.6946135267958389,-260.81581888180455,-33.440926421346724,-35.90828546329295,11.499210666561028,-2.5012287321161177,262.9783261826855,38.9088904593861
103,-1.7968276388325233,-260.87730327565635,-33.326823974265466,-36.54467442832649,10.477121495983594,-2.2956897803542478,263.02448663049506,39.0509350825766
104,-1.8802475731238948,-260.94172848864997,-33.216251351131916,-37.193641828540194,9.519031564373348,-2.0977717272827587,263.07402973954635,39.23318840325585
105,-1.944288725639307,-261.0083271389321,-33.11136578315766,-37.85207356918791,8.63611078222839,-1.908685352690248,263.1264655828883,39.4570749411665
106,-1.9886270326761644,-261.0763157725433,-33.01422778371837,-38.51665024732308,7.8381814400086,-1.7292499714920389,263.18127540246286,39.723170750862515
107,-2.013199608458549,-261.1449179614187,-32.92674437182707,-39.18384713517094,7.133595230265878,-1.559865863350736,263.2379274242524,40.0311810204853
108,-2.0182033544088185,-261.21338558073813,-32.85061848732901,-39.84993285325075,6.529143174705526,-1.400496329170232,263.29589167292926,40.37993257331855
109,-2.004091640090462,-261.28101707675967,-32.78730563391981,-40.51096835162786,6.029997617009479,-1.2506600660708274,263.35465273768443,40.76738111166385
110,-1.9715688201526522,-261.3471719076309,-32.73797865495214,-41.16280814603286,5.639684825060743,-1.1094342121253884,263.4137197875263,41.19063310018726
111,-1.921582002190705,-261.4112806486674,-32.70350134957174,-41.801105735330914,5.36008626684592,-0.9754680679412703,263.4726334116006,41.64598200862393
112,-1.8553093306128947,-261.47285042812405,-32.68441135410522,-42.421324861488245,5.191466335438709,-0.8470072196811298,263.53096899615724,42.12895832497944
113,-1.7741442365351625,-261.53146551025367,-32.680912420568774,-43.01875792812202,5.132524234612427,-0.7219275859786481,263.5883364648756,42.634392469264675
114,-1.6796755434164372,-261.5867831142141,-32.69287594643288,-43.588552615248894,5.180467838267083,-0.597778821663134,263.64437644913113,43.15648961059115
115,-1.5736637394348263,-261.63852495678935,-32.71985136838429,-44.125747605035265,5.33110747014622,-0.4718365493378017,263.69875332525834,43.688915475606116
116,-1.458013889268564,-261.68646538324913,-32.761084879501965,-44.62531841428819,5.578967615155133,-0.341162996320361,263.7511459107443,44.22489255485179
117,-1.3347455596361504,-261.7304171166748,-32.815545843539624,-45.08223463746672,5.917414563060601,-0.20267571156114303,263.80123676198144,44.75730667504325
118,-1.2059599871516946,-261.77021555112543,-32.88196014284243,-45.491530389246776,6.338797948015416,-0.053224090801344645,263.84870089017585,45.27882465520739
119,-1.073804731179299,-261.8057022910379,-32.95884941543443,-45.848390204379925,6.834604125948319,0.11032658173239143,263.8931944518587,45.782024506497876
120,-0.94043626586659,-261.83670856902256,-33.04457476118825,-46.14825279952697,7.395619332877734,0.2910040144762922,263.93434385188874,46.259540058259084
121,-0.8079812697949925,-261.86303942307546,-33.1373831940451,-46.386934655949425,8.012100565725307,0.49163145375323886,263.97173590605587,46.70422171695448
122,-0.6784976368234871,-261.8844600116207,-33.23545500031497,-46.56077422146108,8.67395208640846,0.7147250538300044,264.00491019198023,47.109314157588265
123,-0.5539363809800979,-261.9006859362438,-33.33695018999806,-46.66679568484094,9.370905333268745,0.9623877041448731,264.03335521317086,47.46865012756165
124,-0.4361056509709538,-261.9113796303819,-33.44005236021697,-46.70288889831625,10.0926998142318,1.2362014265023418,264.0565102113241,47.77685735357961
125,-0.32663804692474563,-261.9161545709775,-33.5430086040734,-46.667999383871,10.829262278356499,1.5371209443306184,264.0737742092735,48.02957305062347
126,-0.22696233493171572,-261.9145883119547,-33.64416458962374,-46.56231981089388,11.570881171706642,1.8653715527235726,264.0845231815563,48.22365809416401
127,-0.1382804525319125,-261.90624433726845,-33.7419943963147,-46.387472222148,12.308373144549364,2.2203549934864437,264.08813531605193,48.357400883233474
128,-0.061550408693143314,-261.8907017248125,-33.83512493963253,-46.146668863371254,13.033238252442045,2.6005676026400337,264.08402336013,48.43069954661916
129,0.0025246362612530685,-261.8675907544943,-33.92235485510529,-45.84483887272719,13.73780050608024,3.003535416705239,264.0716721942625,48.4452105531109
130,0.053501110703124896,-261.8366319647012,-34.00266771416769,-45.48870835656518,14.415330548189884,3.4257710752637904,264.05067914722224,48.404452011488374
131,0.09119379247349542,-261.7976758240851,-34.075239577214894,-45.08682250177215,15.060147465670024,3.8627571912969376,264.02079424487135,48.31385097013355
132,0.115668885283526,-261.75074018987397,-34.13944122137692,-44.649500269169515,15.667697116987055,4.308960389103987,263.98195762756956,48.180725781257685
133,0.12723172284101303,-261.6960430313854,-34.19483582303676,-44.1887147417644,16.234604872840187,4.757879459326235,263.9343317297809,48.01419695400708
134,0.12640942116173579,-261.63402835201333,-34.241173219948216,-43.717895250572965,16.758701292111137,5.2021300698944914,263.87832630810306,47.82502276479302
135,0.11392885695079516,-261.5653836916172,-34.278381914404804,-43.251650921017685,17.239019951355484,5.633567216006581,263.8146148525959,47.625359169304716
136,0.09069047015228804,-261.491047998624,-34.30655964558834,-42.805419232838865,17.675767381090463,6.043445123736485,263.74414127859166,47.42844722081109
137,0.05773857066117179,-261.4122090492337,-34.32596282555568,-42.395047434528706,18.070265784513108,6.422612679624285,263.66811611476345,47.24823510403994
138,0.016229070001632942,-261.3302899331302,-34.33699468378027,-42.036318958507565,18.42486990440052,6.7617406564111215,263.5880016863544,47.098945810868265
139,-0.03260420782073935,-261.2469243792854,-34.34019179152853,-41.74444102860795,18.74286009404864,7.051575067150171,263.5054860228631,46.99460512919567
140,-0.08748336542541572,-261.16392091979156,-34.336208742963,-41.53351308185915,19.028314360085854,7.283209029321711,263.42244545587687,46.94854767401572
141,-0.14711916585319215,-261.0832162550419,-34.325800999012515,-41.41599812391309,19.285962847286573,7.448363769119044,263.3408962648617,46.972920871599094
142,-0.21024148568311316,-261.00681883091255,-34.309806076268956,-41.40222051321344,19.52102885595286,7.539668044265667,263.2629363932573,47.07820794493529
143,-0.27562648299635745,-260.93674452420515,-34.28912335257144,-41.49991385719947,19.73906093296758,7.550924468371329,263.19067914701606,47.27279099775013
144,-0.342119856025478,-260.8749472222758,-34.26469284125552,-41.71384165248753,19.945760795200115,7.477351118908025,263.12618168161754,47.56257425703883
145,-0.4086561385944625,-260.82324769006465,-34.23747338763357,-42.04551093300104,20.146811828554892,7.3157874909148966,263.071371701243,47.95068542204736
146,-0.4742744989015099,-260.78326428500793,-34.2084208279452,-42.49299549232461,20.347712698362425,7.064855283620663,263.02797597268614,48.43726993933014
147,-0.5381317100613144,-260.75634887879454,-34.178466686256805,-43.05088035634062,20.553620241348643,6.7250665126489855,262.9974540616664,49.01938901072729
148,-0.5995127612309504,-260.7435309746738,-34.14849793467585,-43.71033341013385,20.76920531096371,6.298873819260407,262.98094032487637,49.69102746854034
149,-0.6578391418888437,-260.7454725722764,-34.11933820783076,-44.45930391601013,20.998524652456098,5.790660436914538,262.9791967396306,50.443212667393865
150,-0.7126744668451769,-260.7624357640148,-34.09173074316714,-45.282841696667255,21.24491124344108,5.20666994978679,262.9925785736495,51.26424068016623
151,-0.7637270416481117,-260.79426430353215,-34.06632333527641,-46.16352552542566,21.51088490847651,4.554878601236973,263.0210141621538,52.140001729625446
152,-0.810849159826424,-260.8403796079225,-34.043655731985154,-47.08198503599308,21.7980844533647,3.844815326039888,263.0639993056218,53.054393139147514
153,-0.8540331242814737,-260.89979106279486,-34.02415002660572,-48.01749724164544,22.107222101383112,3.0873367420372304,263.1206062302658,53.98980515661429
154,-0.8934039829482541,-260.971120168155,-34.00810462277368,-48.94863639744159,22.43806067418995,2.294365926946733,263.1895067266027,54.92766270906787
155,-0.9292088017552042,-261.05263785856187,-33.99569228107875,-49.85395430176076,22.789413756837185,1.4786048256992284,263.26900886806396,55.84900439891733
156,-0.9618022205180666,-261.1423140344261,-33.98696263015255,-50.71266715864353,23.159168987950178,0.6532305042408272,263.35710640044556,56.7350788411302
157,-0.9916282557304158,-261.2378778270928,-33.98184933639289,-51.50532487167033,23.54433451617224,-0.1684148173743696,263.4515393608498,57.567937828305816
158,-1.0191987428128053,-261.33688647245174,-33.980181891013466,-52.21443922547327,23.941108400054134,-0.9731308301484394,263.54986381576185,58.33100588211148
159,-1.0450691561809275,-261.4368001283087,-33.98170172461086,-52.825048881669225,24.34497017261357,-1.748155289965873,263.64952804374366,59.009606536914355
160,-1.0698126507042596,-261.5350597206486,-33.98608210395446,-53.32520140666383,24.750792940136527,-2.481442447375272,263.74795220785575,59.591427163112904
161,-1.0939931500466893,-261.6291649145611,-33.99295099601571,-53.70633553784995,25.15297336293362,-3.1619180786471524,263.84260853778846,60.06690621426183
162,-1.118138343469204,-261.71674944179,-34.001915806455756,-53.9635504758642,25.54557586241129,-3.7797064449139,263.9310991395708,60.42952944063059
163,-1.1427135877224284,-261.7956512193933,-34.01258861565323,-54.095753048164156,25.922486585206663,-4.32632532760294,264.011228713705,60.676024798860404
164,-1.1680978818007781,-261.86397499437675,-34.02461028355556,-54.105677942823334,26.277572126377354,-4.794845924457055,264.0810697274745,60.806449363752094
165,-1.1945631779328143,-261.92014566362207,-34.037671708190224,-53.999780651431,26.60483779036465,-5.180014891558407,264.13901798764584,60.82416532774848
166,-1.2222581989455716,-261.96295090225095,-34.051530699400374,-53.78800712701412,26.898580236672256,-5.478336276686161,264.1838370636356,60.735706010818326
167,-1.2511976425748021,-261.9915722222204,-34.066023268531445,-53.48344834515779,27.153529686047378,-5.688111606400695,264.2146905403407,60.550536593904916
168,-1.2812573040181772,-262.0056040228856,-34.08106847395718,-53.101891832355996,27.364977413487242,-5.809437033474878,264.23116155936515,60.28071791774029
169,-1.3121753873430324,-262.00506052766,-34.09666630255105,-52.66128566815222,27.52888499578475,-5.844157263738743,264.2332594791791,59.94048503877263
170,-1.3435601141536992,-261.9903707026596,-34.112888505297306,-52.18113339927521,27.641972675997298,-5.795776992649313,264.22141373900246,59.54575522953005
171,-1.374903557499699,-261.96236141491113,-34.12986286447628,-51.681840696877416,27.701785182740835,-5.669331805502019,264.19645524127156,59.113582703407076
172,-1.405601340209075,-261.9222293118056,-34.14775199849701,-51.18403639528422,27.706734301383726,-5.471221899076504,264.1595858687263,58.66157945025039
173,-1.4349774673513265,-261.8715021438213,-34.16672842729897,-50.70789166892298,27.65611834575275,-5.209013480920224,264.1123370680604,58.20732304853855
174,-1.4623131696423344,-261.81199042598456,-34.186948127432224,-50.27246142130413,27.55011936811484,-4.891214162779965,264.0565186668295,57.76777303232964
175,-1.4868782315974558,-261.745730512678,-34.20852510842656,-49.89507140224657,27.389779485825354,-4.52702991120781,263.9941593035491,57.35871725800047
176,-1.5079629330949234,-261.6749204909798,-34.231509541911144,-49.590773077710566,27.17695815669176,-4.126111970126531,263.9274401756085,56.99426869832873
177,-1.5249086155101221,-261.60185079981267,-34.25587155399251,-49.37188579135934,26.91427262534112,-3.6983025155268576,263.85862425313445,56.68643114537919
178,-1.5371351093021375,-261.5288320132983,-34.28149193299642,-49.24764228569473,26.605024045485024,-3.2533876312611465,263.78998352774147,56.4447494222438
179,-1.5441637680945504,-261.4581225891618,-34.30815995561655,-49.223949340072636,26.253111926600685,-2.8008655553144646,263.7237270974934,56.276056011688354
180,-1.545635473975122,-261.39185946515886,-34.33557771230378,-49.303270396534955,25.862939599761805,-2.3497371003155396,263.6619328724041,56.184321765012
181,-1.541323537792214,-261.331994225941,-34.36336994944444,-49.48463187203059,25.43931340590305,-1.9083237826704327,263.60648548312486,56.17061383770277
182,-1.5311417932801554,-261.2802372625696,-34.39109838063982,-49.763749664549366,24.98733828623335,-1.4841176170311992,263.55902267136145,56.23315943359834
183,-1.5151483400184294,-261.2380119562503,-34.41827932361807,-50.133267419030915,24.512312370556092,-1.0836648838414917,263.5208920421383,56.36750952847989
184,-1.4935453987436846,-261.20642042488186,-34.4444032852841,-50.583093720272124,24.01962301298299,-0.7124846102332845,263.4931195394524,56.56679272962637
185,-1.466675702660356,-261.1862217851457,-34.468954937839904,-51.10082180662275,23.51464653726736,-0.3750211771377917,263.47639040132873,56.82204606623011
186,-1.4350157887869528,-261.1778232703393,-34.491432027555874,-51.67221283364902,23.002653724565928,-0.07462947796264638,263.47104275251974,57.1226069701887
187,-1.39916645408866,-261.1812839530169,-34.51136214663251,-52.28172219140575,22.488722775247897,0.18640962112610765,263.4770734535894,57.45654903364353
188,-1.3598405130752442,-261.1963302316793,-34.52831679702155,-52.91304781304849,21.977661089459385,0.4068462548873026,263.4941553013888,57.81114326811791
189,-1.3178478857211178,-261.22238165544525,-34.541922592318954,-53.549679704799615,21.473936784400934,0.5863941016821511,263.5216641460807,58.173326490279564
190,-1.274078010266215,-261.2585851741386,-34.551869724737664,-54.175431000619575,20.981620493657914,0.7256419673550184,263.5587140397794,58.530159104848096
191,-1.2294796456564958,-261.303855606343,-34.55791805208632,-54.774932666116804,20.504337749863183,0.825948148320865,263.60419826460105,58.869255957485386
192,-1.1850382940519772,-261.3569200340002,-34.559901419617375,-55.33407654889041,20.04523215170428,0.8893215167946921,263.6568340348967,59.179176109050694
193,-1.1417516932588632,-261.41636396974013,-34.557731032075324,-55.84039473270516,19.60693953806294,0.9182934214161751,263.7152088301356,59.449760274936764
194,-1.1006040350715989,-261.4806775250841,-34.55139859076442,-56.283366839507394,19.191573493491326,0.9157845732702037,263.7778266830265,59.672408020947096
195,-1.062539682101255,-261.54830035701417,-34.5409794250374,-56.654650629186,18.800722620039693,0.8849710901918683,263.8431532326615,59.84029020435889
196,-1.028437170879858,-261.61766466054564,-34.5266352128144,-56.948234637926255,18.435460043041207,0.8291538267678291,263.9096587575402,59.94849525321415
197,-0.9990842848616461,-261.6872356797808,-34.5086154097328,-57.160514529272426,18.09636549453371,0.7516349996238225,263.97585854333096,59.99411053045313
198,-0.9751550125322708,-261.75554910262014,-34.48725635180426,-57.290297271789434,17.78355999673127,0.6556058332100826,264.0403498116402,59.976242185706155
199,-0.9571891940387985,-261.82124448085676,-34.46297723417268,-57.338739173709385,17.49675266091174,0.5440484403295166,264.1018442462888,59.895978529541225
200,-0.9455755059637759,-261.8830937258559,-34.43627277220647,-57.30922518386035,17.235298470734353,0.4196544750328793,264.1591951473974,59.75630306972882
201,-0.9405382143482777,-261.94002386893504,-34.4077030541909,-57.20719775248648,16.9982652031363,0.28476237331105486,264.2114184822067,59.56196398419444
202,-0.9421280331167009,-261.99113354968165,-34.377881517320354,-57.03994402436301,16.78450696552122,0.14131428634206658,264.2577074365067,59.31930708382993
203,-0.9502175065235081,-262.0357029702904,-34.34746196116401,-56.81635028827658,16.592741323639142,-0.009166913052058096,264.2974403443923,59.03607934857897
204,-0.9645014214742851,-262.07319731183344,-34.31712518864994,-56.54663245566862,16.421626731873754,-0.16558092914262998,264.3301820865819,58.721209943141375
205,-0.9845026489248321,-262.10326392310463,-34.28756545681984,-56.24205088127957,16.269836946005732,-0.327234775802763,264.35567930304137,58.38457522333877
206,-1.0095834693891514,-262.12572398997946,-34.259476596399836,-55.914617107208926,16.136129253865942,-0.4938107371489929,264.3738501137058,58.036753651059364
207,-1.0389620213019024,-262.14055975774966,-34.23353752238786,-55.576799222379876,16.019403672759555,-0.6653198968873374,264.3847693821904,57.68877584275369
208,-1.071733249926799,-262.14789851893465,-34.21039695149515,-55.241231619648445,15.918750735176241,-0.8420440144288093,264.3886507079134,57.35187431427321
209,-1.1068936560226856,-262.1479944164248,-34.19065743225204,-54.9204340906468,15.833486126453305,-1.0244688510319484,264.38582620916503,57.037236938927784
210,-1.1433690735030415,-262.14120878616035,-34.17485914982322,-54.62654445147006,15.763171222256416,-1.2132122262911083,264.37672488294123,56.75576772149685
211,-1.1800445598534897,-262.12798952499367,-34.163464242087,-54.371068259074036,15.707619412563567,-1.4089500945967988,264.3618501242813,56.51785819710604
212,-1.2157953756706776,-262.10884996493945,-34.1568425184839,-54.16464870504083,15.6668888801678,-1.6123437927854527,264.3417569999263,56.33317259843088
213,-1.249518066928176,-262.08434789378487,-34.155259558788934,-54.01685949597971,15.641263141654173,-1.8239713616138764,264.31703003602206,56.21044990510171
214,-1.280160800824043,-262.05506549963974,-34.1588681882696,-53.93602339714455,15.631221120720786,-2.044265522276286,264.28826241540094,56.157325935604675
215,-1.3067522299137375,-262.02159101810497,-34.16770422698875,-53.92905897977481,15.63739880930856,-2.273460523208157,264.25603746511285,56.18017862420494
216,-1.3284282023150271,-261.9845027231239,-34.18168718370753,-54.0013578182311,15.660544715352618,-2.5115496678681577,264.22091314537175,56.28399940568957
217,-1.3444555885302172,-261.9443556783098,-34.200626246822246,-54.156693874724006,15.70147134282137,-2.7582548600423817,264.18340998364755,56.472293168979526
218,-1.3542523943211073,-261.9016714211778,-34.2242315538582,-54.39716615534864,15.761004916215901,-3.013008898878224,264.1440026037993,56.74700860632676
219,-1.3574032844994508,-261.8569305545935,-34.2521303350582,-54.72317503527628,15.83993542846137,-3.2749504959855678,264.10311475187916,57.10850008175192
220,-1.3536698093394643,-261.81056813107404,-34.283887175159805,-55.13343199531126,15.938968835525863,-3.5429311536588126,264.06111758851307,57.55552142522792
221,-1.342995042448261,-261.76297177136195,-34.31902735846488,-55.625001878014274,16.058682840860985,-3.815532307117448,264.0183310427807,58.085251323480655
222,-1.3255028158139814,-261.71448259366434,-34.35706203784769,-56.19337613219187,16.199487247974854,-4.091090662450088,263.97502813460125,58.69334921690417
223,-1.3014920192486925,-261.6653990800645,-34.39751373648355,-56.832574872012415,16.3615894058764,-4.367729542860495,263.93144219746875,59.37403986116806
224,-1.2714264656205785,-261.6159838576775,-34.439940475390145,-57.53527497673944,16.54496493557762,-4.643394258713406,263.8877767602292,60.12022404693568
225,-1.2359207480888312,-261.5664730658416,-34.4839568045471,-58.29296095439347,16.749333747150114,-4.915889909115737,263.8442175427963,60.92361245122637
226,-1.1957224336064975,-261.5170876292216,-34.529250356791856,-59.0960948959715,16.974141291335226,-5.182920439931571,263.8009457188829,61.77487920591628
227,-1.1516908476922125,-261.46804543104014,-34.5755931379266,-59.934301537343174,17.218544960286412,-5.442128114485521,263.7581513546819,62.66383146611988
228,-1.104772618475824,-261.4195731382829,-34.62284734192022,-60.79656426930436,17.48140552867993,-5.691132782987735,263.71604576665953,63.579591078563496
229,-1.0559741388897526,-261.37191635705767,-34.6709658889372,-61.67142799580236,17.761283551401583,-5.927570508831591,263.6748715202697,64.51078450233325
230,-1.0063312543438683,-261.3253469398514,-34.719988181591276,-62.54720504868097,18.056440752697586,-6.149131255892328,263.6349089712336,65.44573744942551
231,-0.9568767980580082,-261.28016660500845,-34.77003184771773,-63.41218075837654,18.36484663354666,-6.353595459331934,263.59647862200296,66.37267112630171
232,-0.9086069990169212,-261.23670650620153,-34.821281457742074,-64.25481552267416,18.68419072776672,-6.538869389671776,263.55993906833845,67.27989723228553
233,-0.8624481553169228,-261.1953228908543,-34.87397525181419,-65.06394020810211,19.011901101083872,-6.7030192719134085,263.52568081399437,68.15600889393397
234,-0.8192251913639019,-261.1563893446608,-34.9283907093682,-65.82894156202826,19.345169762731665,-6.844304114403898,263.4941165593974,68.9900645671757
235,-0.7796337567448135,-261.12028626482106,-34.984829416315854,-66.53993421809402,19.680985589711103,-6.9612071173276435,263.4656686634008,69.77176180462997
236,-0.7442174125342857,-261.08738823680125,-35.043601314723674,-67.18791600610506,20.0161751146933,-7.052465388579718,263.4407544581546,70.49159781301641
237,-0.713351248375857,-261.05805005031823,-35.10500820466358,-67.76490365114708,20.347451118700633,-7.1170975356049855,263.419770126602,71.14101394498404
238,-0.687232978363479,-261.03259224073383,-35.16932636912324,-68.2640464699968,20.671468469261914,-7.154428551766362,263.4030739998036,71.71252161065976
239,-0.6658821256592075,-261.0112872589827,-35.236788412596034,-68.67971622899084,20.98488614258799,-7.16411129432975,263.3909703755778,72.19980746939072
240,-0.6491473543162226,-260.9943475405404,-35.307564776600806,-69.00757184703035,21.284433938327798,-7.146143786913997,263.3836951766261,72.59781612664737
241,-0.6367214698093611,-260.98191662199395,-35.381745793344706,-69.24459811605819,21.566982078878127,-7.100881586585249,263.3814046994128,72.90280893230747
242,-0.6281631753700209,-260.9740638688489,-35.459325424072155,-69.38911815101176,21.829611687709416,-7.029044510987143,263.3841681635441,73.11239793207228
243,-0.622924327342386,-260.9707825407053,-35.54018786623678,-69.44077996324539,22.06968404315186,-6.931717091595393,263.3919639462858,73.22555464274751
244,-0.6203811630230102,-260.971990308073,-35.62409792426255,-69.40051837005691,22.284906472465106,-6.810342199461439,263.4046787425094,73.24259408988718
245,-0.6198678169828923,-260.97753119595137,-35.71069554618841,-69.2704942830031,22.473392745016785,-6.666707389813343,263.42210868908734,73.16513533327849
246,-0.6207104247203165,-260.98717814195186,-35.799494531941235,-69.05401411246748,22.63371582539803,-6.5029236473775205,263.44396165452247,72.99604036947622
247,-0.6222601976342407,-261.0006357310961,-35.88988528642977,-68.7554325169282,22.76495090541958,-6.321396413877526,263.46986025159504,72.73933379421364
248,-0.6239239838104007,-261.01754309342533,-35.981141489997015,-68.38004201582996,22.866706829492834,-6.124789054732005,263.49934555231687,72.40010596077725
249,-0.6251909909669179,-261.0374773136806,-36.0724304844535,-67.93395309356845,22.939144381112687,-5.9159792302639955,263.5318818332685,71.98440260343058
250,-0.6256545553118725,-261.05995792355696,-36.16282702121137,-67.42396836483944,22.982980344381208,-5.698008911636172,263.5668628760479,71.4991039968771
251,-0.625028095678894,-261.084453155895,-36.25132995030024,-66.85745415552424,22.99947671471958,-5.474028998921435,263.6036204442353,70.95179667401796
252,-0.6231546769205611,-261.11038868394644,-36.336881539184034,-66.24221246432522,22.99041487091189,-5.247239677054695,263.64143561472076,70.35064050308267
253,-0.620009887882966,-261.13715948312665,-36.41838932032631,-65.58635570252981,22.95805494430416,-5.020827798257898,263.6795535827653,69.7042335308263
254,-0.6156980073133701,-261.1641451481913,-36.49475054426433,-64.8981859085083,22.90508106888537,-4.797902707353804,263.717202280424,69.02147648773769
255,-0.6104417273420154,-261.19072853220945,-36.564879392105844,-64.18607938426867,22.834533716480696,-4.581432052037316,263.75361469425656,68.31143832219051
256,-0.6045660630029945,-261.2163171123101,-36.627737027466026,-63.458376985133796,22.749730922371104,-4.374179275629648,263.7880542997641,67.58322366526541
257,-0.5984774377019286,-261.2403661351525,-36.6823642664323,-62.7232796933099,22.654180807153853,-4.17864465438098,263.8198426391313,66.8458427747062
258,-0.5926391915485371,-261.2624023420234,-36.72791610386809,-61.98874872812952,22.551488253662,-3.9970118313253815,263.84838774303756,66.10808430789356
259,-0.5875448858741256,-261.2820468753838,-36.763696684154134,-61.26240938153362,22.44525878909191,-3.831101732190294,263.8732118101795,65.37839127099053
260,-0.5836908350698324,-261.2990358200428,-36.78919274573274,-60.55145802430536,22.339002648615427,-3.6823355122438333,263.89397633203663,64.66474069030426
261,-0.581549331798635,-261.31323678941004,-36.804103242980275,-59.86257223449582,22.23604175294794,-3.551707832276464,263.9105027612369,63.97452792146429
262,-0.5815440155812418,-261.32466011803956,-36.80836279761975,-59.20182467040152,22.139422050821803,-3.439771365650644,263.92278696311513,63.31445702248182
263,-0.5840287041606625,-261.3334635932716,-36.80215687048661,-58.57460206690363,22.051833466892045,-3.3466330363659704,263.93100609223274,62.69043923213942
264,-0.5892707349599936,-261.3399501564946,-36.78592705322309,-57.98553146438007,21.97553958138051,-3.2719620961557485,263.9355171026535,62.107502219602445
265,-0.5974394806448752,-261.3445584777696,-36.76036553424693,-57.438416360859584,21.91231906029351,-3.2150097571401783,263.936846665108,61.569713258730594
266,-0.6086002604947099,-261.3478466792757,-36.72639848911972,-56.93618584579789,21.86342061960094,-3.1746396765567293,263.9356727333242,61.080119723915715
267,-0.6227134347753094,-261.3504697909725,-36.68515891698616,-56.480859916942755,21.82953289888474,-3.1493681537843505,263.932798417084,60.64071027835791
268,-0.6396381328440762,-261.35315184339873,-36.63795030311269,-56.073534065545985,21.810770126833482,-3.1374125346728237,263.9291192586359,60.252399830690244
269,-0.6591398924775467,-261.3566538500652,-36.58620328454656,-55.714385762372466,21.80667398824023,-3.136746119110047,263.92558546312347,59.915040739437735
270,-0.6809014620827771,-261.3617392205638,-36.531428022685155,-55.402704651845035,21.816231654968185,-3.145157855183695,263.9231609901678,59.62746181698776
271,-0.7045360614258904,-261.36913829161085,-36.47516507649944,-55.13694713817467,21.837909450006407,-3.160315214238671,263.9227815687215,59.38753546807505
272,-0.7296024489113201,-261.3795136829438,-36.418937203419944,-54.91481475784842,21.86970105845713,-3.179828779415159,263.9253136655317,59.19227190737486
273,-0.7556212165806794,-261.39342811918823,-36.36420393895206,-54.73335438172606,21.909188695979786,-3.2013171783981256,263.93151629313707,59.03793797318555
274,-0.7820918712016378,-261.41131618631954,-36.312320367962236,-54.589076970046236,21.95361533463056,-3.2224710280801254,263.942007311511,58.92019672604328
275,-0.8085104324335328,-261.4334612245646,-36.26450127148538,-54.47809045386061,21.999965972621062,-3.241114533586712,263.95723557981216,58.8342629213545
276,-0.8343873850025333,-261.45997830046184,-36.22179158765755,-54.39624146926811,22.045055888035723,-3.255263321487175,263.97746002219606,58.77506864778496
277,-0.8592657945092911,-261.49080400250836,-36.185043732455476,-54.33926014945223,22.085623719414976,-3.2631770642516957,264.0027364199014,58.737432909838894
278,-0.8827392431165764,-261.5256936026274,-36.15490194473891,-54.30290190825462,22.118427048902745,-3.2634055482052777,264.03291248837246,58.71622863194499
279,-0.9044689943189701,-261.56422585329096,-36.13179365229407,-54.28308005505461,22.140337981641935,-3.2548270379965256,264.06763150373973,58.706540425756785
280,-0.924199509932772,-261.60581536066604,-36.115927900785444,-54.27598317079436,22.14843609826568,-3.2366780043477172,264.10634441965317,58.70380652255143
281,-0.9417712089759473,-261.6497321316914,-36.1073010081562,-54.278171547162,22.14009616036014,-3.208573432812851,264.14833008865605,58.70393863443606
282,-0.9571292734116785,-261.6951275493141,-36.10570965936563,-54.28664776103124,22.11306807307679,-3.170517006025147,264.1927228657651,58.70341427811308
283,-0.9703274381375872,-261.74106567361093,-36.110771512736065,-54.298897638528636,22.065546818935356,-3.122900484559105,264.2385464984688,58.69933727545421
284,-0.9815260704962547,-261.78655842257876,-36.121952979245116,-54.312899348125306,21.996230331748265,-3.066491687955178,264.28475281317304,58.689463625565786
285,-0.9909843913325381,-261.83060292187986,-36.138603221951605,-54.32710001379751,21.9043635693774,-3.0024107160705835,264.33026336704376,58.672191601256905
286,-0.9990472776663811,-261.87221916109456,-36.15999275781979,-54.34036096818186,21.789767405017262,-2.9320944980175594,264.3740119981955,58.64651669164113
287,-1.0061275361192532,-261.9104860460561,-36.1853544599972,-54.351874523062904,21.652851418497853,-2.857250311960953,264.41498608362247,58.611953849723065
288,-1.0126847351818735,-261.94457401339366,-36.21392436912283,-54.361056885788074,21.494610188208473,-2.77979942671698,264.45226433918367,58.568431349442605
289,-1.0192016942117927,-261.9737726044683,-36.24497965646105,-54.36742355386743,21.31660317474175,-2.701812414906457,264.4850492174445,58.51616233648616
290,-1.0261597159970313,-261.99751173524476,-36.27787137165378,-54.37045510860923,21.120918707546725,-2.625438041436812,264.51269233606894,58.45550179780061
291,-1.0340137226729667,-262.01537574743975,-36.31205012558018,-54.36946268940917,20.910122957199366,-2.552828008179119,264.53471178587205,58.386798084018665
292,-1.0431685913161435,-262.02710960951885,-36.34708344843763,-54.363463388938996,20.68719513266766,-2.4860601941115483,264.55080052795876,58.31024914564468
293,-1.0539581017790973,-262.03261683201674,-36.382664163400065,-54.35107615067636,20.455450499775893,-2.427063242038296,264.56082536421474,58.22577408739693
294,-1.0666279035583026,-262.0319488620165,-36.418609755778384,-54.33044828984461,20.218453170138982,-2.3775453134542177,264.5648162501929,58.13291033046322
295,-1.0813236788239404,-262.02528614643614,-36.4548534401323,-54.2992214087279,19.97992092935733,-2.3389295755380872,264.56294623830695,58.03074550918492
296,-1.0980851982275086,-262.01291183628126,-36.49142838873841,-54.25454326160367,19.743624610693995,-2.312298587732643,264.5555032178868,57.917891225473056
297,-1.1168463592679365,-261.9951800802045,-36.52844722057488,-54.19312917676829,19.513284665782024,-2.298349317149484,264.5428556715641,57.792503064771736
298,-1.137440764815122,-261.9724816893048,-36.56607916606992,-54.11137319622549,19.29246769203987,-2.297360118440651,264.5254155345902,57.65234808017963
299,-1.1596120471129006,-261.94521038339417,-36.60452721168303,-54.00550544316714,19.084485799482124,-2.309170731475701,264.50360165057964,57.49491756936104
300,-1.1830279356188433,-261.9137327319045,-36.64400705455226,-53.871788687720034,18.892301823430348,-2.333176171837138,264.4778071545321,57.31757968396128
301,-1.2072969443224013,-261.87836431901445,-36.68472909037353,-53.70674395777639,18.71844345908066,-2.3683352145033107,264.44837345175034,57.11776348041966
302,-1.231986513586525,-261.8393538312835,-36.7268841438048,-53.5073925920084,18.56492935984849,-2.413193893846283,264.4155725665719,56.89316366477298
303,-1.2566415016494963,-261.79687600233063,-36.77063326943715,-53.27150051411911,18.433210068271993,-2.465924040912703,264.37959882511876,56.64195364288283
304,-1.2808020474031652,-261.75103374722363,-36.81610160079847,-52.99780977408106,18.324126316975896,-2.524376396017657,264.34057019133996,56.36299361568976
305,-1.3040199406152513,-261.7018691525973,-36.863375869168365,-52.68624256517637,18.237886761668584,-2.5861473066564753,264.2985388667103,56.05602038312458
306,-1.3258727191025335,-261.64938207597885,-36.91250493360821,-52.338063999196905,18.1740666206532,-2.648657442639671,264.25350982330957,55.7218062729559
307,-1.3459748675353789,-261.59355420092544,-36.96350251242053,-51.955991887214545,18.13162799966866,-2.70924031314403,264.20546502440305,55.362276182813325
308,-1.363985824248088,-261.5343759376894,-37.01635125711946,-51.5442445244703,18.108961839306914,-2.7652376637614133,264.1543906317708,54.98057400912265
309,-1.3796149491707703,-261.47187365064076,-37.07100733428632,-51.10852082139508,18.10395040874396,-2.814098126249578,264.1003045968145,54.581072545989215
310,-1.3926239946056447,-261.4061350699069,-37.12740476888466,-50.655910805409505,18.114048139145297,-2.8534748938032344,264.04328241895666,54.16932404216774
311,-1.4028278368800577,-261.3373311758116,-37.18545894224944,-50.194738262210976,18.136377488093277,-2.8813178187419717,263.98347930048897,53.75195177621373
312,-1.4100942348925583,-261.2657332819094,-37.245068834245856,-49.73434083938012,18.167835620626818,-2.8959552646114304,263.92114738511964,53.33648605366942
313,-1.4143431879925725,-261.19172447076147,-37.306117848398095,-49.28479611061386,18.20520709571276,-2.896161306675096,263.8566472235961,52.93115080060082
314,-1.4155461774415288,-261.1158048866189,-37.36847328245832,-48.8566047559096,18.245277487466296,-2.8812044258866965,263.7904529848109,52.54460930856647
315,-1.413725374972398,-261.0385906134164,-37.4319846086312,-48.46034403815582,18.284942906883323,-2.850874665276481,263.7231511649467,52.18567957249908
316,-1.4089528619049758,-260.96080603218377,-37.4964807407625,-48.10630607567193,18.321310658496092,-2.8054873455630607,263.6554327121845,51.86303098631781
317,-1.4013499106684422,-260.88326978806623,-37.56176653689374,-47.80413600873489,18.351786744380387,-2.74586286366723,263.58807872807705,51.584874918165866
318,-1.3910863046180943,-260.8068748513895,-37.62761895540624,-47.56248506917282,18.37414665106739,-2.673283693762364,263.5219402807718,51.35866192404341
319,-1.3783795172458746,-260.7325635667704,-37.6937833862485,-47.388692832648104,18.386586852659274,-2.589431254475484,263.4579132836178,51.19079811690133
320,-1.3634934217934904,-260.66129896837907,-37.75997054435987,-47.28851160208495,18.38775567512722,-2.4963066090520383,263.39690975148307,51.086392485525785
321,-1.3467360785371876,-260.5940339508898,-37.825853988656625,-47.26588397457836,18.37676343844821,-2.3961399387086457,263.33982700707395,51.04904571983342
322,-1.3284560285309788,-260.5316800798047,-37.891068050661396,-47.322782254936996,18.353172964435814,-2.2912943350701642,263.2875165603832,51.08068934656756
323,-1.309036480923958,-260.4750778376179,-37.95520591474485,-47.4591156439939,18.31697251232295,-2.184169643717889,263.24075439107617,51.18148180613812
324,-1.288886980290982,-260.42496988546236,-38.01781776640975,-47.672708241212604,18.268533942752143,-2.077111801997358,263.2002141764801,51.34976566791199
325,-1.2684326461874051,-260.38197849402906,-38.078409163134026,-47.95934800117213,18.20855941234793,-1.9723323485348943,263.16644462548123,51.58208762346596
326,-1.2481017074053404,-260.3465877712452,-38.136440020979514,-48.31290394459258,18.13802019215387,-1.871841641228093,263.1398515984451,51.873280302427666
327,-1.2283124700577839,-260.31913084573836,-38.19132487490869,-48.725506241148246,18.058091310600012,-1.7773980088044252,263.12068527386174,52.21660242770928
328,-1.209460836719286,-260.29978186985403,-38.24243528411662,-49.187781409037086,17.970085655700856,-1.6904737947743202,263.1090323650794,52.603931514825945
329,-1.1919091130030628,-260.2885525886576,-38.289105258964845,-49.68913295464773,17.875390939058835,-1.6122381472342855,263.1048132764364,53.02600135802494
330,-1.1759763851288665,-260.28529321584426,-38.330640337180355,-50.21805638609677,17.77541253133993,-1.5435554737535293,263.1077840457018,53.472675021099036
331,-1.161930453707659,-260.28969739610585,-38.36633051159495,-50.762476737636064,17.671524627210342,-1.4849977256341655,263.1175428944604,53.93324303280406
332,-1.1499812045381197,-260.30131105586497,-38.39546671137202,-51.310096556489285,17.565031502065032,-1.4368681607401113,263.1335411558196,54.39673600858282
333,-1.1402753096646616,-260.3195449194204,-38.41736006222667,-51.848742637173125,17.457139821078936,-1.3992339983668345,263.1550982533971,54.852240913737674
334,-1.132892189439251,-260.34369043960635,-38.43136279914769,-52.36670048637232,17.348942122876885,-1.3719653667944003,263.18142032503033,55.28921052582226
335,-1.127841194317334,-260.37293892298516,-38.43688957986571,-52.853026469899895,17.24141082850711,-1.3547780533704334,263.211622095426,55.69775628632039
336,-1.1250600402385704,-260.4064036769608,-38.43343811453342,-53.2978287956091,17.135401509273287,-1.3472777384348094,263.2447516725929,56.06891564383584
337,-1.12441472205424,-260.44314493656714,-38.42060840707956,-53.692509856364744,17.031663702562675,-1.3490035977492445,263.27981793038725,56.39488612540079
338,-1.1257013655376233,-260.48219708540967,-38.39812026686044,-54.02996391599732,16.93085726382451,-1.3594693600470318,263.3158199535441,56.66921964418779
339,-1.1286505619670848,-260.5225973826961,-38.36582890737899,-54.30472563886811,16.83357206743284,-1.3782001045857273,263.35177774598213,56.8869719261342
340,-1.1329345547718388,-260.56341520830057,-38.32373839501358,-54.51306651716388,16.740348827608244,-1.4047633187004744,263.3867631956825,57.0448033943377
341,-1.1381773160585207,-260.6037807803462,-38.27201254405763,-54.65303775167078,16.651698912354174,-1.4387930421205473,263.419930204388,57.14102930738204
342,-1.1439672246680506,-260.64291230157306,-38.21098265798782,-54.72445948150323,16.568121257104156,-1.480006305817435,263.45054285900176,57.17561829759704
343,-1.1498718303424902,-260.68014046588473,-38.141151365040564,-54.728857419319844,16.49011482708983,-1.5282114987762332,263.47800047144307,57.150139674003825
344,-1.1554540880912854,-260.7149292239004,-38.063191795548995,-54.66934905245384,16.418185515032267,-1.583308705944514,263.5018582796887,57.067661051907514
345,-1.1602894269589692,-260.74689178101835,-37.97794153060903,-54.55048277763546,16.352846872777945,-1.6452824077142303,263.5218427021171,56.93259919128095
346,-1.163982986656799,-260.77580103241786,-37.8863909815885,-54.37803471105197,16.294614599688465,-1.7141872423301288,263.5378602980313,56.7505284119017
347,-1.1661863065279048,-260.80159393011667,-37.78966602326975,-54.15876941333107,16.24399516978258,-1.790127884406227,263.5499998982952,56.52795254382931
348,-1.1666127754428104,-260.8243695578671,-37.68900488545091,-53.90017231410587,16.20146934356268,-1.8732345017768683,263.55852767623026,56.27204798590445
349,-1.1650512693463186,-260.8443810202045,-37.58572963348055,-53.61016310256222,16.16747160608988,-1.9636356062028306,263.5638753065904,55.990386979696915
350,-1.1613775082632183,-260.8620216481577,-37.48121300299145,-53.29680058106848,16.14236683579752,-2.0614302464588934,263.5666218173653,55.69065148537154
351,-1.1555626850352805,-260.87780633845165,-37.376841754223506,-52.96799023757018,16.126425737366432,-2.1666613405677695,263.5674701076982,55.380348854296834
352,-1.1476789237254639,-260.8923489352545,-37.27397797961904,-52.631205933120356,16.11980073131243,-2.2792915900861446,263.56721923410015,55.066540683303444
353,-1.1379012231794157,-260.90633650969943,-37.17391998584752,-52.29323661341616,16.122504048661714,-2.399183000482951,263.566733539853,54.75559579117947
354,-1.126505737327172,-260.920501393572,-37.0778645859794,-51.959967931746945,16.13438971023442,-2.5260806451008815,263.5669097326101,54.45297726564624
355,-1.113864443536236,-260.9355919156831,-36.98687281290198,-51.63620722728541,16.15514085260575,-2.65960100617494,263.56864312831175,54.16307209023247
356,-1.1004363631755631,-260.95234281990906,-36.90184099758869,-51.32555850224769,16.184263481534742,-2.7992250330553845,263.57279429643313,53.88907003451102
357,-1.0867555340257433,-260.97144626135537,-36.823478835647,-51.03035192463111,16.221087218940127,-2.9442959753979587,263.5801572114652,53.632896326707055
358,-1.0734159811607409,-260.9935242272249,-36.752295725250214,-50.75163002517824,16.26477304038975,-3.0940220323649954,263.59142991624645,53.39520021874788
359,-1.0610540389683045,-261.0191033203293,-36.68859637821196,-50.48919026222036,16.314327476311885,-3.24748383473142,263.60718875379837,53.175399027277614
360,-1.0503284981816896,-261.04859300597866,-36.632486225304646,-50.241681094688836,16.36862236726057,-3.403646691445323,263.62786732243467,52.97177471169259
361,-1.0418991514406055,-261.0822685165336,-36.583886280833575,-50.0067462471987,16.426419080552712,-3.5613773733482046,263.6537412916441,52.781617660334774
362,-1.0364044271090205,-261.12025953103114,-36.54255616668207,-49.78120962639433,16.486396092251503,-3.719464985955499,263.6849200178254,52.60141023945762
363,-1.0344389540813808,-261.1625454472111,-36.508123317201765,-49.561291506481396,16.547178911077452,-3.8766452255626973,263.7213455163007,52.42704092683044
364,-1.0365320129521782,-261.2089575400174,-36.48011608778965,-49.342845258023985,16.607371355776873,-4.031627070482783,263.7627987891612,52.25403857527011
365,-1.0431278105646307,-261.2591876410253,-36.457998471854964,-49.121603133011604,16.665587161098088,-4.183120802025249,263.80891285089746,52.07781560468357
366,-1.0545683703906614,-261.3128023478797,-36.441204340400525,-48.89341947879359,16.720480824644323,-4.329866218993692,263.859191199796,51.893908758634616
367,-1.0710796547932975,-261.3692613376671,-36.429169485356674,-48.65450018907346,16.770776574597562,-4.470659984753197,263.9130300988085,51.69820645935594
368,-1.0927614226307303,-261.42793814698274,-36.42136010339122,-48.401608133235165,16.81529438395806,-4.604381166309364,263.96974286558407,51.48715269043858
369,-1.1195812708043649,-261.4881417517152,-36.41729657238714,-48.1322357015207,16.852972123934496,-4.730014135719523,264.02858436779417,51.2579187059377
370,-1.1513731902264157,-261.5491374255836,-36.41657150647139,-47.844737443402295,16.882883240147528,-4.846668092572686,264.0887740793468,51.00853568962681
371,-1.187840689221788,-261.610165671309,-36.41886131693445,-47.53841798719516,16.904249679949537,-4.9535925638776215,264.1495163949595,50.737983680989814
372,-1.2285641619760044,-261.6704584010822,-36.42393097468322,-47.21357289631067,16.916450096517167,-5.050188380967257,264.21001734154413,50.446234509294136
373,-1.2730118692603172,-261.72925188275156,-36.43163230617892,-46.87148270909006,16.919023549092465,-5.136013823491546,264.26949724712364,50.13424899105277
374,-1.32055376040131,-261.78579629405067,-36.44189679740241,-46.51436296062492,16.91166902053555,-5.210785848314323,264.3271993380251,49.803931096774335
375,-1.3704773961274515,-261.83936215106496,-36.45472435588337,-46.1452753014399,16.89424112610873,-5.274376600065264,264.3823947194488,49.458044010719334
376,-1.4220053872728353,-261.88924436984223,-36.470169633600136,-45.768006696690385,16.86674242397069,-5.326805726699776,264.43438470297036,49.10009480181422
377,-1.4743139973537835,-261.93476505988957,-36.48832726898798,-45.38692490922882,16.82931277356225,-5.368229328092447,264.48250174811676,48.73419560406131
378,-1.5265527709496554,-261.9752761638938,-36.50931688114521,-45.00681893253218,16.78221623542653,-5.39892655686831,264.52611023054317,48.36490966641204
379,-1.5778650965537055,-262.01016282112454,-36.533268157594684,-44.63273280228661,16.72582607906943,-5.419284926890229,264.56460794937993,47.99709043260046
380,-1.6274094105723849,-262.03884801915547,-36.56030620760344,-44.269800474076504,16.660608559143537,-5.42978528052803,264.5974289538651,47.63572113608095
381,-1.6743804026615572,-262.0607987791094,-36.59053750210908,-43.92308844001649,16.587106195540198,-5.430987160461554,264.6240479727265,47.28576145018263
382,-1.7180293300692877,-262.07553379841903,-36.62403691537996,-43.597451627796076,16.505921301986834,-5.423515072000969,264.64398643769965,46.95200665335772
383,-1.7576825435263401,-262.0826322307333,-36.660836388974644,-43.29740692774601,16.41770042597014,-5.4080458454574325,264.6568198516282,46.63896359155599
384,-1.7927575186240983,-262.08174320720286,-36.70091559542127,-43.02702744066716,16.323120193538372,-5.385297037784654,264.6621861581406,46.35074646077163
385,-1.822775953327552,-262.0725957523561,-36.74419489512516,-42.78985931650826,16.222874825370486,-5.356016082925635,264.65979480785103,46.09099418679809
386,-1.8473737648617605,-262.05500878253156,-36.790530935071494,-42.588861972944265,16.11766535394232,-5.320969765803392,264.6494362586046,45.862810073524436
387,-1.866308009370584,-262.0289008422799,-36.839715296753134,-42.42637154578852,16.00819036952325,-5.280933591068971,264.6309916224441,45.668723448293186
388,-1.8794607394121534,-261.9942991946696,-36.891476516492034,-42.30408653950485,15.895137992814776,-5.236680734049318,264.6044421186256,45.51067218215794
389,-1.8868396402987067,-261.95134786313275,-36.94548556686618,-42.22307377855158,15.779178748809086,-5.188970457591062,264.56987793766433,45.39000417710498
390,-1.888575175176359,-261.90031417845756,-37.00136454338752,-42.183791954366804,15.660959087052552,-5.138536102383405,264.5275060272408,45.30749522094252
391,-1.8849141037020338,-261.84159333709226,-37.05869783601882,-42.186129363095716,15.541095384492264,-5.086072955813786,264.4776562001428,45.26338001989054
392,-1.8762095487476513,-261.77571056167915,-37.11704456351647,-42.22945187521231,15.420168326828898,-5.032226447620213,264.4207849842504,45.25739274246736
393,-1.8629080378462768,-261.7033207204324,-37.175950806432425,-42.312656851819,15.298717617451674,-4.977581228529353,264.35747687249733,45.288813133409434
394,-1.8455339915703948,-261.62520553938526,-37.234960422298734,-42.43422870525296,15.177237051666017,-4.922651791187939,264.2884429471959,45.356514279266996
395,-1.8246720217366426,-261.54226863039514,-37.2936238001328,-42.59229210322196,15.05617011425949,-4.867875374127402,264.21451702391977,45.45900843599713
396,-1.800947327058855,-261.455528463699,-37.35150444259454,-42.78465938985928,14.935906379992717,-4.8136078850288015,264.13664943977983,45.594487904330464
397,-1.7750046109511972,-261.3661092716358,-37.40818358194981,-43.00886959215805,14.816779100429759,-4.760123442404212,264.0558985119269,45.760858702025104
398,-1.7474863265652487,-261.2752297099661,-37.46326321400009,-43.26221734215843,14.699064427532214,-4.7076178842516265,263.9734195569502,45.955765679509916
399,-1.7190115010305094,-261.1841888855914,-37.516368103450716,-43.541771111813794,14.58298271475664,-4.65621629006504,263.8904511697408,46.176608693871515
400,-1.6901566168393434,-261.0943491888296,-37.5671475133658,-43.844381265788044,14.468702224712061,-4.605984258671972,263.80829831857307,46.420550434842994
401,-1.6614398678885982,-261.0071154326356,-37.615277496598075,-44.16667950792506,14.356345392199724,-4.5569423990676166,263.72831188701275,46.68451742202886
402,-1.633309665966963,-260.9239101155197,-37.66046434702928,-44.505072233520366,14.245997603978257,-4.509083236150423,263.6518645692064,46.96519649227325
403,-1.6061377922242825,-260.8461450245823,-37.70244926739635,-44.85573104345174,14.137718290715785,-4.462389526778613,263.5803233437085,47.25902972433465
404,-1.580217177932323,-260.7751897500715,-37.741013773955935,-45.21458421319793,14.03155398017247,-4.416852836683872,263.51501902539457,47.562211192040294
405,-1.555763905159845,-260.7123379833501,-37.7759850789344,-45.57731318683032,13.927552835935067,-4.372491136227823,263.4572136501658,47.87068914695228
406,-1.5329226332860495,-260.65877273670543,-37.807240658941204,-45.93935808744143,13.82578011402703,-4.329364130854961,263.40806670248384,48.18017711990779
407,-1.5117744004560814,-260.61553183339703,-37.83471131767734,-46.29593578634191,13.726333915556024,-4.287585097040525,263.3686014141361,48.48617698994536
408,-1.4923457153696453,-260.58347511714595,-37.85838223410067,-46.642073359637365,13.629360587606731,-4.247328200567278,263.33967248587163,48.78401640227589
409,-1.4746180289438044,-260.5632547909366,-37.878291730503705,-46.972658892980775,13.535069098052924,-4.208830601195776,263.32193657822154,49.06890211695774
410,-1.4585370008884988,-260.55529013858217,-37.89452777360154,-47.282510617880206,13.443743652559505,-4.1723889897580895,263.31582680339153,49.33598995809089
411,-1.4440213641478357,-260.55974765963356,-37.90722252240611,-47.5664643045495,13.355753750540396,-4.138350490696428,263.32153227504665,49.580471033501404
412,-1.4309714426285418,-260.5765273856605,-37.91654551810525,-47.819477745060404,13.271560869758307,-4.107098116567503,263.33898355709806,49.797672877810655
413,-1.4192772997432095,-260.60525584669074,-37.922696298231635,-48.03675008064218,13.191721088850064,-4.0790312304002025,263.36784458693336,49.98317320313867
414,-1.4088261629677585,-260.6452858426269,-37.92589724523099,-48.21385267942858,13.11688316244617,-4.054541772425982,263.407511344352,50.132923031074824
415,-1.3995085016655637,-260.695702903011,-37.92638731117232,-48.34686726842718,13.0477817504029,-4.033987326904927,263.4571172462837,50.24337510671906
416,-1.391222152099065,-260.75533816156957,-37.92441692353806,-48.43252611581648,12.985225628301002,-4.01766241352458,263.51554504480816,50.31161269267374
417,-1.3838741622455595,-260.8227873766614,-37.92024398483921,-48.46834835291671,12.930080823572249,-4.005769623137212,263.58144495520696,50.33547321934738
418,-1.3773804397622462,-260.896435962946,-37.914130561849774,-48.45276612111637,12.883248788824305,-3.9983922883045206,263.6532588292482,50.31366093528319
419,-1.3716636624541714,-260.97449004613475,-37.906339701989246,-48.38523416611262,12.845639943372872,-3.995470233734014,263.7292503127079,50.24584269179784
420,-1.3666500660384868,-261.0550135978046,-37.897131840747406,-48.26631676815245,12.818143166979585,-3.9967798475343583,263.8075409753449,50.13272129826243
421,-1.3622655966936756,-261.1359716186421,-37.886760449376396,-48.097746446215766,12.801592115001498,-4.001919392435069,263.8861523394723,49.97608146322618
422,-1.358431661528363,-261.2152791212324,-37.87546685233986,-47.882449631048814,12.796729544335612,-4.010300245452223,263.9630535561062,49.778804128158995
423,-1.3550605668520597,-261.2908552703799,-37.86347441533625,-47.62453542103396,12.804171172088521,-4.02114460595906,264.0362141252884,49.544845954691006
424,-1.3520508121060666,-261.36068142047594,-37.850982444002604,-47.329244643827614,12.824370868208636,-4.033490063256676,264.10366046424815,49.27918184753841
425,-1.349282617968539,-261.42286105880765,-37.83816011754877,-47.00285778585538,12.85758912434294,-4.046201221477253,264.16353440224026,48.987709698153594
426,-1.3466142380691153,-261.47567908206787,-37.82514075811258,-46.65256189266012,12.903866698352699,-4.057988364389587,264.21415110251104,48.67711798111811
427,-1.3438796449814354,-261.5176575772215,-37.81201685008133,-46.28627819836042,12.963005124745257,-4.0674329148574335,264.2540536740886,48.354718347441086
428,-1.3408881146552145,-261.547605334706,-37.79883640648628,-45.912453937479036,13.034555459892475,-4.073019160139535,264.2820618164465,48.02824687444484
429,-1.3374261076924552,-261.5646585929499,-37.78560132003225,-45.539823506141836,13.117816249890122,-4.073171354229014,264.29731211107537,47.70563914064877
430,-1.3332616946894835,-261.5683108884831,-37.77226810788066,-45.17714588675395,13.211841279625618,-4.0662949371679025,264.2992879099302,47.39478581616032
431,-1.328151619841815,-261.5584302767413,-37.75875105474664,-44.83292702920027,13.315457151345345,-4.050820332690211,264.2878370980033,47.10327699264031
432,-1.3218509363599378,-261.535262609741,-37.74492744464737,-44.515137600930196,13.427290143692142,-4.025247667354723,264.26317637834165,46.83814493844928
433,-1.3141249394139276,-261.4994201423791,-37.73064455826739,-44.230937944954896,13.545801204753886,-3.9881908088840805,264.22588130454085,46.60561615322382
434,-1.3047628558069204,-261.4518555809432,-37.715728343035195,-43.98642290753358,13.669327465094682,-3.938419311627812,264.1768621499808,46.41088424257786
435,-1.2935924983226228,-261.393822662402,-37.69999388502571,-43.78639919303034,13.796128367007745,-3.874897096342341,264.11732669750296,46.25791502951783
436,-1.2804949439858568,-261.3268252025979,-37.683257819778575,-43.63420704329561,13.924434329479299,-3.796816871730253,264.04873187374744,46.149294414384144
437,-1.265418235126693,-261.25255712861707,-37.665352586738,-43.53159642992812,14.05249573146547,-3.7036293673821374,263.9727266905304,46.08612787518654
438,-1.2483890792340642,-261.172836363837,-37.64614210082161,-43.47866570642843,14.17862990161379,-3.595066430488759,263.89108925940076,46.067998290943336
439,-1.2295215785261395,-261.0895356791584,-37.62553817037582,-43.47386787448787,14.301263800800445,-3.4711570471230355,263.80566085522196,46.09298608347715
440,-1.2090222125287036,-261.0045138022937,-37.60351688536259,-43.51408637478573,14.4189702228017,-3.3322354870355473,263.7182801679935,46.15775263649092
441,-1.1871905965463163,-260.9195501163377,-37.580134090702046,-43.594778807157965,14.530495665240744,-3.178941095867489,263.6307209066524,46.25768477017171
442,-1.1644158905058497,-260.83628607671375,-37.555538787306155,-43.71018348823327,14.634778581019855,-3.012209755537418,263.54463568047066,46.38709499161604
443,-1.1411690883344658,-260.75617601419344,-37.52998295482234,-43.853580519877546,14.730957491893047,-2.8332576167147763,263.46150857903206,46.539469519861306
444,-1.1179916576902253,-260.68044933646956,-37.50382618978165,-44.017596227767335,14.818369316169823,-2.643558257186818,263.3826182127602,46.70775378306739
445,-1.0954810076833903,-260.6100853623956,-37.47753389106441,-44.194537525830036,14.89653908094897,-2.444814822638776,263.30901225962936,46.88466321546435
446,-1.0742731253762419,-260.54580118127444,-37.45166832220675,-44.376741047676866,14.965162846554078,-2.2389288844328084,263.2414938219981,47.063005771779814
447,-1.0550226877569375,-260.48805211609726,-37.42687245332301,-44.55692084587997,15.024086109612611,-2.0279676921792,263.1806191785022,47.236001695381795
448,-1.0383811613868708,-260.4370437079606,-37.40384698445476,-44.72849819527643,15.073280146755698,-1.8141312656666184,263.12670593409354,47.397585828186045
449,-1.0249737510833548,-260.3927537080499,-37.38332148885654,-44.885897663232086,15.112818709275407,-1.5997204424000466,263.0798502215768,47.542678264407385
450,-1.0153763540903087,-260.35496234371504,-37.36602121097859,-45.02479518913565,15.14285718674512,-1.387106627730114,263.0399514744687,47.667410504254335
451,-1.0100937869470763,-260.3232890506215,-37.35263158123051,-45.14230636392194,15.163615854687924,-1.1787035994551018,263.00674329043585,47.76929639765122
452,-1.0095404615257095,-260.29723390036827,-37.343762796591136,-45.23710620170168,15.1753681865611,-0.9769412988820724,262.9798289797015,47.84733990054081
453,-1.0140244197636568,-260.2762220866211,-37.339916794121955,-45.30947519984806,15.178434548778414,-0.7842411193860539,262.95872051882225,47.902074785746564
454,-1.0237352141408909,-260.25964997790055,-37.341458691726174,-45.36127017092503,15.173180986364844,-0.6029918426317205,262.9428797349331,47.935534764412
455,-1.0387356340744502,-260.24693122721686,-37.348594375411615,-45.39582200400135,15.16002227904369,-0.43552515118117174,262.9317604697282,47.951155802979635
456,-1.0589569314503042,-260.23754113380795,-37.36135538939078,-45.41776598196441,15.139428019716519,-0.28408963088361594,262.92485010613336,47.95361558500251
457,-1.0841971471198886,-260.23105700353193,-37.37959168131634,-45.43281333987428,15.11193016474483,-0.1508223844320721,262.921708311892,47.94861787726484
458,-1.1141223132558968,-260.2271919417449,-37.40297216939268,-45.447475196852025,15.078130359260957,-0.03771774708222161,262.922000462368,47.94263183261424
459,-1.1482705003969944,-260.2258195432923,-37.43099257313818,-45.46875170990931,15.038705368601205,0.05340698143422115,262.9255231602171,47.942597887999966
460,-1.1860587922804615,-260.22698735406317,-37.4629895214149,-45.50380028685087,14.994409147228936,0.12094846465012973,262.93221961314913,47.955612903014725
461,-1.2267933337612047,-260.23091773240003,-37.49815976665673,-45.55959703281276,14.946070439999765,0.16355617570284464,262.9421833497121,47.98860760872481
462,-1.2696826084713937,-260.2379957927974,-37.535583523608686,-45.64260536911299,14.89458531169606,0.1801719564893104,262.9556498216411,48.048029371231145
463,-1.3138540117970556,-260.2487453647203,-37.574251422866325,-45.758465032288036,14.840904567920433,0.17006861923920966,262.9729767430576,48.139542770697844
464,-1.3583735884341788,-260.26379509920673,-37.61309502089116,-45.91171352749261,14.78601656246437,0.13288560570318303,262.9946152647254,48.267759603543404
465,-1.4022685585668426,-260.2838376508318,-37.65102091106685,-46.1055506471759,14.73092631253456,0.06865967610334239,263.02107487976235,48.43600867494036
466,-1.4445520206771145,-260.3095850379475,-37.686948125015626,-46.34165489407773,14.676632145757157,-0.022151203244023573,263.0528850783808,48.64615417376597
467,-1.4842490343751602,-260.34172297238723,-37.71984793045372,-46.62005854925585,14.624101289862244,-0.13865231129382743,263.0905563762539,48.898469498831155
468,-1.5204231503675771,-260.38086648204296,-37.74878465538872,-46.93908569482924,14.574245895185411,-0.27950621788465874,263.13454280704707,49.191571129982606
469,-1.5522023081275322,-260.42751874477875,-37.772955863554415,-47.2953548168723,14.527900945802092,-0.4429374003961547,263.1852075195201,49.52241458357301
470,-1.5788028508757168,-260.48203472703034,-37.79172988938751,-47.68384489072188,14.485805356641475,-0.6267480635266572,263.2427927454577,49.88635185823131
471,-1.5995503249496517,-260.5445908977091,-37.80467836658132,-48.09802136499028,14.44858728832939,-0.8283453472742663,263.3073950262775,50.27724733030219
472,-1.6138958850222371,-260.61516190620864,-37.81160122457395,-48.530016384069704,14.41675439079139,-1.0447795926141545,263.3789461847042,50.68764697797189
473,-1.6214275401581242,-260.69350470347865,-37.812541962160786,-48.97085592757753,14.390689350734364,-1.2727928227807108,263.4572001750478,51.10899411807898
474,-1.6218760104504302,-260.77915026655796,-37.80779174893592,-49.41072525065212,14.370650758097582,-1.508876171265972,263.5417257437703,51.531883484531946
475,-1.6151154337183944,-260.87140294058446,-37.79788174648012,-49.839263085329755,14.35677890885396,-1.7493347126609944,263.63190481393076,51.94634446516347
476,-1.6011594540233074,-260.96934738072866,-37.78356389451913,-50.24587453649324,14.349105775682524,-1.9903580458968697,263.7269366053168,52.34214368580629
477,-1.5801533410899347,-261.07186302294383,-37.76578134843225,-50.620052455399694,14.347568097568914,-2.2280949928610325,263.82584759645346,52.7090968938353
478,-1.5523628024258425,-261.17764584001816,-37.74563058979217,-50.95169722948689,14.352022418026664,-2.4587308277910207,263.9275073995471,53.037380195618915
479,-1.5181601166074423,-261.2852368369197,-37.72431757729233,-51.23142530506868,14.362260916478748,-2.6785654720258827,264.0306503803191,53.317831054502875
480,-1.478008177780273,-261.3930563695312,-37.70311011006977,-51.450857294294394,14.378026958389414,-2.8840910435176768,264.13390246141927,53.54222997484856
481,-1.4324430726357869,-261.4994430437932,-37.68328819061621,-51.60287718905348,14.399029365530609,-3.0720670686902594,264.23581216295656,53.70355444537848
482,-1.382055974841417,-261.60269575808854,-37.66609394398831,-51.68185503694475,14.424954453993653,-3.239591601400259,264.3348847003968,53.796197511027195
483,-1.3274753639592323,-261.7011173809493,-37.652682681741965,-51.68382645749149,14.45547495209806,-3.3841664745098834,264.4296178874291,53.816144328689404
484,-1.2693506745199188,-261.7930585101636,-37.64407692370248,-51.606623590639735,14.49025507356182,-3.503754917136363,264.51853857148586,53.76110125935993
485,-1.2083383639415326,-261.87695966802517,-37.641125435624,-51.449953457861206,14.52895132978885,-3.5968297938216884,264.6002382671538,53.630573453512184
486,-1.1450911028275033,-261.9513902402814,-37.64446938130396,-51.21542127341536,14.571209106747249,-3.662410790302269,264.67340660499497,53.42588849168867
487,-1.0802503821022176,-262.01508269030336,-37.654517339911884,-50.90649796400002,14.616655553412931,-3.7000890412982232,264.73686138238577,53.15016543254306
488,-1.0144423439340138,-262.0669611746773,-37.671430197004504,-50.528432984374085,14.664889857885244,-3.7100380162797015,264.78957448955526,52.80823052778744
489,-0.9482762522257178,-262.1061644089736,-37.6951160261542,-50.08811532336943,14.71547244161968,-3.6930099504576654,264.83069358044906,52.406482740112715
490,-0.8823449084532238,-262.132063099293,-37.72523438386452,-49.593887231039936,14.767914905367165,-3.650317668313028,264.8595597280664,51.95271387863439
491,-0.8172264315335721,-262.1442723069172,-37.76120912945309,-49.0553166040505,14.821672668484181,-3.5838022030856425,264.87572131256087,51.45588956983164
492,-0.7534869092997697,-262.1426588735912,-37.802248880704504,-48.482935182947614,14.87614213758451,-3.495787098544036,264.8789441504537,50.92589843785354
493,-0.6916833587779719,-262.12734374530675,-37.84737429178874,-47.88795078372625,14.930663901040571,-3.389020669566132,264.8692175930644,50.373277810080964
494,-0.6323662733708966,-262.09869891127636,-37.89545126908657,-47.2819427034211,14.984532877817122,-3.266607828603801,264.8467561874813,49.80892499236378
495,-0.5760808870357219,-262.0573387919244,-37.945228945968225,-46.676550181911814,15.03701562859652,-3.131933413348549,264.8119965626695,49.24380367488319
496,-0.5233662025487729,-262.0041061495814,-37.99538081748641,-46.08316428950064,15.087374288994564,-2.988579280388856,264.76558937650634,48.688655290086984
497,-0.4747509358843302,-261.9400528145692,-38.044547106725524,-45.5126336709055,15.134895928088108,-2.8402376730835184,264.708386326428,48.15372501128525
498,-0.43074598257339947,-261.86641569299695,-38.0913764085499,-44.97499407099743,15.178925661992803,-2.6906234393883914,264.64142239456305,47.64851144285649
499,-0.39183377082608006,-261.784588674693,-38.13456497725952,-44.47923051930871,15.218901605049105,-2.543387568568942,264.56589369766124,47.181547951738466
500,-0.3584556020992055,-261.69609115787426,-38.17289253162837,-44.033079596024386,15.254389684290608,-2.402034299656141,264.483131486019,46.760222155847806
501,-0.3309984467111044,-261.6025339245012,-38.20525396182289,-43.64287745275777,15.285116383127262,-2.2698437957918967,264.394572929975,46.390638404407994
502,-0.30978259944616904,-261.50558309332126,-38.23068676210187,-43.31345724316524,15.310997546735313,-2.1498021381127574,264.30172939257403,46.077526167609875
503,-0.2950513179011535,-261.4069229303635,-38.24839430873065,-43.04809735433193,15.33216146715448,-2.044540203548585,264.20615298482994,45.82419512181953
504,-0.2869632789046293,-261.3082184189461,-38.25776513529668,-42.84851947978169,15.348964583956901,-1.956282812464283,264.10940232660295,45.63253552344674
505,-0.28558843469732553,-261.21107859667177,-38.258388109178476,-42.71493343044836,15.361998285351703,-1.8868092772070408,264.0130085025487,45.50306047537411
506,-0.2909075547769304,-261.11702166984594,-38.25006303156173,-42.646123865944574,15.3720854956047,-1.8374261086247847,263.91844214676246,45.43498511895021
507,-0.3028153754242108,-261.02744284634406,-38.232805876546614,-42.63957285968848,15.38026605414061,-1.8089521920636447,263.8270824729054,45.42633667184317
508,-0.32112692836506346,-260.94358579513806,-38.20684781310902,-42.69161127977828,15.387770391558252,-1.80171631960829,263.74018902063057,45.474088503094315
509,-0.3455863597705693,-260.86651867040405,-38.172627374641436,-42.797591322111934,15.39598169377795,-1.8155666266197854,263.65887694841183,45.574311048248084
510,-0.3758773724764239,-260.7971156085642,-38.13077560775375,-42.95207224046945,15.406387556865871,-1.8498912396975602,263.58409674044026,45.72233235951646
511,-0.41163434018014705,-260.73604438660783,-38.08209465404579,-43.149011476302704,15.420522945808477,-1.903649273215039,263.51661906826797,45.91290150098024
512,-0.45245325309455453,-260.683760545467,-38.027530872290825,-43.38195400801248,15.439906924820852,-1.9754111664604936,263.4570252636399,46.14034878851789
513,-0.49790198577103584,-260.6405078925104,-37.96814410117409,-43.64421372044037,15.465976030160483,-2.0634071826976985,263.40570354629506,46.39873791630338
514,-0.5475297478077699,-260.60632503791055,-37.90507480146427,-43.92904181025434,15.50001732864538,-2.165582661096722,263.36285091471234,46.68200619284789
515,-0.6008757508517509,-260.58105750975386,-37.83951055373365,-44.229778568570275,15.543104215393981,-2.2796583344308523,263.32848046066687,46.98409034059589
516,-0.6574770516924888,-260.56437494664203,-37.772652865487764,-44.539986196132375,15.596037881676903,-2.403193773988152,263.30243374634665,47.299036493404294
517,-0.7168753656116825,-260.55579276604186,-37.705684710353225,-44.85356150345103,15.659297121318723,-2.53365190415816,263.284397705411,47.62109405962506
518,-0.7786225615521959,-260.55469750427943,-37.639738930448516,-45.16482835958551,15.732998755078041,-2.6684626050737332,263.27392528610216,47.9447939470334
519,-0.8422846218234564,-260.56037476659355,-37.57586772199104,-45.46861053000143,15.816870477715586,-2.8050836527663403,263.270458812647,48.2650122343509
520,-0.9074440403593582,-260.57203848053314,-37.51501383666539,-45.76028605005553,15.910237414071123,-2.9410575156673833,263.2733548593227,48.57702069548743
521,-0.9737008291245017,-260.58885998968367,-37.45798462007606,-46.035824510320545,16.012023145867126,-3.0740627386340473,263.2819093485925,48.8765256372788
522,-1.0406723790687018,-260.6099955589604,-37.405430280474,-46.291808635360304,16.12076545842874,-3.2019587919863928,263.2953816580833,49.15969635338908
523,-1.1079923896337758,-260.6346111041177,-37.35782767911894,-46.52544145672722,16.23464652587919,-3.3228233838123002,263.3130167452723,49.423184250098
524,-1.1753090843664327,-260.66190326462674,-37.31547052032362,-46.73454038748835,16.35153665852436,-3.434981367490934,263.33406454292316,49.66413351762159
525,-1.242283054635902,-260.69111617479166,-37.27846628879897,-46.917519678937914,16.469050096128935,-3.537024571155304,263.3577960360211,49.880184188889814
526,-1.3085852199032677,-260.7215535101508,-37.246739797610616,-47.07336303005642,16.584610747624083,-3.627822187964091,263.3835155816254,50.06946853427182
527,-1.3738954082287649,-260.75258576131836,-37.22004286279742,-47.201588440720876,16.695525367403075,-3.7065217996115805,263.41056935434506,50.230601939953324
528,-1.437901910876844,-260.7836532585954,-37.197969498369424,-47.30220766842106,16.799061471233674,-3.772541588587761,263.4383503481149,50.362669642496016
529,-1.5003021163464685,-260.8142660693712,-37.17997615401301,-47.37568274981264,16.89252729103968,-3.8255547397597223,263.4663009772346,50.46521081559174
530,-1.5608040557597016,-260.8440022290533,-37.16540669381245,-47.422881882471,16.973351158373106,-3.865467394441937,263.4939146823883,50.538201401903564
531,-1.6191284790247829,-260.87250564309994,-37.15352169875191,-47.44503654628105,17.03915782242756,-3.892391791467677,263.5207378117929,50.58203674707302
532,-1.675011022766873,-260.8994844965436,-37.14353117721505,-47.44370119863174,17.08783934239487,-3.9066164027741306,263.5463724833971,50.59751463494736
533,-1.7282041434823814,-260.92471042418606,-37.13462917167126,-47.42071632197315,17.11761838785889,-3.9085749284054043,263.5704804742812,50.58581886809731
534,-1.778478689534375,-260.9480182549113,-37.12602839055928,-47.37817509614658,17.127102077712284,-3.898815935985682,263.59278769801193,50.54850315624174
535,-1.8256251697782888,-260.96930590220876,-37.116992965257886,-47.31839351464175,17.11532488302947,-3.8779747071438857,263.61308858705576,50.4874747694523
536,-1.8694548986025499,-260.9885338893581,-37.10686765130761,-47.24388334140229,17.08177954811114,-3.846748529608877,263.63124964426873,50.40497714241187
537,-1.9098012756568834,-261.0057239885404,-37.095102174932045,-47.1573269004476,17.026435363726883,-3.8058763269129963,263.64721147109594,50.30357034371894
538,-1.9465215005018621,-261.02095647053767,-37.08126991580911,-47.06155230727408,16.949743422226128,-3.756123193436189,263.66098866539926,50.18610804245502
539,-1.9794989701421628,-261.0343655461368,-37.06508064297401,-46.959507411355176,16.852628732941543,-3.6982700770793593,263.6726671381264,50.05570934560394
540,-2.008646440066162,-261.04613277383584,-37.04638747856495,-46.854230490381724,16.73646933771385,-3.6331084937452576,263.6823986518173,49.91572372680504
541,-2.0339098557568347,-261.056478461658,-37.025188571995955,-46.748815716384414,16.603062858759813,-3.5614397942024825,263.6903926753808,49.76968731871808
542,-2.055272690467223,-261.0656513015035,-37.00162411695639,-46.6463716638641,16.45458122027509,-3.4840781837809685,263.6969058768903,49.62126915430632
543,-2.072760609195013,-261.07391659312975,-36.975969375968916,-46.54997163371629,16.293514617164945,-3.4018564291026574,263.7022296959008,49.47420650343323
544,-2.0864461901498945,-261.08154350986206,-36.94862432830126,-46.46259524579083,16.122606179395426,-3.315632983797815,263.70667652086297,49.33222919476582
545,-2.0964532397085223,-261.0887920639665,-36.920100436545724,-46.38706153382975,15.944779175576791,-3.226299189689595,263.7105651801566,49.198973666979164
546,-2.1029600364369103,-261.0959007790775,-36.89100483893702,-46.3259546346199,15.763058953856726,-3.1347853104851313,263.71420677188615,49.07788841762723
547,-2.106200762253379,-261.10307638946904,-36.86202208397926,-46.28154407710804,15.580492104279909,-3.0420643804244545,263.71789214053723,48.97213347951419
548,-2.106464449170405,-261.1104869127789,-36.83389345101348,-46.25570255824568,15.400065552519267,-2.9491531049602733,263.7218823289961,48.88447746553835
549,-2.104090902815647,-261.1182591371011,-36.80739397629607,-46.24982480067324,15.22462843196241,-2.857109307563938,263.7264030475148,48.817196442315876
550,-2.0994631956263676,-261.1264810856371,-36.78330744968162,-46.26475150878193,15.056819564768398,-2.767025702003546,263.73164375211826,48.77197929489569
551,-2.092996513323197,-261.13520949009694,-36.76239983996798,-46.3007025268519,14.899003195373806,-2.6800200671672108,263.73776142762387,48.74984427792818
552,-2.0851234833022154,-261.1444817162081,-36.74539190443679,-46.35722306964607,14.753215312783224,-2.597222155833256,263.7448886331938,48.751071137093994
553,-2.0762765712320967,-261.15433098801003,-36.73293211152642,-46.43314640684748,14.621122517598552,-2.519757842582902,263.7531448332665,48.77515260294578
554,-2.0668685325048233,-261.16480330499667,-36.72557130534357,-46.52657574968016,14.50399492451964,-2.4487310820684263,263.7626496319094,48.82076831168553
555,-2.0572721518067896,-261.17597423458307,-36.72374063614806,-46.63488743721977,14.402693997602046,-2.3852041750173294,263.77353633083646,48.885783402071084
556,-2.0478006666607054,-261.1879637091845,-36.727734160287326,-46.75475691444645,14.317675490962792,-2.330176650580922,263.7859641586174,48.96727323571553
557,-2.038690415946765,-261.20094694148895,-36.73769725411686,-46.882208379879486,14.249006878990985,-2.284562894504683,263.8001274638891,49.061574862579924
558,-2.030087273451174,-261.21515968870676,-36.753621681543855,-47.01268824241544,14.196397896160613,-2.2491686323018456,263.81626023608493,49.16436492645346
559,-2.02203816495669,-261.23089660104716,-36.775347853457,-47.141161618210674,14.159242132095393,-2.2246665697522237,263.834634771656,49.27076265308706
560,-2.0144884797244065,-261.24850230904144,-36.80257447610278,-47.26223010477514,14.136667095484771,-2.2115718243327405,263.85555416479866,49.3754554795391
561,-2.0072856837950943,-261.2683558878992,-36.8348752992144,-47.37026812217826,14.127589820700235,-2.210218098448213,263.87933920982,49.47284389971616
562,-2.00018902918291,-261.29084999578726,-36.87172203384337,-47.459574255073306,14.130774958184825,-2.2207356975818184,263.9063108705474,49.557201258410785
563,-1.9928849016071037,-261.3163662455176,-36.912511888877944,-47.524533239993744,14.144892327253407,-2.243032422275982,263.93676965085035,49.62284348837591
564,-1.9850070259030164,-261.34524842330586,-36.95659779585763,-47.5597835670927,14.16857107416283,-2.2767781403813943,263.9709732028801,49.66430318739188
565,-1.9761604290238086,-261.377775176543,-37.00331932268374,-47.560385248951526,14.200447871520323,-2.3213936240025195,264.009113506062,49.676502119443654
566,-1.965947747047632,-261.41413376275017,-37.05203240610757,-47.52198227457894,14.239207053924158,-2.3760441097204694,264.0512949340505,49.654916328636645
567,-1.9539962241173676,-261.45439631817203,-37.10213620590411,-47.440954638055345,14.283611213900434,-2.4396380169423675,264.0975144140549,49.595728601309744
568,-1.939983651279219,-261.49849984348964,-37.15309552852335,-47.31455554147447,14.332521516290564,-2.5108313039518015,264.14764464095657,49.49596391617546
569,-1.9236615409494882,-261.5462307719569,-37.20445743232724,-47.14103028360117,14.38490773242131,-2.588038022451756,264.201420999885,49.353604622670346
570,-1.9048740714159906,-261.5972146643884,-37.25586094197014,-46.91971429238078,14.439848683212702,-2.669447711560927,264.2584325770822,49.16768320378563
571,-1.883571835186831,-261.6509112923907,-37.30703935088687,-46.65110860228784,14.496524381248348,-2.753050287723745,264.31811744025714,48.938351466837865
572,-1.859820106402375,-261.7066151143434,-37.357815285133235,-46.336931715465994,14.554201640156656,-2.8366689629282402,264.3797622209703,48.666925753847345
573,-1.833801934463993,-261.76346097841,-37.40808931654006,-45.9801471477221,14.6122152313963,-2.9180014165990067,264.44250595735343,48.35590818990113
574,-1.8058166344782034,-261.8204349287102,-37.45782328633565,-45.584966040718136,14.669946784739121,-2.9946689682823098,264.50534825292755,48.00898407922834
575,-1.7762741824442088,-261.8763902687769,-37.50701965272232,-45.15682409197775,14.726803550184535,-3.064272906877552,264.5671621024713,47.630995385402365
576,-1.7456858206629666,-261.93006936734395,-37.55569824289504,-44.702331807833446,14.782198905060032,-3.124456511631249,264.62671206856805,47.227889897315286
577,-1.714651021412944,-261.9801317820781,-37.60387184689903,-44.22919681625566,14.835536181471184,-3.1729707440142514,264.68267858516333,46.80664530410999
578,-1.683840937950287,-262.0251889519391,-37.65152208620878,-43.74611684340879,14.886197095943292,-3.2077411894995063,264.73368883786986,46.37516716044763
579,-1.6539786051453178,-262.0638450571503,-37.69857686088031,-43.26264218076068,14.933535819225417,-3.2269336500823895,264.7783540042983,45.94215984384727
580,-1.625816395239793,-262.0947429242945,-37.74489045668802,-42.789007218585176,14.976879480315882,-3.229015837119318,264.81531189018693,45.516970238063315
581,-1.6001114932413996,-262.1166132614249,-37.79022713835611,-42.335931912229746,15.01553558347689,-3.212812833687188,264.84327337350476,45.10940501233881
582,-1.577600314980941,-262.12832507267444,-37.83424876116265,-41.91439574758855,15.048806423993451,-3.1775543250401683,264.86107059617194,44.72952387442102
583,-1.5589727954879262,-262.1289347686647,-37.87650662316058,-41.535388668298765,15.076010177834409,-3.1229119994057517,264.8677044704589,44.38741286633598
584,-1.5448473754935155,-262.1177312771272,-37.916437625076426,-41.20964526957196,15.096507965218755,-3.0490259379257902,264.8623888375667,44.09294341846041
585,-1.5357473792783565,-262.0942745063248,-37.95336495662347,-40.94737009569463,15.109735848674168,-2.956519126583043,264.84458868726165,43.8555242266519
586,-1.5320793418859047,-262.0584249509631,-37.98650388547878,-40.75796289685101,15.115240393609431,-2.846499366408724,264.8140503317294,43.683853863334754
587,-1.5341137771331628,-262.010362986818,-38.01497353312224,-40.64975313565061,15.112716081258652,-2.7205479192242223,264.7708222192445,43.58568231432536
588,-1.5419689900726035,-261.9505971832987,-38.03781559558121,-40.62975297363128,15.102042540253542,-2.580694379496089,264.71526585925426,43.56758945406942
589,-1.5555988134945138,-261.87996148864215,-38.054020718255614,-40.703437582259845,15.083319297950668,-2.42937760372609,264.64805681726335,43.634788015643494
590,-1.5747853619859788,-261.7996013737206,-38.062562640325005,-40.87456101992346,15.056895601825778,-2.2693930370861044,264.57017588518084,43.79095800070818
591,-1.5991377951973358,-261.7109491342425,-38.062439378807994,-41.14501508365538,15.023392879218767,-2.1038274011736475,264.4828905274613,44.038118716606185
592,-1.628097626852007,-261.61568875924786,-38.05271983630008,-41.51473741976838,14.983717642031213,-1.9359823871309978,264.38772678476056,44.37654368441154
593,-1.6609505233977606,-261.5157112009279,-38.03259352482245,-41.9816737191593,14.939063144324662,-1.7692896419817845,264.2864321416373,44.804722507197575
594,-1.6968440836648468,-261.4130614716175,-38.00142072169999,-42.54179702568881,14.890898848807714,-1.6072198606821377,264.18093039510205,45.319372405721865
595,-1.7348108855042077,-261.3098795261379,-37.95878025778584,-43.18918513078233,14.840947639216408,-1.4531891849477698,264.07327006894417,45.91550054493333
596,-1.7737960283045633,-261.2083371770084,-37.90451217831378,-43.916154905722074,14.79115155959437,-1.3104663735175803,263.96556820770735,46.58651659530217
597,-1.8126883591174874,-261.1105733572414,-37.838752695439,-44.7134504287232,14.743627518636927,-1.1820843246217678,263.85995147278646,47.32439331532837
598,-1.8503544922356505,-261.01863005336554,-37.76195920411294,-45.570479971323145,14.700614795211106,-1.07075945268818,263.75849651787297,48.11987134808015
599,-1.8856745961161214,-260.9343912949893,-37.674923659137136,-46.4755952871074,14.664416339627856,-0.9788221182765535,263.66317175586073,48.96270288253394
600,-1.9175787197956702,-260.8595276368302,-37.578773257921455,-47.41640514386904,14.63733585769484,-0.9081607713439858,263.57578276789593,49.84192733188731
601,-1.9450822341018517,-260.7954484090201,-37.47495803445346,-48.380113636367,14.621612576957657,-0.8601816864585815,263.4979235387709,50.746170747155354
602,-1.9673188995329558,-260.74326355562533,-37.36522554774155,-49.35387254767027,14.619355506074358,-0.8357851808927214,263.43093533255404,51.66395938164179
603,-1.9835702097617087,-260.7037562740503,-37.251583365394055,-50.325136008750825,14.632478944664257,-0.8353581306119094,263.37587449532776,52.584036772242335
604,-1.9932899426356894,-260.67736712226196,-37.13625059166678,-51.282005101843694,14.662640955265797,-0.8587816038181293,263.33349001256613,53.49567305293497
605,-1.9961231484464195,-260.66418986093817,-37.02160024848113,-52.213549995820514,14.711186433145661,-0.9054516763443685,263.30421133601646,54.38895507975122
606,-1.9919189949385074,-260.6639789907729,-36.91009477490937,-53.11009774934239,14.779096295677677,-0.974311073638508,263.2881467577156,55.25504638231301
607,-1.9807369339523064,-260.67616861916724,-36.80421724328794,-53.96347506173683,14.866944155155744,-1.0638891885333501,263.28509233189743,56.08640696238739
608,-1.9628456405535981,-260.69990184491587,-36.70640112552757,-54.76719693857132,14.974861626501463,-1.1723481568283907,263.2945509355695,56.87696448567138
609,-1.9387142590684499,-260.7340692882367,-36.618961469187475,-55.51659439247713,15.102513179964726,-1.2975329443647465,263.3157605068418,57.622230394075196
610,-1.9089957992940623,-260.77735485459914,-36.54403000225721,-56.2088768383415,15.24908123474121,-1.4370237618105048,263.3477299229528,58.31935683702304
611,-1.874503062848726,-260.8282864601502,-36.48349605866781,-56.84312766636547,15.413262034837562,-1.5881895176047092,263.3892805419638,58.96713299139566
612,-1.8361781126681698,-260.88528930254824,-36.43895461679467,-57.42023444722316,15.593272744643771,-1.7482413560136556,263.4390912123178,59.56592216973184
613,-1.7950568654838077,-260.9467392503573,-36.41166241258112,-57.94275816172212,15.786870123604269,-1.914285557145802,263.4957445019622,60.117543923365524
614,-1.7522307720259802,-261.0110139683836,-36.402502994815144,-58.41474855446797,15.991381068393542,-2.0833752467282602,263.55777193119195,60.6251079350712
615,-1.7088076778952204,-261.0765395470706,-36.411961519681576,-58.84151498602038,16.203745227393966,-2.2525605668012854,263.6236961328424,61.09280866693277
616,-1.6658738250584288,-261.14183080181186,-36.4401098892599,-59.229363824568146,16.420569743149784,-2.418937213007048,263.69206822885815,61.52569130003856
617,-1.624458656459749,-261.2055240982174,-36.486602575186055,-59.58531438881353,16.638195877919173,-2.5796934489814243,263.7614993558651,61.929400364662285
618,-1.5855037294277052,-261.26640238487613,-36.550683264447244,-59.9168057677182,16.852776778813297,-2.7321557372463277,263.8306860574511,62.309922635200756
619,-1.5498366570811135,-261.32341280614105,-36.63120235505511,-60.23140659911743,17.06036500128084,-2.8738329627015795,263.8984299257394,62.673335461464475
620,-1.5181506100605404,-261.37567763114384,-36.72664525085436,-60.5365391612285,17.25700775639674,-3.0024589719129575,263.9636522196722,63.02557082938917
621,-1.4909896114128214,-261.42249927512086,-36.83517126925885,-60.839227968893184,17.438847271040675,-3.116032921344048,264.0254042035164,63.37220416523537
622,-1.4687396886049497,-261.46336007252245,-36.954662684056245,-61.145881527739775,17.602223197417036,-3.2128567721126164,264.0828737889101,63.71827529131582
623,-1.4516258366011383,-261.4979173927922,-37.082782884686175,-61.462114045204046,17.74377372626629,-3.2915691917468366,264.13538891761135,64.0681470845823
624,-1.4397145990578242,-261.5259947842033,-37.217041857208336,-61.79261180040143,17.860531975657906,-3.351175103097105,264.1824181061317,64.42540536147258
625,-1.4329218731388285,-261.5475700391876,-37.35486637588534,-62.14104665114897,17.95001430872845,-3.391070112539379,264.22356866545636,64.79280141195174
626,-1.4310253575584102,-261.5627612085019,-37.49367172382108,-62.51003694756709,18.010297421217395,-3.4110590070834594,264.2585831622978,65.17223654872322
627,-1.4336809855477595,-261.57181147997477,-37.63093160249142,-62.90115402299802,18.040081332402654,-3.411367430830225,264.28733455557335,65.56478611530227
628,-1.440442724381381,-261.5750734931487,-37.764243093897186,-63.31497047184071,18.038735852590438,-3.3926457925025026,264.30982012834517,65.97075865073114
629,-1.450785195119342,-261.572993267325,-37.891383964293034,-63.751144643998096,18.00632869085065,-3.3559644851261874,264.3261540033207,66.38978438467583
630,-1.464128593453988,-261.5660936489471,-38.01036017248575,-64.20853431796152,17.94363404832923,-3.302799641367084,264.336557839748,66.8209260403067
631,-1.4798653527118837,-261.5549570857727,-38.11944217939255,-64.68533151453181,17.85212123666997,-3.235008871050769,264.34134931407186,67.26280417383789
632,-1.4973878654450548,-261.5402075973129,-38.21718953560568,-65.17920995353744,17.733923526322158,-3.154796661483315,264.34092817185046,67.71372903063167
633,-1.5161163457710525,-261.52249200904674,-38.30246413755859,-65.68747671675752,17.5917880742936,-3.0646693199779147,264.3357599628261,68.17183112991616
634,-1.5355255857591585,-261.502460783094,-38.37443333748948,-66.20722020821646,17.42900841638472,-2.9673795384546295,264.3263579437687,68.6351834601751
635,-1.5551690437277272,-261.48074900595594,-38.43256465950771,-66.73544744975794,17.249341595675542,-2.8658609661156227,264.31326393671065,69.10190922692135
636,-1.5746985983361859,-261.45795821972905,-38.47661414278073,-67.26920507076179,17.05691247326534,-2.763153663224852,264.2970290913583,69.5702704903733
637,-1.5938785432913163,-261.4346397976763,-38.50661026360191,-67.80567997005018,16.85610811866619,-2.662321940843064,264.27819550657966,70.03873468557771
638,-1.6125928800237828,-261.4112804661328,-38.52283504465048,-68.34227739690347,16.65146546347682,-2.566366746979821,264.2572795225627,70.50601779696991
639,-1.6308454600892124,-261.38829037927155,-38.52580353562054,-68.87667591917327,16.447555676337526,-2.4781353375467736,264.23475724372537,70.97110468145506
640,-1.6487529440532447,-261.36599395441044,-38.51624252640617,-69.40686027189143,16.248868954964607,-2.400231431429184,264.21105260989464,71.43324855048186
641,-1.6665309396666568,-261.3446235956885,-38.49506912560962,-69.93113437604428,16.059703532351385,-2.3349293613437956,264.18652822184345,71.89195287825035
642,-1.6844740829063662,-261.3243164937403,-38.463369592111555,-70.44811791213063,15.88406256034749,-2.284095838209327,264.16147915377536,72.34694000532228
643,-1.7029311722079348,-261.30511477205107,-38.42237858163129,-70.95673071274817,15.725562136577347,-2.2491228054330734,264.1361300403788,72.79811143633829
644,-1.7222767310729592,-261.286969200746,-38.373458881595354,-71.45616981443959,15.58735312817922,-2.2308744891231567,264.11063567135784,73.24550521555197
645,-1.7428805940172443,-261.26974643880004,-38.31808166780764,-71.94588417898392,15.47205871474818,-2.2296512138811466,264.0850850715602,73.68925572855805
646,-1.7650772913382706,-261.2532393604452,-38.257807137939295,-72.42555181524725,15.381728830060718,-2.2451719095301486,264.0595086242858,74.12956080475247
647,-1.7891370859291746,-261.23717964567595,-38.19426513530636,-72.89506333856859,15.317811994954234,-2.276576496715597,264.0338873913827,74.5666601302819
648,-1.8152404370304964,-261.22125163857885,-38.12913534260757,-73.35451498859835,15.28114440645672,-2.322448495328453,264.0081636046657,75.00082781796483
649,-1.8434574265136119,-261.2051065607667,-38.06412687966273,-73.80421292751882,15.271955554827608,-2.3808572650227364,263.9822514213761,75.43238064998992
650,-1.8737332868702423,-261.1883764484177,-38.00095748778246,-74.24468941102187,15.289889083172309,-2.4494183365910382,263.9560473626968,75.86170216080511
651,-1.9058806364782162,-261.1706875306262,-37.94133270369946,-74.67673026666425,15.33403714318502,-2.525369425348357,263.9294402281774,76.28928147334054
652,-1.939578447452208,-261.151673041154,-37.88692544352095,-75.10141204374872,15.402986206269164,-2.605658998346508,263.9023205486595,76.71576467064003
653,-1.9743772923793306,-261.1309855449334,-37.83935628927544,-75.52014619131292,15.494872164894325,-2.687043715193527,263.87458970595065,77.14201545417563
654,-2.009710149619535,-261.1083087400066,-37.80017461585969,-75.93472671337935,15.607442531267992,-2.7661906944064474,263.8461687025903,77.56918093274041
655,-2.0449079934359724,-261.083368474277,-37.77084062361027,-76.34737707592161,15.738123539194333,-2.8397804224206795,263.8170063338761,77.99875772021612
656,-2.0792194602736607,-261.0559425995763,-37.75270836998929,-76.76079183756586,15.884089975599894,-2.904606270567671,263.7870864019054,78.43265323539312
657,-2.1118339508478887,-261.0258693900139,-37.74700994684121,-77.17816859507019,16.04233565217459,-2.9576670117199373,263.75643372128815,78.87323725040416
658,-2.141907531466835,-260.9930544662465,-37.75484095357003,-77.60322633382658,16.20974262169188,-2.9962493527739817,263.7251188772535,79.32337929313576
659,-2.168590929917857,-260.9574762884246,-37.77714735448572,-78.0402070740811,16.383147573486784,-3.0179981956957302,263.69326180535717,79.78646839563473
660,-2.1910588037279686,-260.9191902501766,-37.814713693962936,-78.49385870470273,16.559404274627205,-3.0209730072123833,263.661034213092,80.266412784525
661,-2.2085393246993164,-260.87833132956257,-37.868152518410774,-78.96939797135464,16.73544135872814,-3.0036893050066524,263.62866076819637,80.76761828581267
662,-2.2203430213794335,-260.83511522566374,-37.937894801168106,-79.47245362135153,16.908315108438682,-2.9651449132924736,263.59641894238916,81.29494533757978
663,-2.2258897930348516,-260.7898379029603,-38.024181262347334,-80.00899063093861,17.075257097202872,-2.9048313194174824,263.5646374058425,81.8536454925002
664,-2.2247330636829834,-260.74287339549346,-38.12705471466447,-80.5852171765651,17.233716660158503,-2.822731107485154,263.53369283318386,82.44927907095243
665,-2.2165801728745147,-260.6946695958502,-38.24635380561808,-81.20747647648402,17.381398161859863,-2.7193029784750338,263.5040048929683,83.08761611018942
666,-2.201308278283061,-260.6457416932644,-38.381708578900096,-81.88212582250013,17.51629292396095,-2.5954562614647205,263.47602914393485,83.77452294527072
667,-2.178975227486266,-260.59666302849325,-38.53253814189427,-82.61540516661707,17.63670550802649,-2.4525170632634223,263.4502476483072,84.51583678189583
668,-2.1498250185874723,-260.54805335999635,-38.69805061909634,-83.41329768090988,17.741273902774854,-2.2921882682318966,263.4271573249017,85.3172306511561
669,-2.1142876258775485,-260.50056476901113,-38.87724566525962,-84.28138485537977,17.828983101185305,-2.116505486795863,263.40725631137235,86.1840712666793
670,-2.0729730878061114,-260.4548655940891,-39.06892005690476,-85.22469893433113,17.899171552172852,-1.927790817741117,263.3910288029575,87.12127253049249
671,-2.026659776476807,-260.41162286974856,-39.27167708973868,-86.24757580230994,17.951530001010255,-1.7286060223429227,263.37892894888665,88.13314773682946
672,-1.9762767373584775,-260.37148379160385,-39.48394050336896,-87.35351184170837,17.9860923305806,-1.5217064568418206,263.3713644336059,89.22326393814356
673,-1.9228800588565231,-260.33505680745276,-39.70397337393668,-88.54502879307921,18.003218274936568,-1.3099968499726389,263.3686804054038,90.39430248208679
674,-1.8676234913000007,-260.302893041145,-39.92990195243718,-89.82355113226016,18.00356834226342,-1.0964896974873861,263.3711444542984,91.64793029034459
675,-1.8117239502724498,-260.2754687867198,-40.15974391580285,-91.18930073517961,17.988071864165928,-0.8842666827015531,263.3789332975795,92.98468681418558
676,-1.7564230438278512,-260.25316967482064,-40.39144002996209,-92.6412135006813,17.95788959452015,-0.6764431827627752,263.39212162967357,94.40389159917616
677,-1.7029462962679556,-260.2362768884066,-40.62288789480509,-94.17688216207551,17.914372584993824,-0.47613563640622386,263.4106733230388,95.9035770131507
678,-1.6524622078185973,-260.22495568004314,-40.85197635260118,-95.79252884983609,17.85901917490863,-0.2864313251857822,263.43443503144596,97.4804500476842
679,-1.606043529528619,-260.2192465036648,-41.076619310142,-97.4830101606965,17.79343191662495,-0.11035992514753085,263.4631323323671,99.12988629683855
680,-1.5646329897866065,-260.21905920148555,-41.2947880705647,-99.24185657220846,17.71927614455943,0.04913395552226648,263.49636872200034,100.84595828475466
681,-1.5290151926448148,-260.2241707251451,-41.504541696393105,-101.0613470370816,17.638241692738667,0.18921804411261967,263.53362787568364,102.62149927796813
682,-1.4997957457060542,-260.23422680245545,-41.704055341916664,-102.93261853345919,17.55200899747521,0.3072001200341895,263.5742795789449,104.44820261844872
683,-1.4773881286512134,-260.2487478514149,-41.89164680364509,-104.8458092403815,17.462220515707244,0.4005566144989846,263.6175896693602,106.31675545886148
684,-1.462008455800037,-260.2671393071206,-42.065801688705655,-106.79023281056034,17.370458038686362,0.4669623511649779,263.662734214002,108.2170045308564
685,-1.4536779872356038,-260.2887063393375,-42.225197629670966,-108.75457991458566,17.2782260655451,0.5043215446739501,263.7088179621953,110.13815021735967
686,-1.4522328622870355,-260.31267267782016,-42.36872791366031,-110.72714194366695,17.186940948821633,0.5107999983296692,263.75489684332126,112.06896384633771
687,-1.45734008908393,-260.33820293916796,-42.495524681841694,-112.69605068285527,17.097925116578708,0.48485816447055885,263.800003924854,113.99802198823038
688,-1.468518466138588,-260.36442756905393,-42.604981450564864,-114.64952703610594,17.012405403884305,0.4252843408484217,263.8431779041394,115.9139507675412
689,-1.4851629222040015,-260.3904694334233,-42.69677421431817,-116.57613147791794,16.931514438904493,0.3312268432540055,263.8834930490421,117.80567277780875
690,-1.5065707232184682,-260.4154712093594,-42.77087997837514,-118.46500873227909,16.856294098878188,0.20222364211919935,263.92008955120247,119.66264902351413
691,-1.5319680869616574,-260.4386228400073,-42.827591325485095,-120.30611918366203,16.787700186723317,0.038227782223804005,263.9522033283292,121.47510833402221
692,-1.560535963398884,-260.4591882616475,-42.867525564467854,-122.09044970960313,16.726607593312565,-0.16037305868926516,263.9791942480296,123.23425689279361
693,-1.5914340457040455,-260.47653041275225,-42.89162711914603,-123.8101970189943,16.673815275350474,-0.3927443309640008,264.0005715693132,124.93246092433758
694,-1.623822415927659,-260.49013335838725,-42.90116206490879,-125.45891720884089,16.630050403953078,-0.6576008959958692,264.0160152654534,126.56339620723219
695,-1.6568805766504648,-260.49962036680165,-42.89770410642388,-127.03163612956008,16.595971047032037,-0.953212753658655,264.0253919595817,128.12215895167685
696,-1.6898239671894166,-260.50476698738635,-42.88311178888828,-128.52491628555256,16.57216678813538,-1.2774208340374105,264.02876449720895,129.60533371125518
697,-1.721918339945269,-260.5055084955646,-42.8594972333566,-129.9368773808091,16.559156815687363,-1.62766312621749,264.02639457531274,131.0110153856273
698,-1.7524924742271808,-260.50194137421784,-42.829187079092456,-131.2671692101636,16.5573852568316,-2.0010110221528508,264.0187382124049,132.33878397736942
699,-1.7809496222628916,-260.49431876058634,-42.7946766264756,-132.51689737644108,16.567213844781577,-2.394215336645682,264.0064341496695,133.5896325681977
700,-1.8067779093281262,-260.48304005825037,-42.75857846279979,-133.6885042820877,16.588912360022917,-2.803761063161407,263.9902855855831,134.76585097196266
701,-1.8295597017618956,-260.468635260689,-42.72356707064422,-134.78560993825195,16.62264765071936,-3.2259295902524006,263.97123602190527,135.87086963934513
702,-1.848979709204613,-260.45174489724343,-42.692320997677236,-135.81281919212785,16.66847236347334,-3.656866895362209,263.9503403688263,136.90907046547295
703,-1.8648313632883537,-260.4330967233488,-42.66746419171898,-136.7755038008028,16.726314705118394,-4.092656166425055,263.92873266687513,137.8855729831568
704,-1.8770209152663857,-260.41348026384384,-42.65150821016666,-137.67956922188708,16.79597054910834,-4.529393294343469,263.9075917853459,138.8060058488458
705,-1.8855687134425128,-260.39372019991293,-42.646797140657405,-138.53121693718725,16.877099035981615,-4.963263610135349,263.888106359951,139.6762744386491
706,-1.8906071942130394,-260.37464950160427,-42.65545698320998,-139.33671349716718,16.969222568347117,-5.390618076572136,263.8714401321585,140.50233569830817
707,-1.8923752655584147,-260.3570831583707,-42.67935083323515,-140.10217721996514,17.07173179476323,-5.808046966074414,263.8586987420671,141.28999108874538
708,-1.8912090214679729,-260.3417932941173,-42.72004069164115,-140.83339257123637,17.183895828498287,-6.2124489465245665,263.8508988855497,142.044707513871
709,-1.8875290675267773,-260.3294863487848,-42.77875646924221,-141.53566068918207,17.30487758163396,-6.6010934614041155,263.84894060767726,142.77147451251022
710,-1.8818250850113818,-260.3207828873752,-42.856372847366906,-142.21369234527495,17.4337537096812,-6.971674312025097,263.85358340456344,143.47470378401755
711,-1.8746385335738858,-260.3162004810604,-42.95339482997778,-142.87154696657743,17.56953824853699,-7.322352438584544,263.8654267226368,144.15817441827954
712,-1.8665445390274646,-260.31613997806085,-43.06995273443131,-143.51261842550602,17.711208643912176,-7.651786074289684,263.884895308351,144.8250242578419
713,-1.858134049993645,-260.32087531821503,-43.205806971828466,-144.13966543881511,17.857732633349986,-7.95914671718587,263.9122296383206,145.4777849561108
714,-1.8499972951097436,-260.3305468830143,-43.360362481944016,-144.75488187934386,18.0080943985558,-8.2441197180112,263.9474814212136,146.1184557857197
715,-1.8427093595477655,-260.34515830355997,-43.5326922946788,-145.36000024379047,18.161318509809668,-8.506888716411881,263.9905140270614,146.7486092401411
716,-1.836818243673981,-260.3645766928422,-43.72156938262962,-145.9564200161214,18.316490341263055,-8.748103705016531,264.04100768694303,147.3695200283298
717,-1.8328351444385411,-260.38853632997706,-43.925505650793646,-146.54535178797792,18.472771814658213,-8.968833209052393,264.0984693080543,147.98230825409274
718,-1.8312261645928853,-260.41664579626195,-44.142796597717464,-147.12796776248143,18.62941157509151,-9.170501908373073,264.1622466661271,148.58808742026628
719,-1.8324044574713763,-260.4483984237012,-44.371570068211355,-147.7055495785311,18.785749047152102,-9.354815849657564,264.2315465791687,149.1881082995821
720,-1.8367220171489547,-260.48318570987954,-44.60983772299463,-148.27962509783276,18.941212209354198,-9.52367802605829,264.3054564964179,149.78389050086923
721,-1.8444607921272143,-260.520313134464,-44.855548193097334,-148.85208682573835,19.095309266066888,-9.679097466354671,264.38296877780255,150.37733464405213
722,-1.855823348975305,-260.5590176262954,-45.10664101712858,-149.42528602128996,19.24761465216409,-9.823095121054756,264.46300677672457,150.9708094700495
723,-1.870923792344142,-260.59848580557116,-45.3611002084971,-150.00209830228712,19.39775001471946,-9.95760984630014,264.5444516735359,151.56720997326764
724,-1.8897799361597654,-260.6378720898729,-45.61700583452121,-150.5859585600005,19.545361031544637,-10.0844077222239,264.62616889242844,152.16998465851373
725,-1.9123077280121892,-260.6763158343341,-45.872581639936776,-151.1808650906237,19.690091173726383,-10.2049978174232,264.70703295294436,152.78313212217233
726,-1.9383186740637464,-260.71295686420376,-46.126236724981496,-151.79135487608403,19.831553800689154,-10.320557340075002,264.78594978361116,153.41116919152935
727,-1.9675206292465202,-260.7469489918083,-46.376599604945575,-152.42245379052048,19.96930427484051,-10.431868914357386,264.8618758032597,154.05907471128478
728,-1.9995219499692634,-260.7774713526987,-46.622543547864005,-153.07960707793447,20.102814058287144,-10.539272480940513,264.93383340666077,154.73221464518548
729,-2.0338387365629846,-260.8037376405755,-46.86320277894288,-153.7685966721003,20.23144896485156,-10.642634012461121,265.0009228468627,155.43625538762006
730,-2.069904755784299,-260.8250035033338,-47.09797976660249,-154.4954527365575,20.354453874679262,-10.741332833169142,265.0623307915027,156.17707297732872
731,-2.10708362281385,-260.840572394458,-47.32654419020704,-155.26636707796902,20.47094627164616,-10.83426883809951,265.1173359265637,156.9606661613717
732,-2.144682883325433,-260.8498000651563,-47.548824320483625,-156.08761572176022,20.57992089156368,-10.919890349319042,265.1653118967258,157.79308086072885
733,-2.1819696757894675,-260.85209774061514,-47.76499160324528,-156.965496922662,20.68026750012269,-10.996242748809205,265.2057277445337,158.68035251974908
734,-2.218187549413003,-260.84693397260946,-47.97543940112226,-157.9062893415391,20.77080329985217,-11.061037375114482,265.23814599276153,159.62847119875335
735,-2.252573713565035,-260.83383529233737,-48.18075708202102,-158.9162332460631,20.85032067845914,-11.111739432498593,265.26221868856635,160.6433722796137
736,-2.284375666369988,-260.81238609971047,-48.38170077998082,-160.0015355322626,20.917649996429592,-11.14567286051809,265.2776820628188,161.7309534486475
737,-2.312866074629956,-260.7822285856006,-48.57916209464531,-161.168397207279,20.971735976014337,-11.160139334686384,265.2843508059826,162.8971163064979
738,-2.3373550371883574,-260.74306370021986,-48.774135746206866,-162.42305982660534,21.011725119625122,-11.15254787416595,265.28211313581977,164.14782865340922
739,-2.3571992612564654,-260.6946541214517,-48.96768683446513,-163.771865379023,21.037060545673476,-11.120550912306653,265.27092771319997,165.48920135728747
740,-2.3718079977438835,-260.6368298373157,-49.160918015296474,-165.22132240466,21.047579769499432,-11.062182136366276,265.2508230725207,166.92757188563388
741,-2.3806458023078547,-260.5694964490238,-49.35493677295461,-166.77816988550313,21.04361036801298,-10.97599097977103,265.22189971379555,168.4695852535283
742,-2.3832324358493895,-260.49264578759875,-49.550823047843465,-168.44942984213583,21.02605819689264,-10.861168438556764,265.18433451802537,170.12226249664067
743,-2.3791405550863916,-260.40636807578096,-49.74959761828122,-170.2424396994291,20.99648286194737,-10.717658942272575,265.138386822524,171.89304691575705
744,-2.3679922092866024,-260.31086475125994,-49.95219167982274,-172.16485632557033,20.957155454568298,-10.546253348371307,265.08440539109665,173.78981923359254
745,-2.3494554361778115,-260.2064611403219,-50.15941803135917,-174.22462515965563,20.911094142959087,-10.348658709627765,265.0228355812222,175.82087440987488
746,-2.323242327470051,-260.09361825237977,-50.37194430997577,-176.42990999312212,20.86207405030596,-10.12754122480012,264.9542260964108,177.99485514042485
747,-2.2891097559469875,-259.97294291775034,-50.59026890220682,-178.78898163113595,20.814608886261244,-9.886539678145088,264.8792346973134,180.32063988142812
748,-2.246863571453046,-259.84519532278256,-50.81470040081426,-181.31006654290312,20.773902948567084,-9.630247676885784,264.79863212080954,182.8071862929682
749,-2.1963665925333755,-259.71129282760694,-51.04534161729367,-184.00115938618555,20.745773303056918,-9.364164063835817,264.71330331035557,185.46333394833667
750,-2.1375501954228406,-259.5723089267876,-51.28207916813643,-186.86980574578507,20.73654310841603,-9.094611957370592,264.6242450292412,188.29757278086234
751,-2.070428717830306,-259.4294664217581,-51.524579607759435,-189.9228634783973,20.752908121657665,-8.828627918731616,264.5325591150955,191.31778594927735
752,-1.9951153149080108,-259.28412429810396,-51.77229303813486,-193.16625269171388,20.801779389672546,-8.573823743238698,264.4394410340907,194.53097757822468
753,-1.911837552797925,-259.1377583000131,-52.02446501895986,-196.60470559894563,20.890106008286427,-8.33822426334808,264.34616386059736,197.94299716601896
754,-1.8209510985994741,-258.9919355746407,-52.28015729801696,-200.24152826593158,21.024682611642127,-8.130085293045394,264.2540581288292,201.55827333040963
755,-1.7229502719257095,-258.8482839426602,-52.538277359435355,-204.0783865611043,21.211946940517553,-7.957696481815073,264.1644880926124,205.37956994313353
756,-1.6184746622439223,-258.7084564359294,-52.797616191699454,-208.1151283486963,21.45777342202654,-7.829174491352089,264.0788249036552,209.40777751242328
757,-1.508311299540253,-258.5740918412129,-53.05689311477198,-212.34965305973063,21.76726914549897,-7.752252579922107,263.9984172045853,213.6417518359416
758,-1.3933919919056537,-258.44677213241926,-53.314805951784116,-216.77783821681186,22.14457890230195,-7.734073236476141,263.9245596595742,218.07821043805825
759,-1.2747854842177284,-258.3279779120534,-53.5700842933547,-221.39353032940585,22.592706042472873,-7.780990762198476,263.85846006613275,222.71169516592224
760,-1.1536841967625684,-258.21904337740597,-53.821543204938926,-226.18860493439823,23.113355757677844,-7.898390577323341,263.80120599430444,227.53460666126082
761,-1.0313856530617935,-258.1211128042412,-54.06813457273804,-231.1530976086934,23.706806992780205,-8.090531596056573,263.7537323338076,232.53731342549287
762,-0.9092692878930717,-258.03510089761676,-54.30899336771032,-236.27540471330232,24.371818502380993,-8.360417349362805,263.71679149632433,237.70833504397905
763,-0.788769855315657,-257.96165942795596,-54.54347639280315,-241.54254957790337,25.105573622034022,-8.709700664216378,263.69092814556967,243.034595970462
764,-0.6713488242416709,-257.9011522733649,-54.77119157147926,-246.94050687270072,25.903667151467456,-9.138625601055777,263.67646013786697,248.50174316931788
765,-0.5584649016900253,-257.85364032532175,-54.99201654064824,-252.45457508034988,26.760136394319634,-9.64600901625782,263.6734668527573,254.09451791484466
766,-0.4515444026226174,-257.8188768329492,-55.20610614200069,-258.06978434975525,27.667536931971092,-10.22926262181273,263.68178540478357,259.7971692348369
767,-0.35195190308353874,-257.796312944969,-55.413889217598815,-263.77132475521114,28.617062208693227,-10.884454852808963,263.70101459981333,265.593894037264
