time,ax,ay,az,gx,gy,gz,accmagnitude,gccmagnitude
0,-3.8754866118488662,-240.8111952506971,-112.07499768316394,-22.175432108576565,9.36600646762994,-4.869734150397804,265.64624216830873,21.64581263142852
1,-4.080566298466312,-241.21576802902408,-112.23826945961183,-18.27230143546256,10.951874475432179,-3.920902308352896,266.09052562289384,24.67928846970563
2,-4.2813472124217204,-241.60618096909056,-112.39696760477675,-13.865104843121806,12.562634240818252,-2.940376556700686,266.520343286605,28.090877809652447
3,-4.477522326718324,-241.9780391685952,-112.54789141255446,-8.979498865459318,14.182977639568033,-1.9373001982580318,266.9303232103073,31.866715356145512
4,-4.668898539896873,-242.32706550293375,-112.687961319834,-3.651575832424869,15.797278042116526,-0.9215976805873699,267.31524434739185,35.983914555283924
5,-4.8553875640028155,-242.6491930379521,-112.81429129197367,2.0721012173290103,17.389861563045738,0.0961431122953835,267.6701508482193,40.410253152623156
6,-5.036993920635983,-242.94065917658568,-112.9242559746218,8.13469133396815,18.945279111977445,1.1048011722792401,267.9904659430502,45.10409941524073
7,-5.213800695669997,-243.19809977634029,-113.01555055256576,14.469518873663054,20.448573765191828,2.0928639668492695,268.27210297696735,50.01460824238932
8,-5.385953909298367,-243.41864154393505,-113.08624140255989,21.000787792346365,21.885538306166893,3.0485792043398137,268.5115712793122,55.08221004972161
9,-5.55364638200184,-243.59999092013751,-113.13480590777164,27.64458436227126,23.24295824932413,3.9601158648654247,268.7060745736625,60.23940756107548
10,-5.717101811815967,-243.74051734232071,-113.1601602300009,34.31018063214726,24.50883615475902,4.8157337346163755,268.853599504943,65.41188649703969
11,-5.876559494872494,-243.83932818598777,-113.16167433811438,40.90164361913498,25.672593476015038,5.6039606289761785,268.95299152153336,70.51993562986783
12,-6.0322598096417925,-243.89633189580937,-113.13917406882827,47.31974499969875,26.725246520829153,6.313776179151963,269.00401481276873,75.48015982616998
13,-6.184430326766894,-243.91228499803384,-113.092930454299,53.46415256311728,27.659553309518127,6.934800439553388,269.0073924296445,80.20745654799461
14,-6.3332723098908,-243.8888180562069,-113.0236370735868,59.23586777640541,28.470128091724703,7.457484605217374,268.96482234361764,84.61721177881306
15,-6.478947566525314,-243.82843531237683,-112.93237677780792,64.53985352047052,29.15351986289169,7.873299775029492,268.8789651412573,88.62765538438629
16,-6.621566110874918,-243.73448280006608,-112.8205796766314,69.28777249701812,29.708250214263472,8.174917945429428,268.7533993087974,92.16229845111673
17,-6.761175691698717,-243.61108042100324,-112.68997460358557,73.40073066979981,30.1348042188452,8.356377368614378,268.5925408377078,95.15235643488424
18,-6.897754496605813,-243.46301556596418,-112.5425363549711,76.8118945838722,30.4355663542792,8.413222491578507,268.40152582182606,97.53904386441518
19,-7.031207933785999,-243.29559973030072,-112.38043097147913,79.46883408578176,30.61469318460097,8.342607851202931,268.18605824718975,99.27561435960845
20,-7.1613694526101055,-243.1144941868026,-112.20596144159585,81.33544236606849,30.677917472960452,8.143356661863216,267.95222944380345,100.32902193092754
21,-7.288004543108752,-242.92551419158048,-112.02151645411944,82.39330719080579,30.632285064322236,7.815968789199873,267.70631889869765,100.68110006085367
22,-7.410816915954457,-242.73442263137144,-111.8295248372004,82.6424442813369,30.485834563450005,7.362578381669791,267.45458745360975,100.32918888190562
23,-7.529456294155757,-242.5467244413568,-111.63241766745732,82.10134512243685,30.247237815771804,6.786866817208399,267.20307403745767,99.28617795396711
24,-7.643527644488726,-242.36747349307007,-111.43259867832786,80.80633097475685,29.9254245257987,6.0939403814436055,266.957406871815,97.57996694973458
25,-7.752601668234783,-242.20110356312088,-111.2324219901429,78.81024296501043,29.529216390571808,5.290183825161452,266.7226393452447,95.25237942651148
26,-7.856226104240748,-242.05129345263717,-111.03417496267976,76.180535763598,29.06699502050959,4.383101022844078,266.50311884213846,92.3575968182008
27,-7.9539371818804065,-241.92087320242575,-110.84006353645155,72.99687662403367,28.546424084331093,3.381152931799432,266.30239378788883,88.96020809663348
28,-8.045270481335827,-241.81177453770763,-110.65219774890707,69.34837725416492,27.974240258370916,2.293601301652094,266.12316084268053,85.13299026598318
29,-8.129770417006796,-241.72502517961811,-110.47257581235199,65.33059936508353,27.356120780356157,1.1303642378901892,265.9672512938674,80.95454253521807
30,-8.206997542665178,-241.66078389939705,-110.30306576772152,61.04247526569045,26.69662888120279,-0.09811310412523729,265.83565345152766,76.50689252618183
31,-8.276533005648856,-241.61841109947804,-110.14538409388422,56.58327478727458,25.99923278469709,-1.380972389606853,265.7285661036099,71.87317884437155
32,-8.337979829403336,-241.59656814335173,-110.00107094791679,52.049732747193396,25.26638938068968,-2.707042834739454,265.64547678985565,67.13549471127725
33,-8.390961212418684,-241.59333762827418,-109.87146216578677,47.53343049924814,24.499679989669712,-4.0649329245954515,265.58525790831135,62.37295592082533
34,-8.435116559979507,-241.60635640529475,-109.75765870690218,43.11850323021613,23.699982995238077,-5.443118205787619,265.5462735442436,57.66003581955064
35,-8.470096380623374,-241.63295346383333,-109.66049470196367,38.87972306389339,22.86766683509492,-6.830030405091545,265.5264903904649,53.06519175836251
36,-8.49555737885335,-241.6702857128958,-109.58050566093924,34.880987843543764,22.002787108363783,-8.214152571642108,265.5235871163658,48.64979209330842
37,-8.511159027331788,-241.7154659332474,-109.51789881435572,31.174227501356224,21.105273360978494,-9.5841237145033,265.5350578307311,44.467340427496424
38,-8.516562666220215,-241.7656784749994,-109.47252792584555,27.798724675700207,20.17509424035384,-10.92885459746978,265.5583065992255,40.562984245761356
39,-8.51143386248239,-241.81827952354388,-109.44387501772603,24.780833876806742,19.212393792424653,-12.237654139557955,265.5907311386914,36.97328808954883
40,-8.495448456789036,-241.87087993926932,-109.43104120849017,22.134073941520676,18.21759621141878,-13.500363483388805,265.6297947708289,33.726246509250394
41,-8.468302463304846,-241.92140977236,-109.43274839161803,19.85956146720219,17.191480779263586,-14.707492473812003,265.67308650852755,30.84150869616084
42,-8.42972574986333,-241.96816453329956,-109.44735296817655,17.946747888677564,16.13523247816639,-15.850351374732007,265.7183698147998,28.33078443224181
43,-8.3794991697071,-242.0098341143728,-109.47287235164482,16.37441920492663,15.050476328065296,-16.921169642231504,265.7636211010468,26.198399423277596
44,-8.317474487769259,-242.04551584996543,-109.5070243863742,15.111914504530345,13.939304524008772,-17.913193869494535,265.8070593216973,24.44196704603525
45,-8.243596020622144,-242.07471357444717,-109.5472790114785,14.120517296396448,12.804304740035775,-18.820758561928546,265.84716801531476,23.053143151215195
46,-8.157922476435798,-242.0973247195439,-109.59092051536476,13.35497267991524,11.64859560763275,-19.639325695042327,265.88271089327236,22.018431127496523
47,-8.060647220558632,-242.11361746510448,-109.63511785146025,12.765084096091636,10.475871814582755,-20.365491532280494,265.9127416866476,21.320006268267957
48,-7.952115216987037,-242.12419969512916,-109.6769999994665,12.297345798267868,9.290457217320643,-20.99696163767134,265.93660852495753,20.93653165143831
49,-7.832835158936779,-242.12998110840203,-109.71373332267667,11.896570714751897,8.09736049966644,-21.532497229738013,265.95395274776575,20.843941885943078
50,-7.703485691082294,-242.13212946755652,-109.74259813475042,11.507477337204762,6.902324712782988,-21.971837781848194,265.9647018379448,21.0161756000261
51,-7.564915046017706,-242.1320217972317,-109.76106199254654,11.076203194195596,5.711859838628565,-22.31560589659894,265.96905614731645,21.425841988056384
52,-7.418133748657793,-242.1311914279492,-109.76684743178278,10.551716236980642,4.533246663333282,-22.5652009134532,265.96746925925254,22.044810978017374
53,-7.264300204727971,-242.1312720761792,-109.75799207171272,9.887099191888861,3.374500976244415,-22.72268749574845,265.960622194921,22.84472075784517
54,-7.104699122333911,-242.13394053189427,-109.73289943528108,9.040685854224808,2.2442894370811777,-22.790684650738395,265.9493921972335,23.79740066540262
55,-6.940713109285288,-242.14085989049514,-109.69037943819879,7.977032633237815,1.1517920945768976,-22.77225935762976,265.93481742512085,24.875211844482898
56,-6.773788558276481,-242.1536255238306,-109.62967801171206,6.667713444464187,0.10651096644011507,-22.670827382812355,265.91805936287795,26.051312419785773
57,-6.605397875218827,-242.17371600525,-109.5504955064586,5.091931001354334,-0.881971376466911,-22.490062187741316,265.9003648734733,27.29985782071811
58,-6.437000870387622,-242.20245089692722,-109.45299346121529,3.236942137899792,-1.8042753448195603,-22.233811349322668,265.88302954299365,28.59614976529729
59,-6.270008424844575,-242.24095675052254,-109.33778932898709,1.0982984943482146,-2.6515393402709035,-21.90601885661653,265.8673634697845,29.916748989341006
60,-6.105751274191935,-242.29014207291317,-109.20593906564675,-1.3200934385195122,-3.415754242546009,-21.51065117307939,265.85466023092033,31.239567152949498
61,-5.945456076156145,-242.35068151613658,-109.05890803493392,-4.0060870883624276,-4.090105281581095,-21.05162507699757,265.8461695220229,32.54395281363669
62,-5.790230118633438,-242.4230091381087,-108.89853119808016,-6.939578205364583,-4.6693099398554905,-20.532735891020828,265.84307378387666,33.81078520654013
63,-5.64105524795161,-242.50732016944107,-108.72696384591605,-10.092946524205644,-5.1499416786508325,-19.957585551212606,265.8464688540691,35.02258786153958
64,-5.498790863993777,-242.60358034317053,-108.54662425661982,-13.431646925051092,-5.53073057343893,-19.329510802918914,265.85734836898087,36.16367170324272
65,-5.364185108604518,-242.71154156195385,-108.36012983786952,-16.914938454809718,-5.8128332154723035,-18.65151253069597,265.87659143769304,37.220314152735796
66,-5.237892704232991,-242.83076244422696,-108.17022865042269,-20.496737083663582,-6.000065323908764,-17.9261878669326,265.90495301914984,38.180976928633704
67,-5.120497396577023,-242.96063203632175,-107.97972857977288,-24.126575218415372,-6.099091229523438,-17.15566733528075,265.943056340675,39.036560854081216
68,-5.012536711186376,-243.10039477368665,-107.79142659272183,-27.750648228521964,-6.119564631187635,-16.34155985530947,265.99138657199813,39.78069122099788
69,-4.9145267202170535,-243.24917480082178,-107.60804042544004,-31.312925962175285,-6.074214883416619,-15.484908900461845,266.05028495249576,40.41002247118615
70,-4.826984640382858,-243.40599810633182,-107.4321448517321,-34.75630561198123,-5.978872820533668,-14.58616339947392,266.119942803771,40.92454651372387
71,-4.750447331515134,-243.56981148374837,-107.2661145015873,-38.02378129227128,-5.852430047118947,-13.645167038181517,266.2003952944146,41.32788522328376
72,-4.685484171739191,-243.73949787631452,-107.11207497217414,-41.05960522607967,-5.716725902517409,-12.661169373585018,266.2915152370386,41.627544784931054
73,-4.632703291897345,-243.91388807775834,-106.97186357226647,-43.810415574231186,-5.5963570188445,-11.632861541630769,266.3930074221805,41.835107845360604
74,-4.592750616185812,-244.0917690720628,-106.84700049335541,-46.226306907920154,-5.518405559261919,-10.558438300746264,266.5044040650082,41.966339264408134
75,-4.566301506161444,-244.27188960084615,-106.73867065585875,-48.261821330846004,-5.512083818647855,-9.435686751785,266.6250620062016,42.0411829151792
76,-4.554045092871126,-244.45296386561455,-106.64771604728162,-49.87684125574662,-5.608294840159761,-8.262100429665157,266.7541624298484,42.083630460413396
77,-4.5566616876274395,-244.6336744902122,-106.57463805317765,-51.03736854614647,-5.839111013913735,-7.035015733748286,266.8907139371534,42.12144806262245
78,-4.574794017852001,-244.81267585104143,-106.51960900794299,-51.716178769937926,-6.237175270140572,-5.751766008783177,267.03355969291414,42.18575316040134
79,-4.60901341914991,-244.9885986267443,-106.48249188703731,-51.89334334148017,-6.835032444355729,-4.409847143576563,267.1813890102456,42.31044035207793
80,-4.659782472977042,-245.16005604832657,-106.4628667334655,-51.556616082540486,-7.664401597493525,-3.0070874574078448,267.33275327302385,42.531462675445084
81,-4.727415855283331,-245.3256519556947,-106.46006215274714,-50.701683982400645,-8.755403334739045,-1.5418140192415366,267.4860856523016,42.88598175605033
82,-4.812041334821914,-245.4839904468044,-106.4731901126048,-49.33228452405576,-10.1357592256817,-0.013007470513072819,267.63972374286476,43.41140703814434
83,-4.91356293763251,-245.6336867084785,-106.50118234840726,-47.460193812872724,-11.82998305589943,1.5795620867064837,267.7919340920637,44.144350319576894
84,-5.031628273301267,-245.7733785907606,-106.54282678759105,-45.10509091774833,-13.858585699490412,3.2352245674070166,267.9409376120062,45.11952686571894
85,-5.16560189121223,-245.90173858306446,-106.59680240063635,-42.294304332749554,-16.237316825158643,4.952329745582081,268.0849349490035,46.368638257723994
86,-5.314546353693985,-246.01748597005667,-106.66171072142761,-39.06244627862219,-18.976467387755758,6.728200694151405,268.2221309229763,47.919274585280256
87,-5.477212589208738,-246.1193990428446,-106.73610213442696,-35.45093970560656,-22.08025687834633,8.559122061568488,268.35075717581446,49.79387440420022
88,-5.652041050255321,-246.20632734394405,-106.81849512306569,-31.50744149611567,-25.54632859802351,10.440362350158383,268.4690922957881,52.008779984584976
89,-5.837175079673461,-246.27720406194254,-106.90738702763676,-27.28516387599168,-29.36537477908198,12.366227414310666,268.57547894501545,54.57342294447623
90,-6.030487435686397,-246.33105886112708,-107.00125534253812,-22.842094922375193,-33.520911163894,14.33014076077972,268.6683378519789,57.48967169746836
91,-6.229620049878353,-246.3670315980521,-107.09854920460435,-18.240118763343357,-37.9892175982295,16.32474499118596,268.7461789155621,60.75136752147807
92,-6.432035971413182,-246.38438747458122,-107.19767162329526,-13.544036971160551,-42.73945727093395,18.342017864181894,268.80761009887016,64.34407071178327
93,-6.635081434629609,-246.38253417308349,-107.29695412572899,-8.820495022406757,-47.733982498323925,20.37339594191376,268.8513452227334,68.24503241589073
94,-6.8360554038740755,-246.36104146620468,-107.3946265401869,-4.136821571987038,-52.92882954581467,22.409898659844284,268.8762121326706,72.42340146878676
95,-7.032283873465157,-246.3196637094305,-107.48878537517098,0.4402066259646723,-58.274399071504185,24.442246047747165,268.8811629283977,76.84066882948214
96,-7.221196324677996,-246.25836537958776,-107.5773646299057,4.845655539116066,-63.71631255444472,26.46096436864548,268.86528787219197,81.45134499208585
97,-7.400401635583387,-246.1773492705953,-107.65811295078197,9.01775587880755,-69.19642870790769,28.45647564562249,268.82783411082653,86.20385800200485
98,-7.567760326234264,-246.07708616243212,-107.72858083907171,12.89922613574901,-74.65399750482986,30.41916926919497,268.7682295172762,91.04165155138043
99,-7.721449675198034,-245.9583440069115,-107.78612109613451,16.438561377672293,-80.02692319661904,32.339456382030185,268.6861110296316,95.90445427466163
100,-7.860018415400186,-245.8222141482112,-107.82790490667261,19.5912482309399,-85.2531018500123,34.20781024431184,268.58135607286385,100.72968317922377
101,-7.982428542234421,-245.67013181424048,-107.85095505122311,22.32086299196849,-90.27179391288014,36.01479802111971,268.45411505361056,105.45393666905507
102,-8.088082950460809,-245.50388795296658,-107.85219682181322,24.600007426513105,-95.02498873325273,37.75111119141441,268.30484244135306,110.01452654280838
103,-8.176838649881702,-245.32562946733833,-107.82852626210301,26.411036018475677,-99.45871635082135,39.40760285031626,268.13432358220325,114.35099439091942
104,-8.249005874884768,-245.13784526241335,-107.77689426394261,27.746530065286308,-103.52426261619972,40.975340274244914,267.9436943029611,118.40655661522244
105,-8.30533361157358,-244.9433364603544,-107.69440377282349,28.60947920712832,-107.17924685042084,42.44567997525838,267.73445072299984,122.12942438287153
106,-8.346982295427797,-244.74517055351114,-107.5784159390609,29.013140753903933,-110.38852664995275,43.81037006900717,267.5084474346998,125.47395058732467
107,-8.375484934249794,-244.54662077602558,-107.42665973426949,28.98056178597898,-113.12490171688168,45.061681428280544,267.26788309425126,128.40156531377056
108,-8.392698588618277,-244.35109317752642,-107.23733872842486,28.54376735600149,-115.36959732099925,46.19256528078081,267.0152732656322,130.8814736862244
109,-8.400748677182367,-244.16204450865138,-107.00922867684082,27.74263788885325,-117.11251765086251,47.19683111215941,266.7534109365725,132.8911038479023
110,-8.401968726479735,-243.98289405363198,-106.74176024645665,26.623517359897086,-118.35226920164669,48.06933536547961,266.48531542768524,134.41630640279132
111,-8.398837954966135,-243.8169322762423,-106.43508234908947,25.237608869474716,-119.09596377953105,48.80616895691578,266.21417062006304,135.4513185192277
112,-8.393918605224023,-243.66722903570644,-106.0901029035991,23.639224638480922,-119.35881920543385,49.404830644306124,265.9432538556186,135.99851552110826
113,-8.389794277652818,-243.53654439850743,-105.70850527611591,21.883962972087847,-119.16358315030703,49.864374214263655,265.6758576635784,136.06798029489335
114,-8.389009661132839,-243.42724556515586,-105.292740069431,20.026885868186664,-118.53981144091725,50.185520071804525,265.4152074614664,135.67692632446176
115,-8.394011132332546,-243.34123382799186,-104.84599327846341,18.12076863838102,-117.52303597662966,50.37072511029649,265.1643792510516,134.84901314061764
116,-8.407087010840044,-243.27988553255207,-104.37213298890867,16.214488144248588,-116.15385815538033,50.4242073739332,264.92622181843035,133.61359245690235
117,-8.430306065023546,-243.2440106208849,-103.87563766355204,14.351609619265153,-114.47700075774553,50.351923097918956,264.70328791591476,132.0049185615022
118,-8.465453263800296,-243.23383145753374,-103.36150959785611,12.569223536422388,-112.54034479695619,50.16149325105429,264.49777831263617,130.06134808210044
119,-8.513962805827294,-243.2489832882851,-102.83517734914076,10.897073062601205,-110.39396917173075,49.86207562747871,264.3115014736997,127.82454384719183
120,-8.576850081432267,-243.28853600366222,-102.30239088991785,9.356998722046404,-108.08920197453754,49.46417813609441,264.1458501150785,125.33868781901796
121,-8.654646109294568,-243.35103524831462,-101.76911298912322,7.962710072205366,-105.67768490312865,48.97941022851725,264.001794347578,122.64970123264303
122,-8.747339584616736,-243.4345597557092,-101.24140998284484,6.719875803741973,-103.21044770191607,48.42017266283887,263.8798899695008,119.80446719560696
123,-8.854332555405977,-243.53679123713852,-100.72534467198814,5.62650608211198,-100.73698843621709,47.79929054938767,263.78029981231236,116.85005181704227
124,-8.974415825264957,-243.65509306472663,-100.2268735260402,4.673586663544306,-98.30435753890818,47.12959997399027,263.702825728757,113.8329234631604
125,-9.105769500570553,-243.78659417620426,-99.75174970927658,3.845914956370151,-95.9562484172968,46.42350345638618,263.6469486907901,110.79817495105905
126,-9.245992616377135,-243.92827498688544,-99.30543283231752,3.123084001008898,-93.73210411973682,45.69251316822665,263.6118745016626,107.78875950845733
127,-9.392163558722583,-244.0770525218433,-98.89300589748058,2.48056052038683,-91.66625697421,44.94680255265548,263.59658278349315,104.84475721406955
128,-9.540930396841954,-244.22986238153493,-98.51909962667712,1.8908065940805805,-89.78712485652059,44.19478659186859,263.59987708470936,102.00269337487426
129,-9.688627677279102,-244.38373548092972,-98.18782415043505,1.3244000040182775,-88.11649259700928,43.44274887026761,263.6204340919215,99.29493304692718
130,-9.831414026335153,-244.53586775027227,-97.90270791619594,0.7511148541893636,-86.6689092463786,42.69453053498688,263.65685003700844,96.74917624545562
131,-9.96542330142664,-244.68368116993844,-97.666643723459,0.14093084578927997,-85.45123129901913,41.951292982748676,263.7076825146352,94.38807633950688
132,-10.086921232417382,-244.82487469121835,-97.48184199242071,-0.5350538519845643,-84.46233873527947,41.21136306900032,263.7714861240187,92.22900004243893
133,-10.19245954251745,-244.95746386154732,-97.349791621744,-1.3038249107768713,-83.69304537736323,40.47016708000252,263.8468406742792,90.28394187185849
134,-10.27902024689552,-245.07980838026486,-97.27122903161883,-2.1897820337805802,-83.12621819259972,39.720257679099774,263.93237116996175,88.55959960027563
135,-10.34414387664345,-245.19062733591846,-97.24611618887144,-3.214203917201432,-82.73711248089903,38.951436330871594,264.0267593796951,87.05761054604741
136,-10.386036445485596,-245.28900245458067,-97.27362854219513,-4.394849458556618,-82.49392190586755,38.150971829461426,264.12874740479094,85.77494180396819
137,-10.403650863486822,-245.3743702692736,-97.35215392044249,-5.745691800523977,-82.35853443458242,37.30391285666721,264.2371342729644,84.70442069854033
138,-10.396739221756736,-245.44650467767985,-97.47930366027967,-7.276777517799682,-82.28747758820442,36.393488507601546,264.3507671968504,83.83538479614403
139,-10.365873128364344,-245.50549186363494,-97.6519374128956,-8.994199635845751,-82.23302903228218,35.401585633054985,264.4685296992112,83.1544238738558
140,-10.312430316760144,-245.55169997784444,-97.86620292633428,-10.900170245370417,-82.1444616478815,34.309286662919746,264.5893291787488,82.64617989944394
141,-10.238547250597534,-245.58574623897135,-98.11759148252236,-12.993176261699242,-81.96938627407634,33.09744770920126,264.7120865739624,82.2941663059493
142,-10.14703941600234,-245.60846408096344,-98.4010088051334,-15.268200459026213,-81.65515090764144,31.747295278503422,264.83573052241707,82.08156564410582
143,-10.041293184037144,-245.62087243943506,-98.71086044122728,-17.716989502665992,-81.15025284264038,30.24102101883194,264.9591977199773,81.99196566167124
144,-9.925135159050587,-245.6241482290881,-99.04114993341904,-20.328351541417895,-80.40572033002498,28.562356787473217,265.0814400548297,82.00999794370583
145,-9.802686452573598,-245.6196018600551,-99.38558747782109,-23.08846801437514,-79.37642277384622,26.6971156919736,265.2014378042267,82.12184984442442
146,-9.678210080386624,-245.60865476506618,-99.7377062443309,-25.98120732788605,-78.0222728637217,24.633687585956448,265.3182172018709,82.31562868041055
147,-9.555959568616231,-245.5928176243589,-100.0909832353003,-28.988431398199616,-76.30928975339528,22.363479379977452,265.4308702992896,82.58156615992468
148,-9.440036052193355,-245.57366817131995,-100.43896148335168,-32.090289209694745,-74.21049874868507,19.881291602908266,265.53857516531957,82.91206004823
149,-9.33426002453433,-245.5528278165877,-100.77537044552153,-35.26549424920226,-71.70664943146855,17.18562333227088,265.6406147729283,83.30155861688365
150,-9.242062678326132,-245.53193656595062,-101.09424157726468,-38.491584957857654,-68.7867404555639,14.278898292524701,265.7363931410292,83.74630127272297
151,-9.16640043800355,-245.51262575459936,-101.39001626862583,-41.74516928314937,-65.44834532166233,11.167605831200914,265.82544736440906,84.24393580339503
152,-9.109694778460979,-245.49648810788443,-101.65764360683686,-45.00215600231616,-61.697739205329675,7.862351724554651,265.9074542025015,84.79303874317333
153,-9.07379786581539,-245.4850447836968,-101.89266575040384,-48.237976662950786,-57.54983225913561,4.3778153865999405,265.98223009495183,85.39257022755459
154,-9.059983117786738,-245.47970948641833,-102.09128898196352,-51.42780281119156,-53.027919581656796,0.7326120638905934,266.04972392651575,86.04129817103895
155,-9.0689585295772,-245.48175041351115,-102.25043876816156,-54.546763821701546,-48.16326205686868,-3.050939096095157,266.1100025357599,86.73722850418024
156,-9.100899549382557,-245.49225150188894,-102.36779752708246,-57.570171179240845,-42.99451533820828,-6.947137786858352,266.16322971756586,87.47707836271023
157,-9.155497498016745,-245.51207495972656,-102.4418243612037,-60.47375536610618,-37.56702629342423,-10.927310376768567,266.2096401337279,88.25582737676609
158,-9.23201911038304,-245.5418272803196,-102.47175668599998,-63.23392134428124,-31.932017312414448,-14.960294757877442,266.2495099825428,89.0663785155095
159,-9.32937270221553,-245.58183085001284,-102.45759439894013,-65.82802775044887,-26.14567923410865,-19.01299173108024,266.2831264692349,89.8993543965596
160,-9.446176629497176,-245.63210296139482,-102.40006799879606,-68.23469322147014,-20.268193538178885,-23.05096996932898,266.3107581393071,90.74304779701754
161,-9.580826065061029,-245.6923436358256,-102.30059281600235,-70.43413078537196,-14.362704077168912,-27.03910918122848,266.3326280628872,91.58353665114073
162,-9.731554654556865,-245.76193328211556,-102.16121202326498,-72.40850816562006,-8.494258117954377,-30.9422640282408,266.3488917261921,92.40496454684884
163,-9.896488295039314,-245.8399409377111,-101.98453116758019,-74.14232838878972,-2.728735878221202,-34.725929958541926,266.35962128017627,93.18997819990128
164,-10.073689073110867,-245.92514355269714,-101.77364663992284,-75.62282153377141,2.8682129476512466,-38.35689167564333,266.36479743564087,93.92030422684978
165,-10.261188280037477,-246.01605632122562,-101.53206998990198,-76.84033512573535,8.232208081791281,-41.80383558497444,266.36430970878354,94.57743938098324
166,-10.457008317766208,-246.11097342002785,-101.26364951760367,-77.78870788112307,13.301136546185973,-45.037909181055426,266.35796497453265,95.14342177530285
167,-10.659174122786085,-246.20801780592535,-100.97249027115714,-78.46560956574908,18.01609444900136,-48.03321271655915,266.3455035423071,95.60164586887132
168,-10.865715390497387,-246.30519806149732,-100.66287349432612,-78.87282891789125,22.322258988154246,-50.76721138755996,266.32662134478784,95.93768139641158
169,-11.07466135082151,-246.40046971268595,-100.33917667092528,-79.01649209664814,26.169678407939973,-53.221059508042906,266.30099635947164,96.14005610773124
170,-11.284030143664664,-246.49179806687326,-100.00579549730405,-78.90719596039403,29.51396915192737,-55.37983157196345,266.26831711161094,96.2009640956536
171,-11.491815025555606,-246.57721955331345,-99.66706925214034,-78.56004348784896,32.31691119224893,-57.23265850566976,266.22831109858924,96.1168653687382
172,-11.695969756178432,-246.6548988059107,-99.32721106061642,-77.99457253798813,34.54693464877226,-58.77277060886522,266.1807712230411,95.88894781544307
173,-11.894395583849287,-246.72317919857153,-98.99024450244137,-77.23457362263682,36.17949342242509,-59.997451559172404,266.12557873558114,95.52342946965241
174,-12.084932250012512,-246.7806250976727,-98.65994795710081,-76.30779716132176,37.19732453922574,-60.90791033355821,266.0627216746389,95.0316866370624
175,-12.265355276855859,-246.82605468375556,-98.3398080157439,-75.24555543199318,37.59059491137304,-61.50907987235982,265.99230830119023,94.43020142373001
176,-12.433381377217886,-246.8585628152959,-98.03298312649983,-74.08222868322093,37.356939855298634,-61.80935268572047,265.91457552193816,93.74032987294069
177,-12.586683134264783,-246.87753402502486,-97.74227828060837,-72.85468830193057,36.50139963873754,-61.820264362819906,265.8298927050725,92.98789875739362
178,-12.722913309266659,-246.88264626062988,-97.47013096459652,-71.60165241173543,35.03626143228015,-61.55613614802493,265.7387615284678,92.20264484606774
179,-12.839738460572402,-246.87386633169564,-97.2186078481191,-70.36299081323928,32.98081435966577,-61.033687492572625,265.64181251859856,91.4175151071417
180,-12.93488108709489,-246.8514382008454,-96.98941089472406,-69.17899679029826,30.361025011569943,-60.27162890696688,265.5397987951138,90.66784982913639
181,-13.006169150740854,-246.81586530395793,-96.78389102975935,-68.08964302306589,27.209140014940346,-59.29024466681394,265.43358736204107,89.99047308839394
182,-13.051591400805588,-246.76788806456935,-96.60306738395114,-67.13383776424448,23.563221319995066,-58.11097405724817,265.32414820844537,89.42271645990661
183,-13.069356367816269,-246.7084577466089,-96.44765039811567,-66.3486957527668,19.46661909099308,-56.7559989190607,265.21254153815863,89.00140251531795
184,-13.05795237879795,-246.63870779752932,-96.31806744344017,-65.76883634627804,14.96738668246743,-55.24784431542958,265.09990357221915,88.76181465922824
185,-13.016205660422356,-246.5599238402096,-96.21448986645028,-65.4257193461902,10.117642224451508,-53.60899822600225,264.98743145888193,88.73667938626129
186,-12.943333577138423,-246.47351341362867,-96.1368605225318,-65.34702719969471,4.972881827038879,-51.86155537516837,264.87636783204334,88.9551862217408
187,-12.838990248144347,-246.38097639489814,-96.08492102792145,-65.5561008449355,-0.4087496518717538,-50.02688971655444,264.7679854772906,89.44206954334038
188,-12.703302175482698,-246.28387676852518,-96.05823818371815,-66.07143552049956,-5.967222951527141,-48.12535980293533,264.6635724210232,90.21677525271782
189,-12.536892048034415,-246.1838160990977,-96.05622927048651,-66.90624243903825,-11.641414794494986,-46.1760512397978,264.564417589059,91.29273387722922
190,-12.340889440378033,-246.0824087697109,-96.07818608335728,-68.06808229247676,-17.369913340331355,-44.196560511853285,264.4717970003769,92.67676003051615
191,-12.116927604129783,-245.98125881830285,-96.12329759196649,-69.55857700186873,-23.091825971447992,-42.20282452383554,264.386960278269,94.36859612771906
192,-11.867125987664346,-245.88193810557516,-96.19067100770167,-71.37320679829351,-28.7475753347001,-40.20900008252633,264.3111171546728,96.36061578445411
193,-11.594058622150447,-245.785965629553,-96.2793509545884,-73.50120043189288,-34.27966883634972,-38.22739714780117,264.24542371165836,98.6376994208559
194,-11.300709106245664,-245.69478798558944,-96.38833643435838,-75.9255268125055,-39.633426754004,-36.2684688716838,264.1909682996566,101.1772912259006
195,-10.990413546812263,-245.60976109033402,-96.51659529646784,-78.62299640393927,-44.75765474618624,-34.340860128941024,264.1487572176108,103.94964277550264
196,-10.666793391366667,-245.53213328137568,-96.66307587487766,-81.56447991799972,-49.605247688277274,-32.451514383091315,264.1197002398701,106.9182441828897
197,-10.333680517882023,-245.46302988009407,-96.8267152889839,-84.71525003282103,-54.133713276255435,-30.60583635483703,264.10459600892403,110.0404386478435
198,-9.995037104067665,-245.4034393752688,-97.00644371276144,-88.03544893351467,-58.305605534111386,-28.807905165438168,264.1041173119269,113.26821073148145
199,-9.654872662608156,-245.35420149394471,-97.20118391336891,-91.48068060736962,-62.08886010119391,-27.060729613264066,264.11879635035393,116.54913285254683
200,-9.31716034141315,-245.3159974195821,-97.40984573264473,-95.00272230039693,-65.4570249217938,-25.36653432354603,264.14901022671717,119.82744872272266
201,-8.985754321502505,-245.289342252732,-97.6313159079753,-98.55034467001448,-68.38938174545704,-23.727063085374525,264.1949669694354,123.04526708077891
202,-8.664310012186114,-245.27457960501158,-97.86444447021123,-102.07022530451106,-70.87095574777803,-22.14388412133704,264.2566925259385,126.14383451907054
203,-8.356208786966178,-245.27187808396997,-98.10802961855804,-105.50793579741233,-72.89241270971593,-20.61868154937794,264.33401926919026,129.0648527704689
204,-8.064489143729881,-245.2812293442531,-98.36080327823254,-108.80897878942494,-74.44984568098702,-19.153517948763056,264.42657659592953,131.75180381458102
205,-7.791786202418931,-245.30244727877016,-98.6214195045844,-111.91984857097673,-75.5444560000583,-17.751054645663075,264.5337840767768,134.1512457345294
206,-7.540281223091728,-245.33516782441296,-98.88844758097467,-114.78908716787917,-76.1821369467111,-16.414718910088354,264.65484739284267,136.2140434577775
207,-7.311662430850301,-245.37884889857924,-99.16037112782432,-117.36830747034861,-76.37297198556371,-15.148810486971566,264.78875711522284,137.89650127080216
208,-7.107098145123281,-245.43277032567693,-99.43559393476464,-119.61315604214307,-76.13066317369908,-13.958543527951386,264.93429046074186,139.16136812932731
209,-6.927223234233356,-245.49603431435386,-99.71245274840439,-121.48419084603778,-75.47190846890246,-12.850023760959855,265.09001662306764,139.9786920785121
210,-6.772140189769459,-245.56756794464553,-99.98923693959222,-122.94765315313192,-74.41574911306829,-11.830164305085303,265.2543069981809,140.32650627662144
211,-6.641436289124235,-245.64612981956702,-100.26421464450807,-123.97611784730219,-72.98290984925333,-10.90654657534742,265.42535214711893,140.191335646704
212,-6.534217955879004,-245.7303230898922,-100.5356644441478,-124.54901116122142,-71.19515542107094,-10.087234955763549,265.60118718451093,139.56851915431452
213,-6.449162371397282,-245.81861631302164,-100.8019109897654,-124.65298843904972,-69.07468658346563,-9.380555252071451,265.7797263230543,138.4623471399007
214,-6.3845849060597875,-245.90937231440665,-101.061362439032,-124.28216621813974,-66.6435977071601,-8.794847507733383,265.95880587552614,136.88601552571782
215,-6.338519503224665,-246.0008838955412,-101.31254732224826,-123.43820309732311,-63.923415976632405,-8.338203867224347,266.13623366932336,134.86139939840047
216,-6.308808104844638,-246.09141431113073,-101.55414856862387,-122.13022362499531,-60.93473915267718,-8.018202045251513,266.3098419954504,132.41864845506296
217,-6.293194639230075,-246.17924005507942,-101.7850328751509,-120.37458016682767,-57.69698485891649,-7.841644690656892,266.47754101714526,129.59560734304145
218,-6.289418924867429,-246.26269354499527,-102.00427429884935,-118.19445043764959,-54.228259327110905,-7.814314463529923,266.6373698690287,126.43706599438572
219,-6.295305988685127,-246.34020361287452,-102.21117169561491,-115.6192733760188,-50.545347565357645,-7.9407538632429695,266.78754325550943,122.99384897308934
220,-6.308846714197139,-246.4103321413072,-102.40526019831438,-112.68403276445949,-46.66382023914952,-8.224077636288978,266.9264919816715,119.32175822373338
221,-6.328266401575562,-246.47180559994885,-102.58631721966519,-109.42840547282945,-42.59824563127554,-8.665823893446253,267.05289636117936,115.48038965234002
222,-6.352078664237661,-246.5235406009374,-102.7543635037678,-105.8957984716447,-38.362488513609975,-9.265847964398505,267.16571181762214,111.53184993443165
223,-6.379122987943362,-246.56466297724964,-102.90965960326007,-102.13230509893053,-33.970072322774634,-10.022260770601976,267.2641863183846,107.53940528791267
224,-6.408585131212165,-246.5945203400814,-103.05269791556358,-98.18561587656183,-29.434577243392607,-10.931411422191234,267.34786962627715,103.56609821690714
225,-6.4400002933026865,-246.61268849772793,-103.18419019563503,-94.1039219038364,-24.770044984064445,-11.987912096496094,267.4166146844637,99.67337096163023
226,-6.4732396471876115,-246.61897236670222,-103.30505037303446,-89.93484908656613,-19.991361302468754,-13.18470214605429,267.47057166303495,95.91973520688794
227,-6.508481503621758,-246.61340200628283,-103.4163725235601,-85.72445910934343,-15.114589685475556,-14.513147757521777,267.5101752233796,92.35952641829745
228,-6.546169021310235,-246.59622419981287,-103.51940392436487,-81.51634846209271,-10.157233864069028,-15.963173173782968,267.53612541394705,89.04177821751901
229,-6.586956878423139,-246.56788970017485,-103.61551330038064,-77.35087058669147,-5.138412671501303,-17.523419334558838,267.5493624129506,86.00924782426763
230,-6.6316495949337675,-246.52903602365674,-103.70615471331612,-73.264498959673,-0.07893749165068405,-19.181425692416074,267.5510352593738,83.29761803265957
231,-6.681134329467198,-246.4804656777796,-103.79282794855517,-69.2893413074747,4.998710627170754,-20.923830886945535,267.54246487418595,80.93489462617609
232,-6.736311147105062,-246.42311995623623,-103.87703650667484,-65.45280782700591,10.070500923558104,-22.73658786761563,267.5251020023468,78.94101086818888
233,-6.798024067708125,-246.35804878336313,-103.96024432517736,-61.77742987770844,15.111061523199451,-24.605188857196655,267.5004810424748,77.32764321514337
234,-6.866996547369542,-246.28637742327365,-104.0438322930932,-58.28082052337531,20.093964297082522,-26.51489518264677,267.4701710217118,76.09823520038441
235,-6.943775151848869,-246.20927120177572,-104.129055710412,-54.97576463245311,24.992070778482827,-28.45096654190792,267.4357253171773,75.24821992252572
236,-7.028684858262808,-246.12789975812674,-104.21700415301535,-51.87042386742538,29.777922251313733,-30.398883894077265,267.39863217623457,74.76542598249179
237,-7.121798696942467,-246.0434026528104,-104.30856553509446,-48.968640581948804,34.424156462126525,-32.34455999048939,267.36026848215516,74.63064716338434
238,-7.222923485804727,-245.9568582179834,-104.40439625873385,-46.270324130011964,38.90393362983675,-34.27453166052965,267.3218592808383,74.81835265827539
239,-7.3316023473803975,-245.86925726129323,-104.50489913911098,-43.77190304059269,43.19135536595768,-36.1761283817747,267.28444522516685,75.29751216216069
240,-7.447133561732749,-245.78148273194972,-104.6102103750763,-41.466826572280794,47.2618616202428,-38.03761248742751,267.24885944041534,76.0325085576837
241,-7.568604126274593,-245.69429588893485,-104.72019624603487,-39.34609913771406,51.09259269618734,-39.8482876353341,267.21571453161596,76.98411018675965
242,-7.694935302857941,-245.60832893179048,-104.83445949527447,-37.39883105074483,54.66270562208684,-41.5985737832574,267.18539961136133,78.1104748349707
243,-7.824936610280814,-245.5240835091327,-104.9523546556505,-35.612789264342254,57.95363662931458,-43.28004867704571,267.15808642676393,79.36815861251397
244,-7.9573642596992995,-245.44193413264182,-105.07301109019197,-33.97493249358127,60.9493041155443,-44.885457549926535,267.13374310378833,80.71310489223357
245,-8.090979918869666,-245.36213537997662,-105.19536237382712,-32.471916426753104,63.63624918449672,-46.40869417829267,267.1121538308045,82.10159122472389
246,-8.224605884200656,-245.28483181545218,-105.31818080208225,-31.090556456657545,66.00371354377295,-47.84475748772451,267.09294291014396,83.4911153927487
247,-8.357173227075625,-245.21006967552663,-105.44011611509309,-29.818237280853083,68.04365704484115,-49.18968844416007,267.07560184621826,84.84120513063367
248,-8.487760235398598,-245.1378094828247,-105.55973772822604,-28.643260721230018,69.75071927280587,-50.44049201701319,267.0595183472899,86.11413925850022
249,-8.615619390797814,-245.0679388711532,-105.67557967211707,-27.555125241601957,71.12213118417536,-51.595048734027166,267.04400621948145,87.27557097972283
250,-8.740192122444366,-245.00028508859702,-105.78618709577438,-26.54473295701211,72.15758378235887,-52.652019987009616,267.02833519421216,88.2950468822341
251,-8.861111635334929,-244.93462694838806,-105.89016282861513,-25.604522419609086,72.85906123392023,-53.6107509273903,267.0117599007254,89.14641778345204
252,-8.97819511885311,-244.87070636390516,-105.98621233786241,-24.728528065233498,73.23064577048504,-54.47117449881351,266.99354750229753,89.80813995056326
253,-9.09142739241465,-244.80823987358593,-106.07318542565692,-23.912369837818275,73.2783013878472,-55.23371981335936,266.97300379008846,90.26346743883367
254,-9.200938410659294,-244.74693059011358,-106.15011306532074,-23.153179093964408,73.00964297400849,-55.89922765434484,266.94949758795474,90.50053840393737
255,-9.306977049947834,-244.68648078936303,-106.2162378706086,-22.449469294597446,72.43369724082464,-56.46887540111902,266.9224831561785,90.51236032136192
256,-9.409883307305543,-244.62660502154466,-106.2710368814128,-21.800962023331074,71.56066176139954,-56.94411313314113,266.8915200394316,90.29670105673804
257,-9.510060577155125,-244.56704336763065,-106.31423562877548,-21.208380324968605,70.40166848542492,-57.32661208478707,266.85628965872917,89.8558945705538
258,-9.60794918463666,-244.50757439580138,-106.3458127633941,-20.67322206034953,68.96855820634731,-57.61822602226014,266.8166079924702,89.19657159327686
259,-9.704001954268518,-244.44802743316012,-106.36599488582202,-20.19752584084934,67.27367245415321,-57.82096554011729,266.7724338712422,88.32932677623234
260,-9.798662302396293,-244.38829377017967,-106.37524164129249,-19.783641182326384,65.32966904854086,-57.93698471123627,266.72387256995137,87.26833451357643
261,-9.892345153489295,-244.32833627523377,-106.3742216594712,-19.43401298740771,63.14936692949554,-57.96857892004469,266.67117445080373,86.03092575359862
262,-9.985420862351923,-244.268196731826,-106.36378046752405,-19.15098860661069,60.74562478136514,-57.91819206925843,266.61472847352417,84.63713766308867
263,-10.07820219498967,-244.20800016600887,-106.34490195099069,-18.93665381328935,58.131256376454935,-57.78843075429243,266.5550505211865,83.10924708072909
264,-10.170934205675804,-244.14795552516634,-106.31866518651243,-18.792702197766104,55.31898359786181,-57.58208253988304,266.4927666683432,81.47129746973883
265,-10.26378658388642,-244.08835225182446,-106.2861985449371,-18.720340750463727,52.32142593902262,-57.30213523503836,266.4285917065845,79.74862775212388
266,-10.356847876703236,-244.02955252775232,-106.24863294716623,-18.72023273738597,49.15112309472143,-56.951794127556894,266.3633034432572,77.96741015937724
267,-10.450121033496394,-243.9719792134014,-106.20705609709488,-18.79247736583117,45.820585205128424,-56.53449452167471,266.2977134970547,76.1542031756102
268,-10.543519929027388,-243.91609976531763,-106.16246941887353,-18.93662416300378,42.34236353167003,-56.053907507927065,266.2326355198712,74.33552477243879
269,-10.636866732217582,-243.86240670878593,-106.1157493050906,-19.151718412550338,38.72913296281588,-55.5139375325957,266.1688520045561,72.53745039268817
270,-10.729890084385092,-243.81139557284206,-106.0676141549864,-19.43637248411626,34.99377688435664,-54.91871097947404,266.10708109357984,70.78523956411759
271,-10.822224091591108,-243.7635414578646,-106.01859848866351,-19.78885664104814,31.149464692234755,-54.27255567339652,266.04794496973443,69.10299471704118
272,-10.913408251840616,-243.71927551181722,-105.9690350729048,-20.207202128476133,27.209712612944276,-53.57997195147949,265.99194137279636,67.51335577116818
273,-11.002888657272427,-243.6789626126115,-105.91904550370215,-20.689309160592853,23.1884194938326,-52.84559658911242,265.9394196199705,66.03723423078803
274,-11.090021063656542,-243.6428816401331,-105.86853919153626,-21.233052874791625,19.099870752646076,-52.07416123840401,265.8905623987497,64.6935906899199
275,-11.174076637081633,-243.61120989754286,-105.81722029862611,-21.83638130237401,14.95870563051802,-51.27044701927033,265.8453746128755,63.499259602566326
276,-11.254251319614173,-243.58401338109036,-105.76460190956814,-22.497400678179172,10.779845153632738,-50.43923645474658,265.803680588178,62.468824723014485
277,-11.329679727553124,-243.56124452424808,-105.7100265885481,-23.21444467988411,6.57838062702691,-49.58526310461787,265.765130825242,61.61454761410524
278,-11.399454209990044,-243.5427486361814,-105.6526925158738,-23.9861252255039,2.3694248873922903,-48.71315818475842,265.72921911900465,60.94635002873204
279,-11.462649095497587,-243.5282795604226,-105.59168455427503,-24.811363118637765,-1.8320692545451065,-47.827392415723025,265.6953102699668,60.471848894765756
280,-11.518349318932357,-243.5175242882894,-105.5260097069514,-25.689397002181824,-6.01151712173101,-46.93221058669325,265.66267789944897,60.196440251057496
281,-11.565681760833685,-243.51013552157727,-105.45463639395021,-26.619768717800888,-10.154929226072815,-46.031556061578755,265.6305511553007,60.12342601466907
282,-11.603846974591033,-243.50577048584591,-105.37653689818296,-27.60228237924441,-14.24914883196925,-45.1289828087252,265.5981684020671,60.2541751617875
283,-11.632148660799114,-243.50413361680654,-105.2907323717274,-28.636933526685812,-18.282091189232542,-44.22755350068656,265.56483536937475,60.58830900994719
284,-11.650018312155082,-243.50502016776903,-105.19633990315948,-29.723804014063422,-22.242975512948124,-43.32972372417539,265.5299847518292,61.12389899035522
285,-11.657032844541867,-243.50835748382357,-105.09262111770784,-30.862918204823735,-26.12254089795593,-42.43721426178899,265.49323398199857,61.85766477969154
286,-11.652923645082955,-243.5142407485062,-104.9790314884853,-32.054056985319804,-29.913237590814635,-41.55087562339113,265.4544378636367,62.78516106955095
287,-11.637576206583894,-243.52296038297308,-104.85526907893916,-33.29652827847444,-33.609385376354155,-40.67055130542755,265.41373294642244,63.90094261791202
288,-11.611020298402913,-243.53501883860145,-104.7213210394095,-34.58889617621618,-37.207291231051784,-39.794948366121496,265.37157091434904,65.1986994271389
289,-11.57341136508117,-243.55113513651705,-104.57750599345084,-35.928675346746346,-40.70531880053125,-38.92152553179389,265.32873877854917,66.67135670047598
290,-11.52500451040632,-243.57223610161304,-104.42451044801804,-37.312002696631254,-44.10390267830257,-38.04640989521587,265.28636423633424,68.31113735893399
291,-11.466123048128358,-243.5994338704249,-104.26341743613503,-38.73330384970567,-47.4055010132722,-37.1643530332393,265.24590519192964,70.10958799788227
292,-11.397124161921207,-243.6339900396501,-104.09572570786568,-40.18497703013097,-50.61448085271531,-36.268735859419145,265.2091232210918,72.05757180435074
293,-11.318364551248562,-243.67726776501186,-103.92335796125306,-41.657120409527366,-53.73693201494963,-35.351628774411445,265.1780417078882,74.14523375551306
294,-11.230168857774864,-243.73067403410585,-103.74865683945032,-43.13733002254734,-56.78040725834278,-34.40390998843236,265.1548903060676,76.36194419411868
295,-11.132803147774213,-243.7955950104794,-103.57436763547628,-44.61059350027135,-59.75358904453726,-33.41544076367241,265.14203805504803,78.69622674583512
296,-11.0264549338786,-243.87332772367324,-103.40360686188214,-46.059300155842315,-62.665886207758994,-32.37529233254714,265.1419178765345,81.13567586955278
297,-10.911220362753033,-243.96501154779384,-103.23981622556911,-47.46338089018911,-65.52696724721098,-31.272015888706214,265.15694544611665,83.66686855910446
298,-10.787098409935275,-244.07156295387878,-103.08670216354237,-48.80058283091398,-68.3462406527168,-30.093944628103944,265.1894356827771,86.27527421966738
299,-10.653991286209784,-244.19361693015608,-102.94816176807807,-50.04687464218486,-71.132296513396,-28.829515445531676,265.2415202524839,88.94516676171781
300,-10.511709854398925,-244.33147814177522,-102.82819649920292,-51.17697009856216,-73.89232740902474,-27.467597506535597,265.3150693898874,91.65954353598903
301,-10.359982742137188,-244.48508426452395,-102.73081561499504,-52.16495055024653,-76.63154989823587,-25.997815308374413,265.4116209574714,94.40005669667664
302,-10.198467972802142,-244.6539830435373,-102.65993185672433,-52.9849616179392,-79.35265041991329,-24.41085478570034,265.53231908988045,97.14696361602778
303,-10.02676622516869,-244.83732368220547,-102.61925255068607,-53.61195581525444,-82.05528079885016,-22.69874237597311,265.6778641565075,99.87910379146389
304,-9.844435255412277,-245.0338622953516,-102.6121697996332,-54.02245069487911,-84.7356285778461,-20.85508864316618,265.8484751909832,102.57391008145014
305,-9.651005616138153,-245.24198043061003,-102.64165378135048,-54.19527151075296,-87.38608598431095,-18.87528990028085,266.04386542388244,105.2074619761928
306,-9.445998505969827,-245.45971513488547,-102.71015333876001,-54.11224836015138,-89.99503849985864,-16.756683087058384,266.2632311642777,107.75458800204835
307,-9.228947115862292,-245.68479873853806,-102.81950795897471,-53.75884041679554,-92.54678985053957,-14.498650863169736,266.50525398545227,110.1890234287455
308,-8.999422939374885,-245.9147063583176,-102.97087481183189,-53.124664093082174,-95.02163495823923,-12.102675475281139,266.7681158544418,112.48362828962911
309,-8.757068139257683,-246.14670893405477,-103.16467380576302,-52.2039074010078,-97.39608626069518,-9.57234145663245,267.0495263886028,114.61066929310019
310,-8.50163441493562,-246.37792937634288,-103.40055278990216,-50.99561892218268,-99.64325217130119,-6.913288606900571,267.34676086386924,116.54216741105323
311,-8.233028133368183,-246.60539928392157,-103.67737418577018,-49.50386618703313,-101.73335968814182,-4.133118007825917,267.65670714449766,118.25031073337227
312,-7.951360816676773,-246.8261139063034,-103.99322346297092,-47.7377644790306,-103.63440663314536,-1.241255147288884,267.97591955299424,119.70792957539443
313,-7.657003338873822,-247.03708356243447,-104.3454389771744,-45.71138271257562,-105.31292305210044,1.7512243930182676,268.3006778315396,120.88902785980116
314,-7.350641390585955,-247.23538032702433,-104.73066177175453,-43.44353771258264,-106.73481626765431,4.831799859340195,268.6270495299632,121.76936157471391
315,-7.0333290548331,-247.4181792653362,-105.14490303139976,-40.95749165148788,-107.86627025757902,7.986732847596636,268.95095421935315,122.32705183621121
316,-6.70653675651817,-247.5827938607895,-105.5836261290223,-38.28056939278752,-108.67466770151213,11.201308576914233,269.26822796241396,122.54321706085685
317,-6.372189412376507,-247.72670563995635,-106.0418398719641,-35.443713060237044,-109.12950237785617,14.460081606425947,269.57468666122827,122.40260633484674
318,-6.0326904447542695,-247.84758835233987,-106.51419970300337,-32.480990573281964,-109.20325057444961,17.74711655451538,269.8661872789283,121.89421452431428
319,-5.690927632933216,-247.9433273134032,-106.99511406600759,-29.429073653497387,-108.87217256362707,21.046214541881866,270.13868634435926,121.0118591214736
320,-5.350257623545898,-248.01203460334227,-107.4788536165454,-26.32669940384136,-108.1170186504919,24.34111655551145,270.3882954286152,119.75469924046013
321,-5.014467156523395,-248.0520607638153,-107.95966121047941,-23.21412823986588,-106.92361850109843,27.615675753435614,270.61133336373985,118.12767842964517
322,-4.68771042622567,-248.0620035589384,-108.43186059647944,-20.132609672230313,-105.28333706007504,30.85399191304738,270.8043749319458,116.1418748090005
323,-4.374423267347751,-248.04071435567997,-108.88996161995371,-17.12386604588285,-103.1933850416267,34.040502773036366,270.9642957222693,113.81474419058789
324,-4.079215934158592,-247.98730272476465,-109.32875965192481,-14.229602701421825,-100.65697646666418,37.16002896756929,271.08831287369287,111.17024411195652
325,-3.8067471467741316,-247.90113989167696,-109.74342690856002,-11.49105102413668,-97.68332988776255,40.19777163819697,271.1740214403155,108.23882905129462
326,-3.5615828648601386,-247.78186163953362,-110.129593366844,-8.948548378503059,-94.28751376467035,43.139264544616125,271.21942610908087,105.05730950533912
327,-3.3480439520061998,-247.6293712387695,-110.48341521896572,-6.6411559924858645,-90.49013998739399,45.97028531663624,271.22296807263933,101.66857012694813
328,-3.170047526787469,-247.443843073678,-110.80162927159266,-4.606312637651203,-86.31691292212888,48.676733074236246,271.18354713246674,98.1211448029634
329,-3.0309473727823026,-247.2257279019058,-111.08159224805581,-2.8795187294669766,-81.79804472387903,51.244481750313454,271.10053956972894,94.46864948177065
330,-2.933379308481014,-246.9757609484102,-111.32130438574657,-1.4940425227230378,-76.96755110927087,53.65921998533862,270.9738127336572,90.76907677659014
331,-2.879117875564364,-246.69497397991628,-111.51941695844442,-0.4806376488033781,-71.86244528955059,55.90628945150047,270.8037373354154,87.08395983418225
332,-2.8689510198657397,-246.3847119534989,-111.67522355128217,0.13274040823545905,-66.52185119617162,57.97053397360811,270.59119800435184,83.47741653563044
333,-2.902579525476796,-246.04665390760024,-111.78863531104211,0.32123188017817333,-60.98606033447523,59.836171885577954,270.3376019733357,80.01508862395667
334,-2.9785477712039006,-245.68283674976303,-111.8601410190464,0.06339650817879251,-55.29555943346739,61.48670373193917,270.044885081065,76.76299371194331
335,-3.0942119175323395,-245.29567973666178,-111.89075351067734,-0.6584267057913865,-49.490058346098905,62.90486678330595,269.71551375844473,73.7863112348296
336,-3.2457509072755193,-244.88800687327247,-111.88194455128554,-1.8577182228925226,-43.60754918132484,64.07264699793258,269.3524813659898,71.14812620948074
337,-3.428224613949053,-244.4630642278404,-111.83557075481998,-3.5433352687977258,-37.68342826630365,64.9713580739516,268.9592972080439,68.90815707876742
338,-3.6356819506332876,-244.0245292581117,-111.75379351601288,-5.7190345084461836,-31.749712213195195,65.58179602547838,268.53996676904336,67.12149587840815
339,-3.861319588132338,-243.57650960566886,-111.63899623607931,-8.382974006152342,-25.8343780602025,65.88447608862202,268.0989621468952,65.83739028121394
340,-4.0976891306345244,-243.12352932455448,-111.49370235269764,-11.527215275021007,-19.960854957896835,65.85995643246973,267.6411821933668,65.09809738164611
341,-4.336947488550699,-242.6705010533379,-111.32049775441465,-15.137252185133292,-14.147690879948959,65.48924987687364,267.17190236768215,64.93783799352505
342,-4.5711422395438115,-242.22268313596206,-111.12196094394218,-19.19159786339779,-8.40841226896523,64.75432065173494,266.69671463627293,65.38187771114599
343,-4.79252122945942,-241.78562110831598,-110.90060376317741,-23.661463040049114,-2.751587662031454,63.63865852582907,266.2214578506579,66.44575746189396
344,-4.993853476563099,-241.36507335952263,-110.6588246608079,-28.510559403425507,2.818901392633828,62.12791777509389,265.75213899094,68.13469233238936
345,-5.168746499632472,-240.96692132445813,-110.39887551698953,-33.69505928860152,8.303387171290506,60.210603664681535,265.2948456977697,70.4431534735568
346,-5.311943639114359,-240.59706535768564,-110.12284214560887,-39.16373830408674,13.705754406805857,57.87878450789113,264.85565080529904,73.35464410834206
347,-5.419584259320658,-240.26130831128748,-109.83263794802434,-44.858320450929526,19.032614393712404,55.12880316636202,264.44051006773964,76.84167727636917
348,-5.489410476528027,-239.9652295143874,-109.53000982127881,-50.71403671063855,24.292348010077983,51.96195846468011,264.05515472783577,80.8659600859515
349,-5.520906422840909,-239.71405225432343,-109.21655516328453,-56.66039923230317,29.494059932980164,48.38512481238106,263.7049808819772,85.37878679559563
350,-5.515359591275315,-239.51250815151658,-108.89374842330554,-62.62218503305504,34.646493022162346,44.41127755448692,263.39493778868945,90.3216405608893
351,-5.475837930412876,-239.36470214092512,-108.56297506325477,-68.52061542301142,39.756955631787136,40.05989222406616,263.1294174289363,95.6270005339254
352,-5.407080883531692,-239.27398207243357,-108.22557026117792,-74.27470952431571,44.83031523729364,35.35718804149867,262.9121478102127,101.21934683845382
353,-5.315307577352434,-239.2428171081956,-107.88285946157455,-79.80278228118458,49.868109231656646,30.3361899960226,262.74609272610803,107.01635107407664
354,-5.20795069317424,-239.27268909953312,-107.53619795557597,-85.0240503504565,54.86781809695854,25.036589989835594,262.63336090082464,112.93023533099499
355,-5.093329680520921,-239.36400098190518,-107.18700687060982,-89.86030457674873,59.82233753494674,19.50439590880073,262.57512756087846,118.86927913033354
356,-4.980281301583269,-239.51600590369043,-106.83680313553498,-94.23760592743895,64.71967487288507,13.791367731653379,262.57157136981806,124.73945143429029
357,-4.877768460860986,-239.7267602780592,-106.48722117856555,-98.08796218921371,69.5428817374515,7.9542510254493655,262.6218293070389,130.44614311500578
358,-4.794489380637949,-239.99310327834664,-106.1400244131703,-101.35094416595055,74.27022062661618,2.0538292253430166,262.72397156994435,135.89597276540772
359,-4.73850825371448,-240.31066462673857,-105.79710507548398,-103.97520141249264,78.87554913192261,-3.846174170108662,262.87499811618824,140.9986345936477
360,-4.716925838322136,-240.6739019976458,-105.4604716885808,-105.91983812666557,83.32889387419198,-9.68030478733368,263.0708581924551,145.66875146305765
361,-4.735604552927379,-241.07616901394883,-105.13222417174225,-107.15560982921644,87.5971780069581,-15.382654348206936,263.3064941102841,149.8276899781009
362,-4.798957929959966,-241.50981453723722,-104.81451720609257,-107.66590146675831,91.64506195358521,-20.888159781016306,263.5759104553875,153.40528934802293
363,-4.909809307024099,-241.96631353792236,-104.50951293209205,-107.44744832378194,95.43585673354663,-26.133879488715678,263.8722696698521,156.34145287695378
364,-5.0693200025742575,-242.43642914753966,-104.21932455477197,-106.51076347565794,98.93247217916121,-31.060204557646998,264.18801446032757,158.58755115945564
365,-5.276983461494231,-242.91040457496908,-103.94595305144982,-104.88024040357213,102.09836756437221,-35.611966704076096,264.51501681247134,160.1075897523075
366,-5.530679155798654,-243.37818255668398,-103.69121984966215,-102.59390760804871,104.89847845462025,-39.73940934200569,264.844752641696,160.87910114225758
367,-5.82677831062562,-243.8296490164222,-103.45669895797931,-99.70282377683652,107.30009977271155,-43.39899318819568,265.168500345887,160.89373069440384
368,-6.16029273099162,-244.2548965356617,-103.24365247917885,-96.27011661626833,109.27371028871242,-46.55401360917516,265.477560629893,160.1574980154112
369,-6.525058183543295,-244.64450174015502,-103.05297363261619,-92.36968443734773,110.79372749701689,-49.175013724502406,265.76349361280677,158.6907275438519
370,-6.913944762546202,-244.98980839006464,-102.8851413904106,-88.08459524956767,111.83918400695765,-51.23998500324774,266.01836705587993,156.52765381016428
371,-7.31908773481568,-245.2832048103441,-102.74019067990581,-83.50523196250013,112.39431728773627,-52.734355464705956,266.2350065702793,153.7157166776031
372,-7.732132713102779,-245.5183810845925,-102.61770172355556,-78.72724355173173,112.44906412950994,-53.65077466875256,266.4072355290044,150.31456973895644
373,-8.1444884988839,-245.6905494886743,-102.51681116102968,-73.84937048863574,111.99944974708522,-53.98871472660616,266.5300902137792,146.39483119273999
374,-8.547580140561614,-245.7966120198083,-102.43624597718855,-68.97121804428065,111.04785951735836,-53.75391723824731,266.5999954133956,142.03661116882557
375,-8.933094372327664,-245.83526174443867,-102.37437922367066,-64.19105253525237,109.6031800074845,-52.95772579970146,266.6148875343679,137.32785262071386
376,-9.29320994299037,-245.80700939566867,-102.32930455448736,-59.603692516639555,107.68079678170665,-51.61635024809144,266.57427588248044,132.36252477801335
377,-9.620806285128122,-245.7141322691729,-102.29892503365471,-55.29855944696962,105.30244053279188,-49.75011045641853,266.4792373868897,127.23870940295541
378,-9.909645127815867,-245.56054825858564,-102.28105061101816,-51.35794151625523,102.49588012603562,-47.38270410948009,266.3323450062151,122.05662136577645
379,-10.154520644633466,-245.35162341172318,-102.27349805583147,-47.855511648404885,99.29446977972968,-44.54053572278294,266.13753495384657,116.91660647529119
380,-10.351374513441819,-245.09392633716305,-102.27418695064068,-44.85512741711597,95.73656609119966,-41.25213497183463,265.89992237968806,111.91716059628372
381,-10.497373200378346,-244.7949466567281,-102.28122564574694,-42.40992749264519,91.86483749954212,-37.54768266417555,265.62557883837405,107.15301407535304
382,-10.590946223374605,-244.46279690658778,-102.29298193321668,-40.56172669512756,87.72549312068611,-33.4586532773003,265.3212872784087,102.71332366818228
383,-10.631786063386016,-244.10591744921572,-102.30813453713817,-39.340700151534314,83.36745929379302,-29.01757429076078,264.9942910196446,98.68001012941475
384,-10.620812371127075,-243.73280208247184,-102.32570310080199,-38.765336865050585,78.84153075092861,-24.257894795456092,264.65205215656255,95.12627348219024
385,-10.560104722889353,-243.35175855248048,-102.34505596579801,-38.84263464586017,74.1995196111055,-19.213949313445315,264.30203232444137,92.11531028725528
386,-10.45280922861943,-242.97071376846426,-102.36589656156019,-39.568502245129096,69.4934201982767,-13.920997653626149,263.9515053544051,89.69924885209483
387,-10.303024877439976,-242.59706884013545,-102.3882305787079,-40.9283310391277,64.77460184362766,-8.41531818438225,263.6074075964732,87.91831022993141
388,-10.115675752634733,-242.23760460649086,-102.41231725515394,-42.89769786721038,60.09303620001268,-2.734330236160486,263.27622805353565,86.80019592623847
389,-9.896375161937053,-241.89843442731146,-102.43860912286917,-45.44316244994441,55.496560987017304,3.083278703286858,262.96393727148563,86.35969807265421
390,-9.651287203321298,-241.5849978671715,-102.46768547123364,-48.52312681147455,51.03017922389729,8.99744418640357,262.67595136696775,86.59852478745856
391,-9.386990237008833,-241.3020866108985,-102.50018538364651,-52.08872987521932,46.73539242532336,14.966655649731479,262.41712565471107,87.50533263758827
392,-9.110345217645337,-241.05389252470712,-102.53674621270746,-56.08475739563167,42.649568143408494,20.947945673545227,262.1917709676263,89.05595937882597
393,-8.828370065647537,-240.84406720389234,-102.57795269545933,-60.45055492246445,38.80534644011867,26.89695344172127,262.00368490894704,91.21385287233468
394,-8.548119531907577,-240.67578259301268,-102.62430067291122,-65.12093866111661,35.23009576573459,32.76807469606878,261.85618995924784,93.9306952280751
395,-8.276568710483302,-240.55178325187757,-102.67617767497195,-70.02710500609966,31.94543537444155,38.51470650758711,261.7521705691815,97.1472235850423
396,-8.020497790337272,-240.4744224588805,-102.73386065579166,-75.09754357686846,28.966847684770116,44.08959082402425,261.69410208083696,100.79424940860125
397,-7.786375833688674,-240.44567646615386,-102.79752927128251,-80.2589605841236,26.303408698992513,49.44525615555732,261.68406555250164,104.79387610654364
398,-7.580242096348583,-240.46713368451242,-102.86729161837403,-85.43721949001596,23.957666658116512,54.534552122960186,261.72374428082367,109.06091010796801
399,-7.40758450676798,-240.53995815318459,-102.9432184598023,-90.55830462038665,21.925697656703726,59.31126710517906,261.8143998680527,113.50445390657998
400,-7.273216432409048,-240.66482910316515,-103.02538164266942,-95.54931111579367,20.197361368356546,63.73081503595513,261.95682785978585,118.02966195012958
401,-7.181154746907538,-240.84186061332548,-103.11389260928875,-100.33946172669377,18.75677017936825,67.75097361803418,262.15129512433396,122.53963271477558
402,-7.134504133703539,-241.07050725171663,-103.20893747050343,-104.86114757370218,17.582971460370075,71.33265294123181,262.39746316712007,126.93740352459902
403,-7.135354026242028,-241.3494631480739,-103.3108058769505,-109.05098596555969,16.650826825430666,74.44067079784702,262.6943033416777,131.12800875707867
404,-7.184695200553095,-241.67656308794096,-103.41991162858355,-112.8508834918118,15.932056036316672,77.04450893689821,263.04001125842944,135.0205566678268
405,-7.28236266524898,-242.04869497294132,-103.53680342811897,-116.20908683215323,15.396398857835315,79.11902313219875,263.43192855078337,138.53027481981505
406,-7.427010306919158,-242.46173339966165,-103.66216449869039,-119.0811972525107,15.012837487542807,80.64507945599813,263.8664806193018,141.58046909758383
407,-7.616121122542019,-242.9105040320483,-103.79680022986933,-121.43111812293137,14.750816283728442,81.6100899414104,264.3391390324481,144.10433722659346
408,-7.846055127026771,-243.38878759054003,-103.94161374552289,-123.23189890561204,14.581394658343992,82.00842323152986,264.8444167210787,146.046575711161
409,-8.112135279523775,-243.88937045920792,-104.09757018835806,-124.46643503303531,14.478272789500144,81.84166990836674,265.37590274080276,147.3647202041128
410,-8.408770012373305,-244.40414615791033,-104.26565136690192,-125.12798185246484,14.418637509699048,81.1187477316955,265.9263411375691,148.03016412206654
411,-8.729609147806029,-244.92426852414113,-104.44680305889439,-125.22044281226776,14.383786491079306,79.85583858868168,266.4877555360554,148.0288088271406
412,-9.067728193642273,-245.440353835551,-104.64187763023492,-124.75839730190523,14.359501835163593,78.07615607436237,267.05161784482414,147.36131045326874
413,-9.41583437624761,-245.94272566250427,-104.85157467119338,-123.76684174589775,14.336158619713514,75.80954977378175,267.6090562739566,146.04290277650293
414,-9.766486503497214,-246.42169319061733,-105.07638214060968,-122.28062826429034,14.3085691378516,73.09195899622891,268.1510949237924,144.10279163427776
415,-10.112319959852432,-246.86785124579595,-105.31652023955394,-120.34359788582633,14.275578689101694,69.96473449588393,268.66891474721325,141.58313343133415
416,-10.446267784048244,-247.27238843472102,-105.57189007983503,-118.00741922914709,14.23944294490283,66.47385129305043,269.1541239172395,138.53762730218025
417,-10.761768825352881,-247.6273887593121,-105.84202918942194,-115.33015795125361,14.205029205268163,62.669038883074464,269.5990246287597,135.029766600055
418,-11.05295449685662,-247.926111772839,-106.1260759344521,-112.37461628335785,14.178893498299551,58.60285678751972,269.99686310604926,131.1308097148627
419,-11.314806772063111,-248.16323683313243,-106.42274495826395,-109.20649485706772,14.168291798960766,54.32974358875198,270.34205006964623,126.9175421222161
420,-11.543281779046664,-248.33505835635037,-106.73031563022708,-105.89244004378581,14.180186145861148,49.9050664112686,270.6303401716946,122.46991052933177
421,-11.73539538224524,-248.43962124978657,-107.04663513641583,-102.49804845738178,14.220304863310936,45.384195416083635,270.85896094094176,117.86861558575698
422,-11.889269189141894,-248.4767888116055,-107.36913723118359,-99.08590533263452,14.292310635598284,40.82162442372869,271.0266844847884,113.19275145618946
423,-12.004137301408901,-248.44823905149727,-107.69487695192998,-95.7137344863387,14.397121461409633,36.27015452531145,271.13383836567823,108.51757828354627
424,-12.080315819991059,-248.35738929596354,-108.02058088672389,-92.43273411844939,14.53241842839098,31.7801528752229,271.1822554531984,103.91250716486655
425,-12.119138596411606,-248.20925284616914,-108.34271182718365,-89.28616496781139,14.692361768783396,27.398894294014262,271.1751659033126,99.43936709563074
426,-12.122863931337317,-248.01023510155855,-108.65754579371847,-86.30824593934437,14.867523775262994,23.169989313883217,271.1170374790852,95.15101009561006
427,-12.09455777770441,-247.76787965051696,-108.96125863152048,-83.52339820523339,15.045034781801759,19.132899139665827,271.0133729798455,91.0902952204478
428,-12.03795946039178,-247.49057711083242,-109.25001885857124,-80.94586300654544,15.208927282122776,15.32253572975449,270.87047543923074,87.28947522612307
429,-11.957335980960545,-247.18725086324866,-109.52008323518605,-78.57970195327754,15.340653903311459,11.768943779932055,270.69519289701964,83.76999212771436
430,-11.85733070321308,-246.867034267958,-109.76789146503184,-76.41917240604238,15.4197477187346,8.4970607746471,270.49465489883517,80.54267061768813
431,-11.742811704560033,-246.53895356135826,-109.99015642539271,-74.44945526492798,15.424588423000857,5.52655140037241,270.276012468912,77.60828213619088
432,-11.618724389926582,-246.21162951331942,-110.18394644038821,-72.64769884036038,15.333235187747139,2.8717133504325925,270.0461922792457,74.95843812781185
433,-11.489952153718784,-245.8930092287094,-110.3467564869593,-70.98433093655889,15.124286452386206,0.5414526274248562,269.81167429432827,72.57675930692571
434,-11.361188032322545,-245.59013735460826,-110.4765658488774,-69.42458214015227,14.777728303098613,-1.4606724421461756,269.57830044386725,70.44025896690351
435,-11.236819517304204,-245.30897354796113,-110.57188046816081,-67.9301567162919,14.27573623417225,-3.1363383981241437,269.3511199413919,68.52087268126242
436,-11.120828070728676,-245.05426051306503,-110.63175899364005,-66.46098356591699,13.603399664325154,-4.492274542023378,269.1342748221737,66.78706421492691
437,-11.016704424193875,-244.82944438732594,-110.65582232362698,-64.97697854949585,12.749344166739073,-5.540011223218119,268.93092727326064,65.20543811781602
438,-10.927380414139714,-244.63664684937737,-110.64424729300686,-63.43975134708196,11.706232461320194,-6.295559055722296,268.7432284761802,63.74229332318393
439,-10.855177831154956,-244.47668612650625,-110.59774592724537,-61.81419495447248,10.47113138000874,-6.779021070525805,268.5723269903276,62.365058984994924
440,-10.801774488829361,-244.34914222167305,-110.5175322103612,-60.069903567023026,9.045737953039879,-7.01414168723463,268.418413219418,61.04356328810786
441,-10.768187438030967,-244.2524603227331,-110.4052785614576,-58.18237425705392,7.4364632396766535,-7.02779839518205,268.28079535482203,59.751097233158525
442,-10.754772982057942,-244.18408554064638,-110.26306427470351,-56.13395867881817,5.654377339862003,-6.849443930908374,268.15800145558694,58.46524751672969
443,-10.7612429219229,-244.14062175516608,-110.09331814168742,-53.91454234553659,3.7150230571594687,-6.510508428401358,268.04790195994474,57.16848484151013
444,-10.786696286956794,-244.11800730942548,-109.89875735536597,-51.52194033165691,1.638108890466247,-6.043772478343842,267.9478468277534,55.84850577394754
445,-10.829665635536415,-244.1117005115108,-109.68232455621543,-48.96200917601188,-0.5529056173068407,-5.482723206955457,267.85481160105536,54.498337193539555
446,-10.888176802830724,-244.11686831258706,-109.44712456573433,-46.248484827354524,-2.83131761854819,-4.86090629679054,267.76554690260707,53.11622194437365
447,-10.959820749200466,-244.12857209297604,-109.19636211317848,-43.40256508491732,-5.167766357719042,-4.211287307471336,267.67672629269504,51.70531189848411
448,-11.041835949712922,-244.14194516559857,-108.93328181946367,-40.452261652015274,-7.530880289399855,-3.5656357513807544,267.58508799232095,50.273199788041836
449,-11.131199499806812,-244.1523573428378,-108.66111180685076,-37.43155153997033,-9.88796960069912,-2.9539451203386484,267.4875666809493,48.83132376582456
450,-11.224724694566882,-244.15556263910804,-108.38301236413533,-34.37936045722755,-12.205747487758822,-2.4039013451863402,267.3814122459078,47.39427904790604
451,-11.319162299852138,-244.1478268741364,-108.10203096001136,-31.338412515754836,-14.451063318769599,-1.9404109309737898,267.2642929153797,45.979069737198486
452,-11.411302251368879,-244.1260326240095,-107.82106457112852,-28.353981525543922,-16.59163077718943,-1.5851983100127862,267.13438067814377,44.60433152397088
453,-11.498072226867338,-244.08775965704578,-107.54282987670969,-25.47257958844545,-18.596734188854224,-1.3564799669494934,266.9904173431513,43.28955274491754
454,-11.576629444255323,-244.03133968763402,-107.26984142959095,-22.740618812611316,-20.437896460095114,-1.2687207936775642,266.83176004462086,42.05431752816824
455,-11.644442155980826,-243.95588497544838,-107.00439747623902,-20.203081883123986,-22.089492463444888,-1.332476047537407,266.65840546091306,40.917590762323556
456,-11.699357703115824,-243.86129098759125,-106.74857270549707,-17.90223696094708,-23.52929246407454,-1.554320261180132,266.4709925053561,39.897060679139564
457,-11.739654677832508,-243.74821403315354,-106.50421686979807,-15.876431771351978,-24.738921434045373,-1.9368624595889379,266.2707837758679,39.008551111569474
458,-11.764077657145599,-243.6180254608332,-106.27295795618979,-14.159000466688504,-25.70422194146684,-2.4788450244496834,266.0596266086635,38.265512107377425
459,-11.771854014776325,-243.47274461537265,-106.05620846887388,-12.77731454162202,-26.415510764023644,-3.1753215160339403,265.83989513767335,37.67859468397758
460,-11.762693340455142,-243.3149531977565,-105.85517352839804,-11.752005486235154,-26.867722439355386,-4.017906802688791,265.6144152783151,37.255313254725166
461,-11.736770819743102,-243.14769397109978,-105.67085991004872,-11.09638200261737,-27.06043651194556,-4.995091059247734,265.3863750326466,36.99979772949544
462,-11.694696490611202,-242.97435702585958,-105.50408567302824,-10.816058764231272,-26.99778905616073,-6.092607679923882,265.15922300078734,36.91263644658457
463,-11.637472678204011,-242.7985572185564,-105.35549040675112,-10.908807193793255,-26.68827289008445,-7.293844010556579,264.93655851950797,36.990810736407916
464,-11.566442177096514,-242.62400694538096,-105.22554619832886,-11.36463180663917,-26.144434478616994,-8.58028308565937,264.72201739519886,37.22772174514043
465,-11.483229854097308,-242.4543889430083,-105.1145692895863,-12.16606851760935,-25.382478613034593,-9.931964234370447,264.51915763691795,37.61330980338503
466,-11.38968024751205,-242.29323411683663,-105.02273219812903,-13.288694214018559,-24.42179437894729,-11.327950481111971,264.331349796474,38.13426580014668
467,-11.287793509630182,-242.14380935161225,-104.95007591100453,-14.70183013855507,-23.284417634096076,-12.746791130558627,264.16167640469445,38.77433252895889
468,-11.179661790579798,-242.00901980459773,-104.89652166591463,-16.369415399657317,-21.99444627359132,-14.166968769668129,264.0128445278621,39.514691768875146
469,-11.067407940802006,-241.89132935797463,-104.8618818508087,-18.25102138065627,-20.5774250911125,-15.5673210457001,263.8871147108923,40.33443002872014
470,-10.953128170019887,-241.79270189151885,-104.84586967968329,-20.302973160813316,-19.05971718155729,-16.927428899724067,263.78624868449344,41.21107261031193
471,-10.838839988421121,-241.71456498489758,-104.84810749508493,-22.4795405695036,-17.467878645339564,-18.227964441509233,263.7114773139665,42.121172239522096
472,-10.726436408503657,-241.65779651875957,-104.86813372246334,-24.73415943408668,-15.828052809744893,-19.45099336828756,263.66348927678683,43.04093534068699
473,-10.617647105301133,-241.6227333146663,-104.90540856716561,-27.020643130619426,-14.165399164115215,-20.580228702063998,263.64243975054796,43.94686642948932
474,-10.514007073760803,-241.60919958782068,-104.95931847390781,-29.294345769137593,-12.50357066711792,-21.601234478687743,263.6479771030332,44.81640934733545
475,-10.416833255503064,-241.61655189831743,-105.02917923070095,-31.51324120101021,-10.864251155601666,-22.50157967971738,263.679284517461,45.628563395636455
476,-10.327209544085465,-241.64373662001861,-105.11423751876883,-33.63888637903077,-9.266762479757833,-23.270944061635387,263.735132836603,46.364453022465526
477,-10.245980397713534,-241.6893556357573,-105.21367081150173,-35.637243145105224,-7.727748828044765,-23.90117858932909,263.8139406552517,47.00783154573458
478,-10.173752931822895,-241.75173595541034,-105.3265858556886,-37.479338845572016,-6.260943473294053,-24.386323898697118,263.9138377949741,47.54550220872142
479,-10.11090693619955,-241.82899926117997,-105.45201639165221,-39.141752849268975,-4.877020819789276,-24.72259057667607,264.03272872784703,47.96764331756177
480,-10.057611937650123,-241.91912802397226,-105.58892102366734,-40.60692275163697,-3.5835341524824753,-24.908305114756438,264.168353189631,48.26802807056411
481,-10.01385024193119,-242.02002576094873,-105.73618211944984,-41.86327056320162,-2.384936942425458,-24.943825299671637,264.3183420499538,48.4441338112471
482,-9.979444729886222,-242.12957011818676,-105.89260645441446,-42.905155272496735,-1.282683093084117,-24.83142867690693,264.4802674550302,48.497139646480505
483,-9.954090024041232,-242.2456585994014,-106.05692821977692,-43.73266360273015,-0.2753993185502276,-24.575177621650365,264.6516872538614,48.43181544463961
484,-9.937385581307016,-242.36624768741868,-106.22781496587419,-44.35125535245199,0.6408789309988734,-24.180764510211887,264.8301845450276,48.25630896254909
485,-9.928869308753756,-242.4893865535124,-106.40387690959723,-44.77128328768715,1.4724179132039965,-23.655340521846497,265.0134035401102,47.98184108610854
486,-9.928050305243938,-242.6132463674218,-106.5836797440997,-45.007410070864985,2.2274532586828375,-23.007331683084644,265.1990826662483,47.62232178741753
487,-9.93443928982631,-242.73614557611094,-106.76576070294698,-45.07794619473178,2.9158262827505155,-22.2462458269971,265.38508509681327,47.19390134475829
488,-9.947575354237106,-242.85657086666183,-106.9486472266303,-45.00413342151458,3.548600558056832,-21.382474166522645,265.56942615364096,46.714472662319324
489,-9.967047942145308,-242.9731932380239,-107.13087725651653,-44.809397899788735,4.137670142437109,-20.427091215592043,265.75029664424414,46.2031412141097
490,-9.992513326590142,-243.08487869059107,-107.31102002380669,-44.518596070587996,4.695370293602607,-19.391656825614525,265.9260812257147,45.679679278928326
491,-10.023705264846383,-243.19069327390295,-107.48769618011373,-44.157274894655934,5.234100715872481,-18.28802405511833,266.0953711037979,45.1639808323111
492,-10.060439915886887,-243.28990242215684,-107.65959616235675,-43.75096605426263,5.76597039755231,-17.12815639382937,266.2569705804138,44.67553283526439
493,-10.102615417495192,-243.3819646501489,-107.82549582306244,-43.32453169340866,6.30247182259066,-15.923957543264136,266.4098971584884,44.232917753540974
494,-10.150206672336678,-243.46651989826825,-107.9842685974635,-42.90157692037598,6.854190741487584,-14.68711658232535,266.55337520952617,43.853360914421685
495,-10.203255903342843,-243.54337319175647,-108.13489369127126,-42.50394166827043,7.4305558993942675,-13.42897094260358,266.68682363524675,43.552334709685034
496,-10.261859441806257,-243.6124747675175,-108.27645988143362,-42.151281631705395,8.039631377829487,-12.16038914202382,266.80983843631265,43.34322968372678
497,-10.326151042814136,-243.6738982458456,-108.40816467598249,-41.86074494538181,8.6879526930221,-10.89167462326511,266.9221715415311,43.2371002422809
498,-10.396281894807718,-243.72781860037205,-108.52930895014052,-41.64674807474818,9.380406573915899,-9.632491289183845,267.0237075563689,43.24249010124732
499,-10.472397548254389,-243.77449154098164,-108.63928771570826,-41.520851026726966,10.120153401677614,-8.391810420657741,267.11444018481717,43.36533965480177
500,-10.554612249687851,-243.8142355316952,-108.73757820583327,-41.49172846131638,10.908590591881184,-7.177877636417292,267.19444994304075,43.60897420164128
501,-10.642981497089657,-243.8474171450502,-108.82372684466898,-41.56522974253756,11.74535470415081,-5.998197504033442,267.26388447574993,43.97416860584897
502,-10.737473907860938,-243.87443996662338,-108.897336889781,-41.7445177307543,12.628359744172146,-4.859532488970564,267.3229424354212,44.459280833657
503,-10.837943718054603,-243.8957369299556,-108.95805860481941,-42.03027352075181,13.553868949217094,-3.7679122985301485,267.37186161103443,45.06044425306292
504,-10.944105476536109,-243.91176575936248,-109.00558378065153,-42.420952550605904,14.516597255884486,-2.728649454911479,267.4109117951079,45.77180679168966
505,-11.055512730063102,-243.92300699151258,-109.03964622346068,-42.9130765988953,15.509841539117668,-1.746357145085428,267.4403926127885,46.585804053078355
506,-11.17154256693995,-243.929963763474,-109.06002926101911,-43.50154619275654,16.525635525230005,-0.8249659897960595,267.4606360512625,47.49345331043648
507,-11.291387691208422,-243.9331622723864,-109.06658025727988,-44.1799588936038,17.55492606650537,0.03226274863818766,267.4720127384882,48.48465595964048
508,-11.414057278352283,-243.9331516821103,-109.05923084785573,-44.94092075309167,18.587767338447016,0.822728943318357,267.47494037689097,49.54849749241916
509,-11.538387340420208,-243.93050236378218,-109.03802066451374,-45.77634078077713,19.613529561684036,1.5444906542009047,267.4698924427801,50.67353621847373
510,-11.663060819385189,-243.92580165583294,-109.00312202709785,-46.67770127593001,20.6211190390452,2.1962656434688745,267.45740539877465,51.84807457404737
511,-11.78663717819014,-243.9196466939505,-108.95486330281436,-47.63629995050524,21.59920653983917,2.777435603457964,267.4380830702096,53.0604095102091
512,-11.907590790268388,-243.9126342453171,-108.89374899839075,-48.64346243602418,22.536461249408685,3.288050700934676,267.4125973146454,54.29906069604693
513,-12.024356836773094,-243.90534788373756,-108.82047495641069,-49.69072569585827,23.42178756916067,3.7288318096481348,267.38168457937616,55.55297679547241
514,-12.135382743014462,-243.89834319459877,-108.73593736802259,-50.76999403286766,24.244562004505863,4.101168016156806,267.3461383721935,56.811720884593946
515,-12.239182553129595,-243.89213191465686,-108.64123485708984,-51.87366998972695,24.99486723836243,4.40710753732133,267.3067980594702,58.06563637475319
516,-12.334391169134538,-243.8871659991369,-108.53766359190003,-52.99476269681006,25.663720228700516,4.649340860611755,267.2645347474812,59.305994772902416
517,-12.419815199801636,-243.88382264125062,-108.42670598817652,-54.126976238598864,26.243290728464494,4.83117547604114,267.22023527083735,60.525126305266994
518,-12.494477387325112,-243.8823913028364,-108.31001388386093,-55.264780417610496,26.72710600044593,4.956501887990557,267.17478548351323,61.716533870097855
519,-12.557652137510967,-243.8830638329334,-108.18938716930887,-56.40346592217991,27.110236790313945,5.029750711513621,267.1290541353597,62.874990039717126
520,-12.608890382610863,-243.88592863699895,-108.06674899229644,-57.5391854075571,27.389459008432706,5.055840696235215,267.0838786021157,63.99661603705315
521,-12.648032751072497,-243.8909694904206,-107.9441189048318,-58.6689814639898,27.563385250347654,5.040117599901225,267.0400535339372,65.07894093542079
522,-12.675210785812961,-243.8980690241521,-107.82358548160295,-59.79080196402166,27.632560398381123,4.988284027071936,266.9983230695932,66.12093892097626
523,-12.690836674240368,-243.9070163868774,-107.70727978685026,-60.903502925609466,27.599516144663088,4.906320686124621,266.95937675322176,67.12304240121522
524,-12.69558251726397,-243.91751828291842,-107.59735055556703,-62.00683883837649,27.468780326949233,4.8003999789818455,266.9238488271068,68.08712905579898
525,-12.690350510631015,-243.9292124797091,-107.49594125544053,-63.10144039839854,27.246838361567736,4.676793360423249,266.8923202068798,69.0164815648805
526,-12.676235568063898,-243.94168290754618,-107.40516861466789,-64.18877976442467,26.94204562398105,4.54177440235671,266.86532224011944,69.91571960791062
527,-12.654481974412702,-243.9544756383163,-107.32710200252455,-65.27112369131986,26.56449121906299,4.401519875382142,266.8433414167688,70.79070463741314
528,-12.626435746038231,-243.96711529456425,-107.26374323192904,-66.35147508109776,26.125815142154256,4.262011347830217,266.8268245139761,71.64841874214767
529,-12.593494594259452,-243.97912165799823,-107.21700666134298,-67.43350355051365,25.638982366917443,4.128939826997213,266.8161839867736,72.49681956542015
530,-12.5570576906561,-243.9900262654402,-107.18869967503909,-68.52146559046213,25.118018902212434,4.007615925590968,266.8118035246869,73.34467378132382
531,-12.518477621504376,-243.99938858254572,-107.18050369363414,-69.62011486745877,24.577716262933237,3.902887990844859,266.8140435471149,74.20137210266172
532,-12.479016822782576,-244.00681104767904,-107.1939559142337,-70.73460322269074,24.033311974336353,3.819070560624172,266.82324614686894,75.07672917941812
533,-12.439810400026387,-244.01195203638738,-107.23043206305013,-71.87037294687175,23.500154571432592,3.7598853489836785,266.83973877986745,75.98077199725729
534,-12.401836648487505,-244.01453574090385,-107.29113055015283,-73.03304095142487,22.993362009377712,3.728416671985801,266.8638359586256,76.92352049392109
535,-12.365895920089315,-244.0143581543506,-107.37705852090265,-74.22827555538035,22.527482449581477,3.7270827941576266,266.89583839357454,77.91476412131547
536,-12.332597938078067,-244.01128875089438,-107.48902035671809,-75.46166680530989,22.11616605893019,3.7576241197008606,266.93602938960277,78.96383805719672
537,-12.302357467613112,-244.0052679367492,-107.62760908778073,-76.73859155514619,21.771855826998976,3.8211084938094206,266.9846687020269,80.07940276104343
538,-12.275398389820424,-243.9963008237797,-107.7932008844852,-78.06407492309792,21.505504533762174,3.9179531506843612,267.04198438319924,81.26923057684357
539,-12.251766289642795,-243.9844483146927,-107.9859524276881,-79.44265015030788,21.32632394366292,4.047962105613691,267.1081634175583,82.54000307410335
540,-12.231349236691512,-243.9698168065257,-108.20580075029662,-80.87821923577214,21.241571154203186,4.21037712860581,267.18334215123855,83.89712274447582
541,-12.213905594582052,-243.95254788007563,-108.45246512277929,-82.37391695096993,21.25637592126325,4.403939931200749,267.2675975565314,85.34454250899263
542,-12.199096912168057,-243.93280910105474,-108.72545053311629,-83.93198092753593,21.373611824372436,4.62696286480164,267.3609401257799,86.88461624756302
543,-12.18652354934897,-243.91078664764694,-109.02405223322604,-85.55363052921128,21.593813349890286,4.8774052661869725,267.46330877542636,88.5179733087574
544,-12.175760666609774,-243.8866800985087,-109.34736085845127,-87.23895728829557,21.915140325206224,5.152952633274656,267.5745678135396,90.24341980723605
545,-12.166392476175247,-243.8606994470499,-109.69426779956105,-88.98682986552183,22.333390569462505,5.451096132258357,267.694505867541,92.05786951385002
546,-12.158043146420868,-243.83306415581978,-110.06347060055329,-90.79481669575384,22.842061049655978,5.7692105223164525,267.8228365034052,93.95630718609162
547,-12.150403341092089,-243.80400368267988,-110.45347809009714,-92.65912954679536,23.432457173515942,6.104629331775129,267.95919992035044,95.93178709075933
548,-12.143251892463063,-243.77375840631,-110.86261492215147,-94.5745910330546,24.093849104504976,6.454716867427706,268.103164654287,97.97546911274237
549,-12.13647243746839,-243.74257948719497,-111.2890253699412,-96.53462869618276,24.813673181692657,6.8169372280700555,268.2542279467845,100.07669422412219
550,-12.130064952333576,-243.7107262209931,-111.73067655812976,-98.53129767787804,25.577775681957554,7.188920813666221,268.4118135939472,102.22310028500905
551,-12.124152049640038,-243.67845995263195,-112.18536168456916,-100.55533333784085,26.37069527485659,7.568528845771015,268.57526669558405,104.40077822978336
552,-12.11897977991986,-243.6460343556499,-112.65070397400909,-102.59623441570966,27.17597962142775,7.953916216824776,268.7438454603765,106.59446767489212
553,-12.114912634182547,-243.61368246721628,-113.12416196502824,-104.64237647311194,27.97653071963615,8.343592700894488,268.91671068738196,108.78778986524127
554,-12.112422502011084,-243.58160115651685,-113.6030363585153,-106.68115439244465,28.754972876194852,8.736482287102977,269.09291364653257,110.96351469285018
555,-12.112071475301674,-243.54993380627735,-114.08447840409237,-108.69915171786928,29.49403666638647,9.13198013785283,269.27138306918323,113.10385735889507
556,-12.114488585318895,-243.51875207050415,-114.56549991179035,-110.68233369247493,30.176951990623586,9.53000636582728,269.45091208376573,115.19079921095577
557,-12.120340767051976,-243.48803768166974,-115.04298533960882,-112.6162600647505,30.78784334922906,9.931055454561674,269.63014618255625,117.20642646162317
558,-12.130298454757291,-243.45766532032522,-115.5137067902511,-114.48631316347779,31.312120669986882,10.336239790804541,269.80757349342963,119.13327992792773
559,-12.144996185485923,-243.42738742633088,-115.9743431043034,-116.27793637361208,31.736859331836822,10.747325520059562,269.98151864232295,120.95470860588995
560,-12.164988565039053,-243.3968215631461,-116.42150462003376,-117.97687801022848,32.05116329010387,11.166758809360307,270.1501413991967,122.65521980230837
561,-12.190702232137449,-243.36544070962574,-116.85176544484096,-119.56943582397156,32.24650526064849,11.597680582973108,270.31144121342913,124.22081878337953
562,-12.222385213783502,-243.3325668049433,-117.26170489362684,-121.04269810967268,32.31703771335453,12.043927863468587,270.463268664599,125.63933158173123
563,-12.260056013478449,-243.29736802633252,-117.6479588780421,-122.38477846209787,32.259868158090065,12.51001999261132,270.60334468124165,126.90070561897444
564,-12.303455355815354,-243.2588604701489,-118.00728069029005,-123.58504214871853,32.07529219464804,13.001128201250376,270.72928801506777,127.99728376421557
565,-12.352003489882367,-243.21591495068006,-118.33660931246592,-124.63432245012244,31.766978174332426,13.523027206408434,270.83865093004647,128.92404800620534
566,-12.404765597072023,-243.1672695023025,-118.63314248022766,-125.52512520171463,31.342097940848838,14.082027728090802,270.9289625300342,129.67882907809673
567,-12.460427525063142,-243.11154793469242,-118.89441125123051,-126.25181956673948,30.811398744837778,14.684889058213052,270.9977786924585,130.26247847731483
568,-12.517283894633888,-243.04728448299713,-119.11835250757814,-126.81081311734393,30.189211934286053,15.338711077185604,271.04273712495467,130.67899966031223
569,-12.573240478547387,-242.97295426840537,-119.30337541852877,-127.20070951383248,29.49339446042565,16.05080538535061,271.061615558423,130.93563569259476
570,-12.625832489277851,-242.88700905199497,-119.44841742149559,-127.42244703750477,28.745199740890644,16.828545517820068,271.05239063902553,131.04291093520675
571,-12.672259986767704,-242.7879176655843,-119.55298509766432,-127.47941562348277,27.969075084788027,17.679196587480877,271.01329488025107,131.01462416487303
572,-12.709440973959365,-242.6742103980378,-119.6171759979924,-127.37754893822616,27.192383739629193,18.609725182777982,270.94286922893133,130.86778994499693
573,-12.734081814883135,-242.54452635038155,-119.64167928800312,-127.12538687397915,26.445050692768316,19.62659094623607,270.840009376701,130.6225244999628
574,-12.742763527353654,-242.39766244086047,-119.62775546793212,-126.73410300930215,25.759132709857873,20.735521995998738,270.7040047328255,130.30187221426874
575,-12.732041607847501,-242.23262260863405,-119.57719738049799,-126.2174912458398,25.16831482496844,21.94127728396237,270.53456973248774,129.93156934244016
576,-12.69855649506923,-242.04866592447348,-119.49227573579896,-125.59190584114921,24.707337712248215,23.24740017318437,270.33186773169547,129.5397424768608
577,-12.639151403622877,-241.84535258909145,-119.37567267208694,-124.87614926828107,24.411363043687842,24.655968926009614,270.096528073246,129.15654061949476
578,-12.55099386299208,-241.62258698935273,-119.23040677936537,-124.09130279337182,24.315286862504948,26.167351251576132,269.8296569874267,128.813701298339
579,-12.431696888445039,-241.38065706248298,-119.05975266980096,-123.26049553972527,24.453013863933926,27.779971376457883,269.53284285933256,128.5440531024228
580,-12.279435417243128,-241.12026925145716,-118.86715761087508,-122.40860913499807,24.856707991694858,29.490099165790127,269.20815612720384,128.38095921757937
581,-12.093053519445084,-240.84257833994812,-118.65615702648824,-121.56191663244313,25.556036741943075,31.29167155512906,268.85814372968474,128.35770878591353
582,-11.872157883566551,-240.5492113705597,-118.43029008762784,-120.74765602245408,26.57742790385377,33.176156813007445,268.48581766100824,128.5068648980899
583,-11.617193141912171,-240.24228458694492,-118.1930166176122,-119.99354020434072,27.943358103586707,35.13247177085292,268.09463695656325,128.8595796043934
584,-11.32949477279384,-239.9244119262165,-117.94763730777657,-119.32720682781637,29.671692526192945,37.14696106532998,267.68848243260294,129.44488753776113
585,-11.011315650868584,-239.5987032528583,-117.6972201930073,-118.77561307808699,31.775094783175195,39.20344572835452,267.27162368236236,130.2889907537486
586,-10.665822878152845,-239.26875051625953,-117.4445365967313,-118.36438241868369,34.260525267006706,41.283346285707744,266.84867799741374,131.41454840122006
587,-10.297062447152738,-238.9386003447688,-117.19200910981985,-118.11711266891638,37.128845423146025,43.3658829927073,266.42456094653625,132.839985971247
588,-9.90989068048842,-238.61271209300637,-116.94167310770169,-118.05465767770224,40.374543813679665,45.42835300327963,266.00442838238723,134.5788401474237
589,-9.509873207711093,-238.29590089019092,-116.69515230486898,-118.19439820215004,43.98559724643792,47.446481238367596,265.5936097446846,136.63915656952966
590,-9.103154276255864,-237.99326571885388,-116.45364802493708,-118.54952113475477,47.94347647378341,49.39483870367807,265.19753267165555,139.02295887844554
591,-8.696301213776447,-237.7101029795621,-116.21794121285191,-119.12832955545801,52.22330123026873,51.24731929795236,264.82163909697067,141.7258079710345
592,-8.2961306228668,-237.45180646796985,-115.98840574482938,-119.93360882054112,56.79414403867537,52.977664003703204,264.471293280604,144.73647023915012
593,-7.9095241390206015,-237.2237552860473,-115.76503136464201,-120.96207567476753,61.619476648031835,54.56001985932328,264.15168269049855,148.03671250088942
594,-7.543242094310439,-237.03119179327248,-115.54745468293531,-122.20393785830419,66.6577475604394,55.96952021285599,263.86771323410983,151.60123919272925
595,-7.203743109914133,-236.87909204482855,-115.33499711585488,-123.64259064926938,71.86307424612934,57.18287233810587,263.6239008309072,155.3977841409128
596,-6.897016614315549,-236.77203128249482,-115.12670919626156,-125.25447418117595,77.18602967949585,58.17893844594207,263.42426164661566,159.38736501396184
597,-6.628433850375043,-236.7140472170999,-114.92142109071958,-127.00911129997128,82.5744999900523,58.93929630724344,263.27220360723607,163.52470363261247
598,-6.402621423015316,-236.7085042398357,-114.717799312297,-128.86934035311904,87.97458842701666,59.44876594651506,263.1704221953547,167.75880995141188
599,-6.22336009913539,-236.75796222147738,-114.51440956945935,-130.79175088106481,93.3315404759105,59.69588907207903,263.1208039350607,172.0337220145774
600,-6.093510497877229,-236.86405402346213,-114.30978540551295,-132.72732309865106,98.5906656761452,59.67334814015529,263.12434122610983,176.2893888582225
601,-6.014966435442863,-237.0273761772145,-114.10250176156542,-134.62226480389552,103.6982331560892,59.378312356993256,263.18106222551785,180.46267849042943
602,-5.988635892518069,-237.24739741276196,-113.89125200896414,-136.41903235578508,108.60231981782802,58.81269859274524,263.28997938973436,184.4884889207616
603,-6.014448730828555,-237.5223899039688,-113.67492650059518,-138.05751589145424,113.25359239272115,57.98333603660982,263.4490602126022,188.30093685649936
604,-6.091389255068051,-237.84938829091513,-113.45269019787982,-139.4763632077173,117.60600748908121,56.902024280773084,263.65522362884656,191.8345963426032
605,-6.21755049609299,-238.22418163060223,-113.2240563058692,-140.61441189248623,121.61741764362809,55.58547525212867,263.90436534578146,195.02575859331495
606,-6.3902060015714985,-238.64134311470306,-112.98895227055287,-141.412195516766,125.2500764755096,54.05513008634196,264.1914148251151,197.81368478435778
607,-6.605894362869034,-239.09430141143847,-112.74777433309063,-141.81348718907012,128.47104212823288,52.336842960657066,264.51042568100917,200.1418257191427
608,-6.860511749758793,-239.5754558496262,-112.50142720910722,-141.76684270959302,131.2524846754682,50.46042551480891,264.85469994440274,201.95898587851812
609,-7.149408138843142,-240.07633557857605,-112.25134618131278,-141.22710575209476,133.5719093021444,48.459048266004885,265.2169450746927,203.22041387958774
610,-7.467483556178182,-240.5878004718211,-111.99949981118797,-140.1568381866474,135.4123121957092,46.36849978898824,265.58946086454705,203.88880593777367
611,-7.8092815553529205,-241.10027895028296,-111.74837254235523,-138.52763887248832,136.76228967738285,44.22631066698677,265.96435151628856,203.9352126013738
612,-8.169078360656053,-241.6040351608496,-111.50092751556024,-136.32131347186603,137.61612260913816,42.070757304213345,266.33375616859814,203.33984105008057
613,-8.54096750224518,-242.08945527309524,-111.26055065857494,-133.53085629148228,137.97385687087663,39.939770146174425,266.6900890833136,202.09274516720942
614,-8.918941102694797,-242.54734039058215,-111.03097745860339,-130.16120369649352,137.8413962416584,37.86978067711441,267.0262788193986,200.19439334295043
615,-9.296969947558033,-242.96919208739294,-110.81620401822737,-126.22971839711198,137.2306164170309,35.894550394513196,267.33599445900467,197.6560999489636
616,-9.6690848738566,-243.34747611840154,-110.62038437702766,-121.7663659392492,136.15949891618175,34.044031533601945,267.61384666882043,194.5003015294836
617,-10.029461821948686,-243.675850399451,-110.44771672645034,-116.81354975298385,134.65227262532824,32.34331291664645,267.8555521017927,190.7606542188573
618,-10.372512257031719,-243.94934473719712,-110.30232184943873,-111.42557947934199,132.73954033736396,30.811704833747683,268.0580511341207,186.48192610092295
619,-10.692979678131742,-244.16448194751896,-110.18811766418023,-105.66775918892914,130.45835941290832,29.462014507682362,268.21957105395137,181.71965845326014
620,-10.986041549886602,-244.31933314783078,-110.10869411525766,-99.61509756215786,127.85224064994463,28.300058481795677,268.3396297582431,176.53957395684907
621,-11.247414218607416,-244.41350444913675,-110.06719290780829,-93.35066072466736,124.97102806744385,27.324449743989664,268.41897908969855,171.01671820746824
622,-11.473456564241072,-244.4480578870766,-110.06619666809459,-86.96360910236844,121.87062457710545,26.526684798031305,268.45949203771715,165.23433264529547
623,-11.66126686161662,-244.4253752262774,-110.10763181801455,-80.54698043288151,118.61253416678395,25.89153911298603,268.4640031534327,159.28247098451996
624,-11.80876681159007,-244.3489777463286,-110.19268864819597,-74.19529928198892,115.26319989543529,25.397759957379336,268.43611526554923,153.25638550630327
625,-11.91476679195094,-244.22331729207846,-110.32176102117576,-68.00210624302092,111.89312825784081,25.019026425529265,268.3799871392342,147.2547222531625
626,-11.979007046930018,-244.05355385894174,-110.49440739030524,-62.05750546623822,108.57580352268904,24.725130283251474,268.3001164441708,141.3775738381897
627,-12.002170966216486,-243.84533355730818,-110.70933472928886,-56.445826893335145,105.38640917296533,24.483319689755554,268.20113115872044,135.7244446708212
628,-11.985868621594344,-243.60457864413561,-110.96440722113917,-51.24349066694197,102.40038610721729,24.259741139430133,268.08760081238245,130.39218602705574
629,-11.932590730215113,-243.33729870468838,-111.25668143839836,-46.51714750587446,99.69186774256436,24.02091253956955,267.9638766641695,125.47295817684166
630,-11.845634794033261,-243.04942909139393,-111.58246885552819,-42.32215230146181,97.33204018034627,23.735161444210203,267.83396690282535,121.05227455714436
631,-11.729006384331948,-242.74669962246452,-111.93742504071926,-38.70141049973952,95.3874811253785,23.373966528948316,267.70144953913626,117.20717948897749
632,-11.58729954557187,-242.43453379937833,-112.31666315470954,-35.684619440894174,93.91853436979659,22.91314703456807,267.56942246275565,114.00460668780232
633,-11.425561044649433,-242.11797687553346,-112.71488766765239,-33.28791080262756,92.97777744737422,22.333853749436223,267.44048767002016,111.49996106644889
634,-11.249143652434295,-241.80165012690702,-113.12654259994551,-31.51388612985841,92.6086385956821,21.623325627081257,267.3167650951258,109.73596108969252
635,-11.06355396054487,-241.48972839780149,-113.54596727830945,-30.352025053356684,92.84421545105904,20.77538779601319,267.19993065638874,108.74177305782422
636,-10.874300537688482,-241.18593794460483,-113.96755187438197,-29.779434823029337,93.70634192627891,19.790679142977847,267.09127276657244,108.53246200171628
637,-10.686748376785983,-240.89357128224253,-114.38588513080516,-29.761899889261905,95.20494143901715,18.676610570292333,266.99176132175415,109.10877616923368
638,-10.50598530969306,-240.6155149589207,-114.79588770216886,-30.255181565295064,97.33769403584546,17.447067903873325,266.9021229090828,110.45727302788114
639,-10.336705332864486,-240.3542852657011,-115.19292613908253,-31.20651095510883,100.09003212258179,16.121885327075535,266.82291581126293,112.55078395203866
640,-10.183112797863595,-240.1120664172029,-115.57290430270601,-32.556214241410125,103.43546506884074,14.72612515079024,266.7545986797278,115.34920248877768
641,-10.04885026885905,-239.89074611596604,-115.93233066810299,-34.239408786580675,107.33621815538137,13.289206987785377,266.6975877513154,118.80056841860507
642,-9.936951420898831,-239.6919446967158,-116.26836147245211,-36.18771157725923,111.74415780635964,11.843933472755495,266.65229921621227,122.84240851486346
643,-9.849818664267778,-239.5170360624613,-116.57882088716832,-38.33090818385101,116.60196418933315,10.425460129437585,266.6191756129963,127.40328660440079
644,-9.789223582112934,-239.36716096463354,-116.86220023863646,-40.598539924292844,121.844504795104,9.070253686665348,266.5986975301718,132.40451109411626
645,-9.756327189379821,-239.24323518892504,-117.11763879570587,-42.92137798115997,127.4003585823657,7.815076670240348,266.5913838659658,137.76194739553782
646,-9.751716610242326,-239.14595620608756,-117.3448889346793,-45.23276397930638,133.19343935966648,6.696027956464834,266.5977848976353,143.38788473589125
647,-9.775454800221304,-239.07581151614104,-117.54426872021756,-47.46980520991654,139.14466881697797,5.747661110172492,266.6184722071033,149.19291055866827
648,-9.827139981757984,-239.03309047845642,-117.7166050956756,-49.57441837478506,145.17365343434454,5.002196131215092,266.65402828617755,155.08775021803692
649,-9.905971259166943,-239.01789944627768,-117.86317083965696,-51.49421873714268,151.2003245614065,4.488835931989379,266.7050368507132,160.985034398012
650,-10.010816608578907,-239.0301781339206,-117.98561815825398,-53.18325294447986,157.14650627379035,4.233195895892756,266.77207306472565,166.80096118290615
651,-10.140279499371632,-239.06971382694533,-118.0859113299071,-54.60257450281039,162.93738036805743,4.256852561545076,266.85569149914204,172.45682361522555
652,-10.292760922182257,-239.1361495400065,-118.16626031512288,-55.720661509790176,168.50282177793298,4.577015388072428,266.9564089934763,177.88037684182123
653,-10.466514342538863,-239.2289825352945,-118.2290567254413,-56.51367712676515,173.77858097684026,5.2063233875872665,267.0746796634523,183.0070218454889
654,-10.659691835014405,-239.34755061876422,-118.27681305197612,-56.96557461574644,178.70729298710498,6.152765993018424,267.2108600074386,187.78078572749794
655,-10.870380350787691,-239.49100513308127,-118.31210569779567,-57.06805074422833,183.2392958575466,7.419724838514624,267.36516328124594,192.15508196190132
656,-11.096627786268026,-239.6582712594748,-118.33752225967591,-56.82035404987012,187.3332451785196,9.006130270641458,267.5376038137914,196.09323824649505
657,-11.336459271992576,-239.8479977932428,-118.35561364047423,-56.228957808663324,190.95651546573225,10.906723586161366,267.72793341733023,199.56878456476795
658,-11.587884848192012,-240.0584997950369,-118.36885170632065,-55.3071112866418,194.0853840023199,13.112413424141407,267.93557324522675,202.56549967317272
659,-11.848900301604663,-240.28769853599366,-118.37959299916183,-54.07428645178421,196.7049978670626,15.610712475160408,268.1595453057849,205.07722013742455
660,-12.117483255733111,-240.53306412440605,-118.39004835649315,-52.55554015808679,198.80913028482297,18.38623851167261,268.39840845543455,207.10742194641662
661,-12.391586653689819,-240.79156701650965,-118.40225746617708,-50.78081339073879,200.39973802085618,21.421261469671908,268.6502040931051,208.66859039668884
662,-12.66913172133358,-241.05964489549996,-118.41806682673732,-48.78418924590002,201.48633719515374,24.696275982680863,268.91241680390704,209.78139921737056
663,-12.948002433262728,-241.33319091608544,-118.43910947152823,-46.60312999493067,202.08522043859838,28.19057676425559,269.1819547195733,210.47372468917106
664,-13.22604335779953,-241.60756809937698,-118.46678509147634,-44.27771123220253,202.21854350197827,31.882813044241548,269.4551533915369,210.77952471549114
665,-13.501062468428936,-241.8776528097551,-118.50223976530349,-41.84986822601931,201.91331400505933,35.75149830645664,269.72780555218696,210.7376163745991
666,-13.770840096095522,-242.13790782614302,-118.54634525482494,-39.3626665501039,201.20031875266116,39.77545313078511,269.9952172861372,210.39038837654317
667,-14.033144707401494,-242.38248279350358,-118.59967857933759,-36.859606062191645,200.1130287689932,43.934162065346065,270.2522890036958,209.7824870094479
668,-14.285755679927593,-242.6053373243433,-118.66250324625237,-34.383964537986216,198.68652278372255,48.20802987122705,270.49361762214386,208.95951552015475
669,-14.526492741147376,-242.80038030948418,-118.73475403358145,-31.978185122122092,196.9564702275331,52.578527660070165,270.71361502972997,207.96678733570778
670,-14.753251258420553,-242.96161842439898,-118.81602745363035,-29.683310527633626,194.9582136709787,57.02822488473007,270.9066374745744,206.84817290998222
671,-14.964042178963147,-243.08330717750255,-118.9055798124741,-27.538466590146278,192.72598780977788,61.54070863963546,271.06712073847234,205.645078030266
672,-15.157035206562886,-243.16009852848478,-119.00233417929564,-25.580398006663824,190.29230734991083,66.10039732196985,271.1897163045072,204.3955879427247
673,-15.330603729369848,-243.1871796681088,-119.10489687408156,-23.843059370508954,187.6875493809717,70.69226138408509,271.2694239260982,203.1338065176614
674,-15.483369916301582,-243.16039811744392,-119.21158347429663,-22.35726460204083,184.9397470681668,75.30146932942156,271.30171623952447,201.88941274858473
675,-15.614248168136422,-243.07636921724057,-119.3204538633242,-21.150397515052525,182.07460094425008,79.91298163237143,271.28265165072685,200.6874481196729
676,-15.722484792542723,-242.9325633596901,-119.42935551956117,-20.246185699747627,179.11570227110258,84.51111833440426,271.20897270651733,199.54833807103785
677,-15.807691506856616,-242.72737167600522,-119.5359741171725,-19.6645392513127,176.0849508062081,89.07912751469503,271.0781882972801,198.48813972574908
678,-15.869870261777793,-242.46015009948204,-119.63789051288919,-19.421455093718134,173.00313805476674,93.59878177505394,270.8886391000125,197.5189973196523
679,-15.909426949087463,-242.1312427520568,-119.73264314903462,-19.528986667199106,169.89065780364456,98.05002838912293,270.63954656105494,196.64977735952942
680,-15.927171833062813,-241.74198649710752,-119.81779467435065,-19.995277543536197,166.7682990729092,102.41071575287037,270.33104642123635,195.88684793522947
681,-15.924305137088043,-241.2946991791682,-119.89100122652535,-20.824656141713046,163.6580727899228,106.6564142065986,269.9642082628207,195.23496096342276
682,-15.902387187029639,-240.79265430951665,-119.95008254733587,-22.017787186836472,160.58402242386174,110.76034351186149,269.541042708444,194.6981924910057
683,-15.863293675338507,-240.24004458238278,-119.99309107172407,-23.57187387593687,157.57297029395284,114.69341302383475,269.0644976283695,194.28089462317124
684,-15.809157657654591,-239.64193567602246,-120.01837830534363,-25.480902839985127,154.65515495916426,118.42437482330406,268.53844402129846,193.9886132425927
685,-15.742300713859393,-239.004210574901,-120.02465704135092,-27.73592205166663,151.86472063432265,121.92008544405878,267.96765129366213,193.82892842191507
686,-15.665156361041374,-238.33350347605275,-120.01105819368252,-30.3253402893789,149.24002651025054,125.14586854814536,267.357750742374,193.81217905596637
687,-15.58018930750063,-237.63712146414187,-119.97718122463708,-33.23523629546977,146.82375161098452,128.06596868243403,266.7151853651129,193.95203922367904
688,-15.489814432917072,-236.92295161831413,-119.92313724337433,-36.44966685234754,144.66277877411278,130.64408454805846,266.04714370029996,194.26592042657106
689,-15.396319446926578,-236.19935095532003,-119.84958371319114,-39.95096561006856,142.80784902613553,132.84396854909102,265.361475091228,194.7751805393193
690,-15.301794993962826,-235.47501657974357,-119.75774928935041,-43.72002801660849,141.31298491468868,134.63007763080716,264.66658352421956,195.5051268132296
691,-15.208075496610205,-234.7588337807382,-119.6494468249187,-47.736581259541026,140.23468844275345,135.96825882922138,263.9712972602696,196.4848067657839
692,-15.116693279678506,-234.05970087164008,-119.52707242695655,-51.979441081306,139.6309264278612,136.8264519230732,263.2847122990387,197.7465876195169
693,-15.028847614696035,-233.38633145892794,-119.39358888274668,-56.426759486730305,139.55992352726665,137.17539130234036,262.6160095377707,199.32553230241925
694,-14.94538944221703,-232.74703738558313,-119.25249266649365,-61.05626883394057,140.07879065472915,136.98928950466572,261.9742481144524,201.25858767333236
695,-14.866821773035998,-232.149498371923,-119.10776467936084,-65.84552871173298,141.24202362729247,136.2464854933005,261.36814027640213,203.58360804786295
696,-14.79331512656321,-231.6005268382051,-118.96380557465147,-70.77218232875185,143.09991314067344,134.93004142202784,260.80581557996015,206.33824371839538
697,-14.724736782522687,-231.10583814695357,-118.82535696466154,-75.81422871169467,145.6969122585567,133.0282723974312,260.29458395029934,209.5587296867283
698,-14.66069208895932,-230.6698374054472,-118.69741019615091,-80.95031563751161,149.07001138423848,130.53519488635092,259.840708078024,213.27861423354167
699,-14.600575608587699,-230.29543404152093,-118.58510493949233,-86.16005583767041,153.24717312163375,127.45088123745708,259.44919592492863,217.52747031850436
700,-14.543629534728241,-229.9838946718305,-118.49362060168826,-91.42436583729142,158.24588046875664,123.78171042525726,259.1236238321413,222.32963517410974
701,-14.489006603965736,-229.73474342027444,-118.42806430792409,-96.72582333802293,164.0718512933709,119.54050846685153,258.86599985184625,227.70302473541847
702,-14.435834667713769,-229.54571696306834,-118.39335948842817,-102.04903585032557,170.7179698212614,114.74657571025455,258.67667540255945,233.65806950299688
703,-14.383280095833399,-229.41277928000824,-118.3941386921773,-107.38101062834842,178.16348173678864,109.42560197537276,258.5543111461557,240.19681674520234
704,-14.330607209355705,-229.33019842193846,-118.43464332760546,-112.71151392887838,186.37349342902908,103.60947398132362,258.49590022630645,247.31224035808006
705,-14.277230978273233,-229.29068469258965,-118.5186321407887,-118.03340622548797,195.29880814077643,97.33598235441345,258.4968490476066,254.9877942208997
706,-14.222760341440907,-229.28558675526392,-118.64929976947678,-123.3429393818957,204.87612268425173,90.64843765298274,258.55111302503894,263.1972378028748
707,-14.167029771885126,-229.3051395542849,-118.82920665243398,-128.64000212935483,215.02859837680737,83.59520620570059,258.65138241292976,271.90475451351375
708,-14.110117129608879,-229.33875568263298,-119.06022167165601,-133.92830160549983,225.66680924148608,76.22917709054965,258.7893114012054,281.0653742070309
709,-14.052346383113184,-229.37534994153077,-119.34347889375837,-139.2154710012458,236.6900595089182,68.60717131607059,258.9557820307682,290.62570152649096
710,-13.994274396503574,-229.40368538154544,-119.6793496005579,-144.5130960206064,247.98805110098485,60.789303382102474,259.14119315083616,300.5249413732978
711,-13.936661628915402,-229.41272822624754,-120.06743061740107,-149.8366552913595,259.4428700537286,52.838304159882945,259.3357638128764,310.6962016041573
712,-13.880427261237791,-229.39199888742905,-120.50654982456976,-155.20537168854216,270.9312488288486,44.818812688345275,259.5298403127949,321.06804115071094
713,-13.826589966699393,-229.33190677985885,-120.99478943635168,-160.64197273497845,282.3270494889646,36.79664321535529,259.7141964468923,331.5662195371132
714,-13.77619627831086,-229.22405765848114,-121.5295269137814,-166.1723591315444,293.503901362768,28.838032757051327,259.8803171740338,342.1155920169183
715,-13.730239249242581,-229.06152346807258,-122.10749241701176,-171.82518148388584,304.33791692821785,21.008873750506687,260.02065661646776,352.6420842961555
716,-13.689570832261737,-228.8390660077219,-122.72484099650171,-177.6313267903039,314.7104021534742,13.373936201294828,260.12886221756014,363.07467314903226
717,-13.654812107201385,-228.55330706385647,-123.377237559551,-183.62331835940714,324.5104733758488,5.996084208580476,260.1999580287715,373.34729508997697
718,-13.626266123011895,-228.202839233801,-124.059952852466,-189.83463539503504,333.63749265668014,-1.0645071171267178,260.230481595957,383.4006052074751
719,-13.603838662196113,-227.78827356413436,-124.76796886414797,-196.2989612668538,342.0032377256196,-7.751126734089844,260.2185706747936,393.18351244135584
720,-13.586972649010063,-227.31222225824095,-125.49609193547481,-203.04937229442837,349.53373097735897,-14.01128538527259,260.1639978173517,402.65442577473755
721,-13.574602071199731,-226.77921689426935,-126.23907147570556,-210.11748159594632,356.17066400239037,-19.79744492756174,260.0681525902763,411.7821575009242
722,-13.565130924659353,-226.1955647867728,-126.99172165459821,-217.53255503233572,361.8723691161653,-25.067706781090198,259.9339728052737,420.54644419166647
723,-13.556441666028082,-225.56914832835847,-127.7490427975698,-225.32061833133855,366.61430649624316,-29.786445734364513,259.7658276826091,428.9380623983834
724,-13.545936043048737,-224.90917430321946,-128.5063385167805,-233.50357603372865,370.3890539525187,-33.92487432959121,259.5693573082101,436.9585335800355
725,-13.530609172531586,-224.22588215343012,-129.25932404774008,-242.0983640304616,373.20580506044126,-37.46152247167761,259.35127407901007,444.6194303670587
726,-13.507155534082566,-223.53022185058632,-130.0042210504009,-251.116158230186,375.0893993937647,-40.382616965027125,259.1191330442393,451.94131313906956
727,-13.472103312045713,-222.83351318932196,-130.73783436509896,-260.5616622958737,376.0789250412907,-42.68234652347188,258.8810790308533,458.9523411907119
728,-13.421971471460997,-222.1470988154835,-131.45760682075698,-270.43249733075726,376.2259478401184,-44.36299945830824,258.6455790319925,465.6866158300208
729,-13.353442301297376,-221.48200315353196,-132.16164906945855,-280.71871578167884,375.5924334032162,-45.43496372314951,258.42114852012935,472.18232315865225
730,-13.26354097355845,-220.84860880682504,-132.84874252945744,-291.40246055985114,374.24843686779747,-45.91658226975556,258.2160802878137,478.4797517724162
731,-13.149812948558957,-220.25636112279668,-133.5183149149055,-302.4577883184747,372.26964128519774,-45.83386068139221,258.03818429058447,484.61926504677604
732,-13.010489839791576,-219.7135104345223,-134.17038957302012,-313.85067284417835,369.73482869658216,-45.22002861919605,257.8945468029825,490.6393089277752
733,-12.844634675529772,-219.2268999955805,-134.8055117921434,-325.5392005525483,366.72336816942743,-44.114961431614304,257.79131691368855,496.5745341562975
734,-12.652258322345963,-218.80180587996432,-135.42465699001923,-337.4739651348666,363.3128024006266,-42.564472956302836,257.7335278198165,502.45410659512004
735,-12.434400088474458,-218.44183316245727,-136.02912685990884,-349.59866259092934,359.57660900820395,-40.61949474441265,257.7249593607298,508.3002709470006
736,-12.193167139628027,-218.14887053135953,-136.62044003594082,-361.85088148197906,355.58220461639877,-38.3351604253522,257.76804670350384,514.1272220902943
737,-11.93172924898672,-217.9231032103969,-137.20022378588178,-374.16307666816414,351.38924979677086,-35.76981658407609,257.86383821003335,519.9403252545737
738,-11.65426740107517,-217.76308187829434,-137.77011286274572,-386.4637084476291,347.04830147652916,-32.98398332318421,258.0120035485438,525.7357121356321
739,-11.365876727843908,-217.66584331968758,-138.331661013605,-398.67852310706655,342.59984712068155,-30.039288699152298,258.21089120771705,531.5002654802952
740,-11.072426185828926,-217.6270768157678,-138.8862696417878,-410.7319454567249,338.0737422520033,-26.9974015427809,258.45763266599346,537.2119900922113
741,-10.780379390164573,-217.64132870372435,-139.43513672519143,-422.54854891915454,333.48905995292847,-23.91898682992079,258.7482884859618,542.8407538851526
742,-10.49658308367356,-217.70223606026408,-139.97922757151323,-434.0545642714398,328.85434799257837,-20.862706776137056,259.07802964714233,548.3493687915919
743,-10.22803163796637,-217.80277916435003,-140.51926764868495,-445.1793845928326,324.1682760993448,-17.88428926571556,259.44134570654603,553.6949684056084
744,-9.98161752758026,-217.9355414640457,-141.05575661841596,-455.8570219430568,319.42064261146817,-15.035683218072759,259.83227006448715,558.8306277493967
745,-9.763878719210819,-218.09296546758256,-141.589001686405,-466.0274713418484,314.59369641537916,-12.3643181563281,260.2446118503608,563.7071611099982
746,-9.58075424629216,-218.26759342933843,-142.11916734712742,-475.63793999470994,309.6637171205856,-9.912482626637509,260.67218377619093,568.275027002506
747,-9.437358815265888,-218.45228279687134,-142.6463375310386,-484.6439042888546,304.6027845041194,-7.716833191993906,261.10901563688435,572.486265290266
748,-9.337786161566362,-218.640387888207,-143.17058519143086,-493.00996346209627,299.38065834617515,-5.8080424080235895,261.5495438415932,576.2963905089831
749,-9.284949240537994,-218.8259010286075,-143.69204373823248,-500.7104665535285,293.9666829987747,-4.210590455720795,261.9887684494668,579.6661676640858
750,-9.280463463695096,-219.00354842913862,-144.21097460867136,-507.729897891511,288.3316284561982,-2.942701076626333,262.42237078557986,582.5632023755461
751,-9.324577247746847,-219.16883854633838,-144.72782567579242,-514.0630156562397,282.449382098026,-2.016418345940043,262.84678693697833,584.9632862986609
752,-9.416152151890753,-219.31806346571776,-145.24327607310764,-519.7147476256287,276.2984129140136,-1.4378168229493866,263.25923519567283,586.8514510146842
753,-9.55269281059652,-219.44825666975714,-145.75826426397262,-524.6998575766003,269.86294259995594,-1.2073338785615897,263.6576984966384,588.2226984013432
754,-9.730424781813891,-219.5571129593267,-146.27399767309373,-529.0424043565001,263.13377469308176,-1.3202096597133377,264.04086566752414,589.082391866436
755,-9.944416441859115,-219.64287805167848,-146.79194375925357,-532.7750228005926,256.1087528039034,-1.7670173675874326,264.40803757114907,589.4463096249566
756,-10.188739264121379,-219.7042165120739,-147.31380381077275,-535.9380610304082,248.7928405686658,-2.534264442818553,264.7590058862529,589.3403772343032
757,-10.456659313106593,-219.74006738357937,-147.8414716661375,-538.578611868342,241.19783749137542,-3.6050439842704023,265.09391332545636,588.8001106179422
758,-10.740851685580438,-219.74949728028352,-148.37697980842142,-540.7494768215148,233.3417646335806,-4.9597153834418615,265.41310453074215,587.8698115973028
759,-11.033629002875763,-219.73156068512463,-148.92243508819743,-542.5080992138487,225.24797069079827,-6.5765938158725215,265.71697674929703,586.6015646917107
760,-11.327174871056359,-219.68517651237758,-149.47994621948916,-543.9154989476839,216.94402142289377,-8.432629914437264,266.00583877056965,585.0540865477986
761,-11.613773408089928,-219.6090286249798,-150.0515454782232,-545.0352359239217,208.460443310731,-10.504063564408817,266.2797856433281,583.2914785111191
762,-11.886026436381922,-219.50149619992416,-150.63910760659792,-545.9324233980418,199.82939581590716,-12.767039054710702,266.5385955483848,581.3819296758438
763,-12.137050717919816,-219.3606179097599,-151.24426949313317,-546.6728073000088,191.0833461832909,-15.198172392390417,266.78165396167896,579.3964132969812
764,-12.360648623392247,-219.18409192805268,-151.86835450511506,-547.3219230702712,182.25381694210532,-17.77506499344843,267.007908838738,577.4074143397049
765,-12.551446809301334,-218.96931172979833,-152.5123053129702,-547.9443376324938,173.37026969353371,-20.47676084787303,267.21585890049397,575.4877202886212
766,-12.704998755485207,-218.7134355841752,-153.1766287928129,-548.6029802959782,164.45917991386236,-23.284146407881494,267.4035753041119,573.7093010052903
