time,ax,ay,az,gx,gy,gz,accmagnitude,gccmagnitude
0,-2.1139021947774417,-271.9563471475704,-10.242437142508537,-13.439105237965824,57.04582809768898,-6.918311591780766,272.14556777648625,59.041921451922015
1,-2.1072085742184155,-271.8128881666412,-10.191882003157195,-12.767407515406372,57.064456144629425,-7.007699095521108,272.0019703819818,58.94978594968439
2,-2.100901763273434,-271.67477821510926,-10.13347301153492,-12.115238428471516,57.081575340956036,-7.093649165169629,271.8638159025166,58.858743321563246
3,-2.0941723833804784,-271.5430924614503,-10.065825489334747,-11.490264060258319,57.096641573964085,-7.177344896467047,271.7321458341294,58.76989759561298
4,-2.0861393680763514,-271.4187606771138,-9.98776174751353,-10.899963201407916,57.10913029702358,-7.260020842895366,271.60785958665656,58.68436348885864
5,-2.0758649024951246,-271.3025442676482,-9.898368277782062,-10.351482020082702,57.118549666871786,-7.342916542037292,271.4916928648805,58.603246105509676
6,-2.062372149540629,-271.1950158383584,-9.797048107064418,-9.851494769648337,57.124452017372306,-7.427235264876583,271.3841983980133,58.52762035798335
7,-2.044665761111921,-271.0965420424497,-9.683566229441672,-9.406074460463989,57.12644307863248,-7.514109524563421,271.2857297124319,58.45851041037226
8,-2.0217551544001338,-271.00727060494165,-9.558085891742879,-9.020576933443799,57.124188588586236,-7.604574026566989,271.1964287890411,58.3968694861675
9,-1.9926803778504985,-270.92712251917504,-9.421193703288179,-8.69954097332509,57.11741823933072,-7.699545907367599,271.1162185637264,58.3435604363051
10,-1.9565401354389924,-270.855790433015,-9.2739120908187,-8.446606126836336,57.10592717153136,-7.799811355211455,271.0448012751483,58.29933748040815
11,-1.9125212669318963,-270.7927441564132,-9.117698292354609,-8.264448970711536,57.08957540199559,-7.906017109573362,270.9816636052976,58.2648294817907
12,-1.8599287610186375,-270.7372439906487,-8.9544296268618,-8.154737914087736,57.06828558770386,-8.018664975490418,270.9260893444277,58.240524981141824
13,-1.7982152467310681,-270.6883621695297,-8.786375085397832,-8.118106329237081,57.04203939732855,-8.138107423540506,270.8771799077122,58.226759022975145
14,-1.727008883733604,-270.64501218593995,-8.616153402926706,-8.154143851164347,57.010872553913515,-8.26454259460704,270.8338825113469,58.223701638744004
15,-1.6461386376782046,-270.6059853136807,-8.446677828334433,-8.261405901280794,56.97486843918663,-8.398007557602584,270.79502534730005,58.23134778246615
16,-1.5556560301096163,-270.5699933233824,-8.28108798365023,-8.437441643115159,56.93415009519795,-8.538369393222046,270.75935878314516,58.24950858660482
17,-1.4558525393472375,-270.5357161872215,-8.122669585011835,-8.678840479789917,56.88887053476779,-8.6853144802526,270.7256014133419,58.27780398463132
18,-1.3472718719526262,-270.501853356371,-7.974763386743356,-8.981296767905292,56.839201414193994,-8.838337116770155,270.6924895860519,58.315656937592614
19,-1.2307163214866519,-270.46717690087326,-7.840665483597211,-9.3396916829494,56.78532025654755,-8.996729191950283,270.658828747555,58.36228961770785
20,-1.1072464240687858,-270.430584413993,-7.723522004355267,-9.748190263742416,56.72739653314263,-9.159572928180866,270.6235445729735,58.41672193289018
21,-0.9781731740100632,-270.39114915293817,-7.626222102678005,-10.200350770967034,56.66557704996648,-9.325738682288058,270.5857314333412,58.477772769123995
22,-0.8450421630489736,-270.3481645474238,-7.551293845730974,-10.689242769988743,56.599971251064275,-9.493889441481178,270.54469541215906,58.54406431019866
23,-0.7096090872061818,-270.3011801661587,-7.500808074289749,-11.207569883452567,56.5306372024701,-9.662493044263137,270.49998903851696,58.614029754513936
24,-0.5738062403647162,-270.2500266588837,-7.476295572570379,-11.747793009500619,56.4575691112195,-9.829842426968318,270.4514353244817,58.68592467398881
25,-0.4397001856653546,-270.194828050801,-7.478682841881302,-12.302249994774883,56.38068723778584,-9.994083513814777,270.39913955007864,58.75784216108591
26,-0.3094418176493332,-270.1360008051876,-7.50825116969665,-12.86326827394958,56.299830987230216,-10.153249859770721,270.34348827337027,58.82773181972225
27,-0.18521106049138147,-270.0742400369221,-7.564622351050075,-13.423267785693318,56.21475587474583,-10.305302821030516,270.2851359915164,58.8934226304741
28,-0.06915896674497994,-270.0104940471098,-7.646772445711816,-13.97485248014277,56.12513503750194,-10.448175784102805,270.22498062931317,58.95264982135855
29,0.03665017286507668,-269.9459288818544,-7.753072626920077,-14.510889876527711,56.03056603765242,-10.579820776713836,270.16412952054475,59.0030861151588
30,0.13029471001386536,-269.8818847888294,-7.881353863767245,-15.024579333950333,55.930583801949844,-10.698255616805344,270.1038576812486,59.042378022125654
31,0.21004815948588756,-269.81982628557614,-8.02899029520641,-15.509510859302425,55.82468053927483,-10.801609660514766,270.0455599884415,59.06818805695275
32,0.27442736056676664,-269.7612873334217,-8.192995011897477,-15.959717252730671,55.712333261373864,-10.888166233774498,269.990698638726,59.078243751850366
33,0.32223537491085485,-269.70781313401005,-8.370121603899884,-16.36972302234468,55.59303907664677,-10.95640002489083,269.94074726955785,59.07039405436236
34,0.35259825373669207,-269.66090037265843,-8.556965102240364,-16.734593650034572,55.466357782563485,-11.005008071795025,269.8971334254397,59.04267315058671
35,0.3649947544148024,-269.6219380833838,-8.750056726033822,-17.049988380209655,55.33196055154368,-11.032933416382852,269.86118140672323,58.9933710039366
36,0.3592778612523297,-269.5921514823886,-8.945948140987458,-17.3122187282236,55.18968279335205,-11.039380918285264,269.83405773370185,58.92110902843352
37,0.33568676059895675,-269.5725511169872,-9.141282686316627,-17.51831346994275,55.03957864130069,-11.023825059184917,269.816721501578,58.824918393441166
38,0.2948480179821197,-269.5638896369029,-9.332852980018048,-17.666089210020147,54.8819739628513,-10.986009829298247,269.8098819160194,58.70431755207184
39,0.23776514236636398,-269.5666284970095,-9.51764606584114,-17.7542240202371,54.71751436396952,-10.925941036452357,269.81396535183217,58.559384802607056
40,0.16579637550537932,-269.58091684587436,-9.692878482494825,-17.78233030481691,54.54720441728361,-10.84387168658298,269.829094259959,58.39082116755963
41,0.08062135601554145,-269.6065843961956,-9.856024137210628,-17.75102207251864,54.37243440114566,-10.740281457711266,269.85507981343744,58.19999873061417
42,-0.01580180665149409,-269.6431489454049,-10.004837564786781,-17.66197118987419,54.194991272275864,-10.615851671049754,269.8914290628359,57.988989882775215
43,-0.12128683180711373,-269.68983774432064,-10.137374153690603,-17.517946979732255,54.017051428899684,-10.471437474293392,269.93736588586336,57.760573712969496
44,-0.23347452559279147,-269.7456208143037,-10.25200766924047,-17.32283375716777,53.84115398704819,-10.308039110318399,269.9918638824248,57.51821697538926
45,-0.34989085733393466,-269.8092538849797,-10.347444471448075,-17.081621571021014,53.670154638439676,-10.126774091238705,270.0536888996526,57.26602853152071
46,-0.46800619479124067,-269.8793285183024,-10.42273354676561,-16.800366488656298,53.50716150686318,-9.928851833484387,270.12144874517804,57.00868772053059
47,-0.5852944396340088,-269.9543267994145,-10.477271837102107,-16.48611812063528,53.35545563587969,-9.715551882957005,270.1936474678078,56.75134860986889
48,-0.6992909857271109,-270.0326777261993,-10.510805041799037,-16.146813598118737,53.21839972297217,-9.48820633636705,270.2687413574977,56.49952339289399
49,-0.8076484036780639,-270.1128123929044,-10.523424641080727,-15.791138741065364,53.09933935903901,-9.24818651555696,270.3451937954699,56.25894919449495
50,-0.9081886438108464,-270.1932153806099,-10.51556207356726,-15.428358579295205,53.00150126802345,-8.996893444027735,270.42152640034345,56.03544312543881
51,-0.9989504834926438,-270.2724703396315,-10.487980828466588,-15.068120690949646,52.927892909376986,-8.735751266308158,270.4963644718512,55.83475062867069
52,-1.0782310351264621,-270.3492984115503,-10.441766813527616,-14.720236054185339,52.88120743586742,-8.466202477419369,270.5684753737285,55.66239212857017
53,-1.144620381670094,-270.4225887906664,-10.378316787589926,-14.39444331525284,52.86373752111206,-8.189703699202179,270.6367991244133,55.52351286553585
54,-1.1970287038361505,-270.4914212969696,-10.29932400192997,-14.100163526643161,52.87730105965306,-7.907720746625477,270.70047101190556,55.42274063371975
55,-1.2347055106689429,-270.55508124315605,-10.20675973952266,-13.846253336868712,52.92318120310205,-7.621721879973205,270.7588364435915,55.36405590114245
56,-1.2572507871987109,-270.6130670879171,-10.102849396138197,-13.640765060889544,53.00208258060039,-7.3331684529520595,270.8114584512724,55.3506783687537
57,-1.2646180355518852,-270.66509144270117,-9.990042043194453,-13.490721864449018,53.11410482030079,-7.0435026036751625,270.8581183587196,55.38497333527353
58,-1.2571092584575385,-270.7110760469867,-9.870972806489325,-13.401915555373856,53.25873367196512,-6.754132083889372,270.89881018156683,55.468380319103524
59,-1.2353619278424097,-270.75114137174774,-9.748417768726116,-13.378733465272736,53.43484923193836,-6.466412671378739,270.9337293870721,55.601365400984044
60,-1.2003280297731955,-270.7855914821817,-9.625241531960567,-13.424019837787581,53.64075011536763,-6.1816288312546614,270.96325662858044,55.78339786316894
61,-1.1532454993090901,-270.8148946616313,-9.5043381459211,-13.538976061887542,53.874191988537284,-5.900973426951402,270.9879369636497,56.01295101442562
62,-1.0956027323840722,-270.83966017273167,-9.388566767432103,-13.723102960434787,54.1324386589413,-5.625527387024081,271.0084549669885,56.287526599794894
63,-1.029097269728591,-270.8606115349479,-9.280684013108877,-13.974187135354644,54.41232384580418,-5.356240341081193,271.02560617807126,56.60370182407865
64,-0.9555900875162847,-270.8785568304211,-9.183275371318114,-14.288332114899925,54.710321747821126,-5.093913355134906,271.0402654732712,56.95719770561827
65,-0.8770571317354136,-270.89435671421256,-9.098688187447863,-14.660033840787506,55.02262454976042,-4.839185010031202,271.0533531232486,57.342967200609635
66,-0.7955397359030364,-270.9088909507735,-9.028968640157697,-15.08229895542798,55.3452250236873,-4.592522128886227,271.0657994393756,57.755301267832394
67,-0.7130953546939229,-270.92302448458383,-8.975804897381893,-15.546803405430246,55.67400233175375,-4.354216393273805,271.0785090916281,58.18795072132292
68,-0.6317497496915048,-270.9375743217254,-8.940478444844898,-16.044088021802693,56.00480900137129,-4.124387842147821,271.0923264433406,58.63426130647944
69,-0.5534515827737007,-270.953278733728,-8.923825479707258,-16.563786933940012,56.333556839849656,-3.9029958487804435,271.1080034809506,59.08731894741229
70,-0.48003040146905535,-270.9707703074355,-8.926210141831934,-17.09488389472043,56.65629934958545,-3.6898576988043015,271.12617192732176,59.54010161385227
71,-0.4131591009622566,-270.9905541212013,-8.947511039692547,-17.625990801743043,56.96930811352509,-3.4846744158007317,271.14732087572304,59.985633855393175
72,-0.35432189812485165,-271.012991972549,-8.987121953178098,-18.145641879951576,57.269140768230415,-3.2870630349111094,271.17178091007816,60.41713986935542
73,-0.30478858077060883,-271.03829323730093,-9.04396686501427,-18.64259617074016,57.552698608907015,-3.096594128616138,271.19971531041807,60.82819105362389
74,-0.26559539270654176,-271.06651259415133,-9.116528769099693,-19.106140200950026,57.81727249549861,-2.9128330508365132,271.23111857461737,61.21284428162957
75,-0.23753250478238186,-271.0975544523618,-9.202891148853674,-19.526382042314633,58.06057640483541,-2.735383065228628,271.26582207244553,61.565767498167155
76,-0.22113768939881118,-271.13118348892914,-9.300790631459213,-19.894527516326992,58.28076857469002,-2.563928228707115,271.30350620188597,61.88234958029654
77,-0.21669561185907435,-271.1670403063231,-9.407679098332562,-20.203129192011158,58.47646065560857,-2.3982736370982423,271.34371801208005,62.15879173241364
78,-0.22424207567910193,-271.2046609352622,-9.52079346395653,-20.446299190296777,58.64671564873429,-2.2383805083763555,271.3858929649752,62.392178062789995
79,-0.24357254606120546,-271.2434987706637,-9.63723135160211,-20.61987769102184,58.791035729249366,-2.084393679311556,271.42937936833647,62.58052351240153
80,-0.2742542541772572,-271.2829475625455,-9.754030839586726,-20.72155037667023,58.9093413764495,-1.936659438919307,271.4734640410978,62.72279800434897
81,-0.31564116500722267,-271.3223643041384,-9.868252225126344,-20.750909715453872,59.001943529516126,-1.7957321572049476,271.5173979819954,62.81892649158368
82,-0.3668911659549869,-271.36109123082304,-9.977059436136347,-20.70945687975956,59.06951070889253,-1.662368826280329,271.56042117079363,62.869765414810644
83,-0.42698503328613724,-271.39847650928647,-10.077798489917827,-20.600543195675606,59.113033146374235,-1.537511387146005,271.60178598714504,62.87705689943452
84,-0.49474692046328966,-271.43389338259647,-10.168070344116307,-20.42925233990324,59.13378591367487,-1.422257546241534,271.6407789142624,62.843362790176194
85,-0.5688661296577457,-271.46675755256854,-10.245795616478793,-20.20222696093093,59.13329277705777,-1.3178216076754306,271.67674021301434,62.77198125740804
86,-0.647919840620328,-271.4965425894879,-10.309268975094442,-19.927445801230473,59.11329202186478,-1.2254875303550223,271.70908127205445,62.66684910685359
87,-0.7303964986798951,-271.52279325269706,-10.357201486131943,-19.613959522751014,59.07570486797406,-1.1465568783571578,271.73729945209385,62.53243306698531
88,-0.8147197619419531,-271.5451367285679,-10.388749721466699,-19.271595148685574,59.02260647927691,-1.0822945567924604,271.7609903861386,62.37361329569437
89,-0.8992731036902587,-271.56329185020917,-10.403530885882901,-18.91064024636365,58.95619908138256,-1.0338752203200747,271.7798577726316,62.19556223481844
90,-0.9824252178965036,-271.5770762967046,-10.401623703020608,-18.54151861404951,58.878786400737226,-1.0023330086878035,271.7937206484253,62.00362179359847
91,-1.0625563235643556,-271.5864115815064,-10.383555430244,-18.174469259705536,58.792748508197555,-0.9885168408520848,271.80251796230624,61.80318164808616
92,-1.138085402365904,-271.5913254225171,-10.350276130226861,-17.819239939053706,58.70051612450209,-0.9930529662490778,271.8063100804639,61.59956117603461
93,-1.2074983468366052,-271.59195098763956,-10.303121993704407,-17.48480558854372,58.60454348633143,-1.01631590220641,271.8052767821286,61.39789722662355
94,-1.2693768967024248,-271.5885226264376,-10.243769840899956,-17.17912071990748,58.507279014764705,-1.0584083166989073,271.799711434068,61.20303962340204
95,-1.3224280748215969,-271.5813680017587,-10.174184883016284,-16.908913215642123,58.41113331737064,-1.1191498611426647,271.79001133475975,61.01945606785985
96,-1.3655136299358965,-271.5708968776889,-10.096563583569996,-16.67952497190566,58.3184444667484,-1.1980744457218357,271.7766645520537,60.85114793187453
97,-1.3976788032549625,-271.5575870255257,-10.01327324665411,-16.49480258722474,58.23144094368271,-1.2944350317717082,271.7602337737183,60.70157824127784
98,-1.418179580296343,-271.541967706925,-9.926789865296692,-16.35703901722673,58.152203015556836,-1.4072147468295475,271.74133768122704,60.57361291355613
99,-1.426507418653809,-271.52460110067017,-9.839635722532417,-16.26696506676414,58.08262359572613,-1.535143024741043,271.7206302589588,60.46947602928856
100,-1.422410190974702,-271.50606207126407,-9.754318122585786,-16.223787962537276,58.02436983420079,-1.6767155053783998,271.69877847444326,60.39071966481064
101,-1.4059077956421668,-271.4869169363659,-9.673270387314954,-16.22527308867993,57.97884689278405,-1.83021655870772,271.6764390125868,60.33820867120087
102,-1.3773007449410837,-271.46770227234987,-9.598795980641523,-16.267864178159634,57.947165564737055,-1.9937435009121018,271.65423511912536,60.312120738751986
103,-1.337170203819752,-271.44890510783137,-9.533016458237567,-16.346836678499184,57.93011552264141,-2.165231802143647,271.6327349159531,60.31196201668096
104,-1.2863684395700836,-271.43094595010086,-9.477823893838883,-16.456478542860925,57.928145896485645,-2.342480786720812,271.61243264963275,60.336598320816364
105,-1.225999356847117,-271.41416590302345,-9.434838424688811,-16.59029232502914,57.9413545247191,-2.5231794824797356,271.59373415455224,60.38430148607165
106,-1.1573895745116913,-271.39881868628464,-9.405371547584265,-16.74121221574272,57.9694866187407,-2.7049324343283447,271.5769473702189,60.4528097517192
107,-1.0820511710641216,-271.3850677975288,-9.390395802682196,-16.9018295407179,58.01194288223897,-2.8852855034637526,271.5622781895437,60.53940034662232
108,-1.0016376921967256,-271.3729885678944,-9.390521515462238,-17.064620200971618,58.0677965182392,-3.061751906933125,271.54983142799836,60.640971835382835
109,-0.9178953219640367,-271.36257453854205,-9.405981292635676,-17.22216760161217,58.13581815669388,-3.2318389403274557,271.5396163821392,60.75413341369913
110,-0.8326113389942698,-271.35374737750135,-9.43662292002803,-17.367374899010677,58.21450754142255,-3.3930759248648443,271.5315562350508,60.87529822964276
111,-0.7475621120549344,-271.34636937954247,-9.481911178329877,-17.49366094758298,58.30213076007334,-3.5430439412597297,271.52550038272307,61.000777906543014
112,-0.6644628855012921,-271.3402574432571,-9.540938947096938,-17.59513507625989,58.396761838392244,-3.6794078609973395,271.52123859870727,61.126875688534625
113,-0.5849214099860055,-271.3351973765265,-9.612447844064473,-17.666746700839827,58.49632762683026,-3.799951017705299,271.5185159042438,61.24997597822349
114,-0.5103970834609136,-271.33095750088484,-9.694858475382148,-17.704406773013226,58.59865501911254,-3.9026125496421757,271.5170471225226,61.36662842342347
115,-0.4421667849232277,-271.32730076816074,-9.786310087046667,-17.705079152942098,58.70151956428766,-3.985527026973308,271.51653032743684,61.47362503860618
116,-0.3812981682887715,-271.32399489513244,-9.8847090330021,-17.666841080291537,58.802694450135455,-4.047065512546412,271.51665867498053,61.56806907358101
117,-0.32863091882588685,-271.32082031922533,-9.987785049193256,-17.588912919348708,58.89999875815289,-4.085876726181157,271.51713038575815,61.64743454427053
118,-0.2847663034728929,-271.317576031627,-10.093153853067774,-17.471658228213713,58.99134395010594,-4.1009265276217395,271.5176568817469,61.70961563180181
119,-0.25006514021372056,-271.3140835033356,-10.198384122823667,-17.316555931146073,59.07477776079365,-4.091533574383971,271.51796922116273,61.75296555174702
120,-0.22465398685782947,-271.31018899622745,-10.30106653732373,-17.12614691971963,59.14852494763715,-4.057398824886982,271.5178230364205,61.77632490113175
121,-0.20843892366647337,-271.3057645996337,-10.39888231553904,-16.903957735489776,59.211024577486455,-3.9986265764894244,271.517002217304,61.77903979755546
122,-0.20112586090149237,-271.3007083693617,-10.489668576906945,-16.654404110283913,59.26096363881503,-3.9157349390938454,271.5153216109169,61.76097026617734
123,-0.20224594857068354,-271.2949439338744,-10.57147787468832,-16.382677143031273,59.29730670317497,-3.8096540333579507,271.51262899677687,61.72248928401063
124,-0.21118450396265726,-271.2884198524518,-10.64262948719892,-16.094614869612354,59.31932112403878,-3.6817107627111323,271.5088065231216,61.66447268586141
125,-0.22721193199494877,-271.28110892609266,-10.701750484030233,-15.796561978554935,59.326596934641124,-3.533599705291715,271.50377172219214,61.588279858291635
126,-0.249515299396355,-271.27300765778773,-10.747805120019141,-15.495220440250458,59.319060326253506,-3.3673404409355823,271.4974782375666,61.49572492070904
127,-0.2772293918842986,-271.2641360921885,-10.780111644608887,-15.197493869127756,59.29697949489979,-3.1852224250626304,271.48991644879635,61.38903805065369
128,-0.30946617053048303,-271.2545381783888,-10.798346155211503,-14.91032858291017,59.2609618181944,-2.9897393229154177,271.4811141117545,61.2708168445255
129,-0.3453416071407555,-271.24428253936304,-10.80253378944891,-14.640554586405813,59.21194172161553,-2.7835154697639415,271.4711368997021,61.14396807837051
130,-0.38399901497922334,-271.233463249449,-10.793028388720682,-14.394730024168398,59.15115906748831,-2.56922772616419,271.46008848474617,61.01164078199826
131,-0.424628227950118,-271.2222000984597,-10.770482563101613,-14.178992893272879,59.08012832313382,-2.349526357957656,271.44810971338404,60.87715200630159
132,-0.4664802578331896,-271.2106378887188,-10.735810510279277,-13.998923872992611,59.000599123033226,-2.126958650727259,271.4353765183217,60.74390700928301
133,-0.508877303318388,-271.1989444844168,-10.690145886823611,-13.859423951431557,58.91450919565155,-1.9038987822126672,271.4220963814582,60.615315863511555
134,-0.5512181835630433,-271.18730752306544,-10.634796719951982,-13.764610110120094,58.823931018417504,-1.6824870488612778,271.4085033411687,60.4947087425806
135,-0.5929794544157283,-271.17592986395937,-10.571199045981398,-13.717731709556636,58.731013949465954,-1.464580905765503,271.3948516892163,60.385252348583954
136,-0.6337126486036019,-271.1650239752967,-10.500870756228661,-13.721109460605824,58.63792385633195,-1.2517195059787907,271.38140861916173,60.2898700102367
137,-0.6730382441680656,-271.1548055264515,-10.425367010115242,-13.77609805069754,58.54678234866635,-1.0451026292188064,271.368446145416,60.2111678613771
138,-0.7106371082494322,-271.1454864400903,-10.346238517235204,-13.883072721145997,58.45960765679559,-0.8455841619968765,271.35623259562453,60.15136925429263
139,-0.7462402846837287,-271.13726763356874,-10.264993905500186,-14.04143941997531,58.37825907417619,-0.6536796433020592,271.3450239498684,60.11225927330499
140,-0.7796180382139565,-271.13033174171494,-10.183067154181106,-14.249667570708576,58.3043867569825,-0.46958678207208954,271.33505535484477,60.0951409437224
141,-0.810568982954178,-271.1248362590278,-10.101790695391989,-14.505343975210934,58.23938853721577,-0.2932172825773535,271.32653327414477,60.100804462740065
142,-0.838909945506618,-271.1209076356934,-10.022374440067088,-14.80524590336582,58.18437521565624,-0.12423786140439196,271.31962881864735,60.12951046998431
143,-0.8644670431728751,-271.11863679931423,-9.945890749490323,-15.145431014227258,58.14014551878533,0.03788189771053746,271.3144727277849,60.18098798701949
144,-0.887068370914128,-271.1180763862434,-9.873265159983541,-15.521341401534379,58.10717150762138,0.19381720961021778,271.3111522747686,60.2544471652826
145,-0.90653867329045,-271.11923978926524,-9.80527239087862,-15.927918767071356,58.08559474097153,0.3443334807227348,271.30971018149137,60.348606415744484
146,-0.9226963245501838,-271.12210206893974,-9.74253691941017,-16.359727503989873,58.07523300851272,0.4902314308021172,271.31014556181043,60.46173293711619
147,-0.9353527788005799,-271.1266028071239,-9.685537361830553,-16.811082320124516,58.07559705946767,0.6322937562779019,271.3124169429121,60.59169520931751
148,-0.9443144648387941,-271.13265096548645,-9.634614056469598,-17.276176947024826,58.08591648722763,0.7712350020283235,271.31644740504623,60.736025702169364
149,-0.949387029240446,-271.14013165440264,-9.589979408603316,-17.749210446600344,58.10517373340368,0.9076561892202492,271.3221317286689,60.89199180905624
150,-0.9503818588072647,-271.1489144870105,-9.551730562081826,-18.224507615378588,58.13214498200323,1.0420056151094934,271.3293452082263,61.056672783276156
151,-0.9471247523857221,-271.1588630463095,-9.519863794811979,-18.69663001558563,58.16544650265706,1.174547074287904,271.3379536398045,61.22704021659447
152,-0.9394663651610027,-271.16984499123345,-9.494289793712996,-19.160474328956163,58.20358477034959,1.3053365539603181,271.34782397965665,61.40003938536652
153,-0.927293751209476,-271.18174238031355,-9.47484878569442,-19.611355117168365,58.245008441999495,1.4342082191380254,271.3588352160771,61.572668630609556
154,-0.9105421722898417,-271.1944617600182,-9.461324474905217,-20.045069657588062,58.28816004586537,1.5607701956133049,271.370888962841,61.742053865279054
155,-0.8892063727330596,-271.2079433750806,-9.45345587826089,-20.45794322029935,58.331525128495926,1.68441026968698,271.38391909597345,61.90551537637255
156,-0.8633506816796304,-271.22216856710685,-9.45094646461522,-20.846853918059384,58.373676696734364,1.8043111869815536,271.3978994752096,62.06062438595706
157,-0.833117522898508,-271.23716422355034,-9.453470481199716,-21.209237083357934,58.41331311585261,1.919474790305437,271.4128486054662,62.20524737678856
158,-0.7987341097544646,-271.25300322747717,-9.460676872672275,-21.54306997419103,58.44928813441022,2.0287538070537097,271.42883020266345,62.337576921981665
159,-0.760517180183393,-271.2698003053713,-9.472191566891201,-21.846838444491603,58.480632307591215,2.130889685630292,271.44594908969043,62.45614858237507
160,-0.7188755501365971,-271.2877033442366,-9.487619057950036,-22.11948800695149,58.50656566917436,2.2245545114097403,271.46434252779886,62.55984423243797
161,-0.674310147346414,-271.30688090875304,-9.506544250442603,-22.360362395531038,58.526501985235875,2.308394768011568,271.484167748223,62.647882854555284
162,-0.6274112041872332,-271.3275071307851,-9.52853544498009,-22.56913318627091,58.540045321783765,2.3810746411796084,271.50558688660095,62.719800375781354
163,-0.5788524888403813,-271.34974529462255,-9.553149037533876,-22.745724186827395,58.54698002402783,2.441316754879998,271.528750663702,62.77542053617927
164,-0.5293827081770013,-271.37373135158043,-9.57993601544662,-22.89023419404616,58.5472555462256,2.4879386531740137,271.55378205080007,62.81481909500931
165,-0.47981434524870764,-271.3995583754314,-9.608449927510623,-23.00286144356125,58.5409678298522,2.519883878515628,271.58076092321363,62.83828387513634
166,-0.4310101439381218,-271.42726272691306,-9.638255889269189,-23.083832718508607,58.528339018252396,2.5362470131950587,271.60971045856303,62.84627315828569
167,-0.38386734151851504,-271.45681251012616,-9.668940265410646,-23.13333968305763,58.50969717768705,2.536292476756242,271.6405858530376,62.83937474529117
168,-0.33929976385243094,-271.4880987886273,-9.70012072572148,-23.151484581471664,58.48545741145308,2.519467238465511,271.67326581518716,62.8182676361996
169,-0.2982181260548013,-271.5209299189789,-9.731456344429832,-23.1382370450794,58.456105388913514,2.485407974650329,271.7075471858684,62.78368786484721
170,-0.26150920707733816,-271.55502918017766,-9.762657394193427,-23.093403435442667,58.422183918687956,2.4339435552749773,271.7431428537393,62.73639961098356
171,-0.23001474045767964,-271.59003565309945,-9.79349447806773,-23.016609914894776,58.384282787459846,2.3650939649170897,271.7796829116677,62.677172312361385
172,-0.20451073873347322,-271.62550814315813,-9.823806554071632,-22.907300219657156,58.34303167671133,2.279066774215404,271.81671883476554,62.606764097193846
173,-0.1856876607225863,-271.6609318912853,-9.853507222652715,-22.764748895426706,58.299095603790335,2.1762521471161556,271.8537304042189,62.52591148943937
174,-0.1741316082116313,-271.6957278252369,-9.882588442536262,-22.588090537911125,58.253172062793475,2.0572172255059717,271.8901350978672,62.43532505685832
175,-0.17030678656492362,-271.72926410741064,-9.91112068146811,-22.37636528801435,58.205988885431644,1.9227006120009564,271.92529966405414,62.33569046968798
176,-0.1745397610052471,-271.76086973961077,-9.93924847929846,-22.128580338667682,58.158301784448234,1.7736075051026574,271.9585535965029,62.22767425411166
177,-0.18700641360974232,-271.7898499983936,-9.96718065939482,-21.84378645075837,58.11089054501117,1.6110057686559347,271.9892042504442,62.111933299611565
178,-0.2077227613715411,-271.8155034734808,-9.995175053147102,-21.521167476830332,58.064552871460194,1.4361228514860769,272.01655336400336,61.98912690319409
179,-0.2365408109162751,-271.8371404387543,-10.023518411643394,-21.160139729735725,58.02009499745803,1.2503430749549906,272.03991473874026,61.85992985374674
180,-0.27315037263032366,-271.8541022057044,-10.052502837406522,-20.76045682874597,57.97831835953134,1.0552044608716606,272.05863278074725,61.725044848838536
181,-0.3170872889432418,-271.86578101154015,-10.082400440559791,-20.322314598306132,57.94000191708378,0.8523940583443794,272.0721015214352,61.58521245493322
182,-0.3677479365194208,-271.87163986502446,-10.113438099158355,-19.846449887202244,57.905880049319045,0.6437406724182424,272.0797836148841,61.44121690664517
183,-0.42440921517095215,-271.87123162132,-10.145774259084913,-19.334226922537805,57.87661634539713,0.4312039713679332,272.08122865833116,61.29388629776106
184,-0.4862526243110227,-271.8642164948665,-10.179479641687353,-18.787705004432446,57.85277400106831,0.21685911557081675,272.0760901158397,61.14408611725443
185,-0.5523905790133568,-271.850377341241,-10.21452354867897,-18.209681922986263,57.83478392403725,0.002876285312754432,272.0641402374647,60.99270558983759
186,-0.621892943074147,-271.8296322427422,-10.250767142718576,-17.603708364464705,57.82291205928749,-0.20850523371829024,272.0452825555755,60.84063689183513
187,-0.6938119037071753,-271.8020440158139,-10.28796454240857,-16.974069716057713,57.81722791249461,-0.4150084393038075,272.0195616030527,60.68874804393811
188,-0.7672037649949525,-271.7678261575902,-10.325771809074737,-16.325733090602935,57.81757671507625,-0.6143551718287072,271.98716937191404,60.53785108057326
189,-0.841146878559914,-271.72734457083163,-10.363763136996093,-15.664259135970612,57.823557978736034,-0.8043071677859092,271.9484478279015,60.38866783457716
190,-0.914755574864017,-271.68111430548043,-10.401453001746626,-14.99568030072559,57.834513204685194,-0.9827105429936639,271.9038866754565,60.24179625042821
191,-0.9871904810708685,-271.62979065420626,-10.438322671198058,-14.326349620033472,57.84952523346339,-1.147542289950281,271.8541156508411,60.09768051238541
192,-1.0576659697363042,-271.5741542881892,-10.473849222563272,-13.66276652605752,57.86743118151588,-1.2969571060478478,271.79989095552907,59.95658839478543
193,-1.125455639713303,-271.51509066583515,-10.507534974767383,-13.011388307690389,57.88685010103156,-1.4293326869137706,271.7420759740305,59.81859897831755
194,-1.1898966587084554,-271.45356456667224,-10.538935038543185,-12.378437269665955,57.906225404980056,-1.543311515945557,271.681617025988,59.68360310656059
195,-1.250393537544934,-271.3905911441373,-10.567680583808537,-11.769714117967826,57.92388080668064,-1.637837184275519,271.61951543502744,59.55131772216218
196,-1.3064215601752385,-271.3272052190213,-10.593495662564985,-11.190427561552012,57.93808722881327,-1.7121834230550073,271.55679753397555,59.421313740734384
197,-1.3575297722252486,-271.264430605645,-10.616206238991412,-10.64504869474666,57.94713705346022,-1.7659743342913483,271.49448433495763,59.293055676034285
198,-1.4033432268325305,-271.2032511469335,-10.635741332014,-10.137196672849177,57.94942137598386,-1.7991947522461063,271.4335625370885,59.165950070642374
199,-1.4435641453824215,-271.1445849198345,-10.652127374356187,-9.669559825899627,57.943505693529055,-1.812190213245307,271.37495838543475,59.03939908439662
200,-1.477971753495009,-271.08926277238004,-10.66547760129908,-9.243853966230553,57.92819973000149,-1.8056565827084508,271.31951562561164,58.912855418168405
201,-1.5064207363371882,-271.0380119502574,-10.675978378135914,-8.860817471936862,57.902617798882616,-1.7806198991556703,271.26797839823104,58.78587505095038
202,-1.5288384489266704,-270.9914450914069,-10.683873983854104,-8.520240896909465,57.8662270649448,-1.738407399058177,271.22097942207284,58.65816488394254
203,-1.5452211553466506,-270.95005438901217,-10.68945077368111,-8.221027368459845,57.81888208276205,-1.6806109837869165,271.17903331303773,58.52962311293206
204,-1.5556296328409973,-270.9142103407291,-10.693021152053756,-7.961278849787118,57.76084489950253,-1.6090445878235689,271.14253448286564,58.40037082426281
205,-1.5601844839627692,-270.8841642960571,-10.69490753972391,-7.738402496507654,57.69279071696419,-1.5256970097424447,271.1117588431794,58.27077384145017
206,-1.5590614574940664,-270.8600540076869,-10.695426469433878,-7.549230911543613,57.615799574418205,-1.4326818100621577,271.08686852896255,58.14145421301328
207,-1.5524869330608948,-270.84191150802064,-10.694873032927338,-7.390150160630121,57.531334761195474,-1.332185921678959,271.06791897124737,58.01329095888206
208,-1.540733450967508,-270.8296727240378,-10.693506122870984,-7.257229923693691,57.441208798579844,-1.2264186746555974,271.05486774714683,57.88740988236784
209,-1.5241148847623383,-270.8231882424205,-10.69153519947805,-7.14635099247629,57.34753797466483,-1.1175629575831714,271.04758464424367,57.76516251601462
210,-1.5029807558309893,-270.8222346152256,-10.689109478313938,-7.053326269321994,57.25268662959945,-1.0077301584671507,271.04586236173066,57.64809462310197
211,-1.4777093672406048,-270.8265256405008,-10.686310359705256,-6.9740122866899545,57.15920264975885,-0.8989203224849033,271.04942731417526,57.537905067958825
212,-1.4486997973416225,-270.8357231554757,-10.683147684117145,-6.904408997766608,57.069745920711405,-0.7929886516789649,271.0579501014408,57.4363962709159
213,-1.4163631704052182,-270.8494470122142,-10.679560144832216,-6.840746240534509,56.98701181607585,-0.6916190965624645,271.0710553339412,57.3454178920543
214,-1.38111387517142,-270.86728406335504,-10.675419940060495,-6.779555882341305,56.91365213046395,-0.5963053933425378,271.0883306517756,57.26680581662568
215,-1.3433614546734851,-270.88879614182076,-10.670541445469008,-6.717729168856771,56.85219612259264,-0.5083395209513014,271.10933492006444,57.20231886306249
216,-1.3035037214144378,-270.91352711831354,-10.664693333733378,-6.652559192711416,56.80497445891791,-0.4288072309755891,271.13360566713095,57.15357583568067
217,-1.261921338691907,-270.94100913733024,-10.65761325593899,-6.581768693108478,56.774048818612165,-0.35859006132606214,271.1606658352785,57.121995579996856
218,-1.2189738263788892,-270.970768100101,-10.649024058779275,-6.503523682596082,56.761149730946684,-0.2983730582702709,271.1900298752494,57.10874257191525
219,-1.1749968429626987,-271.00232844908646,-10.638650568302369,-6.416433744662888,56.76762486909976,-0.24865726619949904,271.2212092036149,57.1146802951003
220,-1.1303006556185364,-271.0352173299135,-10.626236100711687,-6.319540251090673,56.79439953984706,-0.20977589121656476,271.25371706816736,57.14033425268338
221,-1.0851698135672947,-271.0689681970893,-10.611557912296561,-6.212294146779209,56.84195051434059,-0.18191292196285067,271.28707285762493,57.185865938753004
222,-1.0398640888464696,-271.10312384744077,-10.594440743614328,-6.094525312314356,56.91029369052795,-0.16512294097677915,271.32080580539247,57.25105850640826
223,-0.9946207256430952,-271.13723877406255,-10.574767563037664,-5.966405848466682,56.99898544976125,-0.1593509402178351,271.35445794179253,57.33531430075265
224,-0.9496579639134327,-271.1708807346802,-10.552486744687208,-5.828409881166526,57.107137045211566,-0.16445119208323128,271.3875861535076,57.43766394841329
225,-0.9051797018125558,-271.20363155674005,-10.527615292659805,-5.6812725374790265,57.23344094195767,-0.18020456666950832,271.41976335098514,57.556786300786825
226,-0.8613810831243015,-271.2350874070269,-10.50023819221512,-5.525950487616631,57.376207679484196,-0.206334011194775,271.45057896782447,57.691038167597455
227,-0.8184547830864328,-271.26485895229604,-10.470504271085506,-5.3635858638413705,57.53341154813495,-0.24251812302499126,271.4796392261273,57.83849245243219
228,-0.7765977833216094,-271.2925719735247,-10.438619004441987,-5.195474528498009,57.70274320763285,-0.2884028304364291,271.5065677388399,57.99698306820622
229,-0.7360183796320561,-271.31786904084356,-10.404834671388228,-5.0230387371216665,57.881667331705266,-0.3436111808450234,271.53100706213684,58.16415488720602
230,-0.6969430299174002,-271.34041275059434,-10.369438405586022,-4.847803464150566,58.06748336288563,-0.40775118119619225,271.55262170971815,58.33751691142131
231,-0.6596225128855477,-271.359890712039,-10.332739015404407,-4.67137524279254,58.25738744590685,-0.48042159610701674,271.57110284100094,58.51449679174897
232,-0.6243368194514589,-271.3760220174931,-10.295053743650069,-4.495422373619627,58.44853362378922,-0.5612156325841309,271.58617439621,58.692494831295676
233,-0.5913982343263925,-271.38856453861604,-10.256696099805392,-4.321655627013187,58.63809251987562,-0.6497225354450137,271.59760006336256,58.86893575802796
234,-0.5611521449740384,-271.3973222394514,-10.217965502877567,-4.151808862287573,58.8233060067839,-0.7455272418450823,271.6051902983486,59.04131684006809
235,-0.5339752322904565,-271.40215181267905,-10.179138975571107,-3.9876191614776304,59.00153672207611,-0.8482083418302715,271.6088087172396,59.20725127324113
236,-0.5102708704077764,-271.4029682114414,-10.140464769354512,-3.8308061429078992,59.1703116916424,-0.9573346600635292,271.608377430934,59.36450615860538
237,-0.4904617925025754,-271.39974887944146,-10.102157662199161,-3.683050179496875,59.32735974827415,-1.0724608501222284,271.60388111545893,59.51103480045231
238,-0.4749803113950164,-271.39253657221536,-10.064395794742437,-3.5459693596289843,59.47064282148643,-1.1931224860596927,271.5953697047383,59.645003435927016
239,-0.4642565153281423,-271.3814406714189,-10.027319262561026,-3.421095186337661,59.598381426353406,-1.3188311980522938,271.58295961398636,59.76481275647013
240,-0.45870482601180934,-271.3666369276237,-9.991031011869277,-3.3098472033610333,59.70907474738643,-1.449070380390467,271.56683344732164,59.86911464934206
241,-0.45870917109437065,-271.34836563729857,-9.955600532545303,-3.2135069668557583,59.80151565416006,-1.5832919015077234,271.5472382114845,59.95682452840946
242,-0.4646069425492668,-271.32692831631704,-9.921070287992263,-3.133192023116547,59.87480091101445,-1.7209141121997031,271.5244820949294,60.027129547592644
243,-0.4766719946377436,-271.3026829474836,-9.887464052736304,-3.0698307744978233,59.92833682277681,-1.861321336649605,271.49892986035326,60.079492966384805
244,-0.4950971413987327,-271.27603785311135,-9.854795797429318,-3.024139327506178,59.96184056892497,-2.0038649617297764,271.47099685451366,60.11365494382332
245,-0.519976805061538,-271.24744420780405,-9.823077727273905,-2.996601633778603,59.975337463435096,-2.1478661647034767,271.4411416033504,60.12963001963245
246,-0.5512905705293648,-271.21738721840075,-9.792326487555853,-2.9874544224487223,59.96915432762537,-2.2926201718742187,271.4098569883149,60.12770148688757
247,-0.588888486970816,-271.1863760659291,-9.762567146919936,-2.9966784983848753,59.943909115389225,-2.4374017228291707,271.3776600911152,60.10841280248162
248,-0.6324790835699137,-271.15493277922985,-9.733835082606777,-3.02399784713195,59.9004969123457,-2.5814712009700918,271.34508088986064,60.07255614613141
249,-0.6816211375053108,-271.1235802806034,-9.706176156871978,-3.068887587311203,59.84007244415814,-2.7240807673216265,271.31265007202086,60.021158227942045
250,-0.7357201237139186,-271.0928299521493,-9.679645597225639,-3.1305911791074563,59.764029262757155,-2.864479859751785,271.28088633944304,59.95546345093713
251,-0.7940300018188077,-271.0631692192435,-9.654305917356195,-3.208146550112315,59.67397579537305,-3.0019196069750502,271.2502837244445,59.87691452723127
252,-0.8556606595392363,-271.0350497716992,-9.630224200681434,-3.3004200835454074,59.571708382120526,-3.1356560062622942,271.22129955716053,59.78713057002591
253,-0.9195910055113502,-271.008877077324,-9.607469169925468,-3.406146854678011,59.45918128940247,-3.264952032004291,271.1943437597347,59.68788253402233
254,-0.9846874153576746,-270.9850017571547,-9.586108570190566,-3.5239751767729994,59.33847356861574,-3.3890790975741103,271.16977005943863,59.58106575307293
255,-1.0497270050689225,-270.96371320537173,-9.566207312297461,-3.6525134486164443,59.21175266875506,-3.507318437849328,271.1478695223589,59.468669361685706
256,-1.1134250370439578,-270.9452356154225,-9.547826514547884,-3.7903774306241638,59.08123497682897,-3.618962984771148,271.1288665754266,59.352742653094865
257,-1.1744656100198203,-270.9297263827557,-9.53102319709477,-3.93623628982975,58.94914390677005,-3.7233201736322994,271.1129174775785,59.235358870534384
258,-1.2315346147695616,-270.91727670617587,-9.515850105777789,-4.088855916144227,58.817666640130575,-3.8197159071618927,271.10011103969975,59.11857740112524
259,-1.2833538220739962,-270.9079140870398,-9.502355084381085,-4.247138088173772,58.68891097475752,-3.907499727574755,271.090471265666,59.004405682493335
260,-1.3287149866110608,-270.9016063493679,-9.490579625268849,-4.410154116348217,58.56486387395175,-3.9860511708172215,271.08396151690556,58.894762261984326
261,-1.366512933347184,-270.8982668145621,-9.480556632594066,-4.577171683223127,58.447353240718044,-4.054787257909476,271.0804898272029,58.79144238112738
262,-1.3957766048848983,-270.89776032240127,-9.472307799530206,-4.747673778602749,58.338014242996486,-4.11317102434664,271.0799150641858,58.696087264991604
263,-1.415697007162486,-270.8999097838008,-9.465841098057648,-4.9213689399092,58.238261277981394,-4.160720901738482,271.0820536295998,58.61015807531583
264,-1.4256510671042428,-270.9045028440126,-9.461148653113847,-5.098192496823032,58.14926643952479,-4.197020742434121,271.0866862753517,58.53491530270866
265,-1.425220666543344,-270.91129814416024,-9.458204883639475,-5.2782991408412565,58.07194512949393,-4.221730352383766,271.09356450925395,58.47140421295218
266,-1.4142063773439248,-270.9200307477449,-9.456964518744597,-5.462047756759349,58.0069492067313,-4.23459646489503,271.10241613530235,58.42044677943822
267,-1.3926355508696426,-270.93041656075263,-9.45736014769304,-5.64997991276406,57.95466780567578,-4.23546400658767,271.1129497384852,58.38264031346922
268,-1.3607645027744657,-270.942155872619,-9.459299303144148,-5.842793620722863,57.91523569886645,-4.224287235319818,271.12485823698773,58.35836275480636
269,-1.3190747575693196,-270.9549363266614,-9.46266146311545,-6.041313951475796,57.88854881474779,-4.201139968157601,271.13782182383613,58.34778430626285
270,-1.268263681920784,-270.9684356522149,-9.467295571436818,-6.246461908349068,57.874286233692736,-4.166223842224575,271.1515106560683,58.35088478687949
271,-1.2092301699035237,-270.9823244074995,-9.47301866399002,-6.4592227285857104,57.871937676561956,-4.119873489143792,271.1655875688276,58.3674757589814
272,-1.1430561760995694,-270.99626887118046,-9.479615999712035,-6.680614527421284,57.88083521524678,-4.06255765190777,271.17971097390813,58.39722619909121
273,-1.0709847741462408,-271.00993414456605,-9.48684285282728,-6.911657890026326,57.90018772323474,-3.9948755519456483,271.1935380150438,58.439690272239346
274,-0.9943951348674389,-271.02298749839343,-9.494427981615365,-7.1533466514421225,57.92911646228816,-3.9175481679400828,271.2067280155822,58.49433564675586
275,-0.9147745520796772,-271.0351020018493,-9.502078779727839,-7.406619757609399,57.966690162934874,-3.831404494343734,271.21894625443696,58.560570752478924
276,-0.8336875733288869,-271.0459604994762,-9.509488095548917,-7.672333866993595,58.01195801805071,-3.737363265011437,271.22986813224134,58.637769462629436
277,-0.7527424532113255,-271.05526003048334,-9.516342589226399,-7.951236287393827,58.06397919884174,-3.6364109964693156,271.2391838153283,58.72529189897195
278,-0.6735554254171217,-271.0627167693117,-9.522332397515878,-8.243937945238859,58.12184780711826,-3.5295774987708484,271.24660342811995,58.82250040643329
279,-0.597713563683293,-271.0680715123365,-9.527161856755457,-8.550886312419204,58.184712539183295,-3.4179102229310203,271.2518628118365,58.92877015549704
280,-0.5267372248905949,-271.07109571591127,-9.530560932305402,-8.872338522620577,58.25179070198943,-3.302448944927382,271.25472984532394,59.04349424984595
281,-0.46204324688844556,-271.0715981282317,-9.53229670699219,-9.208335284404845,58.32237655945413,-3.1842022768113036,271.25501135093555,59.16608360858233
282,-0.40491023954256294,-271.06943204053925,-9.532183987569828,-9.558676638264227,58.39584426430565,-3.0641273095243315,271.2525605807389,59.295962224690044
283,-0.3564474499040997,-271.064502975896,-9.530094071151032,-9.922901032133888,58.47164582309997,-2.9431133534656233,271.24728506985946,59.432558639000455
284,-0.31756868175172587,-271.05677627232615,-9.525960966132475,-10.300269444455756,58.549304665151546,-2.8219703326294896,271.2391542909187,59.57529460665877
285,-0.2889724815773936,-271.0462837276742,-9.519784622955742,-10.6897562309266,58.628405484334365,-2.701421998552227,271.2282062633746,59.723571997736
286,-0.2711293249337365,-271.0331284528148,-9.511630814327223,-11.09004800817255,58.708581103750916,-2.582103815076271,271.2145522542804,59.87675897433796
287,-0.26427603561489177,-271.0174873097526,-9.501627307188311,-11.49955134799981,58.789497143848436,-2.464565124440262,271.19837893759785,60.03417640976646
288,-0.2684172522630454,-270.99961062196473,-9.489956133387903,-11.916409517244965,58.870835245130834,-2.349275021853792,271.17994769658986,60.19508537650589
289,-0.283333430665683,-270.97981908252615,-9.476842212630679,-12.338528070935796,58.952275541933766,-2.236631249627108,271.15959100879024,60.358676380009264
290,-0.30859464451561325,-270.95849788292,-9.462539176637788,-12.763608795339136,59.03347905195562,-2.126971409464401,271.1377059723922,60.52406090511378
291,-0.3435793157491156,-270.9360880649617,-9.447313705636905,-13.189191262345936,59.114070681239966,-2.0205858923569577,271.1147450287887,60.69026581114584
292,-0.3874969254290025,-270.91307506379735,-9.431429829507938,-13.61270107570807,59.19362366211698,-1.9177320681583137,271.09120390512646,60.85623117273846
293,-0.43941373382070953,-270.8899744755148,-9.415134522613306,-14.031503760989951,59.27164639068604,-1.8186493308872274,271.0676068594582,61.020812262268905
294,-0.49828062151025343,-270.8673152932358,-9.398645716494412,-14.44296316925919,59.347572706357425,-1.7235744878567751,271.0444895113064,61.18278640098573
295,-0.5629623029040749,-270.8456211639358,-9.382143658351916,-14.844503198457966,59.420756579536175,-1.6327567802980973,271.0223798394025,61.34086528704757
296,-0.6322672131475017,-270.8253905086025,-9.365766323419438,-15.233671520638536,59.490471936309284,-1.5464716819870632,271.00177820944145,61.49371312202366
297,-0.7049772852172715,-270.80707651180273,-9.34960930641303,-15.608203776295413,59.55591799280647,-1.4650326376876135,270.9831374478913,61.63997043357358
298,-0.779876741151623,-270.7910680039819,-9.33373026833496,-15.966086373402288,59.616230065268795,-1.3888000558194737,270.9668439834813,61.77828300165825
299,-0.8557790238846369,-270.77767218055953,-9.318157614769147,-16.305615724017738,59.67049544826819,-1.3181870859043705,270.9532009852092,61.907334845996736
300,-0.9315510613083521,-270.7670999859244,-9.302902667192395,-16.625451611352034,59.71777367759913,-1.253661948109299,270.94241429501017,62.0258839212138
301,-1.0061341365565142,-270.7594549136069,-9.287974228849636,-16.924662481059066,59.75712032951857,-1.1957468215537985,270.93458186327007,62.1327990261825
302,-1.0785607608021877,-270.754725992789,-9.273394216374317,-17.202760766008968,59.787613432643425,-1.1450134953148339,270.9296874059015,62.22709643907465
303,-1.1479671096340793,-270.7527857757658,-9.259212942186638,-17.459726792071958,59.80838156460869,-1.1020760949534785,270.9275990427257,62.30797489836238
304,-1.2136007486603093,-270.753394034826,-9.245522646496923,-17.696020270378913,59.818632747211176,-1.0675812347228812,270.92807357042955,62.37484771115567
305,-1.2748235579322513,-270.7562075191241,-9.23246799429495,-17.91257879313105,59.8176832735447,-1.0421959633476647,270.93076666981034,62.42737090209912
306,-1.3311100512845386,-270.76079559530865,-9.22025252633644,-18.110803112787337,59.80498552829336,-1.0265938681411317,270.9352488329451,62.46546635136728
307,-1.3820416768471346,-270.76666107851776,-9.209140463073252,-18.29252934441661,59.78015371182964,-1.0214396326144033,270.9410262984599,62.48933883531854
308,-1.4272980550706025,-270.7732651652617,-9.199453693174727,-18.459988632570454,59.74298624965716,-1.0273722240486216,270.9475659077767,62.499485885801946
309,-1.4666463179919964,-270.78005510294514,-9.191564127517779,-18.615755255341096,59.69348366088497,-1.044986831119731,270.95432253266983,62.49669951635806
310,-1.4999296937415663,-270.78649303489277,-9.18588183403463,-18.76268451627788,59.631860808099326,-1.074815773990353,270.96076753643166,62.48205913545167
311,-1.5270563031373119,-270.7920843413245,-9.182839544094174,-18.903842005527093,59.558552723913806,-1.1173088531410411,270.9664166171087,62.456915318889344
312,-1.547988967591815,-270.7964037820008,-9.1828743146105,-19.04242588840599,59.474213547913436,-1.1728138828829286,270.97085537118573,62.422864485084965
313,-1.5627367585022576,-270.7991178807776,-9.186407342600765,-19.181683908483897,59.37970847354414,-1.2415583591499812,270.9737610553284,62.38171489997265
314,-1.5713489602859505,-270.8000023070962,-9.193823097795518,-19.32482689706744,59.27609897278512,-1.3236332738932264,270.9749193411626,62.33544484447765
315,-1.5739119288426675,-270.7989534488579,-9.205449041063355,-19.47494079333624,59.164621881151334,-1.4189800098734882,270.97423529765064,62.286154162210245
316,-1.5705489567437236,-270.7959938016867,-9.221537261604627,-19.63489943102326,59.04666311719023,-1.5273810765313198,270.97173826551654,62.236010681645965
317,-1.5614227744157074,-270.79127113647365,-9.242249373656904,-19.807280555814554,58.92372687261597,-1.6484552176499478,270.96758062291735,62.187193143540235
318,-1.5467398430521946,-270.7850516936465,-9.267645865252057,-19.994287668758833,58.79740111999634,-1.781657131223892,270.96203072108204,62.14183232423844
319,-1.5267552543809977,-270.77770797045144,-9.297680731352854,-20.197680324717364,58.66932034599753,-1.9262816951922284,270.95546057344876,62.10195211958701
320,-1.501776969121607,-270.7697020026353,-9.332201714590946,-20.418715387304072,58.54112658793078,-2.081472256755615,270.9483292011256,62.06941247963143
321,-1.4721683772084986,-270.7615652933209,-9.370955936345563,-20.658101393863163,58.41443011391227,-2.246232308828543,270.94116277436876,62.0458562290489
322,-1.4383486756404595,-270.7538766321066,-9.41360022446166,-20.91596766344983,58.290771343517356,-2.4194397785416153,270.9345327685998,62.03266189225724
323,-1.4007910917894675,-270.7472389798152,-9.45971509309019,-21.191849224304573,58.171585715739454,-2.599863163277341,270.92903327782165,62.03090457226263
324,-1.3600192725027431,-270.74225643533373,-9.508821144501193,-21.48468814006013,58.058173090508994,-2.786178837602175,270.92525846453145,62.04132665760306
325,-1.3166021581508291,-270.73951213307504,-9.560396661317249,-21.792851357418446,57.95167295230484,-2.976988996954151,270.92378095637895,62.06431967786697
326,-1.27114755735244,-270.73954779557073,-9.613895319868751,-22.114164706362992,57.85304628025617,-3.1708398655360677,270.925131879578,62.09991807534712
327,-1.224294642840402,-270.7428455998884,-9.66876319610066,-22.44596211376502,57.763064573230636,-3.3662399311798334,270.92978316096514,62.147805101588716
328,-1.1767057236228526,-270.74981298920915,-9.72445444904828,-22.785148456932333,57.68230624074181,-3.561678048830204,270.9381327120053,62.20733055276275
329,-1.1290578038310497,-270.7607709961072,-9.780445228875674,-23.12827383265112,57.61116038118656,-3.755641275073257,270.95049305120057,62.277539633803165
330,-1.0820345298164664,-270.77594642895616,-9.836245511741506,-23.47161642429524,57.549837775260826,-3.9466322856408684,270.9670837132302,62.35721182906944
331,-1.0363191237739724,-270.79546787238456,-9.89140871327643,-23.811270724168104,57.49838861965411,-4.133186226693526,270.98802739780945,62.44490820182605
332,-0.9925887737870356,-270.81936498764355,-9.945539028805348,-24.143237722554723,57.45672609174948,-4.313886880984743,271.0133493482546,62.539025070570375
333,-0.9515106643531773,-270.8475702428051,-9.998296470894928,-24.463513865016747,57.42465434745511,-4.48738207904406,271.0429790929074,62.63785161413601
334,-0.9137394202994071,-270.87992201762836,-10.049399539598552,-24.768176074338808,57.401899121157705,-4.65239832642421,271.0767534946817,62.73962873231076
335,-0.8799153236854319,-270.91616796942253,-10.098625419644137,-25.053460824264263,57.388138796402934,-4.807754633360628,271.1144199927446,62.84260646467299
336,-0.8506623898453218,-270.9559676156324,-10.145807631615474,-25.315835988565453,57.38303369466963,-4.9523755235978095,271.1556389900399,62.945097430761216
337,-0.8265853336229249,-270.9988933846751,-10.190831203791713,-25.55206484151221,57.38625142808512,-5.085303187938797,271.19998464068044,63.04552408546448
338,-0.8082646174002052,-271.0444299646423,-10.233625641537037,-25.759262095493874,57.3974864972433,-5.205708764925481,271.2469438765022,63.142458078104376
339,-0.7962490795131678,-271.0919725059428,-10.274156214390867,-25.934942225326985,57.41647285167035,-5.312902773671039,271.29591424691904,63.23465062840727
340,-0.791045984462964,-271.1408248366679,-10.312414305061303,-26.077060541917845,57.44298879107924,-5.406344743254894,271.3462017566865,63.321053512749806
341,-0.793108618818813,-271.19019913886893,-10.348407652417176,-26.184047508954865,57.47685427596088,-5.485652023265434,271.397020178472,63.40083088717699
342,-0.8028217649427536,-271.2392185370579,-10.382151193651984,-26.254836619171876,57.517921331681634,-5.550607616870983,271.4474933153303,63.473362652623415
343,-0.8204855854626365,-271.28692388263767,-10.413658958212299,-26.288885792295854,57.56605867543029,-5.601166706181358,271.4966615111538,63.538240319803464
344,-0.8462986937487783,-271.3322856880054,-10.44293726826368,-26.2861918302674,57.62113192601711,-5.637461406572255,271.54349336986,63.59525636178812
345,-0.8803414255868947,-271.37422161713425,-10.46997946865039,-26.247297101914675,57.68298081110481,-5.659803235615437,271.5869030958784,63.64438794362383
346,-0.9225604750934956,-271.41161925074783,-10.494762557586187,-26.173287421896426,57.75139476378833,-5.66868282893554,271.6257731853438,63.68577581997376
347,-0.9727560592163669,-271.4433632277084,-10.51724634494306,-26.065780052520157,57.8260882964893,-5.664766564451162,271.6589815908429,63.71969918697174
348,-1.030572626875785,-271.46836549452325,-10.537375924236056,-25.926900846753277,57.90667759350265,-5.64888991448606,271.68543211958905,63.74654737560475
349,-1.095493872037275,-271.4855972997343,-10.555088062279186,-25.759249710636347,57.99265983342251,-5.622047454920887,271.7040867241965,63.766789413114346
350,-1.1668425226913928,-271.4941216568994,-10.570321555485744,-25.565853784333168,58.08339674832502,-5.58537947685951,271.71399841327354,63.78094256411065
351,-1.243785114306168,-271.49312512236304,-10.583030930884998,-25.350108073913105,58.17810379120686,-5.540155103402744,271.71434360825356,63.789540965539366
352,-1.325341697811058,-271.4819477797593,-10.593202366617556,-25.115703764985426,58.27584604550286,-5.487751798928838,271.7044528001433,63.79310544556327
353,-1.4104001641753667,-271.4601102950823,-10.600870432210337,-24.866545113400832,58.37554173478687,-5.429631244030235,271.68383831985733,63.79211563042869
354,-1.497734661389534,-271.4273369089968,-10.606134099743263,-24.606656592505452,58.475973909112916,-5.367311757266962,271.6522180304549,63.7869855076794
355,-1.5860274846071194,-271.3835733748764,-10.60917036572946,-24.34008283767332,58.575810602797844,-5.302337740083206,271.60953388484415,63.77804371229196
356,-1.673893741940755,-271.32899914886394,-10.610243767267944,-24.07078481365917,58.67363347127651,-5.236246926787266,271.5559645865143,63.76551989952461
357,-1.7599079326178535,-271.2640334959015,-10.609710194934179,-23.802536430884135,58.76797457124632,-5.170536458596076,271.49193195226115,63.74953856615171
358,-1.8426313980778843,-271.18933546327304,-10.608013799914854,-23.538826417300193,58.85736046452682,-5.10662894447247,271.4181008789085,63.73012144659898
359,-1.9206395831754326,-271.105797832975,-10.605676391281564,-23.282770512493197,58.94036217270983,-5.045839753748883,271.3353729998641,63.70719908216033
360,-1.9925482109150723,-271.01453521341176,-10.60327935247351,-23.037038914737785,59.0156487552498,-4.989346809715012,271.2448741920811,63.68063138301167
361,-2.057037755722105,-270.91686639540507,-10.601438727494907,-22.8038032970951,59.08204156045329,-4.938164048683371,271.14793608385787,63.65023607168874
362,-2.112875935091282,-270.81429101327427,-10.600774797785588,-22.584706590224553,59.138565667683686,-4.893119430739947,271.04607165785865,63.615822960067064
363,-2.158938271912075,-270.70846051034505,-10.601878158032035,-22.380857229754774,59.184494849559655,-4.854838020682643,270.9409450313459,63.577231264872886
364,-2.194227017917644,-270.60114352437836,-10.605274845869301,-22.192847910734567,59.21938661143768,-4.823730355009895,270.83433563336934,63.534366772533666
365,-2.217888779635839,-270.4941861256383,-10.611393344970695,-22.020797277997392,59.2431044932269,-4.799986164042815,270.72809732353846,63.487235677702735
366,-2.2292310139411784,-270.3894677779999,-10.620536199708482,-21.864411526259417,59.255825775620984,-4.783573507446684,270.6241134271954,63.4359723100455
367,-2.2277372306874343,-270.28885428061614,-10.632858529675246,-21.723061659886888,59.258033930305125,-4.774243414308444,270.5242490280077,63.38085866112678
368,-2.2130804341005885,-270.1941491507988,-10.648354952794717,-21.595871222596376,59.25049645287965,-4.771540083986086,270.43030203112664,63.32233450431333
369,-2.1851341953091206,-270.10704495574714,-10.66685548922584,-21.481808706378388,59.23422991616545,-4.774816527831256,270.3439545218707,63.260997789163035
370,-2.14398074041793,-270.0290761276202,-10.688030194515965,-21.379778678027357,59.21045499585015,-4.783255228107171,270.26672594016316,63.197595750512455
371,-2.08991544596491,-269.9615748899904,-10.711401736447204,-21.288706021221838,59.18054477300014,-4.795893050589079,270.19992966149607,63.133007776257415
372,-2.0234471392416906,-269.90563208027544,-10.736364830149329,-21.20760858568229,59.14596982415637,-4.811649369106283,270.14463471595303,63.06822155519982
373,-1.9452936642014302,-269.86206482536363,-10.762211209983917,-21.13565482073375,59.10824350809101,-4.829356184158302,270.10163453607515,63.00430436986978
374,-1.8563723097166758,-269.8313931334759,-10.788158591968624,-21.072204438013,59.06887049133905,-4.847788941822373,270.0714247182146,62.94237157380831
375,-1.757784898799666,-269.81382736507857,-10.81338194433711,-21.016831601578616,59.02930097906954,-4.865696790758195,270.05419167514464,62.88355427911354
376,-1.650797656751646,-269.8092680496635,-10.837045375398532,-20.969331416115057,58.990892388453595,-4.8818311663132725,270.04981356454465,62.828968065936756
377,-1.5368164365299126,-269.81731852322224,-10.858333055090394,-20.929711452531425,58.95487936376777,-4.894971831387354,270.057873900326,62.77968410402259
378,-1.4173583406554522,-269.83730958782235,-10.876477840397278,-20.898170680849564,58.92235215880335,-4.903949768800796,270.0776870050878,62.73670349787389
379,-1.2940210529662752,-269.86833428100766,-10.890786685715996,-20.875068521246018,58.89424263678368,-4.907666577245371,270.10833337715104,62.700935074572214
380,-1.1684512482396954,-269.9092901445207,-10.90066237894604,-20.860886841591505,58.87131662243873,-4.905110284909877,270.1487023715091,62.67317640632826
381,-1.0423133431580236,-269.958926056165,-10.905621481239912,-20.85618766052103,58.85417117702636,-4.89536774501375,270.19753928180376,62.654097699268604
382,-0.9172596138600154,-270.01589067809033,-10.905308443423522,-20.861569070582703,58.8432355124572,-4.877633951057243,270.253493900932,62.64422824655822
383,-0.7949024054985072,-270.07877989886055,-10.899505747108423,-20.877621496678547,58.83877457825783,-4.8512186761756535,270.31516795319385,62.64394531441767
384,-0.6767889384761888,-270.14618121335343,-10.888139745831792,-20.90488591808513,58.84089469728913,-4.815550839691437,270.38115934637483,62.653465490501134
385,-0.5643791054842751,-270.21671357129736,-10.87128184255128,-20.943815227877625,58.84955088924759,-4.770180977200179,270.4501017726792,62.6728386193073
386,-0.4590265246753193,-270.2890616733152,-10.849144780581918,-20.994739599947952,58.86455568360537,-4.714782147159937,270.5206986363211,62.70194449650318
387,-0.36196287648478903,-270.36200400196145,-10.82207407401194,-21.057836627047667,58.8855893452266,-4.649149560508255,270.5917505995506,62.74049256504367
388,-0.27428528857887696,-270.4344341324807,-10.790534859784172,-21.133107039466097,58.912211567000796,-4.573199197298046,270.6621763021336,62.78802498682926
389,-0.19694638433955491,-270.50537516540396,-10.755094633627076,-21.220356917467537,58.94387478819404,-4.486965670500986,270.73102610996466,62.84392358897859
390,-0.13074659466665428,-270.57398750996634,-10.716402412782578,-21.319187375738206,58.97993930037097,-4.390599574495468,270.7974891350564,62.907421199220536
391,-0.07632837548556641,-270.6395706895499,-10.675164915111733,-21.428992659965985,59.019690177437916,-4.284364512258587,270.86089421052395,62.97761774330175
392,-0.03417203686213692,-270.701560207079,-10.632120430432192,-21.548967427700937,59.06235584144159,-4.168633980389676,270.92070587309223,63.05350120065069
393,-0.004592968733036773,-270.7595206734523,-10.588011181405237,-21.678123702518622,59.10712780676959,-4.043888321884538,270.97651657598664,63.13397316065324
394,0.012259905334098974,-270.81313637680876,-10.543555126205215,-21.815317637988652,59.153180895469,-3.910711980898531,271.02803633723545,63.217878360675826
395,0.016404623272175813,-270.8622003647135,-10.499418400449278,-21.959285843188855,59.19969304450791,-3.7697912814071284,271.07508093390595,63.304037283480156
396,0.008025773006921047,-270.90660299863043,-10.456189879132221,-22.108690602208195,59.24586378091142,-3.621912941557143,271.11755965286557,63.39128069415913
397,-0.012526854288293327,-270.94632082622263,-10.41435943875584,-22.262172843712673,59.29093054262706,-3.467963544205139,271.1554635007023,63.47848491846949
398,-0.044740832207407905,-270.98140646540526,-10.374301278729313,-22.418411190526136,59.334182232962526,-3.3089301544526006,271.18885461721226,63.564606668432496
399,-0.08794536431542785,-271.01197994159236,-10.336263220915074,-22.576184901123824,59.37496963335618,-3.1459021523869453,271.21785736868827,63.64871624683397
400,-0.14131775918889924,-271.0382215635327,-10.300362414392167,-22.734438064728327,59.41271251021551,-2.980074142194793,271.24265122271123,63.73002798043339
401,-0.20389251140176295,-271.06036609331227,-10.266587416935382,-22.892342029256078,59.44690345759387,-2.8127495552070294,271.26346515861513,63.807926764997724
402,-0.27457315310771424,-271.07869780994747,-10.234806257730062,-23.04935268881413,59.47710876633216,-2.6453443347131045,271.28057319682824,63.881989689301705
403,-0.352146787554292,-271.09354608076694,-10.20477983765616,-23.205258954757426,59.502966883738964,-2.479389901032291,271.29429063433037,63.952001833350806
404,-0.43530105613429554,-271.10528111992323,-10.176179872716787,-23.36021861369032,59.52418522695143,-2.3165344370629812,271.3049706314409,64.01796546514814
405,-0.5226432519278195,-271.11430964799274,-10.148610532099864,-23.514778010940017,59.540536156696184,-2.158541396094216,271.313000826738,64.08010197943157
406,-0.6127212970364069,-271.12107016918446,-10.121633011335092,-23.66987267011094,59.55185283716672,-2.007284038593677,271.318799662743,64.1388460925521
407,-0.7040462663177528,-271.1260275530134,-10.094792457954757,-23.826807015639048,59.55802560385067,-1.8647347950776956,271.32281208261486,64.19483210954157
408,-0.7951160510753287,-271.1296665347858,-10.067646728353443,-23.98721269268157,59.558999368484024,-1.7329483636079295,271.3255041887912,64.24887250687588
409,-0.8844396480834397,-271.1324836996646,-10.039796282045435,-24.152986456513926,59.55477242973561,-1.6140377105110897,271.32735639953387,64.30192951199344
410,-0.9705614898927322,-271.1349776232134,-10.010914245491781,-24.326210084335017,59.54539675948803,-1.5101425534235753,271.32885473842,64.35508068498156
411,-1.052085268905691,-271.1376371358054,-9.980775484568573,-24.509056061206188,59.53097945258508,-1.4233904207262704,271.3304801802609,64.40947969041977
412,-1.1276968724063896,-271.14092800359,-9.949283412672692,-24.703683742511373,59.5116846897101,-1.3558509349606522,271.3326962992947,64.46631353216064
413,-1.1961862509054233,-271.1452785264935,-9.916493170302543,-24.912131229501178,59.48773533976171,-1.309484522663647,271.3359356713257,64.52675754665634
414,-1.256468131512312,-271.1510646794371,-9.882629814181698,-25.13620834171358,59.45941322015118,-1.2860872947417494,271.3405856084918,64.59192942601689
415,-1.3076013676030795,-271.15859556956485,-9.848100333936136,-25.37739586941264,59.42705705303932,-1.2872343312064283,271.3469739587965,64.66284350095688
416,-1.3488064321553515,-271.1681001157096,-9.813498604737571,-25.636755753922998,59.39105733833129,-1.3142239683803558,271.355355845594,64.7403664955719
417,-1.3794802734335843,-271.17971584226535,-9.779602681108571,-25.91485602908723,59.35184769137865,-1.3680258514068993,271.3659022175521,64.82517597186309
418,-1.3992076393593098,-271.19348048959694,-9.74736414205858,-26.211713386793818,59.30989257075588,-1.4492354302691495,271.3786909003003,64.91772266842665
419,-1.4077681222920653,-271.2093269118893,-9.717889550805797,-26.526755219490592,59.26567166089701,-1.5580372344049997,271.3937006240125,65.01819786431926
420,-1.4051384914941627,-271.2270815970955,-9.692414472890952,-26.858801996495348,59.21966145949447,-1.6941787115958753,271.4108083813233,65.12650677050831
421,-1.391490205303837,-271.2464670927915,-9.672270845299694,-27.20606987721087,59.17231488836936,-1.8569557644804855,271.4297904342665,65.24224881419133
422,-1.3671822535667828,-271.2671085436577,-9.658848761442298,-27.56619260654431,59.12404003537635,-2.0452104762656864,271.45032722266086,65.36470559053502
423,-1.3327496949723492,-271.28854437252767,-9.653553915212793,-27.936261042889097,59.07517942699921,-2.2573409728846725,271.4720122606578,65.49283722349078
424,-1.288888429223327,-271.3102409080057,-9.657762042096959,-28.31287816462159,59.02599143752291,-2.491322948652157,271.4943648838062,65.62528783299484
425,-1.2364368212281844,-271.3316105579336,-9.672771735299234,-28.692227068429766,58.97663545705243,-2.744742039722822,271.51684650687395,65.76040065045548
426,-1.1763547364798295,-271.35203298436556,-9.699757029955789,-29.070149305813814,58.92716223812246,-3.01483590047906,271.5388799085315,65.89624303389999
427,-1.1097004308244431,-271.3708786327843,-9.73972117096903,-29.442230922763304,58.87751047391874,-3.2985445267650837,271.5598709550092,66.03064127196075
428,-1.0376056998965568,-271.387533860349,-9.793453041611356,-29.803893750477027,58.8275102069083,-3.592567148040382,271.57923206703686,66.16122469649181
429,-0.9612497941970903,-271.4014267524649,-9.861487828251471,-30.15048976608243,58.776893185402365,-3.8934239223682243,271.59640658044816,66.28547827135822
430,-0.8818327949701603,-271.4120525157303,-9.944073591581565,-30.477396649276628,58.72530981266333,-4.197520675131149,271.6108929511065,66.400802499972
431,-0.8005493186935074,-271.4189971478157,-10.041145467904341,-30.780113005912725,58.67235188049869,-4.501214948784715,271.6222675669844,66.50457920797872
432,-0.7185634775524075,-271.4219579869382,-10.152309189069815,-31.054352093195234,58.61757986763256,-4.800881637678802,271.6302048283318,66.59424151913129
433,-0.6369859359904686,-271.4207597819557,-10.276835409128296,-31.296133149772224,58.560553271648814,-5.092976492954063,271.6344931853855,66.66734615372704
434,-0.5568537131626661,-271.4153651013875,-10.413665916052942,-31.501869463388537,58.500862295633794,-5.374095858376214,271.63504598415057,66.72164603414774
435,-0.479113169524388,-271.4058781833659,-10.561432220915858,-31.668452084378668,58.43815922734122,-5.641031187420336,271.63190623331417,66.7551610786966
436,-0.4046064479224004,-271.3925416847635,-10.718486278928301,-31.793327781764955,58.37218795684676,-5.890817196448817,271.625244735614,66.76624501564457
437,-0.3340615226423558,-271.37572622539847,-10.882942229831057,-31.874569644985034,58.30281019961097,-6.120772882668758,271.615351433989,66.75364607554295
438,-0.2680858948297201,-271.3559131732667,-11.052727225766136,-31.91093874529909,58.23002709717008,-6.3285350194795775,271.60262034342696,66.71655953236511
439,-0.2071638233491578,-271.33367173062317,-11.2256388891786,-31.901935440920095,58.15399497020072,-6.512084099870372,271.58752903333067,66.65467025116199
440,-0.15165683651821033,-271.3096318964684,-11.399406733098468,-31.84783912040775,58.07503413496945,-6.669763016448808,271.57061413110927,66.5681836373512
441,-0.10180719408757535,-271.2844551453057,-11.57175482848563,-31.749735303280442,57.993629916929095,-6.800289022394695,271.5524445777165,66.4578436541413
442,-0.057743941004097424,-271.2588046627748,-11.740463102978804,-31.609529006997356,57.91042534101227,-6.902759685512709,271.5335943688715,66.32493688552219
443,-0.019491149734405862,-271.23331684046394,-11.903424974814344,-31.429943224068847,57.826205440801786,-6.976653635126029,271.51461638927714,66.17128200419785
444,0.013022089254971468,-271.2085755938841,-12.058699445329243,-31.214501369451067,57.74187366952988,-7.021826941963752,271.4960188246498,65.99920449041447
445,0.03995028762560807,-271.18509094439753,-12.204556092201402,-30.96749274202422,57.658421444985606,-7.038505973066726,271.4782455246194,65.8114970188349
446,0.06151892974126816,-271.1632830655452,-12.339511673310982,-30.693920391266776,57.57689230812659,-7.0272775051156815,271.4616614595569,65.61136648681925
447,0.07801055167650169,-271.1434725027408,-12.462357495131087,-30.39943124688444,57.498342420276984,-6.989076751964001,271.44654394286704,65.40236908862522
448,0.08974955154247415,-271.1258765721641,-12.57217733299599,-30.09022893597546,57.42379916037015,-6.925173786521041,271.4330796170496,65.18833513379063
449,0.09708609127896126,-271.11061126349745,-12.668356225474456,-29.772970390940912,57.354219507084096,-6.837158632913155,271.42136654645816,64.97328555402595
450,0.10037990126247645,-271.0976975821266,-12.750580664011292,-29.454648127999363,57.290449791447436,-6.7269250632984665,271.41142038046485,64.76134231153675
451,0.09998516299393363,-271.0870712777809,-12.818830659174528,-29.14246087020002,57.2331882927552,-6.596652838371498,271.4031835598108,64.55663518017992
452,0.0962377483821278,-271.07859519535265,-12.873364175128035,-28.843675858434803,57.18295201116921,-6.448787817522933,271.39653682702095,64.3632075449996
453,0.08944584713000966,-271.07207379139305,-12.914694648330679,-28.56548658160276,57.140048823569884,-6.2860191443494,271.3913126190983,64.18492392883604
454,0.07988450482538959,-271.06726945605726,-12.943562676497733,-28.314869686566464,57.104556158570325,-6.111252688203295,271.38731003438625,64.02538192076457
455,0.06779404718690842,-271.0639201068329,-12.960903300724638,-28.098444579948172,57.076307274388796,-5.927580089880585,271.3843109083782,63.88783105304247
456,0.0533819525314381,-271.0617572177415,-12.967810488802256,-27.922338878747162,57.05488609567681,-5.738243040534224,271.3820962390627,63.77510093819432
457,0.0368274913948288,-271.0605232123665,-12.965500457205021,-27.792062537368604,57.039631311167184,-5.546592761187711,271.3804619669188,63.689540645342376
458,0.01828835391634382,-271.05998708636963,-12.955275352047591,-27.712393232389676,57.029650079876,-5.356045014933695,271.3792330444122,63.63297091225039
459,-0.002091502272003035,-271.05995724928374,-12.938488501193406,-27.68727543557307,57.02384128697109,-5.170031304742292,271.3782748378832,63.60665039743665
460,-0.02417349073248256,-271.06029084759473,-12.916511972207767,-27.719735508816093,57.02092783765783,-4.991947104969301,271.377501153539,63.61125675352102
461,-0.04781619753676425,-271.0608991539439,-12.890706717292138,-27.811815011003496,57.01949695127053,-4.825098053824934,271.3768784798409,63.64688278014787
462,-0.07286803481696813,-271.06174888621786,-12.862395389291716,-27.964524116403283,57.01804682658817,-4.6726451013217005,271.3764263069284,63.7130472661287
463,-0.09916141412508545,-271.0628595669094,-12.832838021900228,-28.17781657826403,57.01503749179722,-4.53754974035291,271.37621363413155,63.808719439397485
464,-0.12650897089598578,-271.06429730909855,-12.803211000268478,-28.45058707013154,57.00894327465037,-4.422520624000522,271.3763520628512,63.93235535698812
465,-0.15470215111530666,-271.0661656720124,-12.774589834514622,-28.780691061448124,56.998304216531906,-4.3299630239348765,271.3769861328111,64.08194418292138
466,-0.18351223730804322,-271.06859432350444,-12.747936037498059,-29.164986691732867,56.98177388922705,-4.261932686893266,271.37828164460194,64.25506212436062
467,-0.212693630950868,-271.071726144967,-12.724088001715629,-29.599397467890345,56.95816137630297,-4.2200956966795165,271.38041259124725,64.44893178314328
468,-0.24198890137518383,-271.0757032882391,-12.703755439198522,-30.078994085304636,56.92646557380036,-4.205695906612115,271.3835471809535,64.66048478351445
469,-0.2711348584172094,-271.0806527631281,-12.687516891198587,-30.59809327502443,56.88590040786459,-4.219531312011556,271.3878335002347,64.88642572051631
470,-0.2998688485604223,-271.08667243333804,-12.675820017311118,-31.150371255553576,56.835910066592085,-4.261940386837495,271.393385675197,65.12329571996224
471,-0.3279346178563786,-271.09381863333647,-12.668984657380808,-31.72898906169657,56.77617391410386,-4.332798985676401,271.40027173653885,65.36753420324894
472,-0.35508728963265446,-271.10209673405154,-12.667208785829612,-32.32672671782543,56.7066013672697,-4.431527982722622,271.4085045162073,65.61553778022126
473,-0.38109713260055567,-271.11145576168417,-12.670577296775843,-32.93612293509864,56.627317591895476,-4.557111403632123,271.418036674985,65.8637154912311
474,-0.40575184266949194,-271.1217876801459,-12.679073157604366,-33.54961676017406,56.53864134689519,-4.708124395036722,271.42876045243804,66.10853983313393
475,-0.428857141670267,-271.132931356965,-12.692590113122588,-34.1596874005847,56.44105666380976,-4.882769983087767,271.44051212704875,66.34659313469079
476,-0.45023568957810567,-271.1446807005505,-12.7109460148237,-34.75898834064664,56.335180319239555,-5.078923246660534,271.4530806388638,66.57460894320086
477,-0.4697245832227717,-271.1567960552113,-12.733896010255256,-35.34047192844456,56.221727231138566,-5.294181323175523,271.46621943278586,66.78950819194745
478,-0.4871719698780099,-271.1690177042628,-12.761145131993134,-35.89750093259915,56.101475936964796,-5.5259175880157,271.4796603580549,66.98843003961046
479,-0.5024334154752542,-271.1810803062642,-12.792360085455394,-36.423944128085296,55.975236150073044,-5.771338372851231,271.4931284459418,67.16875737237932
480,-0.515368567425805,-271.19272725261806,-12.827180131679633,-36.914253711052254,55.84382005239025,-6.027540674915783,271.5063565558306,67.32813701948999
481,-0.5258384198791685,-271.2037241626583,-12.865226962697115,-37.36352322138656,55.70801853834057,-6.2915694395212265,271.5190991087041,67.46449479667571
482,-0.5337033035572044,-271.21387092630744,-12.906113535041198,-37.76752563941223,55.56858316510477,-6.560473150985519,271.5311443244422,67.5760456180018
483,-0.5388216928254992,-271.2230118688609,-12.949452003898818,-38.122732352939416,55.42621413990552,-6.831356602241365,271.5423245512176,67.6612991073781
484,-0.5410500134738573,-271.2310437902989,-12.994861049687284,-38.426314671723965,55.28155431014281,-7.101429813401398,271.5525244585374,67.71906136315746
485,-0.5402437304273073,-271.2379218214852,-13.041972842879083,-38.676130422240746,55.13518885532562,-7.368052160966731,271.5616870517346,67.7484337726694
486,-0.5362599814728057,-271.24366316546264,-13.090439632972663,-38.8706988223457,54.98765024609753,-7.628770897119336,271.56981757789833,67.7488100325739
487,-0.5289618505844819,-271.2483487628908,-13.139939625766754,-39.00916725449132,54.839427998093065,-7.8813534186469605,271.57698534726535,67.71987274463326
488,-0.5182241187169442,-271.2521227457295,-13.190181595077217,-39.091273695348214,54.69098270032514,-8.12381292897462,271.58332330699665,67.66159102368485
489,-0.5039401731960238,-271.2551893495343,-13.240907607189838,-39.11730841837527,54.54276366047089,-8.354427516918367,271.58902500582104,67.57422040940695
490,-0.48602982390235433,-271.25780688980467,-13.291893287240287,-39.0880781728793,54.39522928619695,-8.571753052717346,271.59433852518407,67.45830601150163
491,-0.4644479811904628,-271.26027854124794,-13.342945190627763,-39.00487536166608,54.24886905255265,-8.774630544672066,271.59955709331695,67.31468925744036
492,-0.43919425828659675,-271.26293994677405,-13.393895012109835,-38.86945381053614,54.10422563029048,-8.962188654632167,271.60500639607557,67.14451789009016
493,-0.41032338710314276,-271.26614401977383,-13.44459053928822,-38.68401162937303,53.96191553047767,-9.133841999398571,271.61102894429735,66.94925808266298
494,-0.3779559176744627,-271.2702436079675,-13.494883482770112,-38.45118054921521,53.82264654792776,-9.289285771349476,271.61796617321437,66.73070686614659
495,-0.34228824904165345,-271.27557292307887,-13.544614668881048,-38.17402011746433,53.68723042999397,-9.428487132984824,271.62613920274816,66.49100263585409
496,-0.30360085908742496,-271.2824287812289,-13.59359756686167,-37.85601431675748,53.55658953979146,-9.55167372045582,271.63582935231955,66.23263133606554
497,-0.26226370362606977,-271.2910527263744,-13.641601651311943,-37.50106757983792,53.431756720007975,-9.659319359854441,271.64725955751993,65.95842594072914
498,-0.21873799067264862,-271.3016150436321,-13.688337522276415,-37.11349686337717,53.31386799826435,-9.75212677486358,271.6605777908728,65.67155701026186
499,-0.17357374649893156,-271.3142015781683,-13.733445862523498,-36.69801648618982,53.204148169209965,-9.831006772028259,271.67584350432116,65.37551243428624
500,-0.127402732779466,-271.3288042286072,-13.776492119189598,-36.259712835099684,53.10388961090441,-9.897053287948246,271.69301805334175,65.07406496750053
501,-0.08092641309499361,-271.3453159706677,-13.81696829075091,-35.80400671442598,53.01442489422016,-9.951513854892235,271.7119600229554,64.7712267584534
502,-0.034898901700283286,-271.36353116852854,-13.854302495561935,-35.33660195263895,52.93709381546365,-9.99575544610657,271.73242624181177,64.47119068298157
503,0.009894790117511456,-271.38315162388596,-13.887876235430014,-34.86341979247655,52.87320549464702,-10.031226172147445,271.754078924672,64.17825891046833
504,0.052664409840206663,-271.4037982980165,-13.917048606646048,-34.390519519485615,52.82399624902012,-10.059413793100925,271.7764988360259,63.89675978989186
505,0.09264276931897418,-271.42502806396305,-13.941186249698937,-33.92400668201813,52.790584162251925,-10.081802416353474,271.79920376634084,63.63095487739166
506,0.1291151788271558,-271.44635438023283,-13.95969746867758,-33.469931058324654,52.77392162977539,-10.099829014997608,271.821671128623,63.384938699310176
507,0.16144844992472848,-271.4672705163695,-13.972068505133064,-33.03417715177247,52.77474759459307,-10.114841487136486,271.8433631997755,63.16253454329703
508,0.1891179961413727,-271.4872738775723,-13.977899444140112,-32.62235040056852,52.793541597066145,-10.128059885505358,271.8637534227972,62.96719009429804
509,0.21173162844660384,-271.50588998020197,-13.976936911618337,-32.23966250368348,52.83048206886608,-10.140542232203384,271.8823521737762,62.80187704448334
510,0.22904865277236497,-271.52269467098824,-13.969100770367126,-31.89081935009261,52.885411438777496,-10.15315604811907,271.8987304391414,62.668998893858564
511,0.2409929310930584,-271.53733329109656,-13.954502429700902,-31.579915040161083,52.95781051956198,-10.166556391154197,271.9125399756486,62.57031099514677
512,0.2476588058152619,-271.54953571525033,-13.933453096522694,-31.31033543687876,53.046784281891,-10.181170806453284,271.9235287905939,62.50685647553596
513,0.24930926726472005,-271.5591265536977,-13.906461279841741,-31.084674568430565,53.151060555896734,-10.197191157651792,271.93155118990865,62.47892103888504
514,0.24636638244718947,-271.5660302386286,-13.874220006781558,-30.904666937627947,53.269002553111854,-10.214571899874244,271.9365721384645,62.48600888404616
515,0.23939462533772612,-271.5702711215012,-13.83758527123653,-30.771138300702514,53.39863544892639,-10.233034075663655,271.9386661401472,62.52684110963448
516,0.2290782065144373,-271.57196898883313,-13.797547950992564,-30.683976797059916,53.537686627099866,-10.252074224183485,271.93801116473514,62.599377058334625
517,0.2161937477282075,-271.57133056083086,-13.7552017121324,-30.64212557524317,53.68363859007974,-10.270977460552364,271.93487831960965,62.70085817046447
518,0.20157974112706792,-271.56863762225913,-13.71170938026396,-30.643597397412965,53.833793015138355,-10.288834115839755,271.92961804655096,62.82787314605615
519,0.18610428372566332,-271.5642324668233,-13.668269983514708,-30.685511196571934,53.985343970580516,-10.304559458093596,271.9226436417991,62.97644257194317
520,0.17063266750613465,-271.55850133364004,-13.62608814885143,-30.764150218387307,54.135457861180306,-10.316916130347256,271.9144128692143,63.14212062662822
521,0.15599650429171227,-271.55185653830284,-13.586346806113273,-30.87504111248251,54.281357268597056,-10.324539069480954,271.90540842455755,63.32011100951233
522,0.1429660360038748,-271.5447180876891,-13.550183397286588,-31.01305298623805,54.42040556284425,-10.325962819383667,271.8961180579213,63.50539383874536
523,0.13222700178535496,-271.5374956528677,-13.518669191853132,-31.172514855956585,54.55018903300074,-10.319651275363285,271.88701521653724,63.692859890616795
524,0.12436291553043217,-271.5305717321588,-13.492790979490175,-31.347349076825868,54.668593316833814,-10.304029913077352,271.87854101101755,63.87744817649505
525,0.11984299456303985,-271.524286621286,-13.473434367223357,-31.531217301467883,54.773871074892725,-10.277520425012368,271.8710880903297,64.05428248904063
526,0.11901543240351026,-271.5189255213907,-13.461368118569522,-31.7176745560263,54.864698129460365,-10.238577445469945,271.86498673499113,64.21880229653759
527,0.12210531766921454,-271.51470788066223,-13.457229372246255,-31.900326404444456,54.940215661180574,-10.1857267543992,271.8604932632687,64.36688334857551
528,0.12921630439090961,-271.51177891081244,-13.461510040471461,-32.07298399315871,55.00005654213541,-10.117604054496393,271.85778071398914,64.49494364358802
529,0.14033514253955762,-271.5102031438967,-13.474545048881707,-32.22981191170611,55.044354509026036,-10.032993140943498,271.8569317110303,64.60003096940041
530,0.15533834762088355,-271.5099599271747,-13.49650322268544,-32.36546409357289,55.07373564476767,-9.93086206601635,271.85793345167536,64.6798889856649
531,0.17400055714150706,-271.51094089193145,-13.527381499747909,-32.475203339338286,55.08929250414573,-9.810395796803705,271.8606748906125,64.7329997136266
532,0.19600441009992153,-271.51294959945335,-13.567002812224302,-32.55500052005996,55.092542106604476,-9.671023918880486,271.86494633998535,64.75860129738805
533,0.2209520065698276,-271.51570367193915,-13.615017618112281,-32.6016102173015,55.08536981025764,-9.512442149284494,271.8704417913066,64.75668095630684
534,0.2483780681839214,-271.5188397119239,-13.670908916359611,-32.61262053354299,55.06996169442936,-9.334626733257327,271.8767642521489,64.72794411154246
535,0.27776477550490286,-271.5219211974328,-13.734000695100825,-32.586476010625276,55.048728517032764,-9.137841145622376,271.8834342785415,64.673761706799
536,0.3085579507584214,-271.52444933770147,-13.803469952049577,-32.52247389110191,55.024224605922306,-8.922634863725357,271.88990169005956,64.59609870375027
537,0.34018393177602363,-271.5258766327459,-13.878362457798799,-32.420735196726696,54.99906516144817,-8.689834302251922,271.89556021388904,64.49742751111117
538,0.37206631213526475,-271.52562265368636,-13.957612259713862,-32.28215315011128,54.97584534082871,-8.440526258058613,271.89976456796325,64.3806305865347
539,0.40364178950490465,-271.5230914290463,-14.040064692246744,-32.10832223902458,54.95706418785898,-8.17603436829263,271.9018493482112,64.24889659910721
540,0.4343746229545621,-271.51768987821686,-14.124502523988841,-31.90145168178823,54.945056057827095,-7.897889166448612,271.90114913233634,64.10561442097801
541,0.46376948383495786,-271.5088469552489,-14.209674832086622,-31.6642672386457,54.9419317293898,-7.607792417574433,271.8970194314122,63.9542689162786
542,0.49138262293717405,-271.496033345738,-14.294328137295912,-31.39990534155677,54.94953087862,-7.307576599431506,271.88885829698245,63.79834207164531
543,0.5168312381931399,-271.47878147540786,-14.377239227325859,-31.111803498204523,54.9693869859064,-6.99916067521047,271.87612830178995,63.641222500265776
544,0.5398007949127831,-271.4567052274268,-14.457249016553028,-30.803590896489744,55.00270506610602,-6.684503611302508,271.85837824642107,63.48612576878364
545,0.5600498985450557,-271.42951832208155,-14.5332966995963,-30.47898302374245,55.050351903123286,-6.365557334996754,271.8352634963015,63.33602733686482
546,0.5774122194994278,-271.39705003298576,-14.60445319732718,-30.141683811205827,55.11285778980477,-6.044220932001552,271.8065635624998,63.19360915141912
547,0.5917950127183741,-271.35925694293536,-14.669952502604813,-29.79529825873913,55.19042819032422,-5.722297845143532,271.77219555201657,63.06122013342208
548,0.6031739756037856,-271.31622975659326,-14.72921929450053,-29.44325772265258,55.282963332565465,-5.401457688219068,271.7322224186731,62.94085002906131
549,0.6115844680867084,-271.2681946455061,-14.781891255588326,-29.088759171813088,55.39008356776835,-5.083204072662262,271.686855409662,62.83411548773711
550,0.6171094497132287,-271.2155090671085,-14.827834739844517,-28.7347188621012,55.51115841901403,-4.768849600129126,271.63645058053316,62.742256857949364
551,0.6198649099660379,-271.1586524282146,-14.867152643390513,-28.383740160834677,55.6453375219124,-4.459498942762281,271.58149969116346,62.66614406547939
552,0.6199840233576254,-271.09821237314327,-14.900183611422166,-28.03809477173644,55.791582031550334,-4.156040724751112,271.52261622133796,62.60629000732786
553,0.617601559873336,-271.0348678321131,-14.927492204122833,-27.69971641260029,55.94869541651632,-3.859148684362894,271.46051762915846,62.56287007622985
554,0.6128400794693032,-270.96937013906086,-14.949850248929996,-27.37020599509939,56.11535281664081,-3.5692922613765785,271.3960051844099,62.53574662075736
555,0.6057991817350469,-270.9025234401548,-14.968210082821997,-27.05084736858956,56.2901283261361,-3.286756298391145,271.32994264810736,62.52449728054775
556,0.5965487269973104,-270.8351653634575,-14.9836706414525,-26.74263259617594,56.47151976338519,-3.011669018123473,271.26323483162423,62.528446239928634
557,0.5851265705551627,-270.7681486767737,-14.997437492984528,-26.446295540898124,56.657970744295504,-2.744036921111887,271.19680683135664,62.54669756194239
558,0.5715409082570291,-270.7023244858328,-15.01077803936203,-26.162352317128583,56.84789012105287,-2.483784804324749,271.13158456515123,62.57816987092753
559,0.5557768157119497,-270.63852737641974,-15.024973217957271,-25.89114694319676,57.03966899535649,-2.2307987813261727,271.06847709275974,62.621631685314576
560,0.5378061245741375,-270.5775627334916,-15.04126716842478,-25.63290032204679,57.23169556820203,-1.984970011133633,271.008361037821,62.67573666833396
561,0.5175995714565254,-270.5201962496082,-15.060816569161963,-25.387760493623052,57.42236811576482,-1.7462368011610812,270.95206722007856,62.739058028760596
562,0.4951401568606619,-270.4671453857996,-15.084641695178394,-25.15585197342952,57.61010642871905,-1.5146228251347926,270.900369375516,62.81012131745676
563,0.47043671816615557,-270.4190723725676,-15.113581570161035,-24.93732191598957,57.793362118240346,-1.2902694001049668,270.85397468330336,62.88743492627908
564,0.44353676619349874,-270.37657833758124,-15.148255708594368,-24.732380800167213,57.970628249387445,-1.0734601022993757,270.8135158223764,62.969517671115085
565,0.41453768352745296,-270.340198297833,-15.189034776520451,-24.54133535295178,58.140448781136456,-0.8646364344897604,270.7795444203121,63.05492291043725
566,0.38359547524435383,-270.31039691466793,-15.23602206979773,-24.364611589730856,58.30142825106434,-0.6644037173347931,270.75252589248703,63.142258723104646
567,0.3509304115319491,-270.2875649517436,-15.289047111837993,-24.20276621639603,58.452242035860365,-0.4735267977461541,270.73283567773404,63.23020376084955
568,0.31682912834028654,-270.2720163186336,-15.347671961159001,-24.05648522434993,58.591647357554585,-0.2929155340207931,270.72075678091187,63.31751851603257
569,0.28164306625731705,-270.26398555810385,-15.411209981653567,-23.926569290669274,58.718495021810774,-0.12360036107673984,270.71647846395587,63.40305192467889
570,0.2457834725682916,-270.26362570539374,-15.478755926297419,-23.813906527142453,58.83174171335573,0.033301414236191276,270.7200959498016,63.485743480276874
571,0.20971348071731244,-270.2710065295593,-15.54922540137911,-23.71943414205714,58.93046255901237,0.17662757549362365,270.7316110429855,63.56462136039029
572,0.17393796267199726,-270.2861131528777,-15.621401256934035,-23.644091607962835,59.013863583056526,0.30521980836090457,270.75093352682154,63.63879741558544
573,0.1389918939470979,-270.30884492724135,-15.693984195490655,-23.588768849114807,59.081293578845724,0.4179775260981435,270.7778830638573,63.70746015069583
574,0.10542787114521861,-270.3390143103811,-15.765644861361757,-23.554253614324885,59.13225477315686,0.5139144730136143,270.8121911864624,63.769866950846826
575,0.07380323087404543,-270.3763454386153,-15.835074841935027,-23.54118244223393,59.16641148850359,0.5922155837650065,270.85350292573895,63.82533673786844
576,0.044667024990514344,-270.4204722132395,-15.901034365403982,-23.54999941112172,59.18359590644537,0.6522914673508983,270.9013777651212,63.87324406030568
577,0.01854697474683363,-270.47093600769153,-15.96239499832827,-23.580926257427915,59.18381009434819,0.6938279586520901,270.95528992244584,63.91301543782841
578,-0.0040635066823321705,-270.52718347558357,-16.018176255123315,-23.633946560553767,59.16722367505491,0.7168283863445818,271.0146283706446,63.944128639807914
579,-0.022718063939905254,-270.58856523837454,-16.067575532164682,-23.70880564335014,59.1341668114262,0.7216464680484411,271.0786973345848,63.966115443065455
580,-0.03702965940994357,-270.65433632086575,-16.109990977158393,-23.805026743444525,59.08511848434749,0.7090080184202068,271.1467181036368,63.97856826635398
581,-0.04668205863574935,-270.7236590790204,-16.145036851497032,-23.921942997388754,59.02069033309704,0.6800199680707502,271.21783287440405,63.98115093389168
582,-0.05144035511083235,-270.79560913166006,-16.172550931489685,-24.05874397175158,58.94160655274637,0.636165596121788,271.29111110549434,63.97361367628854
583,-0.05116047091294642,-270.86918457240336,-16.192593768812653,-24.21453493818302,58.84868046651197,0.5792853850871006,271.36555864786305,63.9558123232025
584,-0.04579756921775726,-270.9433185698132,-16.20544018205353,-24.388406794554502,58.74278844122156,0.5115434478926905,271.44012977963627,63.92773149664753
585,-0.03541316944442689,-271.0168953740471,-16.21156394847806,-24.579514389887045,58.62484186770295,0.4353799783008501,271.51374222170324,63.88951151688596
586,-0.020180617592593205,-271.08876966133886,-16.211617031234585,-24.787160912312917,58.495758036067215,0.3534506329422928,271.5852951463653,63.84147869599791
587,-0.00038859110963975233,-271.15778894356373,-16.206404701525283,-25.01088585866903,58.35643087429388,0.2685542204203413,271.6536899892459,63.7841786654143
588,0.02355750052082304,-271.2228184001907,-16.196857725564332,-25.250553879330155,58.20770259496276,0.18355058395984705,271.71785349401137,63.71841226439646
589,0.051136149029141,-271.28276704410695,-16.184002586525022,-25.506441506915376,58.05033721975508,0.10127108954330011,271.77676196299274,63.64527323449073
590,0.08171219094752914,-271.33661378544423,-16.168930602996888,-25.779318488040115,57.88499671983856,0.024424614652223203,271.8294653347609,63.56618653816491
591,0.11454076598193307,-271.383431839229,-16.15276678672343,-26.070520172482986,57.71222021023435,-0.04449765914386591,271.8751095918312,63.48294564228878
592,0.14877255650706767,-271.42241004963324,-16.13663930659638,-26.382007197267832,57.532406380227805,-0.10331502368729986,271.9129561303957,63.3977466958078
593,0.1834603234962449,-271.4528700217717,-16.12165041036807,-26.716408628018144,57.345799211133915,-0.1502437689597886,271.94239703998534,63.31321730392456
594,0.2175671435327174,-271.474278403292,-16.10884953636955,-27.077044940346024,57.15247705091712,-0.18397364726564164,271.96296568278785,63.232437649275035
595,0.24997713619301207,-271.486254165564,-16.09920913098588,-27.46792784177221,56.95234521891553,-0.20373075929142556,271.9743424541916,63.15895202683211
596,0.2795097018928672,-271.48857115821835,-16.09360340906241,-27.893734940373065,56.745132373470234,-0.2093238928121254,271.97635601078787,63.096769332738646
597,0.3049382964541689,-271.48115641150343,-16.092790006375413,-28.35975858930407,56.530390800504904,-0.20117208055694968,271.96898043368407,63.05035157622337
598,0.3250145725131059,-271.46408463882864,-16.097394304526738,-28.87182978546135,56.307500607015676,-0.18031199364853134,271.952328762365,63.02459006374906
599,0.338498373096522,-271.4375693049875,-16.107896288958553,-29.436219642003294,56.075677651870116,-0.1483846825413369,271.92664325358334,63.02476958117437
600,0.3441935777053389,-271.40195063939314,-16.124620059575605,-30.05952250560818,55.83398501126876,-0.10760203824930555,271.8922827515396,63.056521665501144
601,0.3409891614240217,-271.3576811271514,-16.147726300204237,-30.74852606998711,55.581347860593276,-0.060694089505431516,271.84970772274596,63.12576882412812
602,0.3279041085303687,-271.3053092280467,-16.177207984521914,-31.51007471645553,55.31657180682497,-0.010838827913015886,271.79946372600034,63.238662214868576
603,0.3041342029031013,-271.24546225058566,-16.21288946185735,-32.35093269980673,55.03836487228473,0.0384233137781239,271.7421642569574,63.40151575185903
604,0.2690983335874071,-271.17882936904095,-16.25442903458558,-33.27765363131577,54.745363445713345,0.08328783130960457,271.6784739644685,63.62073976233776
605,0.22248180554115327,-271.10614569122185,-16.30132530452635,-34.29646200392411,54.4361624994779,0.11979448013231853,271.6090931638579,63.90277711815313
606,0.16427416732492778,-271.0281780885653,-16.35292782931466,-35.413151386226694,54.109350183881894,0.1439422785030413,271.53474439023597,64.25404422401846
607,0.09479921910334616,-270.9457132173867,-16.4084527739802,-36.6330025727818,53.76354659158544,0.15180751787643185,271.45616145924265,64.68087847932819
608,0.014735154354242412,-270.85954781094694,-16.46700408917406,-37.9607235864329,53.39744611619228,0.1396608110670269,271.3740811432434,65.1894929838206
609,-0.07487676095088466,-270.7704809866644,-16.527600255384467,-39.400412100836355,53.009862499134144,0.10407901655905674,271.28923720651864,65.7859384587857
610,-0.17263598095025745,-270.6793081375541,-16.589205918115464,-40.95553963690668,52.599775467433986,0.04204787484050138,271.20235632622223,66.47607170830405
611,-0.27679931119337847,-270.5868160356217,-16.650767027596505,-42.62895571438189,52.16637786598404,-0.04894853325187934,271.11415544257864,67.26552945084595
612,-0.3853101337850578,-270.49377896437005,-16.711247576911177,-44.422908852477605,51.7091223333048,-0.1708548262662594,271.0253402388024,68.15970587917575
613,-0.49583943806550285,-270.40095582017915,-16.769665725807364,-46.33907986085261,51.2277667540538,-0.3249903909921668,270.9366045524185,69.16373173649528
614,-0.6058373845586026,-270.3090880655591,-16.825126944629822,-48.378621465523786,50.72241786491451,-0.5120161171730576,270.84863045062787,70.28245209181176
615,-0.7125937016797891,-270.21889823610934,-16.87685188151651,-50.54219740795969,50.19357245155752,-0.7319225349228486,270.76208852454585,71.52039959350971
616,-0.8133048818505628,-270.13108853601915,-16.92419711440357,-52.83001415631532,49.64215553551009,-0.984039276379139,270.67763782072086,72.88176004779989
617,-0.9051459570562111,-270.04633900264736,-16.966667777629315,-55.241839463822686,49.06955481994459,-1.2670651243797197,270.5959248292664,74.37032787554048
618,-0.9853445893505025,-269.96530480085977,-17.003921947407147,-57.77700406463597,48.47765046474418,-1.5791174084033657,270.5175810859363,75.98945030955502
619,-1.0512552355461149,-269.8886123923093,-17.0357673454911,-60.434385397414104,47.868839008304114,-1.9177990671020102,270.44321917102087,77.74196084882554
620,-1.1004311601361731,-269.81685456278905,-17.06215136580679,-63.2123748562957,47.246049957655494,-2.2802811951760944,270.3734271508969,79.6301041120955
621,-1.1306920944117855,-269.75058452803904,-17.083145767138973,-66.10883220691609,46.61275325069803,-2.663398271577883,270.3087617647174,81.65545548065435
622,-1.1401854963347926,-269.69030951468164,-17.098927619839937,-69.12103218551614,45.972955504365984,-3.0637525638954433,270.24974085103855,83.81883958952315
623,-1.1274397353695558,-269.6364842751549,-17.109758196421343,-72.24560890704032,45.331182805212634,-3.4778235207909227,270.1968355800128,86.1202518576906
624,-1.0914080123468743,-269.5895049402954,-17.115961492151698,-75.47850372337045,44.692447911718105,-3.9020773976737564,270.15046300323627,88.55878705321241
625,-1.0315022451309037,-269.5497034988884,-17.117904011798146,-78.81492177038538,44.06220019795659,-4.333071964513153,270.11097931615933,91.1325785422509
626,-0.9476164316438181,-269.5173430884604,-17.115977320200074,-82.2493016982259,43.44625742536967,-4.767550963901693,270.0786741129809,93.83875139905243
627,-0.8401392082974657,-269.49261419373966,-17.11058454980354,-85.77530207011708,42.85071934990485,-5.202523102379586,270.0537658050497,96.67339194521129
628,-0.7099555480584083,-269.4756317185885,-17.10213160406567,-89.38580681571348,42.28186413221947,-5.635320857475692,270.0363982128478,99.63153562482891
629,-0.5584378044076179,-269.4664326784572,-17.09102330227177,-93.07295116287554,41.74602942590097,-6.063635311409241,270.02663809015183,102.70717456316743
630,-0.3874265229428426,-269.46497399490164,-17.07766429947039,-96.82816884004987,41.249480781851304,-6.485524557908993,270.02447304523145,105.89328583685533
631,-0.1992015243416699,-269.4711296631026,-17.062464368652584,-100.64226113530607,40.79827055655445,-6.899394881055059,270.029809094407,109.18188146643068
632,0.0035562586915414613,-269.48468650187885,-17.045847577156195,-104.50548854332825,40.39809085253454,-7.303955739707431,270.0424670143291,112.56408136840327
633,0.21781171966405477,-269.505337839371,-17.028264919116296,-108.40768596857173,40.05412424742425,-7.698151474096019,270.0621768018857,116.03021078229177
634,0.44023078675889016,-269.5326748379193,-17.010209801797394,-112.33840248660154,39.77089632941187,-8.081074468524566,270.0885698911861,119.56992380732598
635,0.6672433572791958,-269.56617564517865,-16.992235204264464,-116.28706637131641,39.55213444633658,-8.451866132213599,270.1211692298093,123.17235455867005
636,0.8951133242997422,-269.6051930605948,-16.974970535722143,-120.2431755300375,39.40063754193674,-8.809613327343667,270.15937777807204,126.82629710213922
637,1.1200147911804383,-269.6489418581337,-16.959135774693383,-124.19651273092556,39.31816230258062,-9.153248578619232,270.2024664275232,130.5204147372904
638,1.3381131076328605,-269.69648730366816,-16.945550701821972,-128.13738410605612,39.3053308396285,-9.481462403612825,270.24956275222695,134.24347833199673
639,1.5456488988224455,-269.74673672285047,-16.935137752648334,-132.0568784605513,39.36156464322325,-9.792635412359582,270.2996423705153,137.9846323179878
640,1.7390230067255452,-269.79843611788726,-16.9289178159874,-135.9471439870635,39.48504859670287,-10.084796574123274,270.3515248877062,141.73368573451356
641,1.914880224707162,-269.8501737181706,-16.92799897158898,-139.80167793222765,39.67272764100357,-10.355612418034427,270.40387631826536,145.481424295114
642,2.0701896947039526,-269.9003919847265,-16.93355867314939,-143.61562323270832,39.92033749984513,-10.60241006227429,270.45521955233653,149.21993759820504
643,2.202319730297756,-269.947409021,-16.946820260314922,-147.38606389648342,40.222469942348155,-10.822234944091925,270.5039538868275,152.9429531440326
644,2.3091047292645492,-269.98944962804995,-16.9690249097425,-151.11230817984602,40.57267242462884,-11.011942034028733,270.5483839400723,156.64616599419108
645,2.388901917212201,-270.0246854514683,-17.001400190874953,-154.79614610836856,40.96358144198135,-11.168317266123935,270.5867574815674,160.327550346435
646,2.4406359552365893,-270.05128285386877,-17.04512635681568,-158.44206643485904,41.38708824992357,-11.288224024072276,270.61731089333193,163.9876377147174
647,2.463829851713877,-270.06745633098876,-17.1013015394361,-162.05741828371842,41.834534584755964,-11.368767920754967,270.63832016754003,167.62974630436116
648,2.4586210447862222,-270.07152454679914,-17.170907199377424,-165.65250471350825,42.29693462342179,-11.407471889063057,270.64815461536955,171.26014777209272
649,2.4257619586116204,-270.0619655933202,-17.254775375519266,-169.24059916314573,42.765217788711944,-11.40245276623169,270.6453300057506,174.88816082414357
650,2.366604824296349,-270.0374680889824,-17.35355928624732,-172.8378808315763,43.23048532615679,-11.352590034699192,270.6285578624974,178.52616568717536
651,2.2830710722819805,-269.996975189796,-17.46770859882544,-176.46329074167832,43.68427207106093,-11.257677179752472,270.5967880949326,182.18953871868462
652,2.177606051315214,-269.93971921632317,-17.597450339660053,-180.13831574910355,44.11880366055769,-11.118546375628553,270.5492427445214,185.8965115647224
653,2.0531202010482894,-269.8652451601365,-17.74277614444317,-183.88671254301303,44.527238775610044,-10.937158046836501,270.4854391730432,189.66796384750853
654,1.9129182267759,-269.77342186844436,-17.903436386101642,-187.7341874861535,44.90388601682628,-10.716648214678532,270.40520154233946,193.52716216520844
655,1.7606183504293635,-269.6644403606024,-18.07894159233627,-191.70805065198593,45.24438590501276,-10.461328248168124,270.30866008241,197.49946095345538
656,1.6000641864315497,-269.5387995100476,-18.268571436607424,-195.83686321377914,45.54585024768637,-10.176633587842685,270.19623841414335,201.61198208409155
657,1.4352320123792297,-269.3972801287041,-18.47139152747,-200.15009617409208,45.80695348402687,-9.869020251159935,270.0686299870314,205.8932896695921
658,1.27013614324274,-269.24090921414296,-18.686278272591046,-204.6778154036059,46.02797325647738,-9.545810558925574,269.9267654097943,210.37307442888883
659,1.1087349166873073,-269.0709166542824,-18.911952148530705,-209.45040347488978,46.210780027521785,-9.214992495877942,269.771772979217,215.08185843539454
660,0.9548396094186589,-268.8886869804203,-19.147019621831753,-214.49832341387054,46.35877781868643,-8.884980117614347,269.60493499190073,220.05072657742446
661,0.812028471475995,-268.6957089111122,-19.390023692088167,-219.8519239613761,46.47679996295154,-8.564344968965813,269.4276425463196,225.31108622381154
662,0.6835679401578361,-268.49352556599933,-19.63950253246596,-225.5412808573389,46.57096514455487,-8.261530239563331,269.2413516354278,230.89445198101006
663,0.5723429381642707,-268.2836883463915,-19.89405493945063,-231.59606436561788,46.64850008320312,-7.984560265086887,269.0475433862821,236.83224841893204
664,0.4807979511686705,-268.06771744886083,-20.152410365022384,-238.04541987972306,46.71753615391608,-7.740758054894532,268.8476912001613,243.155620422885
665,0.4108902613449059,-267.84707164435576,-20.413500461793486,-244.91784608734346,46.786888068198806,-7.5364828761651035,268.64323714855317,249.89523853305178
666,0.3640562330071559,-267.62312920118325,-20.67652856822273,-252.24105390713402,46.865823354545654,-7.37689864341278,268.43557918763304,257.0810853383823
667,0.341190965845012,-267.39718064232545,-20.941033468483337,-260.0417893294672,46.96383153096652,-7.265782065877767,268.22606955950783,264.74220875420934
668,0.34264110640201495,-267.1704325790324,-21.206944016574376,-268.34560465014226,47.09040137383481,-7.205377320083124,268.01602332157177,272.90642906836
669,0.36821026249000954,-266.94402048200755,-21.474621690590077,-277.176565825253,47.25481356590255,-7.196301572040417,267.80673460420763,281.5999894442258
670,0.41717632204408506,-266.71902721677054,-21.744888722090497,-286.5568890347727,47.46595447772859,-7.237503130545237,267.5994972100437,290.8471444078413
671,0.4883199683295906,-266.4965035788698,-22.019040089751456,-296.50650664374666,47.73215520292698,-7.3262715536832035,267.39562563071536,300.66968740470855
672,0.5799636718727136,-266.2774869855603,-22.298838395827868,-307.0425706256647,48.0610584209992,-7.458296822022514,267.19647253991053,311.08642587116475
673,0.6900202905258767,-266.0630150501362,-22.586491448773735,-318.17890894321295,48.45951423505,-7.627772849222356,267.0034394598986,322.1126192273543
674,0.8160500743277984,-265.8541319430552,-22.88461321620362,-329.92545623670253,48.93350476826148,-7.827539198339749,266.8179785490546,333.7594006398585
675,0.9553244372906973,-265.65188684668937,-23.196169649348477,-342.287683718481,49.48809591735763,-8.049253948575341,266.6415849345374,346.033206587114
676,1.1048944929984432,-265.4573250098277,-23.524411618231003,-355.2660542840876,50.12741320802317,-8.283590201236109,266.47578028220124,358.9352390565198
677,1.2616621629302187,-265.27147275503165,-23.872797687135467,-368.85552787861116,50.85463725643645,-8.520448694041642,266.32208919267276,372.46098396652303
678,1.4224516424644658,-265.095318327185,-24.244909663173615,-383.04513958819615,51.672013123062506,-8.749179397117159,266.18201057437767,386.5998066527234
679,1.5840791314126905,-264.9297907279099,-24.64436393095004,-397.81766922066083,52.580867102210824,-8.958805745930407,266.056986418688,401.33464147166205
680,1.7434190410715191,-264.77573867713545,-25.074721721128334,-413.1494168074609,53.58162441427725,-9.138246164083514,265.94837042522005,416.6417882863899
681,1.8974653386846239,-264.6339115914499,-25.539401579166174,-429.010094142126,54.67382190671355,-9.276528506020348,265.85739870171545,432.49082443525316
682,2.043387103264022,-264.5049439344069,-26.041597137563077,-445.36283879918,55.85611113651856,-9.362993838802424,265.78516423269633,448.8446373540212
683,2.178577611126353,-264.3893434771281,-26.584202713784446,-462.1643543871719,57.126248971620804,-9.387486571246539,265.7325959597829,465.65958063137214
684,2.300696432912838,-264.2874830615524,-27.169748373052375,-479.36517904227895,58.481074992732765,-9.340528439327661,265.70044230647846,482.8857548761049
685,2.407704286309129,-264.1995946645145,-27.800345115416857,-496.9100832667719,59.916477347759496,-9.213474388726935,265.68925811070636,500.4674142442161
686,2.4978907605003946,-264.1257642051148,-28.47764000024874,-514.7385982163612,61.42735110476547,-8.998648978084502,265.6993935068724,518.3434998425503
687,2.569895335434214,-264.06592577014396,-29.202780617251594,-532.7856762620427,63.00755536776538,-8.68946252559551,265.73098350376665,536.448302285624
688,2.622722235034548,-264.0198546224038,-29.976388548672873,-550.9824860964654,64.64987727463699,-8.280506916664404,265.7839377242202,554.7122564200206
689,2.6557496121508573,-263.987159110841,-30.798542147705813,-569.2573432254288,66.34601227134095,-7.76763194516667,265.85793059481966,573.0628700401853
690,2.668733432263806,-263.9672720286063,-31.668769594701264,-587.5367723302966,68.08657050401419,-7.148004240418045,265.9523927590393,591.4257842276795
691,2.661806218348531,-263.95944194692083,-32.586053405837696,-605.7466910954776,69.86111857331373,-6.420151890114257,266.06650447688327,609.725956107608
692,2.6354705699824916,-263.96272477519716,-33.5488473299663,-623.8136971906331,71.65826415556205,-5.583998406251955,266.1991914519954,627.8889468284923
693,2.590587147859113,-263.9759756094993,-34.55510610470191,-641.6664327893823,73.46578820624511,-4.64088951131049,266.3491232651424,645.8422900467484
694,2.5283566792580383,-263.9978411394179,-35.6023280833073,-659.2369952369559,75.27082593659028,-3.59361538253381,266.5147147214433,663.5169101104707
695,2.4502955260574226,-264.0267535480768,-36.687610382376135,-676.4623584216193,77.06009397246011,-2.4464296454228336,266.6941310074734,680.8485547171947
696,2.3582044908668633,-264.0609277054684,-37.807715908021336,-693.2857667114561,78.82015755445266,-1.2050647983957752,266.8852983464378,697.7792037746781
697,2.2541308065384187,-264.09836411908594,-38.95915131424986,-709.658061487317,80.53772866847945,0.12325785163205887,267.08592242633824,714.2584140608394
698,2.1403235969176446,-264.13686028357654,-40.138254599977095,-725.5388990812248,82.1999838025735,1.5298270576505915,267.293516972661,730.2445578285578
699,2.019183419469329,-264.1740327146866,-41.34129075393337,-740.8978185053411,83.79488870404467,3.00445371833493,267.5054444097954,745.7059129313986
700,1.8932067187633537,-264.20735119119956,-42.56455371573881,-755.7151181889293,85.3115170737626,4.5355013958593595,267.7189697472319,760.6215628164623
701,1.7649261381746773,-264.23418577120026,-43.804472854277165,-769.9825034950597,86.74035049411583,6.109941008154828,267.93132783280976,774.9820672942956
702,1.6368477577652571,-264.251866179496,-45.05772192822845,-783.7034714025987,88.07354787326753,7.713435658919723,268.13980308289604,788.7898696695826
703,1.5113865269683187,-264.25775223344823,-46.32132793936579,-796.893405501919,89.30517409016882,9.330461361966725,268.3418197594412,802.0594126649238
704,1.390801431420914,-264.2493130347904,-47.59277649909583,-809.5793630817967,90.43137911084176,10.944468646588325,268.53503978083455,814.8169442852478
705,1.277132210204689,-264.2242117165204,-48.87010951713871,-821.7995459866469,91.45052041071895,12.538088625756156,268.71746397276576,827.1000047386754
706,1.1721396080085293,-264.18039174139057,-50.15201039941399,-833.6024574571387,92.36322302586233,14.093385055684411,268.8875317645543,838.9565961081296
707,1.0772511053046738,-264.1161602652482,-51.43787166648488,-845.045757888771,93.17237310673684,15.592151270686093,269.04421380477163,850.4440472307831
708,0.9935138844833139,-264.0302639583945,-52.72784009478896,-856.1948431493786,93.88304263914046,17.016247865026504,269.18709188635626,861.6275970091468
709,0.9215566645817032,-263.92195287589107,-54.02283525711571,-867.1211797195014,94.50234510271318,18.347974013041675,269.31642091972935,872.5787300915714
710,0.8615620716593193,-263.79102842108625,-55.3245387282477,-877.9004413788858,95.0392242915411,19.570462752647526,269.4331684228969,883.3733094490802
711,0.8132512816511054,-263.637872141012,-56.63535302588649,-888.6105021771112,95.50418139726628,20.668088556314704,269.53902805792575,894.0895605722399
712,0.7758825631513746,-263.4634531004493,-57.95833120613008,-899.329349332319,95.90894872586652,21.626873976065966,269.63640513009574,904.805971154406
713,0.7482649311310834,-263.2693129866877,-59.29707964796603,-910.1329864217867,96.26612173446651,22.43488088583056,269.72837370388976,915.5991771053651
714,0.7287873947352378,-263.05752978103123,-60.65563786021569,-921.0934004326572,96.58876380672837,23.082570809415746,269.81860694588585,926.5419091627087
715,0.7154633300717602,-262.830662411101,-62.038340127851924,-932.2766647657933,96.88999976949222,23.563118297360347,269.91128410104204,937.7010730270102
716,0.7059885152614077,-262.5916798729769,-63.449664485185856,-943.7412437923197,97.18261440127361,23.872661854482253,270.0109787551646,949.1360295030021
717,0.6978105545940443,-262.3438787604502,-64.89407487852478,-955.5365539036027,97.47867134823555,24.010478947379905,270.1225336111627,960.8971304735461
718,0.6882068827026493,-262.09079310347164,-66.37586249418285,-967.7018227466613,97.78916641460935,23.97907502615281,270.25092705382633,973.0245532823267
719,0.6743681656311136,-261.83610011823595,-67.8989921097679,-980.2652739802875,98.1237274009551,23.78418066786272,270.4011365153784,985.5474617398971
720,0.6534835976733719,-261.5835251148007,-69.46695898729911,-993.2436505267993,98.49037035496184,23.43465521514444,270.5780032838179,998.4835075565214
721,0.6228244467531866,-261.33674857455884,-71.08266124616968,-1006.6420758619267,98.89531894361593,22.94229925058452,270.7861030848228,1011.8386724255223
722,0.5798224497198609,-261.0993183438912,-72.74829181093368,-1020.4542411772309,99.34288970939845,22.321581818143514,271.02962654989335,1025.6074390276308
723,0.5221403715585023,-260.87456987033727,-74.46525295212088,-1034.662896665998,99.835441900891,21.589291503586132,271.312273443937,1039.7732693631863
724,0.44773305104045635,-260.66555730186246,-76.23409524797998,-1049.2406175933254,100.37338726797411,20.764123323729503,271.6371641638867,1054.3093609996797
725,0.3548982395796794,-260.47499804374587,-78.05448170310878,-1064.1508098187226,100.95525321162245,19.866215753486042,272.00677155326684,1069.179645701393
726,0.24231721020266753,-260.30523304432324,-79.92517697008545,-1079.3489148504939,101.57779189657174,18.916653958052635,272.4228755777482,1084.3399902813492
727,0.10908541613063508,-260.1582046085112,-81.8440611399372,-1094.783771490418,102.23612796999505,17.93695624369475,272.8865428257388,1099.7395565086458
728,-0.045266394855488085,-260.0354526592211,-83.80816713302184,-1110.3990898717964,102.92393803468131,16.94856086408723,273.39813182136015,1115.322275682376
729,-0.22076006991767677,-259.93812886562057,-85.8137400643458,-1126.1349940829925,103.63365576144265,15.972329720751175,273.9573234892673,1131.0283939090966
730,-0.4169662772879015,-259.86702627044866,-87.85631618445571,-1141.929591223805,104.35669723059692,15.028084368750651,274.56317414843664,1146.796045799016
731,-0.6330083555034368,-259.8226207008214,-89.93081851635169,-1157.720527322959,105.08370154295172,14.134188280796405,275.21418694465706,1162.5628168719772
732,-0.8675730693531835,-259.8051196500393,-92.03166633030297,-1173.4464939246825,105.80478197615962,13.307187664317674,275.908397015866,1178.2672583181618
733,-1.1189275770765783,-259.8145141797827,-94.15289593737478,-1189.048653384668,106.50978329561947,12.56152135102322,276.6434655876354,1193.8503219744546
734,-1.3849420697007313,-259.85062940861445,-96.28829063669582,-1204.4719560626966,107.18854151458537,11.909308462308214,277.41677823924215,1209.256688542075
735,-1.663117886715507,-259.91316938606326,-98.43151782665338,-1219.6663284940055,107.83114327849958,11.360220684165775,278.22554276249946,1224.4359680050243
736,-1.950621251762962,-260.00175284632155,-100.57627118231434,-1234.5877176680135,108.42818257858049,10.921443853622094,279.0668825518454,1239.3437572693092
737,-2.244322807102674,-260.1159375817679,-102.71641539696066,-1249.1989817547574,108.97101222326138,10.597730879239865,279.9379223952838,1253.9425452050168
738,-2.5408427611375,-260.25523274037425,-104.84613043689507,-1263.4706210800837,109.45198654515326,10.391544747791075,280.835864716169,1268.2024586344362
739,-2.8366009611989744,-260.4190997501821,-106.9600518305382,-1277.3813446455554,109.86469083330387,10.303286792195529,281.7580553880932,1282.1018442106024
740,-3.1278709345521025,-260.6069433276401,-109.053403360681,-1290.9184676556536,110.20415249799389,10.331601833677574,282.7020388161213,1295.6276812541767
741,-3.4108369814255637,-260.81809392929597,-111.12211857913026,-1304.0781353047062,110.46702909473656,10.473748434728096,283.6656018310613,1308.7758204184684
742,-3.681653527148298,-261.05178228419743,-113.16294769306622,-1316.8653681791295,110.65176894737807,10.72601947730459,284.64680524921766,1321.5510432100339
743,-3.936505971364861,-261.3071058739411,-115.17354661002943,-1329.293925459504,110.75874117471099,11.08419587659979,285.64400125936464,1333.9669383122296
744,-4.171672247859358,-261.58298698837285,-117.1525453443458,-1341.385984034652,110.79033330147493,11.544014654109876,286.65583467825473,1346.0455927007022
745,-4.383584289284754,-261.87812248951957,-119.09959350411974,-1353.1716348817185,110.75101586991107,12.1016318027103,287.6812267321839,1357.8170988783613
746,-4.568888528649133,-262.19092645728097,-121.01538104588377,-1364.6882022559441,110.64737401390268,12.754060204283446,288.7193411265164,1369.3188837802725
747,-4.724504425577177,-262.5194680769535,-122.90163288075864,-1375.9793953567646,110.48810558808545,13.499563217205498,289.76953339169296,1380.5948689765314
748,-4.847679869929032,-262.8614081028296,-124.76107634581034,-1387.0943051556173,110.28398434720727,14.337985586637632,290.8312855603663,1391.6944747183984
749,-4.936042320639588,-263.21393778511583,-126.59738109065559,-1398.0862606138598,110.04778520355643,15.271005283153805,291.9041289777149,1402.671481792804
750,-4.987644720056503,-263.5737242859681,-128.41507152920076,-1409.0115588621534,109.79416706145375,16.302292835168462,292.98755846482373,1413.582765374849
751,-5.001005522546145,-263.936866498036,-130.21941257889452,-1419.9280835329248,109.53950739035638,17.437568621337448,294.08094125363965,1424.486914593947
752,-4.97514252035896,-264.29886498140746,-132.01626991179694,-1430.8938248974064,109.30168183167146,18.684553247715947,295.1834242223232,1435.4427509377367
753,-4.909600493782388,-264.6546095176396,-133.81194636679524,-1441.9653154791156,109.09978200788665,20.052811156919987,296.29384303579815,1446.507758641597
754,-4.8044729906553965,-264.99838747094213,-135.61299652275443,-1453.195995939087,108.95376539561211,21.55349243666223,297.41063677181353,1457.736441386721
755,-4.660418667980098,-265.3239155821335,-137.42602178668017,-1464.6345281373121,108.88403248041149,23.198981953409895,298.5317713734378,1469.1786218182604
756,-4.478672584899329,-265.62439690128093,-139.25744886924113,-1476.323074732013,108.91092827395231,25.002468255357154,299.6546747961221,1480.8777029462813
757,-4.261052661481818,-265.8926033440668,-141.11329528208188,-1488.2955670209985,109.054167710132,26.977447171179637,300.77618609447615,1492.8689129515656
758,-4.009961201250107,-266.1209829411672,-142.99892640690496,-1500.5759850906084,109.33218768279973,29.137176707747155,301.89251997288346,1505.1775574389846
759,-3.7283808610017455,-266.30178930670564,-144.9188096036761,-1513.176677214321,109.76143277089017,31.49410071482636,302.99924749327096,1517.8173062781032
760,-3.4198637752729217,-266.4272292363763,-146.87627163322975,-1526.0967492708087,110.35558715032089,34.05925876197533,304.0912926875083,1530.7885462897275
761,-3.088511863790125,-266.48962271308227,-148.87326632079788,-1539.320559963911,111.12477181815767,36.84169864774771,305.16294378574236,1544.076836411779
762,-2.738945838335444,-266.4815680041961,-150.91015991776908,-1552.8163638586839,112.07473385610867,39.84790597801487,306.2078767109522,1557.6515086282848
763,-2.376260209640257,-266.3961031214048,-152.98554203743484,-1566.535151366335,113.20606257371735,43.081262714739104,307.21918752906765,1571.464465510736
764,-2.005961789668397,-266.2268539731862,-155.09607012541713,-1580.4097418965227,114.51347523822149,46.54154420391388,308.1894298265628,1585.449232737479
765,-1.6338898484079516,-265.9681594334743,-157.23635482700365,-1594.354191919416,115.98522169101095,50.224462661420745,309.11065265489236,1599.5203308383784
766,-1.266117166344275,-265.6151645590144,-159.39889222611785,-1608.2635816723473,117.60266124392254,54.121265028039375,309.9744349213392,1613.573032628832
767,-0.908832615591224,-265.16387542955806,-161.57404700675275,-1622.0142406838015,119.34006547791319,58.21839489979809,310.77191313666657,1627.4835692700374
