time,ax,ay,az,gx,gy,gz,accmagnitude,gccmagnitude
0,5.846766364552871,-244.9743324884387,-83.82440052791027,15.91426157974887,56.77113457590258,14.389565236191475,258.9696067531846,60.65451321392103
1,6.013644192248478,-244.99099620861094,-83.56161139726836,15.735451803037792,56.9124865939194,14.079382569916106,258.9065811275154,60.691083509742725
2,6.178615243410315,-245.01145248088804,-83.30569730264276,15.555651531941562,57.058471811916284,13.759507727995038,258.84958863454113,60.7310543073702
3,6.341065805857023,-245.03553816963057,-83.05676605783755,15.377045733598298,57.206425723872385,13.432513297251369,258.7985691226233,60.77287684442535
4,6.50048764507066,-245.06302530878943,-82.81498680208142,15.201860763208716,57.353896671615644,13.10090418551355,258.7534213339385,60.81517427708059
5,6.6564874162955165,-245.09362651475237,-82.5806160696792,15.032324129994779,57.498736524523615,12.76707112897446,258.71401442363106,60.85680791802566
6,6.808787880727696,-245.1269993341355,-82.35401890194464,14.870621435535568,57.639173465621255,12.433249373910527,258.68019660955576,60.89692741294213
7,6.957220556801237,-245.16274924002857,-82.13568411877579,14.718851171417398,57.773863414435674,12.10148350937605,258.65180044281203,60.93500202264618
8,7.101710179023084,-245.20043142745914,-81.92623299301609,14.578978416212792,57.90191805652815,11.773599431539381,258.6286446685055,60.970831618906416
9,7.242251969536169,-245.23955195084284,-81.72642068608177,14.452788692184997,58.02290900306338,11.451184360929997,258.6105330748308,61.004537502124684
10,7.3788832779733555,-245.27956903156254,-81.53712994352344,14.341843237097056,58.1368491533733,11.135575677231687,258.59725106075916,61.03653457078759
11,7.511651607268874,-245.31989551519726,-81.35935671547944,14.247436740360726,58.24415378113685,10.82785907286261,258.588560862579,61.06748762915392
12,7.640581318290138,-245.35990347606327,-81.19418756922289,14.170558304713376,58.34558508774806,10.528876137391121,258.58419646808176,61.09825562112501
13,7.765641289937973,-245.39893189232512,-81.04276903084718,14.111856141754798,58.44218481116101,10.23924091783525,258.58385925968986,61.12982819748236
14,7.886715531701192,-245.43629815502305,-80.90626935895298,14.071606345242314,58.53519983415476,9.95936424230908,258.58721538051475,61.16325916386684
15,8.003578360025774,-245.47131384935767,-80.7858337444738,14.049686017160873,58.626005588733754,9.68948375970687,258.59389564864955,61.19960102354016
16,8.115875430474913,-245.50330470509297,-80.68253454862321,14.045551043250374,58.71603147750139,9.429696947844175,258.60349851211805,61.239844126397976
17,8.223111748428897,-245.53163395839195,-80.59731880065081,14.058218908400775,58.80669166841669,9.179993974905909,258.6155960982472,61.2848630278351
18,8.324647691423094,-245.55572777851063,-80.53095552871216,14.08625706304473,58.899323644293915,8.940287365075868,258.6297429546386,61.33537172731682
19,8.419703885269378,-245.57510100376155,-80.48398548015925,14.127777441122726,58.99513595809196,8.710435915126732,258.6454866706477,61.39188863421545
20,8.507375381119434,-245.58938125907193,-80.45667556333044,14.180437759751918,59.09516583482915,8.490261167480831,258.662379308633,61.45471145298428
21,8.586655071880951,-245.598329614271,-80.4489801225512,14.241450225143758,59.200246582412646,8.279555851177147,258.6799885529315,61.523901687050774
22,8.65646581622077,-245.60185621443725,-80.4605109860485,14.307598264178909,59.310984248173035,8.078084869040397,258.6979076510457,61.59927812521171
23,8.715700332820603,-245.60002963754752,-80.49051805294097,14.375261891451025,59.42774264465637,7.885580414134779,258.71576343484276,61.680418511928245
24,8.763267504041394,-245.59307905328632,-80.53788200457714,14.440452277008822,59.55063580547329,7.701733483115962,258.73322191163896,61.766668619023534
25,8.798143244260812,-245.5813885986461,-80.60112055648261,14.498855972449752,59.67952706640567,7.5261843750727095,258.7499911376688,61.85715807283026
26,8.819423568059614,-245.56548375285936,-80.67840946613916,14.54588904239535,59.81403416254095,7.358514744901115,258.7658213185738,61.95082242087995
27,8.826376967618792,-245.5460098676053,-80.76761917625731,14.576760987174008,59.95353985724293,7.198243447726655,258.78050227580337,62.04643092097457
28,8.818492753643644,-245.52370347556734,-80.86636737896175,14.586547825917043,60.097207618068566,7.044827794519989,258.79385862662343,62.14261935811426
29,8.795521805328537,-245.4993577116791,-80.97208674060293,14.570273092883909,60.244001746742846,6.897671009330962,258.8057433490494,62.23792688196939
30,8.757506435214163,-245.47378408533902,-81.08210534793103,14.522994870458806,60.392711201549794,6.756135767958624,258.8160307538846,62.330835487453975
31,8.70479696854723,-245.44777361894296,-81.19373528604348,14.439896447602365,60.54197616040049,6.61956286846879,258.8246100151934,62.41981041029875
32,8.63805407080826,-245.42206072494417,-81.30436281921646,14.316377882728634,60.69031619228492,6.487293475973542,258.83138023973424,62.50333945055449
33,8.558237371888413,-245.3972930280354,-81.41153282154575,14.148145777847617,60.83615877243266,6.358693084940447,258.8362477531829,62.57996914310728
34,8.466582049332557,-245.374009624932,-81.51302094117702,13.93129896419269,60.97786683725998,6.23317536461129,258.8391259820873,62.648335819031075
35,8.364565647041069,-245.35262910306076,-81.60688925102818,13.662408459992914,61.11376416864513,6.110224325832056,258.83993802335857,62.70718995232334
36,8.253867667786745,-245.33344734379122,-81.69152396336918,13.33859079024503,61.242157661901516,5.989413663121744,258.838621743561,62.7554127393712
37,8.136324483936074,-245.31664410688984,-81.76565617460157,12.957574347791951,61.361355996941825,5.870422612086222,258.8351370792386,62.792024582074
38,8.013881915280646,-245.30229680085245,-81.82836794096842,12.517758801564058,61.46968485937666,5.7530481872178045,258.82947507548346,62.816185970509906
39,7.888547520969873,-245.2903996173589,-81.8790862346256,12.018267627645354,61.56549949678985,5.6372141820826,258.82166803491174,62.827192037553594
40,7.762344337187907,-245.28088620962262,-81.91756691093882,11.458993759196662,61.64719584341491,5.522977738142876,258.81179997342014,62.82446260381617
41,7.637267476276875,-245.273654246479,-81.9438702451353,10.840638245063163,61.71322158666737,5.410534519173166,258.8000164954698,62.80752974751104
42,7.515244611760078,-245.2685904213205,-81.95832923873776,10.164741726906916,61.7620884149879,5.300223486740198,258.78653327789254,62.776024855890206
43,7.398100886167693,-245.2655947335049,-81.96151187863029,9.433708463089731,61.79238640214467,5.192531954953744,258.77164252728926,62.72966685729171
44,7.287528348127109,-245.26460298278045,-81.95417873353964,8.650822504691357,61.80280115244544,5.08810110909206,258.7557169152647,62.668252996324966
45,7.185059828076483,-245.26560640165306,-81.93723752496469,7.820255467794893,61.79213397482047,4.9877316477483955,258.739210527633,62.59165312947073
46,7.092047169114935,-245.2686672765967,-81.91169656942782,6.947065167862692,61.75932494109492,4.892388743703442,258.72265635089394,62.49980806454715
47,7.009643755141835,-245.273929397953,-81.87861923109153,6.037184183557194,61.70347823076483,4.803205134363691,258.70665986425144,62.392731962167574
48,6.938791195033926,-245.28162230162823,-81.83908158586826,5.097397176724335,61.62388878170525,4.721480867635444,258.6918884213245,62.27051836818119
49,6.880209843839481,-245.29205852691092,-81.79413518061232,4.135305500648531,61.520069085000095,4.648678096396122,258.6790562340436,62.13334918601192
50,6.834392676735429,-245.30562348660388,-81.74477605790523,3.1592772855373035,61.39177502757099,4.586409366175228,258.66890488485126,61.981505876041446
51,6.801602005875823,-245.32275796550982,-81.69192034372134,2.1783808149497474,61.239029945284535,4.536418059164851,258.6621794101694,61.8153823359923
52,6.781868713582736,-245.3439336610067,-81.63638599697714,1.2022986428908695,61.06214640904018,4.5005500285979885,258.65960015742525,61.63549918435769
53,6.774994017426729,-245.3696225686532,-81.57887999297256,0.24121965528719655,60.86174562563062,4.48071599069197,258.6618308913905,61.44251944592211
54,6.780554125814727,-245.4002614732913,-81.51999021750365,-0.694293687452113,60.63877458823771,4.478844910658359,258.66944406875547,61.237265824297126
55,6.7979083229634325,-245.43621332913028,-81.46018152588353,-1.5934652469684698,60.39452117024134,4.496829324393944,258.68288475607045,61.02073974817516
56,6.826210983236482,-245.4777277800624,-81.39979563541614,-2.445493652644136,60.130627173622024,4.5364641508788015,258.7024351773613,60.794142137821275
57,6.864427809406177,-245.5249033645362,-81.3390546982197,-3.239769282196601,59.849098916595885,4.599380979128367,258.7281822094396,60.55889534768432
58,6.911356287927298,-245.5776540334825,-81.27806851629396,-3.966117778187763,59.5523143252934,4.686980027473014,258.7599902558062,60.316665051536745
59,6.965650012761171,-245.63568248897496,-81.21684539362627,-4.61506564948262,59.24302481427696,4.800362011626965,258.79748182265774,60.069380075615705
60,7.0258462172019795,-245.69846251758636,-81.15530653439978,-5.178120878934362,58.92434970939871,4.940262098731484,258.84002777468896,59.819247544585096
61,7.090395636040005,-245.76523197167745,-81.09330366715734,-5.648058985722742,58.59976079502709,5.106988021920794,258.88674868211893,59.56876037972161
62,7.157693740647515,-245.83499743924295,-81.03063924784551,-6.019202890976057,58.27305486024136,5.300364313044127,258.93652798953656,59.32069428427895
63,7.226112487145413,-245.9065510263265,-80.96708828641377,-6.287683352164873,57.94831280177523,5.51968453222499,258.98803706317125,59.07809181825721
64,7.294031990510678,-245.97849905811168,-80.90242064936457,-6.451665828153318,57.62984470673582,5.7636733986551025,259.03977153942975,58.84423183562874
65,7.359871860058499,-246.04930185032924,-80.83642261747738,-6.511529581178964,57.32212118294983,6.030460875444175,259.0900977682378,58.6225832744521
66,7.422122105919661,-246.11732303703582,-80.76891648585404,-6.469985711301652,57.029691948933646,6.31757048436567,259.1373075263945,58.416743014721796
67,7.479373451419805,-246.18088636065607,-80.69977709898106,-6.3321226600294045,56.757093374920686,6.6219243260768,259.1796786620888,58.23035831683326
68,7.53034662758888,-246.23833740746548,-80.62894445830439,-6.105370474907423,56.50874733756029,6.939867298643082,259.2155390043856,58.06703529866535
69,7.5739199195567695,-246.28810747450956,-80.5564318934418,-5.799378719400767,56.28885441858267,7.267212648142306,259.24333069453877,57.93023600136675
70,7.609154009693296,-246.32877651713673,-80.48232966432666,-5.42580715895661,56.101285103764745,7.599310140766165,259.26167198450605,57.82316775337795
71,7.63531312389423,-246.3591320001059,-80.40680421083016,-4.998032917734597,55.949473174292486,7.931136882019317,259.2694135378206,57.748669635749486
72,7.651881643593702,-246.37822061349672,-80.33009358347158,-4.530782261945275,55.83631586163747,8.257409316172303,259.2656865040577,57.70910170679288
73,7.658575568620169,-246.38539029529952,-80.25249984928072,-4.0396991714592625,55.76408546485448,8.572713416333224,259.24994018332944,57.70624308177048
74,7.655348381391896,-246.3803207479951,-80.17437941830532,-3.540866215388967,55.73435692751236,8.8716486693703,259.22196785823445,57.74120487369291
75,7.6423909818655815,-246.3630414929506,-80.09613225120394,-3.0502958695364084,55.74795532260435,9.148980294279296,259.18192019355916,57.81436338474105
76,7.620125490151361,-246.33393730008748,-80.01819080638839,-2.583412224280243,55.80492631579463,9.399793340583932,259.13030633087226,57.925317857797836
77,7.589192837230472,-246.29374140201756,-79.9410094004444,-2.1545439040481464,55.90453150512884,9.619641988895365,259.0679832943332,58.072875640114056
78,7.5504341520826666,-246.24351720465233,-79.86505441474227,-1.7764488568472674,56.04526916646677,9.804687501393579,258.99613453775277,58.25506592066089
79,7.504866025520121,-246.1846293462007,-79.79079551666608,-1.4598905068373718,56.22491953927893,9.95181875071764,258.91623851284845,58.469181494552295
80,7.453649853849589,-246.11870509529854,-79.71869781977436,-1.2132827671532649,56.44061253796397,10.058750020427013,258.83002819479935,58.71184649484028
81,7.3980557232896915,-246.04758731648852,-79.64921472585092,-1.0424188117642728,56.688914774403614,10.124091789050558,258.7394426747691,58.97910684606487
82,7.339421722648764,-245.97328056663954,-79.58278111837511,-0.9502954623352623,56.965932064361965,10.147391430853949,258.6465722348921,59.26653937727896
83,7.279110065128802,-245.8978922369633,-79.51980665937272,-0.9370415762531469,57.267423152079054,10.129142084586077,258.5535986930619,59.569375067495635
84,7.218461766590287,-245.8235708980362,-79.46066917025962,-0.9999548806871089,57.5889201620623,10.070759224236612,258.46273311570343,59.88263170824583
85,7.158751748121061,-245.75244403411898,-79.40570834667787,-1.1336473426277314,57.92585117421571,9.974525603462364,258.37615310952805,60.201251226179856
86,7.1011461314585915,-245.68655716483238,-79.35522024414415,-1.3302945987812822,58.273660263218005,9.843506200321578,258.2959417774811,60.52023691618272
87,7.04666327597498,-245.62781609447416,-79.30945300216709,-1.5799804223652596,58.627920405510594,9.681435607514999,258.22403018078245,60.834785917745315
88,6.9961398687313086,-245.5779338943724,-79.26860410670106,-1.871122856092919,58.984434947634895,9.49258107797673,258.1621449614799,61.14041251731922
89,6.950203191935875,-245.5383842340426,-79.23281914785268,-2.190964685493338,59.33932388924624,9.28158520304268,258.1117626783014,61.43305830700245
90,6.909250543958296,-245.51036263486452,-79.20219166305108,-2.5261076459246463,59.68909202492985,9.05329298193629,258.074072250129,61.70918582554875
91,6.8734366002677705,-245.49475691536486,-79.17676346237886,-2.8630674678960983,60.03067697016774,8.812568827846233,258.04994654462035,61.965853014374474
92,6.842669200158262,-245.49212752084742,-79.15652490333119,-3.18882579040858,60.361476236578284,8.564109833831605,258.03992361288755,62.20076664217952
93,6.816613655803319,-245.5026977740233,-79.14141484880369,-3.4913551666123155,60.67935373939069,8.31226233615412,258.0441975177372,62.4123137629996
94,6.794705300349079,-245.526353559598,-79.13132033930157,-3.760094795860152,60.982627286794546,8.060849316838434,258.0626182858398,62.599571200843044
95,6.776169697570977,-245.5626516276194,-79.1260761831982,-3.986357188832608,61.27003959706801,7.813016269681281,258.0947002470358,62.76229393401958
96,6.760049738523372,-245.6108354938396,-79.12546463740516,-4.1636496851872264,61.54071612198398,7.571102646874256,258.1396378126458,62.90088404928722
97,6.745238734193144,-245.6698577490068,-79.12921514110012,-4.28789949543012,61.794113343251496,7.336544880379578,258.19632752035113,63.01634261186739
98,6.730518528843326,-245.73840744335683,-79.13700384164665,-4.357576426005257,62.02996122857828,7.1098153642883695,258.26339496660194,63.110207309346755
99,6.7146015258165885,-245.81494113448468,-79.14845261731507,-4.373713155733052,62.24820328095618,6.89039992163303,258.3392251621277,63.18447907161226
100,6.696175316071807,-245.89771629109924,-79.16312749830652,-4.33982825765238,62.448937267369445,6.676814387765598,258.42199500261097,63.24154107928009
101,6.673948417511161,-245.98482615154978,-79.18053671565357,-4.261761567172137,62.63235939840582,6.466659158395841,258.50970703001013,63.284073655361034
102,6.646695570299952,-246.0742358129958,-79.20012899614134,-4.147434660410696,62.798714423837524,6.2567089314698485,258.60022442186244,63.3149684188498
103,6.6133010947623205,-246.16382001562752,-79.22129309698173,-4.006551066933813,62.94825367051822,6.043033479157323,258.6913079179955,63.33724465822489
104,6.5727989210936135,-246.25140346769018,-79.24335974992962,-3.850251527169002,63.081202363779816,5.821144195456698,258.780655814079,63.35397011930154
105,6.524407970405785,-246.33480450011086,-79.2656069994107,-3.6907392987719825,63.19773667049001,5.586160407717141,258.86594804291866,63.36818739636077
106,6.467561615200076,-246.4118824376365,-79.28726943405353,-3.5408894136595195,63.2979699420224,5.3329890095409604,258.94489483472273,63.382846078249564
107,6.401930061869013,-246.48058850020365,-79.30755124305313,-3.41385414504865,63.381946813343305,5.056510882926967,259.01528973082117,63.40073995490937
108,6.327434785380519,-246.5390194355273,-79.32564256023083,-3.322675059970222,63.44964327191295,4.751767844161009,259.07506600599424,63.424448084880275
109,6.244254642164666,-246.58547248174798,-79.34073828217235,-3.279910129095249,63.500970606329595,4.4141444111043375,259.12235491011694,63.456278410825746
110,6.152823867924436,-246.61849967123493,-79.35205849356421,-3.297282541611497,63.535781274006105,4.039539422095309,259.15554357983694,63.498212863631736
111,6.053822612116203,-246.6369589502614,-79.35886975034515,-3.3853562051271844,63.55387514576514,3.6245233237490018,259.17333000815256,63.55185345395498
112,5.948160861574583,-246.64005921107122,-79.36050661906565,-3.5532415359592484,63.55500520650253,3.1664777263849753,259.1747721498355,63.61836961418877
113,5.836956644848728,-246.62739624384588,-79.35639292933156,-3.808334209132556,63.53888247694339,2.6637145667328133,259.1593281742726,63.69844787868682
114,5.7215093952657785,-246.59897687713593,-79.34606218151944,-4.1560891075312245,63.50518052369812,2.1155728609921574,259.126885120188,63.79224572228445
115,5.603269297611888,-246.55522912261497,-79.32917655260651,-4.599831762750346,63.453540349544085,1.5224914979823498,259.0777737252069,63.899351917280214
116,5.483803369244873,-246.49699686291564,-79.30554395940254,-5.140610045651053,63.383576697746584,0.8860567557504856,259.01276789258696,64.01875610732286
117,5.364759027646038,-246.4255184829191,-79.27513259040256,-5.777089652886732,63.29488693603898,0.2090232244190813,258.93306806080454,64.14883050263236
118,5.247826024468722,-246.3423898539124,-79.23808220130728,-6.505497896345841,63.18706379372444,-0.5046933691568638,258.8402686679241,64.28732675053588
119,5.134697811405757,-246.24951316706057,-79.1947113948433,-7.319621141179535,63.05971331895291,-1.250053220146292,258.736310917545,64.43139111151623
120,5.027033546021217,-246.14903412106523,-79.14552015923904,-8.210861521769308,62.912479415276785,-2.020961380005376,258.6234230313314,64.57760094973146
121,4.926421984079779,-246.0432707578404,-79.09118708726562,-9.168357883161823,62.74507610081935,-2.8103704409237955,258.50405096878484,64.72202509591945
122,4.83434840273738,-245.93463774021203,-79.03256084737183,-10.179174073126799,62.55732815812886,-3.610418154520654,258.38078311356037,64.86030980533553
123,4.752165459224415,-245.82557005560076,-78.97064560153122,-11.228554899656263,62.34922009477597,-4.41259979490846,258.25627263843285,64.98779081131482
124,4.681068569199991,-245.71845000334648,-78.90658023817046,-12.300246654332447,62.12095230378298,-5.207973114187591,258.1331611872878,65.09963036248091
125,4.622076063173512,-245.61554088273323,-78.84161163258625,-13.37687553035642,61.87300203751869,-5.987391446539816,258.0140071926255,65.19097616694113
126,4.57601410987316,-245.51893007879966,-78.77706269994097,-14.440373954356794,61.606185450903325,-6.7417582271758185,257.90122162726044,65.25713702220479
127,4.543506234452997,-245.4304833424731,-78.71429663302973,-15.472442152967627,61.32171579628581,-7.462294212910566,257.7970133223598,65.29376788827848
128,4.524967247016663,-245.35181111811212,-78.65467917497247,-16.45503038370561,61.02125211647688,-8.140807223435349,257.7033452268464,65.29705557540127
129,4.5206015168318565,-245.28424689552156,-78.59954091892735,-17.370826164453394,60.706932634207675,-8.769953337180471,257.621902194769,65.26389527662049
130,4.530405671987472,-245.22883681444625,-78.55014151596424,-18.203730407959497,60.38138753421146,-9.343478166146781,257.5540701419137,65.1920479856734
131,4.5541758238309225,-245.18633917009907,-78.50763745047952,-18.939306490889738,60.04772697585007,-9.856427096564264,257.50092579295216,65.08026944419663
132,4.591519238897051,-245.15723211226032,-78.47305475590188,-19.565186889693933,59.70950187284716,-10.305314258723193,257.46323581059517,64.92840261936836
133,4.6418700927242975,-245.14172773944682,-78.44726765789164,-20.071423047532367,59.37063703858241,-10.688241536282206,257.44146388925986,64.73742768060585
134,4.7045087039504985,-245.13979094293188,-78.43098365889443,-20.450765591555847,59.035338459657666,-11.004961132352856,257.4357843937078,64.5094658139062
135,4.778583521489076,-245.15116165844773,-78.42473511578532,-20.69886395445889,58.707978481216024,-11.256877948838238,257.44610126876404,64.24773578206614
136,4.8631350393468535,-245.1753795105873,-78.42887702036548,-20.814376917691032,58.39296439856507,-11.446991093439495,257.4720711519768,63.95646474873336
137,4.957120709948001,-245.2118100870062,-78.44359046445449,-20.79898854472373,58.09459725843671,-11.579776961795998,257.51312979049146,63.64075739363804
138,5.059439916125731,-245.2596722205704,-78.46889102421572,-20.657327291740913,57.816928510595915,-11.661019296539958,257.5685209235766,63.30642959696984
139,5.168958185594113,-245.31806570179566,-78.50464096368205,-20.39678964322848,57.56362245166917,-11.697594163926203,257.63732673589,62.959814802211966
140,5.284529973937263,-245.38599880858612,-78.55056388296835,-20.027273313994446,57.337832125117366,-11.697219746480343,257.71849887230843,62.607552457093945
141,5.405019414050213,-245.4624149370437,-78.60626043775387,-19.56082876611824,57.142095489825365,-11.668182155179837,257.81088890806507,62.25636861423304
142,5.529318502001925,-245.54621747852252,-78.67122406027039,-19.011241343803395,56.97825732989349,-11.619049109563488,257.91327712906,61.912858840799295
143,5.656362355902333,-245.6362919749737,-78.744856033313,-18.393559524734226,56.84742071458724,-11.558383326541492,258.024398499922,61.583283092417574
144,5.785141419707533,-245.7315245861195,-78.82647960079468,-17.723587385390513,56.74993001712318,-11.494466804900906,258.14296480260697,61.27338122116345
145,5.914710700758091,-245.83081610766914,-78.91535295060758,-17.01736112576975,56.685385708993174,-11.435045943005568,258.2676821720138,60.98821636575402
146,6.044196292910214,-245.933091185382,-79.01068087899431,-16.290630181157972,56.65268945267198,-11.387105724960763,258.39726363353515,60.73205167453143
147,6.172799557108684,-246.037302843419,-79.11162479443668,-15.558362969658125,56.65011648272647,-11.356679258703684,258.5304366526202,60.508263748855086
148,6.299799403070573,-246.14243285267418,-79.21731060215824,-14.834295762620247,56.67541093719225,-11.348696933499097,258.6659460590184,60.31929401683061
149,6.424553128772375,-246.247488776149,-79.32683415019743,-14.13054075693952,56.725898688998974,-11.366877525526217,258.8025530480956,60.166637099079416
150,6.546496253685871,-246.35149876338835,-79.43926436815615,-13.457266461068874,56.7986113503525,-11.413661830943381,258.9390313238628,60.050863249338406
151,6.665141749571294,-246.4535053090825,-79.55364477169515,-12.822460200912882,56.890414570255125,-11.490187916360224,259.07416175132124,59.97167031158086
152,6.780078991416296,-246.55255921088974,-79.6689943905808,-12.231779050757863,56.998133643304534,-11.596305859632412,259.20672702113745,59.92795949707821
153,6.890972571578419,-246.64771487308948,-79.78430934674925,-11.688491938304438,57.118669856354096,-11.730628896995459,259.33550779166006,59.91792873023441
154,6.997560868399445,-246.73802797245287,-79.89856626918896,-11.193512220294458,57.24910186754571,-11.890617189894542,259.4592816291144,59.939177307456994
155,7.099654027510653,-246.8225563829944,-80.01072839982778,-10.74551679647575,57.38676763090466,-12.0726899554171,259.5768258441789,59.988816057006844
156,7.197130885004913,-246.90036512165324,-80.11975459513955,-10.341144869333403,57.52932384005821,-12.272361413148642,259.68692499378216,60.06357796336435
157,7.289934379323417,-246.97053585532248,-80.2246107003234,-9.975266762871671,57.67478145289376,-12.484395826836845,259.7883833858802,60.159925201353104
158,7.378065154383846,-247.0321811822183,-80.32428232030986,-9.641310780159905,57.821517452060824,-12.702976813913711,259.8800424811432,60.27414958033145
159,7.46157328854,-247.08446353282062,-80.41778797071764,-9.33163391590765,57.96826450299096,-12.921886022269296,259.9608027307582,60.402464428397494
160,7.540548313172381,-247.1266181889288,-80.50419179707716,-9.037920397463525,58.11408152776654,-13.134686220927415,260.02964912994963,60.54108688999665
161,7.61510787895107,-247.15797957748805,-80.58261525349798,-8.751590653279834,58.25830929632009,-13.334903856215115,260.08567950992773,60.686310376096024
162,7.685385606491409,-247.1780096104313,-80.65224724464102,-8.464202665663226,58.400515743830184,-13.516206238315913,260.1281342645228,60.83456735436854
163,7.751518814135192,-247.18632642370855,-80.71235236564632,-8.167828020887017,58.54043571925706,-13.67256875501337,260.15642585563967,60.98248272448181
164,7.81363689470156,-247.18273151886345,-80.76227713955235,-7.855386414230835,58.67790933887769,-13.79842784020508,260.17016619408423,61.126917800366016
165,7.871851096313746,-247.16723316398057,-80.80145451543596,-7.520924769353587,58.812822319997956,-13.888815859086636,260.16918996538084,61.26500466119229
166,7.9262463720386584,-247.14006403801193,-80.82940722381832,-7.159830264137693,58.94505085466045,-13.939474638862418,260.1535721909056,61.39417054903156
167,7.9768757697309525,-247.10169147094953,-80.84575078787718,-6.768970193698453,59.074412890307464,-13.946945072357925,260.12363872046143,61.51215216663167
168,8.02375749157076,-247.05281916549478,-80.85019701932616,-6.346755508410291,59.20062715317288,-13.908631011743136,260.0799688575448,61.61700012417992
169,8.066874337399552,-246.99437991165127,-80.84255868606799,-5.8931287937282395,59.323280840420004,-13.82283652850474,260.0233898567052,61.70707428399639
170,8.106174932224244,-246.9275194459204,-80.82275573351086,-5.409481199456055,59.44180655203892,-13.688776558499233,259.95496353684626,61.78103124147937
171,8.141576057133335,-246.85357219646562,-80.79082299034,-4.898506193816109,59.55546873144049,-13.506561955062153,259.87596567257475,61.83780561129991
172,8.172965571966293,-246.7740301765185,-80.7469187705993,-4.36400080561935,59.66335968434076,-13.277160929075338,259.78785916548327,61.876587144793355
173,8.20020574021394,-246.69050671746888,-80.69133334002962,-3.8106270283079358,59.76440514442994,-13.00233964474193,259.6922622779781,61.89679593576627
174,8.22313706515521,-246.60469697793346,-80.62449595624805,-3.2436471945579806,59.85737927654427,-12.684585332868199,259.59091337409996,61.89805801286978
175,8.241582881333802,-246.5183371178594,-80.54697912847446,-2.6686474361689165,59.940928878965515,-12.327015707829537,259.4856335503725,61.880183445173984
176,8.255354918668104,-246.4331636850361,-80.45949884078333,-2.0912629621429386,60.01360631678012,-11.93327874169997,259.37828824358684,61.84314870953713
177,8.264259976788276,-246.3508742739181,-80.36290974615721,-1.516917958999187,60.07391034936306,-11.507446942241007,259.27074851846913,61.78708448562934
178,8.268107806020378,-246.2730901006175,-80.25819476965829,-0.9505915347903028,60.120333492433154,-11.053910170889711,259.1648524769647,61.71226926850764
179,8.2667202698769,-246.20132093334,-80.14644908671961,-0.3966193509267091,60.15141393386094,-10.577270685844935,259.06236720197154,61.61912829065131
180,8.259941759225063,-246.13693281220944,-80.0288589469549,0.14146154846209402,60.16578945527125,-10.082243484911437,258.9649517983842,61.50823639299963
181,8.247650587861777,-246.0811190704856,-79.90667623067023,0.6610196598909072,60.16225047976174,-9.57356418991972,258.8741222907849,61.38032287931825
182,8.229770805881584,-246.0348752112206,-79.7811899677587,1.1603853513621478,60.13978934856173,-9.055905762381917,258.7912192734213,61.23627612994759
183,8.206283659830351,-245.99897817218704,-79.6536963077086,1.6388570307036827,60.09764317746836,-8.533804420005294,258.7173792602938,61.07714580411559
184,8.177237868086866,-245.97397051451665,-79.52546853511386,2.0966601975933026,60.03532808270106,-8.011594403119513,258.6535107144525,60.90414075342339
185,8.142757944716562,-245.96015015703958,-79.3977286378459,2.534864672815013,59.95266315351584,-7.493350838955154,258.6002757905503,60.71862125620797
186,8.103049985505752,-245.95756632901524,-79.27162171062973,2.9552670383548443,59.849783230736314,-6.982839876416557,258.55807880684995,60.52208479584436
187,8.058404620739338,-245.9660222277487,-79.14819422043414,3.360246487179336,59.727140227626734,-6.483475420598324,258.5270622136764,60.31614523111724
188,8.009197133676894,-245.98508440073905,-79.02837691923024,3.752602839682055,59.58549331848503,-5.998282077492087,258.50711031430825,60.10250574804181
189,7.955884862586986,-246.01409829407055,-78.91297290232143,4.13538542870028,59.42588881674523,-5.529864260448367,258.4978603580911,59.882926430978216
190,7.899001899512112,-246.05220896286306,-78.8026509024268,4.511720934398866,59.24963101548968,-5.080381771418494,258.49872007157614,59.659187693462265
191,7.839150946167645,-246.09838578652895,-78.69794340948124,4.8846471714054,59.05824568377284,-4.65153249034618,258.50889038992887,59.43305117945967
192,7.776992183976748,-246.1514501497618,-78.59924872572019,5.256958448154717,58.85343824581406,-4.244542987396307,258.5273921184408,59.206220022540016
193,7.713229161255519,-246.21010525047384,-78.50683573590211,5.631066639158898,58.637048826452435,-3.8601678440826253,258.55309535193487,58.98030043946026
194,7.648591901636242,-246.27296728507076,-78.42085009759793,6.008880758104582,58.41100626964454,-3.49869825326203,258.5847505509867,58.75676648475352
195,7.5838176979926235,-246.3385972041408,-78.34132074605506,6.391706737439654,58.17728295346689,-3.1599801245091355,258.62102018609414,58.5369294399382
196,7.5196303909815,-246.4055321371473,-78.2681659613894,6.780168329425636,57.93785183279333,-2.8434414631172276,258.6605098880581,58.32191285906463
197,7.456719228100753,-246.47231556578808,-78.2011986456454,7.174149496909791,57.69464675280315,-2.5481282345643734,258.701798154046,58.11263385821425
198,7.3957185330998385,-246.53752542196764,-78.140130864417,7.572758309567739,57.449526768482535,-2.272747381022846,258.7434638772641,57.90979090106957
199,7.3371893955554315,-246.599799511502,-78.08457812426487,7.974312177898725,57.20424499050527,-2.0157152685071833,258.78411130849133,57.71385811535592
200,7.281604482466744,-246.65785802855484,-78.03406419978357,8.37634422772685,56.96042231138404,-1.7752096632121737,258.82239250572474,57.52508603256603
201,7.229336883260185,-246.71052336808089,-77.98802743307981,8.775630690538028,56.719526187201026,-1.5492232967407156,258.8570277772969,57.34350850670451
202,7.180653614153435,-246.75673781761253,-77.9458292440303,9.168239252240001,56.482854438239045,-1.3356171056827906,258.88682491550384,57.16895539834134
203,7.135714070672561,-246.79557986504034,-77.90676520120891,9.54959823894409,56.25152381010178,-1.1321713263316229,258.9106980371406,57.00107041464381
204,7.094573386045419,-246.8262797206181,-77.87007852816079,9.914586215787178,56.02646283437882,-0.9366328561762532,258.9276865607337,56.83933329088919
205,7.057190349077753,-246.84823424922274,-77.8349754929866,10.257640964288923,55.808408365617616,-0.74675771070187,258.9369743282793,56.68308529783534
206,7.023439274306969,-246.86102096599348,-77.80064194826129,10.572885896857954,55.5979050963568,-0.5603479993826003,258.93790829949796,56.531556909830165
207,6.993125026316382,-246.86441023390222,-77.76626045796573,10.854270900734551,55.39530744326659,-0.3752835455723533,258.93001580226803,56.38389646270181
208,6.966000260021433,-246.85837447018545,-77.73102779967826,11.095723599113219,55.20078349395309,-0.18954894583611467,258.91301910945145,56.239198829507636
209,6.94178379366497,-246.8430931099565,-77.69417285112846,11.291306259433496,55.01432113102417,-0.0012573498904355327,258.8868461196356,56.09653349345797
210,6.920178897500873,-246.81895228280192,-77.65497482907143,11.435373147582483,54.83573685026438,0.19132755426906786,258.85163610183906,55.95497176109968
211,6.900890267819946,-246.7865385307047,-77.6127816821948,11.522723036255899,54.66468802784599,0.3897699521889213,258.8077397697294,55.81361311653081
212,6.883638644315531,-246.74662631306816,-77.5670283032788,11.548741824781048,54.50068940703417,0.5954396507543933,258.7557133130811,55.671610824061226
213,6.868172385327269,-246.70015946177142,-77.51725409319167,11.509530790804934,54.343134361910906,0.8094886400495205,258.6963063813092,55.528196841994856
214,6.8542757141458655,-246.64822718257895,-77.4631191871725,11.402016803797839,54.19132108960204,1.0328266296440862,258.6304443711458,55.382705938687174
215,6.84177365401768,-246.59203563277038,-77.40441838601487,11.22404178530272,54.04448336445823,1.2660964606015825,258.5592057127425,55.234598658584815
216,6.830533825990421,-246.5328764471106,-77.3410916903112,10.974429682815558,53.90182495950364,1.509650978111658,258.4837951371472,55.08348253572442
217,6.820465323985721,-246.4720937199087,-77.27323040905071,10.65303013227186,53.76255639109167,1.7635334404035141,258.4055140608515,54.929130748886195
218,6.811514843133528,-246.41105084808416,-77.20107805318683,10.260738787803474,53.62593234060418,2.027463729589711,258.32572919457937,54.77149730859721
219,6.803660167016125,-246.35109838875042,-77.12502559370049,9.79949503173197,53.49128799302134,2.3008324862516574,258.2458403509069,54.6107279072059
220,6.796901128418541,-246.29354378603065,-77.0456011859492,9.272258456043057,53.35807259733561,2.582704849361948,258.16724829711256,54.44716574574076
221,6.7912483402123796,-246.23962349390226,-76.96345503927266,8.682966050995798,53.22587874527702,2.8718348222554826,258.0913233666927,54.281351910479394
222,6.786710288803765,-246.19047767376063,-76.87934052222987,8.036472315891167,53.0944661404171,3.166690495820036,258.0193753445733,54.11402014394568
223,6.783279637184563,-246.14712737973446,-76.79409275405051,7.338474454227831,52.96377899599856,3.465489541474147,257.9526249436016,53.94608613692513
224,6.780919719612927,-246.11045409611282,-76.70860594614906,6.595424513884727,52.833956666506566,3.7662436476104877,257.8921771503448,53.778631787554644
225,6.77955224844861,-246.08118166705373,-76.62381068226564,5.814429970479956,52.705337624262555,4.066810014409686,257.83899686270735,53.612885205116974
226,6.779047220288311,-246.05986092334072,-76.54065207288893,5.0031439853148,52.578457323012735,4.364947686836918,257.7938874165559,53.45019749437022
227,6.779215888161462,-246.0468575400389,-76.4600692512192,4.1696464748479025,52.454040774603925,4.658376370733958,257.7574726741034,53.292017484956915
228,6.779807435218997,-246.04234383088578,-76.38297618252071,3.3223172717600713,52.332990822596095,4.944835409152248,257.7301833575692,53.139865600732975
229,6.780509647137563,-246.04629530623973,-76.31024350979688,2.4697030995583558,52.21637317757113,5.222140788185857,257.71224834347737,52.99530805542554
230,6.780953502772641,-246.05849283107207,-76.24268124841238,1.6203807815953772,52.1053992895934,5.4882383724086194,257.7036916570061,52.859932515584646
231,6.780721319136314,-246.0785310117321,-76.18102245481576,0.782819887090118,52.00140804185666,5.741251969242338,257.70433579087154,52.735326232865106
232,6.779357996028577,-246.1058329795322,-76.12590835931874,-0.03475133734724181,51.90584702818873,5.979525209354927,257.7138116385317,52.623057363102376
233,6.776384931056147,-246.1396711402254,-76.07787569171803,-0.8244725902572637,51.82025382847221,6.201656577528444,257.73157483208513,52.52465975858223
234,6.771316123156673,-246.17919290801427,-76.0373468525539,-1.578966718153405,51.74623727393288,6.406527251278912,257.75692772840756,52.441621012266104
235,6.763675796445803,-246.22345004098136,-76.00462315152754,-2.2914402776824443,51.685458307837656,6.593321703285407,257.7890457744067,52.37537307687416
236,6.753016722977361,-246.27142993467007,-75.97988080614266,-2.9557674404566963,51.63960980066975,6.7615412523381835,257.8270065764207,52.327284489005294
237,6.738938459481584,-246.32208711691212,-75.96316913039662,-3.5665566117259226,51.61039459649109,6.9110108443149585,257.8698198144466,52.29865311503399
238,6.721104885649018,-246.37437325458833,-75.95441044998965,-4.119200434432802,51.59950111219985,7.0418792851218015,257.916456241504,52.29069835159857
239,6.699260564390577,-246.42726420503718,-75.95340156133351,-4.609910912374914,51.60857595224942,7.154612978024052,257.9658743048384,52.30455182372159
240,6.67324543434368,-246.47978296544548,-75.959816775525,-5.035742173586045,51.639193216294586,7.249983035006091,258.01704329569276,52.34124581296237
241,6.6430072224122245,-246.53101779911518,-75.97321266705517,-5.3946039025080825,51.69282044371928,7.329045507443433,258.0689623594277,52.401698898599875
242,6.608610836684909,-246.58013534296347,-75.99303462744682,-5.6852686730256705,51.770781460492756,7.393114422336745,258.12067518936675,52.486698605097665
243,6.570243967763726,-246.62638901387413,-76.01862531524075,-5.90737627812455,51.8742167981276,7.4437273101173425,258.1712807128274,52.596881240844226
244,6.5282182100183155,-246.6691233943312,-76.04923514013062,-6.0614376498920866,52.00404285714546,7.482603001517784,258.2199404378387,52.73270960340938
245,6.482965162122071,-246.70777542582871,-76.08403490759866,-6.148840103051928,52.160911568005716,7.511591699998699,258.26588326865334,52.894449800933046
246,6.435027157865387,-246.74187317998238,-76.12213054038905,-6.17185449309999,52.34517288116722,7.532617714188003,258.3084084841285,53.08214902420824
247,6.385042578421334,-246.77103280437717,-76.16257946485902,-6.133643621718927,52.55684284254671,7.5476157372865345,258.34688731988786,53.29561655487396
248,6.333726164696864,-246.79495412646887,-76.20440807852265,-6.038270047956422,52.795580107886465,7.558462140283099,258.38076345113893,53.53441044529872
249,6.281845319550759,-246.8134154517956,-76.2466298264467,-5.890700502946952,53.06067341958631,7.566903336149982,258.4095527747741,53.797832053211685
250,6.230193884432488,-246.8262682095309,-76.28826363072413,-5.696803375303205,53.35104184487756,7.574483800888326,258.43284307973096,54.08492997980543
251,6.1795651145671355,-246.83343208067112,-76.32835251590693,-5.463335225523747,53.66524860211894,7.5824767463079,258.4502942132841,54.39451408050656
252,6.130725508675317,-246.83489106146476,-76.36598224321095,-5.197912063270064,54.00152825934091,7.591820690630162,258.46163916516093,54.72517926974694
253,6.084390873664227,-246.83069072804705,-76.40029975307371,-4.908961274081988,54.35782609127452,7.60306525266044,258.4666863010588,55.07533794802549
254,6.041205676218054,-246.82093687099152,-76.43053130630871,-4.605650623262276,54.73184747156861,7.616329414113244,258.4653229013768,55.44325908778973
255,6.001726447049784,-246.80579556412633,-76.45600030766028,-4.2977915969947835,55.12111440132458,7.631275262966911,258.45752008062766,55.827111359164796
256,5.966409773815244,-246.78549452400244,-76.47614470158165,-3.995715336175699,55.523025728284445,7.647099828971064,258.4433389304342,56.225007233045794
257,5.935605214978731,-246.7603253746574,-76.49053351442863,-3.7101205001543733,55.934917390043545,7.662547016223477,258.4229373999701,56.63504485041742
258,5.9095532468910115,-246.73064630605055,-76.49888175810997,-3.451893551636984,56.35411914971415,7.6759408161772935,258.39657719584596,57.05534462129579
259,5.888388081838178,-246.69688465138861,-76.50106268005474,-3.2319031789808577,56.77800473662629,7.685239952961418,258.364629944163,57.48407797139971
260,5.872144843708674,-246.65953899562734,-76.49711628484334,-3.0607718450797816,57.20403296339566,7.688112871332894,258.3275819150501,57.919486296819215
261,5.86077019239934,-246.61918041640138,-76.48725317789186,-2.948628756430548,57.62977814839227,7.682030568912399,258.2860366278201,58.359888905722805
262,5.854135171498167,-246.5764523452908,-76.4718531154755,-2.9048498979697466,58.05294892792321,7.664373355510455,258.24071463849316,58.80367943630982
263,5.852048973300557,-246.53206847184472,-76.45145813445383,-2.9377921851716455,58.47139526700868,7.632546440786924,258.1924498913849,59.249310936444395
264,5.854272535250248,-246.48680822453176,-76.42676065056811,-3.0545301602455397,58.88310423833936,7.584098533419891,258.1421822795617,59.695270554433364
265,5.860531313798635,-246.44150963668898,-76.3985873390624,-3.26060479960855,59.286186006564265,7.516837483887303,258.0909464543767,60.140045690205355
266,5.870527030867642,-246.39705973207253,-76.36787986081984,-3.559794654563231,59.6788523685695,7.428937374665343,258.0398573182477,60.58208441617483
267,5.883948458597405,-246.35438282514923,-76.33567350385164,-3.953919536247391,60.059390965840414,7.3190322112750055,257.99009289005863,61.01975378891705
268,5.900481324656265,-246.3144272216161,-76.30307458423066,-4.442686230783978,60.42613871938771,7.186292327646759,257.9428752513064,61.45130014456111
269,5.919817274304121,-246.2781506791618,-76.27123713793596,-5.023584365586408,60.77745806920958,7.0304806715653125,257.89945006512045,61.874815527042706
270,5.941661649169331,-246.24650474546922,-76.24133919839514,-5.6918386926008635,61.111719240112585,6.851987232176706,257.86106485480406,62.28821404896773
271,5.965739665944065,-246.2204179514861,-76.21455881345142,-6.440421862310246,61.42729105557435,6.651840978567857,257.8289460520366,62.689221274092446
272,5.991800398277,-246.20077795509926,-76.1920498615991,-7.260129347411071,61.72254188058822,6.431699720750782,257.80427490807216,63.075378719157555
273,6.019617892847367,-246.1884130212085,-76.17491772301425,-8.139715647578832,61.99585123430556,6.193819187428781,257.7881626397071,63.44406442084767
274,6.048988930704813,-246.18407345303802,-76.16419500871507,-9.066088433287225,62.24563161562614,5.941003295482644,257.78162545087986,63.79252933339588
275,6.079727367773603,-246.18841359824813,-76.16081777489019,-10.024555067399504,62.470359247112704,5.676538091250863,257.78556015599753,64.1179482403881
276,6.111655485396828,-246.20197487641113,-76.16560277817165,-10.999114125849482,62.66861185479917,5.404112211609915,257.8007210109869,64.41748299213748
277,6.144593159449811,-246.22517005322143,-76.17922627550973,-11.972783182254904,62.83911130572996,5.12772693682186,257.8276981387953,64.68835528311601
278,6.178345821561688,-246.2582688258838,-76.20220472084561,-12.92795322344326,62.98076888756753,4.851598955757658,257.86689774027894,64.92792584967628
279,6.2126922158420514,-246.30138470967148,-76.23487762063144,-13.846759586992818,63.09273114317665,4.580058843136866,257.9185241839446,65.13377682567658
280,6.247372985653264,-246.35446322866153,-76.27739285934754,-14.71145921844844,63.17442437462695,4.3174480299090705,257.9825640959626,65.30379397624695
281,6.282081137889378,-246.4172715135006,-76.32969492647801,-15.504804336903726,63.22559614234183,4.068016833338895,258.0587727034828,65.43624561084744
282,6.316455300040275,-246.489389578814,-76.3915165452491,-16.21040331995487,63.246352256594,3.8358259438177837,258.1466628633389,65.5298551465096
283,6.350076410768979,-246.57020376086604,-76.46237414510593,-16.813060811306006,63.237187840941864,3.624653568528656,258.245497381777,65.58386453085689
284,6.382468182509376,-246.65890297974806,-76.54156744107252,-17.299090679339923,63.199011031196875,3.4379100838088563,258.3542853443075,65.59808603350537
285,6.41310138592332,-246.75447855338658,-76.6281831994226,-17.656597339152604,63.13315784848481,3.278561487565617,258.47178317204987,65.57294031543215
286,6.441401717840352,-246.85572820310063,-76.7211032491874,-17.875722761474115,63.04139690500169,3.1490622375998223,258.59650102339884,65.50947924220985
287,6.466760769529379,-246.96126476831267,-76.81901696758496,-17.948857817390355,62.92592294793833,3.051297394750526,258.7267150867211,65.40939258034311
288,6.488549471649646,-247.06953012531918,-76.92043860798807,-17.870817143751,62.78933874762979,2.9865335863750935,258.8604863265447,65.27499835545079
289,6.5061333655084805,-247.17881484096887,-77.02372970891818,-17.63897643761368,62.6346253283363,2.955378327907239,258.99568624174964,65.10921710073985
290,6.518889117600835,-247.287284015341,-77.12712645478207,-17.253370265227883,62.46510089395218,2.957747707963208,259.13003001489085,64.9155304291963
291,6.526221828970762,-247.39300951027832,-77.22877154474499,-16.716747521032644,62.28436897658212,2.9928432218028433,259.26111709742383,64.69792438127098
292,6.5275828293017355,-247.49400843379976,-77.32675005828126,-16.03458102037628,62.09625637645689,3.0591394003428753,259.3864789477148,64.46081796125098
293,6.522487698134649,-247.58828746552155,-77.41912884407627,-15.215027663340557,61.90474146651827,3.1543845838742604,259.50363337987704,64.2089773339761
294,6.510534200487769,-247.67389233026995,-77.50399884695693,-14.268836249582693,61.71387352299518,3.2756175333322095,259.61014468154997,63.94741642936606
295,6.491419741447526,-247.74896134526196,-77.57951950989403,-13.209201225922856,61.52768400834461,3.4192024614500873,259.7036882094333,63.68128524083765
296,6.464957896585991,-247.8117814411383,-77.6439641346363,-12.05156221753531,61.35009121750788,3.580884537011827,259.7821175935931,63.41574788840673
297,6.431093517641802,-247.86084446044447,-77.69576491618082,-10.813350995389506,61.18480037288283,3.7558670806967878,259.8435320611638,63.155853479767586
298,6.389915789447569,-247.89490099575008,-77.73355616516388,-9.513689454873248,61.035201999747215,3.938910625648778,259.88634081156664,62.906403796466506
299,6.341668486128592,-247.91300867837685,-77.75621400774082,-8.17304404591042,60.9042720714071,4.124452810580596,259.909320971483,62.67182265477669
300,6.286756671436068,-247.91457179144058,-77.76289082361917,-6.812843673134113,60.794477867062746,4.306746767563598,259.91166561497266,62.45603227603829
301,6.225749238942312,-247.89936942744646,-77.75304296616949,-5.455069211232835,60.70769369249844,4.480014361776441,259.89301875441083,62.26234207782107
302,6.15937688207862,-247.86757009945165,-77.72645075901922,-4.121823460443379,60.645130565509874,4.638609446814833,259.85349500543595,62.093354973823274
303,6.0885252035476025,-247.81973161187707,-77.68323020137727,-2.8348907670069634,60.607283675302426,4.777185304133806,259.7936826191711,61.95089561090405
304,6.014222697391126,-247.75678597456346,-77.62383618804729,-1.6152958900121388,60.59390093022677,4.890859695971643,259.71462961988607,61.835964077472596
305,5.9376233289980105,-247.68001011507002,-77.54905733044514,-0.48287220569258954,60.60397525572998,4.975370497231527,259.61781379666087,61.74871757609556
306,5.859983508003631,-247.59098402583066,-77.46000259924982,0.5441499649795604,60.635762486902614,5.0272146975209395,259.5050981805501,61.68848138110788
307,5.782633498089427,-247.4915387186998,-77.3580800316922,1.449523459949565,60.68682566872005,5.043763757889505,259.37867435311466,61.653789068126855
308,5.706943737387641,-247.38369694048137,-77.24496778652932,2.219321153104854,60.75410532307122,5.023349000553356,259.24099650760564,61.642450528123724
309,5.634287029253223,-247.2696099813517,-77.12257798439921,2.8422185744117914,60.834013843217534,4.965311983932702,259.0947096006146,61.65164479163213
310,5.5659979646447235,-247.1514939925094,-76.99301402810586,3.309712870247141,60.9225507565017,4.870016615408025,258.9425750955647,61.67803335737885
311,5.5033311952602055,-247.03156901199452,-76.85852238318493,3.616271180217632,61.01543426123386,4.738821909276325,258.7873976793921,61.717888654759726
312,5.447420302051669,-246.91200345364803,-76.72144007234859,3.7594044802445508,61.108243276119616,4.574016582569837,258.6319559902216,61.76723150123359
313,5.3992390354047,-246.79486616657096,-76.58413940152667,3.739666022180822,61.19656334025912,4.378718852902581,258.4789398509855,61.821970955298994
314,5.359566674828603,-246.68208729915273,-76.44897165753666,3.560576394865209,61.27612922887108,4.156746607593682,258.33089573215847,61.878039883488626
315,5.328959162439061,-246.5754282006165,-76.31821160996357,3.228479758417789,61.342957292767196,3.9124643414358076,258.1901812336475,61.931519980270195
316,5.307727481266271,-246.47645972597064,-76.19400460180302,2.7523378612785976,61.39346137067298,3.650613848922566,258.0589285278895,61.978750963292526
317,5.295924488365222,-246.38654781042501,-76.0783179662044,2.143469992273675,61.42454753045448,3.3761357492189172,257.9390162079022,62.01642009799384
318,5.293341100155914,-246.30684504220727,-75.97289855661803,1.4152480347260756,61.43368457551492,3.0939887816647285,257.8320488599928,62.04162982755435
319,5.299512354167908,-246.2382869947129,-75.87923815244689,0.5827562814725051,61.418948926648795,2.8089736445852096,257.73934369588545,62.05194284661338
320,5.313733442799911,-246.18159214181523,-75.79854811103999,-0.33757431536575466,61.379044019208955,2.5255680084009824,257.661923516455,62.04540533816651
321,5.335085373004141,-246.13726429563204,-75.7317438410863,-1.3283481176795753,61.313295732942755,2.2477791172037467,257.6005151491443,62.02055029294822
322,5.362469432869255,-246.1055967336203,-75.67943876719261,-2.3715941202897493,61.22162662593956,1.9790199274126945,257.5555524458337,61.97638388364162
323,5.394649084235156,-246.08667751301945,-75.64194678075187,-3.449154135140415,61.10451285118334,1.7220138453697134,257.5271830373868,61.91235875694372
324,5.430297313009078,-246.08039583917193,-75.61929185876438,-4.543061643911446,60.962928472475845,1.4787317275507212,257.51527829099587,61.82833872692955
325,5.4680470238831935,-246.08644967164662,-75.61122352784491,-5.635903427650165,60.79828228415941,1.2503629588606386,257.51944620936627,61.7245595383211
326,5.506541861545764,-246.1043549489147,-75.61723703360252,-6.71115657667747,60.612352062044245,1.0373203453477153,257.5390472466307,61.60159001588332
327,5.544484864154155,-246.13345687943558,-75.63659727117806,-7.753494221111224,60.40722048184876,0.8392765422615991,257.57321313588955,61.46029708010034
328,5.580682576069254,-246.17294372534184,-75.66836560006482,-8.749054263124311,60.185215910199176,0.6552280379147513,257.62086882630933,61.301816965425175
329,5.614082650122494,-246.22186342521195,-75.71142866331125,-9.68566649243015,59.94886007962506,0.4835814686738055,257.68075756039815,61.127533710724464
330,5.643803506124278,-246.27914324556625,-75.76452840125238,-10.553034682602618,59.70082341985294,0.32225629956598956,257.7514690065177,60.93906472611529
331,5.669155177592132,-246.34361238900598,-75.82629254981461,-11.342871533008898,59.443887627024296,0.168797676282783,257.8314701552836,60.73825207171662
332,5.689650977711734,-246.41402714885848,-75.89526491788534,-12.048985581291461,59.18091405783078,0.0204935224418899,257.91913837896766,60.527157157728915
333,5.705010027256702,-246.48909785734804,-75.96993472545634,-12.667320428587988,58.914815935136474,-0.12550933076183424,258.01279573129705,60.308056084938514
334,5.715151046752598,-246.56751658097562,-76.04876443007076,-13.195947756075473,58.64853226460951,-0.2720941510655517,258.1107433355107,60.0834328969121
335,5.720178174191863,-246.64798429676878,-76.13021576882137,-13.635016629163626,58.385001712054034,-0.4220714278381304,258.2112945932757,59.8559685175011
336,5.720359963696127,-246.72923617387738,-76.21277403363304,-13.986662474278805,58.12713528059823,-0.5780859618201174,258.3128059345881,59.62852389139121
337,5.71610311180107,-246.81006367173418,-76.29497072654638,-14.25487987257153,57.877787305218156,-0.7425348450664919,258.41370395541617,59.40411667496266
338,5.7079227291816315,-246.8893325180552,-76.37540462668125,-14.445363907422802,57.63972496984905,-0.9174966058773423,258.51250809595797,59.1858916496866
339,5.6964110240037185,-246.96599616853143,-76.4527609728839,-14.565325158287214,57.415597142553516,-1.1046714585419866,258.6078484300881,58.9770857286415
340,5.6822060713225255,-247.03910484081425,-76.52582812254781,-14.623283524092502,57.20790367640944,-1.3053325283687183,258.69847849949286,58.78098885238415
341,5.665961961251024,-247.10781046711068,-76.59351093071703,-14.628845957127227,57.018966365594885,-1.5202879890837722,258.78328332391925,58.60090216560438
342,5.648321157363835,-247.1713679612029,-76.65484027119948,-14.592473030732027,56.85090251900252,-1.7498541424634435,258.8612828105383,58.44009469955801
343,5.629889532373362,-247.22913325988816,-76.70897847935034,-14.525239155257253,56.70560171986502,-1.993839558076136,258.93163094386233,58.301759478170084
344,5.611214413994658,-247.2805588256634,-76.75522094180454,-14.43859118723422,56.58470588505384,-2.251540457573404,258.99361148243077,58.18896961456907
345,5.592766012000114,-247.32518762675033,-76.79299454515228,-14.344110018762377,56.489592310606334,-2.52174751047499,259.04663134821726,58.10463462035902
346,5.574922622837102,-247.36264686166587,-76.82185405496935,-14.253279329628958,56.421359057928896,-2.8027640338202287,259.09021324290677,58.05145683597333
347,5.557959947566512,-247.39264274405005,-76.84147750030873,-14.17726497301605,56.38081185870909,-3.0924352320307467,259.1239890725389,58.031887650113
348,5.542044815429949,-247.4149575014224,-76.85166130290457,-14.126707529142859,56.36845175740244,-3.38818761060883,259.1476955074462,58.048083088333065
349,5.527233651138876,-247.42944942887982,-76.85231552570079,-14.111529555900312,56.38446298217996,-3.6870771169460688,259.16117259922714,58.1018584639637
350,5.51347604253166,-247.43605644879727,-76.84345949308876,-14.140758153582606,56.42870095628913,-3.985843982061474,259.16436596871034,58.19464205459415
351,5.500623585534408,-247.4348032205318,-76.82521812500545,-14.22236281050125,56.50068079793952,-4.280971751095059,259.157332712903,58.32742810476186
352,5.488443805034702,-247.42581144784907,-76.7978193968154,-14.363108273411402,56.599567016618,-4.568747726696719,259.14025081252777,58.500729820756604
353,5.476638542224092,-247.40931262124218,-76.76159320918764,-14.568422478380498,56.7241653748272,-4.8453221497800545,259.11343138248,58.71453343450909
354,5.464865908012852,-247.38566196332823,-76.71697165260224,-14.842280305829915,56.87291803611631,-5.10676397724968,259.07733256454117,58.96825485761792
355,5.452764754453014,-247.35535185928987,-76.66449034508491,-15.187104844971909,57.04390312317549,-5.349112012637843,259.0325733040503,59.26070082453506
356,5.439980583527992,-247.31902271712175,-76.60479029511048,-15.603688670721445,57.234839641916864,-5.568421196916747,258.9799448630991,59.590036619554276
357,5.426191865616655,-247.27746918924598,-76.53861953727642,-16.09113813378449,57.44309845290747,-5.760804840365814,258.9204178511984,59.95376247551249
358,5.411135813648326,-247.2316400314239,-76.46683361092337,-16.64684376377767,57.665719715229216,-5.922474330793861,258.85514283215815,60.348700607617666
359,5.394632657881759,-247.18263045415938,-76.39039393823194,-17.26647961866472,57.89943708019116,-6.049778353149391,258.7854431147455,60.77099469702902
360,5.3766073641167855,-247.13166647479486,-76.31036337442711,-17.944033866958907,58.140708876226284,-6.139243876875795,258.7127990196607,61.21612349109394
361,5.357107623651631,-247.0800813923467,-76.22789855529753,-18.671872158143813,58.38575653943311,-6.187621039437498,258.6388236026962,61.67893000049055
362,5.336316914022702,-247.02928500830606,-76.14423902147797,-19.440834512809595,58.63061053798395,-6.1919335357912795,258.5652303953971,62.153667501803014
363,5.314561515450939,-246.98072658127091,-76.06069334028756,-20.24036562960522,58.871163986859415,-6.14953530215145,258.4937941445251,62.634063200620496
364,5.292310594519659,-246.93585278947504,-75.97862249472674,-21.05867774014023,59.10323405079714,-6.058173344581363,258.42630582375523,63.113400011226254
365,5.270168850619084,-246.8960622612574,-75.89942070614187,-21.88294451831198,59.322631055699546,-5.916055663943908,258.3645234431026,63.584616468609305
366,5.248861668345627,-246.8626585189579,-75.82449377028445,-22.699524084592962,59.52523491769522,-5.721922410060597,258.3101204401686,64.04042426565634
367,5.229213090821288,-246.83680337895066,-75.75523505284751,-23.494208748047967,59.70707803710437,-5.4751176284423515,258.26463365434915,64.47344225860476
368,5.212117217577501,-246.81947285366167,-75.69299951095712,-24.252498651271818,59.864433221413,-5.17565825210934,258.229412959036,64.87634499221164
369,5.198503948005935,-246.81141737914174,-75.63907639802201,-24.9598958534551,59.99390454738966,-4.824296438689998,258.20557450652734,65.24202289672368
370,5.189300387109421,-246.81312783151634,-75.59466153672413,-25.602214676682387,60.092518417242154,-4.422571072753575,258.19395927212116,65.56375040096759
371,5.18538960806632,-246.82480843298697,-75.56083005945783,-26.16590348822768,60.157811500312526,-3.9728442839149323,258.19509825106326,65.83535742641811
372,5.187568695450944,-246.8463573696748,-75.53851031898945,-26.638372549015163,60.18791187913179,-3.4783191568943654,258.2091853441889,66.0513991829946
373,5.196508053385707,-246.87735576815575,-75.52845947925391,-27.008322032753643,60.18160961622925,-2.9430354246596764,258.2360587449447,66.20731891643544
374,5.212713923443005,-246.91706557349747,-75.53124130808503,-27.266063668017587,60.13841314912512,-2.37184083808567,258.27519154224854,66.29959822603847
375,5.236495952601377,-246.964436783816,-75.54720691077483,-27.403828626520372,60.05858834269758,-1.770337057079442,258.32569222904584,66.32588969648516
376,5.2679414400030895,-247.0181243800079,-75.576479436289,-27.41605338690264,59.94317758617249,-1.1448002400372967,258.38631577494465,66.28512681050846
377,5.306897515713019,-247.07651511297718,-75.61894398438842,-27.299634554775174,59.79399699740186,-0.502077934318021,258.455485802559,66.17760647710388
378,5.35296199044259,-247.1377640564804,-75.67424386043626,-27.054143181709243,59.61361064618119,0.1505347290811481,258.5313281320345,66.00504012243613
379,5.405483099334277,-247.199840507708,-75.74178392951562,-26.6819890500989,59.40528174019987,0.8054352957656353,258.61171552393193,65.77057016524874
380,5.463567980960488,-247.26058242646417,-75.82074131378192,-26.188525673667105,59.17290183013976,1.4548654918269996,258.6943229232476,65.47874973895345
381,5.526099499600801,-247.31775815149274,-75.91008326968557,-25.582087409639232,58.920900145274345,2.0910681125088275,258.77669195194983,65.13548460942378
382,5.591760867275058,-247.36913367258356,-76.00859176860456,-24.873951113758213,58.654136086444964,2.706443151091313,258.85630286172733,64.74793731847541
383,5.659067403955093,-247.41254336204145,-76.11489396324464,-24.078216253239813,58.37777866477469,3.2936971414888654,258.93065169517973,64.32439468520784
384,5.72640466576371,-247.44596181476373,-76.22749732365176,-23.211599411273916,58.097177261348186,3.84598023107047,258.9973300386069,63.87410095631224
385,5.7920720098473675,-247.46757426238264,-76.34482788180004,-22.293141705352486,57.81772841867401,4.357006439257786,259.05410446689973,63.40706007217401
386,5.854330360077115,-247.4758428584387,-76.46526989981072,-21.34383074361506,57.54474338060352,4.821153806064738,259.09899257578905,62.933811616683876
387,5.911452478915734,-247.4695659842541,-76.5872054328503,-20.386142290493893,57.283320769696275,5.23354255027002,259.1303323916427,62.46518600466785
388,5.961773583424344,-247.44792766457738,-76.70905253970164,-19.44351078690077,57.03822818730769,5.59009075803946,259.1468419637422,62.01204535898128
389,6.003739896254337,-247.41053430819008,-76.82930108082525,-18.539742182390754,56.81379572101091,5.887548348211246,259.1476661131317,61.58501734702701
390,6.035952839632832,-247.35743639176962,-76.94654508273975,-17.698386862649798,56.613823464687044,6.123511030366714,259.1324077097753,61.19422992029272
391,6.0572070166139005,-247.28913340692725,-77.05951067653415,-16.942094262321543,56.441504363761005,6.296416674528579,259.1011415368511,60.84905533396508
392,6.066520706600874,-247.20656131515364,-77.16707879183234,-16.291973506399962,56.299363135764175,6.40552692637444,259.05440974770227,60.55787194025389
393,6.063158188721253,-247.11106275905345,-77.26830211937474,-15.766985778922303,56.18921172859988,6.450896976109458,258.99319899004564,60.32785201068439
394,6.046643737367485,-247.00434122076695,-77.36241621270335,-15.383393972840281,56.11212169770752,6.433336105723545,258.9189002889226,60.164783245752325
395,6.016767560162475,-246.88840113330392,-77.44884483513007,-15.15429358656405,56.06841388526002,6.354361067344929,258.833253636158,60.07293069815833
396,5.973584230019411,-246.76547664288302,-77.52719972563112,-15.089245896971654,56.05766575839553,6.216143613037729,258.7382799201177,60.05494461164509
397,5.917404331014721,-246.63795231119997,-77.59727491185402,-15.194030255227892,56.07873663715208,6.021452764295669,258.6362033826315,60.11181821470089
398,5.848780148853217,-246.50827953554773,-77.6590356559904,-15.470527089243998,56.12981078051727,5.773591857123502,258.52936824550306,60.24289786401326
399,5.768486313374342,-246.37889281552373,-77.7126022077947,-15.916737145500024,56.20845790618423,5.476330165145943,258.4201535110755,60.44594616886813
400,5.677496380127854,-246.2521301175345,-77.75822882330846,-16.526936037041818,56.311710225283,5.133829025457903,258.31089014519506,60.71725688995797
401,5.576956454780828,-246.1301613575686,-77.79627894383789,-17.2919566716073,56.43615447904148,4.7505628100548805,258.203784766727,61.051818480350484
402,5.4681570460731725,-246.0149283674504,-77.82719788509198,-18.199585995282263,56.578036739812326,4.331235678217523,258.10085348615337,61.44352107000011
403,5.352504265316385,-245.90809870794814,-77.85148470224784,-19.23505708772379,56.73337689607028,3.8806956554828234,258.0038686783249,61.885399500009626
404,5.231491279939031,-245.81103455176603,-77.86966497887899,-20.381613345267898,56.89808889584328,3.4038480634223918,257.9143204089692,62.36990284946319
405,5.106670677482909,-245.72477677169977,-77.88226615370012,-21.62111856065649,57.06810216054941,2.9055705762487207,257.83339315085334,62.889179047686305
406,4.979628154914759,-245.65004341553876,-77.88979669724765,-22.934685314788435,57.23947924795914,2.3906321864355053,257.76195741877586,63.435361914772365
407,4.851957703970464,-245.587240961925,-77.89272998488605,-24.3032942953688,57.40852487664187,1.8636181794356632,257.7005750559691,64.00084750848501
408,4.725238244982817,-245.5364861723977,-77.8914931352515,-25.708378872933622,57.57188178298238,1.3288629425024179,257.64951617421286,64.57854703299707
409,4.601011558995322,-245.49763601269336,-77.88646058345357,-27.132352280684675,57.7266095224068,0.7903921330268495,257.60878527068394,65.16210476159483
410,4.480761425923321,-245.47032302741607,-77.87795192637726,-28.559058782807373,57.87024323498907,0.2518754331801123,257.5781538894934,65.74607138784683
411,4.3658940187943704,-245.4539937267653,-77.86623360176306,-29.974134981792297,58.00083053460227,-0.28340916506340125,257.5571973701796,66.32602582887824
412,4.257719702283755,-245.4479479084984,-77.85152403450422,-31.3652725781796,58.116945938888406,-0.812598859796902,257.5453335942137,66.89864152712188
413,4.157436379537471,-245.45137722639387,-77.83400181142065,-32.72237910255945,58.21768350662379,-1.3332568957572632,257.54186198711017,67.46169645148264
414,4.066114477634065,-245.46340162086753,-77.81381623980882,-34.03763806114068,58.302629522894726,-1.8433706368289131,257.54600126019454,68.01402905384616
415,3.9846836556023613,-245.48310246165084,-77.79109947287746,-35.30547430554077,58.37181811818588,-2.3413370492386534,257.55692454766836,68.55544519797287
416,3.9139213733951363,-245.50955144512017,-77.76597937889755,-36.52243408033817,58.42567351253294,-2.825936177483748,257.5737907780983,69.08658334954899
417,3.8544434740775086,-245.54183445555793,-77.73859246215603,-37.68699203614129,58.46494302963221,-3.2962936356384898,257.59577131879803,69.60874695497147
418,3.8066968395802774,-245.57906981217414,-77.70909627673089,-38.79929947752783,58.49062511782732,-3.751833616768777,257.62207117312164,70.12371390191147
419,3.7709540688075758,-245.62042068373398,-77.6776808390046,-39.8608892185884,58.50389641281662,-4.1922244030279,257.6519443719216,70.63353327902281
420,3.7473101094662633,-245.66510197082613,-77.64457859853837,-40.874352697747,58.50604144674877,-4.617318789057989,257.6847037102454,71.14031940783183
421,3.735680846041062,-245.71238249012754,-77.61007259972529,-41.84300461550453,58.498388004071685,-5.0270921609037,257.71972551176685,71.64605242468953
422,3.7358037382285474,-245.76158363310992,-77.57450248865696,-42.77054946717557,58.482250424717925,-5.421581143958819,257.7564504318665,72.15239368543762
423,3.747240684442579,-245.8120756927041,-77.53826798275486,-43.66076302368033,58.45888244995183,-5.800825709466863,257.79438131842767,72.66052305364747
424,3.7693833389187295,-245.86327282338925,-77.5018294491858,-44.51720008929014,58.4294405408584,-6.16481743316364,257.8330789398863,73.17100375387125
425,3.801461136959289,-245.9146273295447,-77.46570540011815,-45.342937780607414,58.394957979188106,-6.513456281688893,257.8721561798421,73.68367894206503
426,3.8425523325425632,-245.96562383663075,-77.43046691612993,-46.14036122681828,58.35632951626966,-6.846517871106464,257.9112712237061,74.19760253510493
427,3.891598468771308,-246.01577388493666,-77.39672917135526,-46.91099616196751,58.31430593548749,-7.163632586828352,257.95012029694556,74.71100529165558
428,3.947422796584731,-246.06461146790832,-77.36514038916003,-47.655390594939014,58.26949766769015,-7.4642773253743915,257.9884305444621,75.22129579539684
429,4.008753037246522,-246.11168993837188,-77.33636871543632,-48.37304579631637,58.22238648698288,-7.747780015746796,258.0259535937947,75.72509492009148
430,4.074248448858319,-246.15658054702757,-77.31108760171689,-49.06239529879188,58.1733442078844,-8.01333655625206,258.0624602233552,76.2183015046169
431,4.142530544881117,-246.19887269698273,-77.28996035343353,-49.72082940173542,58.12265713300458,-8.260039336516988,258.09773640213336,76.6961862383543
432,4.212216288740427,-246.23817581838625,-77.2736245616427,-50.34476170522503,58.07055476726605,-8.486916060437334,258.1315808144311,77.15351010132147
433,4.281952301127189,-246.274122615574,-77.26267714684086,-50.929733442066755,58.017241069729835,-8.692977132711258,258.1638038416147,77.58466314224546
434,4.35044855225487,-246.30637334872918,-77.25766063795881,-51.470550802347724,57.96292631987058,-8.877269435076567,258.1942278548648,77.98381894513643
435,4.416510142551544,-246.33462080742726,-77.25905111172617,-51.961449942246404,57.90785760002872,-9.038933914349169,258.22268861048667,78.34509981184509
436,4.4790660661888335,-246.35859569213855,-77.26724798588964,-52.39628380919243,57.85234599180351,-9.177264043270124,258.24903752968305,78.66274743336554
437,4.537194162605993,-246.37807217240925,-77.28256565995058,-52.768724290427684,57.79678883560623,-9.291761923973784,258.27314463903775,78.93129362319135
438,4.590141646492445,-246.39287340749738,-77.305226878462,-53.072472600845366,57.741685717101205,-9.382188643744469,258.2949019302927,79.14572554423296
439,4.637340664473283,-246.40287681881406,-77.33535763150236,-53.301470362692115,57.687647139660015,-9.448605544225266,258.31422688270436,79.301639786991
440,4.678418349521686,-246.40801889372707,-77.3729833889434,-53.45010353758064,57.635395130150755,-9.491403394497883,258.33106587539663,79.39537970035336
441,4.713200927705864,-246.4082992935197,-77.418026578158,-53.51339127966378,57.585755378482304,-9.511317084654026,258.34539724428987,79.42415061976205
442,4.741711644383694,-246.40378410695712,-77.47030550765976,-53.487151956242265,57.5396409732668,-9.509424326766,258.35723389319384,79.38610815878027
443,4.764162593985378,-246.39460824708257,-77.52953523978181,-53.36813916396742,57.49802834423278,-9.487127843936246,258.3666256111375,79.28041559384062
444,4.780940846498525,-246.38097713132174,-77.5953309576395,-53.15414170736905,57.461926569064204,-9.446121518721512,258.3736613995837,79.10726760699139
445,4.792589505170837,-246.3631678169094,-77.66721408775733,-52.84404325268222,57.43234162644612,-9.388341903420347,258.3784720603559,78.86787920458013
446,4.799784545806569,-246.34152967065359,-77.74462101264763,-52.43783961006455,57.41023740332054,-9.31590737457912,258.3812330800311,78.5644403760467
447,4.80330850265063,-246.31648447559675,-77.82691384814649,-51.93661410680868,57.39649533073026,-9.231048026642064,258.3821675728709,78.20003886715
448,4.804022218016871,-246.28852567773907,-77.91339257786456,-51.34247404290131,57.391874538939824,-9.136030059176731,258.38154880226426,77.7785552061593
449,4.802835880510632,-246.25821630525547,-78.00330789419964,-50.65845352440069,57.396974456985205,-9.033078820296806,258.37970165698147,77.30453570392457
450,4.80068043272705,-246.22618500349,-78.09587435901926,-49.88838982488428,57.41220180954876,-8.924304781216298,258.37700245263767,76.78305037257333
451,4.798480245420896,-246.1931197036653,-78.19028376094668,-49.03678166590394,57.437743921632496,-8.811636529139587,258.37387657735286,76.2195434212019
452,4.797127872210091,-246.15975871220658,-78.28571863051503,-48.108638355308166,57.473550088736275,-8.696764371460276,258.370793780757,75.61968411909893
453,4.797461716129479,-246.1268793362954,-78.38136582952832,-47.109328563915376,57.51932249324321,-8.58109735389926,258.3682612044485,74.98922536329556
454,4.800247404085513,-246.09528434578166,-78.47643007354225,-46.04443670324239,57.57451774862609,-8.465735483142314,258.3668144080122,74.33387629893411
455,4.806163458282219,-246.06578657987168,-78.57014716398861,-44.91963353220396,57.638359648723664,-8.35145781827048,258.3670066216952,73.6591939403573
456,4.815791514435234,-246.03919202316666,-78.66179655456868,-43.740565986005954,57.70986310063737,-8.238725920509832,258.3693964182755,72.97049708516333
457,4.829610991037497,-246.01628185547392,-78.75071269773147,-42.51276947891182,57.78786852310324,-8.127700972131073,258.3745341065377,72.27280402910817
458,4.847997830373847,-245.99779424044047,-78.8362945027976,-41.24160420746166,57.87108522641676,-8.018271825177022,258.38294735673304,71.570793791475
459,4.871226679821259,-245.98440673789656,-78.9180122837513,-39.93221537118394,57.95814156528521,-7.910090564601046,258.39512669183955,70.86878892305518
460,4.8994756201150285,-245.97672009383973,-78.99541183859309,-38.58951583382862,58.0476391314371,-7.802612078370356,258.41151142955556,70.17075670349725
461,4.932832322740287,-245.9752438539332,-79.06811569905955,-37.21818865432634,58.138208039364606,-7.6951346097518405,258.4324764847328,69.48032477885286
462,4.971300465152714,-245.9803839141384,-79.13582188814827,-35.82270618950444,58.22856045280769,-7.586839088340809,258.45832021784247,68.8008070466497
463,5.014805452857753,-245.99243191683578,-79.19830055245136,-34.40736213485706,58.31753980881325,-7.476825909001619,258.4892533353795,68.13523576216078
464,5.063198943997954,-246.01155640428888,-79.25538869848783,-32.97631285558487,58.40416361204274,-7.364148563156921,258.52538882112333,67.48639626043582
465,5.1162621753258115,-246.03779578945984,-79.30698322518535,-31.533624503399352,58.487658121899585,-7.247844039464156,258.566733020766,66.85686120255471
466,5.173708487415019,-246.07105334587536,-79.35303261622614,-30.0833225345229,58.567483722846916,-7.126960173227255,258.61317820118074,66.2490217492494
467,5.2351856721097745,-246.11109445818605,-79.39352789531415,-28.629440249827365,58.6433502735724,-7.000580158651837,258.6644970223578,65.66511351301958
468,5.300278833848798,-246.1575463121145,-79.42849358139364,-27.17606294132637,58.71522225805228,-6.867844312508729,258.7203393407492,65.10723556931411
469,5.3685144110505965,-246.20990009436395,-79.45797933938381,-25.727364357791675,58.78331403562285,-6.727968991902563,258.78023164326555,64.57736126010091
470,5.4393658469979815,-246.26751568929083,-79.48205279980142,-24.28763270355955,58.84807584735716,-6.580262458303521,258.8435792576142,64.07734005204945
471,5.512261115398608,-246.3296288060549,-79.50079368456845,-22.861284333553595,58.910171491123535,-6.42413758078203,258.909671324073,63.60889036364807
472,5.586591945671628,-246.39536039072993,-79.51428909326928,-21.45286460828172,58.97044877618379,-6.259121643258526,258.97768834464665,63.173584048434805
473,5.661724279492158,-246.46372806589184,-79.52262971748863,-20.0670367730423,59.029904065867655,-6.08486410143649,259.0467119877846,62.77282404665044
474,5.737009306143674,-246.5336592818792,-79.52590681850782,-18.708560857346146,59.08964245023865,-5.90114373649371,259.1157367902714,62.40781745961277
475,5.811794355780273,-246.60400592971243,-79.52420986713337,-17.3822651114752,59.15083533271367,-5.707877005395243,259.1836834792695,62.07954678299384
476,5.8854329335697715,-246.67356032774265,-79.51762475865173,-16.093012297326286,59.214677387935076,-5.505129267024028,259.24941379516116,61.78874214082436
477,5.9572932418037325,-246.7410726911767,-79.50623258288017,-14.845662417440266,59.28234489421351,-5.293129915231601,259.3117469032413,61.535857119044756
478,6.026764658421655,-246.80527040304693,-79.49010909802229,-13.645032542314935,59.354957334464856,-5.072291408902785,259.36947773368195,61.32105031523543
479,6.093261807415203,-246.86487959003657,-79.46932522049534,-12.495853581644678,59.43354386328914,-4.843230991302398,259.42139781659057,61.144174078817215
480,6.156226077040484,-246.9186495508645,-79.44394887044902,-11.402723286500088,59.5190157389716,-4.606792767981016,259.46631923231377,61.00477115062001
481,6.2151247354689545,-246.9653803584616,-79.41404841204236,-10.370054475906283,59.61214516193579,-4.364066939987555,259.5031020555371,60.90207907359708
482,6.26944812601633,-247.00395344498818,-79.37969782852487,-9.402017419037147,59.713550239385235,-4.116402488072889,259.5306851602602,60.835041422804665
483,6.3187056920112035,-247.03336432240278,-79.34098374718789,-8.502475476056954,59.82368511624887,-3.8654095417468586,259.54811962589633,60.80232419644532
484,6.3624217109565695,-247.0527559960918,-79.29801436817878,-7.674913542865204,59.94283378735695,-3.6129480574619754,259.5546034024485,60.802335236376464
485,6.400131641331104,-247.0614512271571,-79.25093009674335,-6.922359555551699,60.071105846999835,-3.361100251564091,259.5495154333791,60.833244413746506
486,6.431379960821156,-247.0589815889494,-79.1999152765089,-6.2473001928880585,60.208432517556695,-3.1121254362216586,259.53244711240853,60.89300257733281
487,6.455720280322098,-247.04511117218897,-79.14521009435961,-5.651592813005827,60.354561743163174,-2.868397379620226,259.50322876248447,60.97935789232921
488,6.472718310154067,-247.0198528021578,-79.0871215946294,-5.1363764568060555,60.5090518737371,-2.6323258791336133,259.46194878901713,61.08986909315673
489,6.4819579711869135,-246.98347483472318,-79.02603274734824,-4.701985439630222,60.67126435148579,-2.4062657225082282,259.4089633484381,61.221916170161904
490,6.483050661459286,-246.93649710250614,-78.96240861648418,-4.347869723085409,60.84035664864542,-2.192417510223149,259.3448948770552,61.372709915658184
491,6.475647427195759,-246.87967537194191,-78.89679886058882,-4.072527007609945,61.01527731472535,-1.9927258686112495,259.27061862619075,61.53930240764616
492,6.459453516251789,-246.81397462096123,-78.82983598879997,-3.873452301024902,61.194765278143464,-1.808781331891622,259.1872373032807,61.7186008170894
493,6.434244510445914,-246.74053243748344,-78.76222890698395,-3.747111393664324,61.37735551536734,-1.641732522887846,259.0960448878759,61.907386876858126
494,6.399882986711133,-246.66061477908767,-78.69475136110415,-3.688944841231962,61.56139291865934,-1.4922151593969109,258.9984816022512,62.10234400070193
495,6.356334507568798,-246.5755670967511,-78.62822501260146,-3.6934083485666895,61.745055731262354,-1.3603038404244039,258.8960827775158,62.300093468658815
496,6.303681749787791,-246.4867642679794,-78.56349710388689,-3.7540536545604666,61.92638932475863,-1.2454914900777472,258.7904248455012,62.49724038918861
497,6.242135780513035,-246.39556283186383,-78.50141298236666,-3.8636512092089967,62.103350407498674,-1.1466996947029877,258.683071830919,62.69042939362932
498,6.172043837468428,-246.30325868329405,-78.44278414867786,-4.014352462609077,62.273861008801504,-1.062320986845032,258.5755255286821,62.8764092631172
499,6.093893332064951,-246.21105273536466,-78.3883530036631,-4.19788601224928,62.435870791563985,-0.9902916486634117,258.4691820988978,63.052104908353414
500,6.008312033456689,-246.12002619061533,-78.33875606188684,-4.4057787823697865,62.58742539953562,-0.9281912334407617,258.36529717326425,63.21469425566518
501,5.916064456626538,-246.03112605501477,-78.29448792607703,-4.629591285862901,62.72673766855381,-0.8733630974364759,258.26496077110875,63.36168663392656
502,5.818044440795603,-245.94516046642013,-78.2558685973914,-4.861155018217008,62.85225772158541,-0.8230489639829532,258.1690823965005,63.49099832701054
503,5.715263938086576,-245.86280244027313,-78.22301666308088,-5.0928000935039694,62.96273739350032,-0.7745299072903352,258.07838575577256,63.60102027586398
504,5.608838284896872,-245.78459996668127,-78.19583058656585,-5.317562187690312,63.05728428244595,-0.7252660676692864,257.9934118095935,63.69067271883744
505,5.499968639024832,-245.71099014913153,-78.17397980269395,-5.529359514531232,63.135401122772535,-0.6730278047282015,257.9145284970675,63.759441994074926
506,5.389922565546435,-245.6423151900774,-78.15690672489806,-5.723132731005032,63.19700708502263,-0.6160117837696492,257.8419454109402,63.80739576030888
507,5.28001373356481,-245.5788383334228,-78.14384022413695,-5.894943159555001,63.242438861924455,-0.5529365855171469,257.7757318318978,63.83517433767668
508,5.171581382388895,-245.52075826394014,-78.1338206427756,-6.042027310697337,63.272430826321525,-0.48311372022213944,257.71583674696774,63.843957528304976
509,5.065969814322184,-245.46822094456815,-78.1257358535144,-6.162808140225585,63.288075050535284,-0.4064913194229528,257.66210976084966,63.83540800796089
510,4.964507834390714,-245.42132845722995,-78.1183671873197,-6.2568655438088925,63.2907634701306,-0.3236692060529544,257.6143221535946,63.811594058791435
511,4.868487880622306,-245.38014500221473,-78.11044328953554,-6.324870153612726,63.282115821612585,-0.23588542291850503,257.572187667027,63.77489588124214
512,4.779144616976645,-245.34470063105138,-78.10069928372344,-6.368485556710644,63.26389802553184,-0.14497552859151316,257.5353827985083,63.72790082261856
513,4.6976329892455695,-245.31499347281013,-78.08793819244859,-6.390244660085078,63.23793629811308,-0.05330698898796236,257.5035664304934,63.673293476085625
514,4.625006101466459,-245.29099126039938,-78.07109144624289,-6.393406159303222,63.20603237821976,0.036308192624160324,257.4763986378769,63.61374667500324
515,4.562193623592761,-245.2726329357787,-78.04927545502258,-6.381797022316569,63.16988483583661,0.12071881775344234,257.4535585361524,63.551818932531575
516,4.509981653917258,-245.25983092209088,-78.0218415356082,-6.359646658728577,63.131020560469246,0.19655351113231612,257.4347609495851,63.48986294425932
517,4.468994979089092,-245.25247423256218,-77.98841692248814,-6.3314180560093565,63.090739391006224,0.2603487755457868,257.4197714095472,63.42994856648206
518,4.4396825560785125,-245.25043208861484,-77.94893506740272,-6.301640659325685,63.05007367749776,0.3086813239679294,257.40841865960857,63.373802442905806
519,4.422306877623869,-245.25355739698162,-77.90365389519904,-6.274749198998198,63.00976356623006,0.3383000495968237,257.40060367029616,63.3227653879868
520,4.416937709878438,-245.26168942102447,-77.85316113809014,-6.254932109516783,62.9702480588924,0.34625325454937894,257.39630428291457,63.27776783748704
521,4.423450471614835,-245.27465523022062,-77.79836635688729,-6.245992712398641,62.931671363660236,0.3300070307066502,257.3955749770316,63.239323099599204
522,4.4415292526409695,-245.2922698953043,-77.74047975604456,-6.2512259481634835,62.89390362051558,0.2875509551716793,257.3985417612706,63.207537672262134
523,4.470674234808286,-245.3143357804317,-77.6809783335134,-6.273313065736263,62.856574658230365,0.2174876291559433,257.4053926722191,63.18213744209079
524,4.510213170427702,-245.3406415439245,-77.62156021794787,-6.314236286068791,62.81911899210618,0.11910313739302628,257.4163646972708,63.162508111916715
525,4.559316562095236,-245.37096149815025,-77.56408827598183,-6.37521512921337,62.78082981867731,-0.007583789540742852,257.4317280330976,63.14774774042046
526,4.617016171962456,-245.40505576867793,-77.51052435464861,-6.456665897494383,62.74091935744265,-0.16179536461092361,257.4517684636813,63.13672887112289
527,4.682226414688985,-245.44267129609725,-77.46285596503874,-6.558185679786082,62.69858258024801,-0.3419918092323078,257.4767683820795,63.1281674186725
528,4.7537681058155865,-245.4835432599065,-77.42301782319893,-6.678562035102288,62.653061187201644,-0.5458919497489383,257.5069867065707,63.1206952825521
529,4.8303940028919,-245.52739609479153,-77.392811359874,-6.815809123334488,62.60370464609288,-0.7705167716960925,257.5426377479742,63.11293357395676
530,4.910815509177785,-245.5739430479613,-77.37382591681674,-6.967230478461175,62.55002521228568,-1.012254733973871,257.58386904470717,63.10356337302786
531,4.993729656184379,-245.6228833746359,-77.36736568079746,-7.129507934170598,62.49174409770335,-1.266947037834747,257.63073841482446,63.09139109590035
532,5.077845107076804,-245.6738969244333,-77.37438636708985,-7.298815465649013,62.42882638110313,-1.52999049805669,257.68319108572643,63.075405867577494
533,5.161905764657786,-245.72663690068737,-77.39544523087974,-7.470955870228535,62.36150284874423,-1.7964551888720746,257.7410386278155,63.05482676633391
534,5.244710854951223,-245.78072255567878,-77.43066728903057,-7.641517166992606,62.290277674816366,-2.061213600940207,257.80394217937453,63.02913837202011
535,5.325130949534851,-245.83573412054736,-77.47972990979775,-7.80604427233468,62.215921605004695,-2.319077628453279,257.8714027919522,62.998113621492706
536,5.402119994833337,-245.89121220984305,-77.54186711355095,-7.960219959748318,62.13945102384862,-2.5649393484831253,257.9427614762598,62.96182348521716
537,5.474723880030085,-245.94666329104209,-77.615893687035,-8.100047570835379,62.062093955417595,-2.793911311153225,258.01721058012316,62.92063343768301
538,5.5420863857594735,-246.00157168174886,-77.70024762590472,-8.22202677629028,61.98524467748022,-3.001461935709673,258.0938166061514,62.87518714522814
539,5.6034535230001365,-246.0554172581421,-77.79304810717542,-8.323313240038066,61.910409181660135,-3.183541594859027,258.17155297236377,62.82637824252781
540,5.658177257122078,-246.1076970497783,-77.892165559253,-8.401853475100857,61.83914408668333,-3.336695086998899,258.24934005992833,62.775311451647596
541,5.70571936888929,-246.15794837598486,-77.99530024518853,-8.456487410105744,61.77299173687766,-3.4581564626671755,258.32608933171696,62.72325455515151
542,5.74565577406264,-246.20577108468183,-78.10006574035727,-8.48701298455183,61.71341413456634,-3.545922591154112,258.4007481795909,62.67158289290756
543,5.777681139301608,-246.2508466240464,-78.20407365541004,-8.494209232498783,61.66172818723592,-3.5988024527968334,258.47234228424315,62.621718209308135
544,5.8016132292594955,-246.29295202177087,-78.30501601508195,-8.479816628365944,61.61904460446305,-3.6164399679758965,258.5400125935091,62.575063914845295
545,5.817396190552576,-246.33196735914467,-78.4007419312699,-8.446475815032192,61.5862126933981,-3.599309223669203,258.6030445629799,62.532939152671496
546,5.825101978468509,-246.36787598956138,-78.48932562764381,-8.397628064631318,61.56377325504143,-3.548682158142813,258.66088804821703,62.49651441871012
547,5.824929347135041,-246.40075748042025,-78.56912348466277,-8.33738277992889,61.55192171483739,-3.466570009054863,258.7131671129134,62.46675176990538
548,5.817200134232627,-246.43077395474916,-78.63881849101314,-8.270358901332237,61.55048345483567,-3.355641029856588,258.7596798982015,62.44435276222047
549,5.802352824207296,-246.4581511061683,-78.69745111776257,-8.20150817467366,61.55890300454679,-3.2191180789905007,258.8003894572391,62.42971712835956
550,5.780933495781057,-246.48315557822698,-78.7444360892069,-8.135928844378764,61.57624828986132,-3.0606606541998977,258.8354069923971,62.42291483392178
551,5.753584282726683,-246.5060705406438,-78.77956496132497,-8.078678478423532,61.601230541933745,-2.884236713885139,258.86496919637705,62.42367355554657
552,5.721029491016569,-246.5271711925272,-78.80299499169969,-8.034594346294284,61.63223972991302,-2.693990074108776,258.88941147405546,62.43138281164905
553,5.684059602695247,-246.54670177887914,-78.81522541090018,-8.008129131749708,61.667394537526896,-2.4941091955970047,258.9091388772234,62.44511499153246
554,5.643513571377486,-246.56485564022526,-78.81706269460972,-8.003208830616188,61.704605072732,-2.2887027865864535,258.9245966735031,62.463662508762916
555,5.6002600062202825,-246.58175967673063,-78.80957674251556,-8.023118467372363,61.74164582488324,-2.0816869219768,258.9362424354507,62.485589409726195
556,5.555177945046688,-246.59746420847233,-78.79405008232627,-8.070419740414426,61.77623591450043,-1.8766874178341288,258.94452122097897,62.509295058947394
557,5.5091378757826215,-246.61193861949266,-78.77192241147942,-8.146902891745883,61.80612336224386,-1.6769601227846955,258.9498449076851,62.533086952492646
558,5.4629835313567945,-246.62507262825287,-78.74473298957055,-8.253573089027018,61.82916987802689,-1.4853307023718922,258.95257628193906,62.55525922883205
559,5.417514876947368,-246.63668267589497,-78.71406357379692,-8.390669565156394,61.843432541319416,-1.3041544586093294,258.95301820098217,62.57417306357491
560,5.373472689504449,-246.64652273439228,-78.68148463151698,-8.557713868564608,61.84723874881293,-1.135295767677086,258.9514079787428,62.588334899935056
561,5.3315251511055495,-246.6542987155237,-78.6485073074466,-8.753582038897482,61.83925097836572,-0.9801258468678772,258.94791695492046,62.59646843063829
562,5.2922568678488435,-246.65968555177173,-78.61654302578239,-8.976594534197405,61.81851828163625,-0.8395368025841012,258.94265492373466,62.597576456144225
563,5.256160652038649,-246.66234591790075,-78.5868718255228,-9.224617409498293,61.78451200174681,-0.7139693136468591,258.93567876599207,62.59098924839403
564,5.223632274217975,-246.6619494884078,-78.56061977166827,-9.49516854980951,61.737144030817966,-0.6034509184060213,258.92700432948794,62.576396868916305
565,5.194968221530475,-246.65819160412585,-78.53874515904224,-9.785523536407682,61.67676691334229,-0.507641733425843,258.9166203914426,62.55386395291953
566,5.1703662757265585,-246.6508102798673,-78.52203274798491,-10.092816752173995,61.604156131411656,-0.425884567335082,258.90450344569416,62.52382661960188
567,5.149928427571922,-246.63960066488798,-78.5110949486845,-10.414134370501682,61.52047587416756,-0.3572568135154555,258.89063212695265,62.487072267204375
568,5.133665354117861,-246.62442638940678,-78.50637867128997,-10.746596742447194,61.42723046458218,-0.300622132002618,258.8750003256009,62.44470399620103
569,5.121501574985966,-246.60522763728227,-78.50817641731885,-11.087428359991494,61.326204336196305,-0.2546806028469206,258.85762839015877,62.39809220950341
570,5.113280579458085,-246.582026151984,-78.51664010088166,-11.434014117352842,61.21939390745432,-0.21801659195641612,258.8385721434336,62.34881646424551
571,5.108769614391857,-246.55492760712113,-78.53179611559395,-11.78394112234503,61.108934835482756,-0.18914393177377947,258.8179296717122,62.29860085782133
572,5.107664272995615,-246.52412182602689,-78.5535603171729,-12.135025898106505,60.99702802017994,-0.16654816826178565,258.79584595719945,62.24924621113871
573,5.109593359929032,-246.48988124081288,-78.58175182458506,-12.485327517799433,60.88586749686643,-0.1487255954005699,258.7725154155871,62.202562199829266
574,5.114124651052839,-246.45255780761158,-78.61610482821243,-12.833148024435754,60.77757304483009,-0.13421866769072252,258.74818232734424,62.16030242272682
575,5.120772145970748,-246.4125784311687,-78.6562779146363,-13.17702226954455,60.67412990119043,-0.1216472515883396,258.7231390938904,62.12410511144347
576,5.129005281490828,-246.37043883375097,-78.70186071444522,-13.515699854306247,60.57733737424348,-0.10973512548444357,258.697722225014,62.09544170271494
577,5.138260352295949,-246.32669571409716,-78.75237792601631,-13.848122063386022,60.48876745350751,-0.09733119387589133,258.6723059489514,62.07557484609796
578,5.1479541205369586,-246.28195699477305,-78.80729103579834,-14.173396604724873,60.40973380088239,-0.08342502728945006,258.647293366674,62.0655266981205
579,5.1574993821676,-246.2368699812065,-78.86599839358979,-14.490772741868529,60.34127084902352,-0.06715653333471179,258.62310519314275,62.066057655287
580,5.166322117591645,-246.19210733894698,-78.927834636993,-14.799619089792953,60.284122210691606,-0.0478197836019234,258.60016630574586,62.07765509446121
581,5.173879715090087,-246.14835091582526,-78.99207068776727,-15.099405910533749,60.23873729295063,-0.024861276423941477,258.57889049994395,62.100531289303355
582,5.179679574690881,-246.10627363278243,-79.0579156110523,-15.389693160031298,60.20527492535002,0.002126792702399059,258.5596640552211,62.13462946174906
583,5.183297229202331,-246.06652000166306,-79.1245215055456,-15.670124830416842,60.1836129139145,0.03341739484296941,258.542828989736,62.17963687607574
584,5.184393027492754,-246.02968626035855,-79.1909922760648,-15.940429393974487,60.17336267898353,0.0691625855379427,258.5286671921888,62.23500396525565
585,5.182726420580704,-245.996301478646,-79.25639669780692,-16.200425520597083,60.173888452659504,0.10940926939036015,258.517386826596,62.29996865351766
586,5.178166927238579,-245.96681111642155,-79.31978571794937,-16.450031826591875,60.18433078164733,0.1541155602054697,258.50911238296527,62.373585216256046
587,5.170700895129411,-245.94156435740226,-79.38021352834583,-16.689279242000335,60.203634202105306,0.20316651251196127,258.50387946606924,62.4547571073408
588,5.160433244871264,-245.9208061447348,-79.43676160951348,-16.91832457017211,60.23057890290971,0.2563881079652231,258.5016349313473,62.542273145062275
589,5.147583575697027,-245.90467433267438,-79.48856468246115,-17.13746383002426,60.26381599203545,0.3135585800977417,258.50224240763504,62.6348462705789
590,5.132476406021562,-245.8932019128319,-79.53483729132375,-17.347143941142797,60.30190563421282,0.37441644854637424,258.505492751065,62.73115376503679
591,5.11552593748529,-245.88632399062078,-79.57489957735095,-17.547971247331024,60.343356881931214,0.43866501352352505,258.5111186648525,62.829877382315956
592,5.097216464894728,-245.8838890419659,-79.60820072001188,-17.74071533804559,60.38666762793965,0.505973543131255,258.5188125679713,62.929741487321145
593,5.078080184134219,-245.8856738364153,-79.6343385464902,-17.92630666427562,60.430362950235114,0.5759759171556611,258.52824667780067,63.02954717230711
594,5.058674439423498,-245.8914011598861,-79.65307396488966,-18.105826560789215,60.47303027633232,0.648267925603282,258.53909408375114,63.12820052608779
595,5.039560258138584,-245.90075910520457,-79.66433913631994,-18.2804884850421,60.51335019781996,0.7224046070553232,258.55104932067013,63.22473369031385
596,5.021283353652429,-245.91342035513668,-79.6682386294376,-18.45160961597386,60.55012229006461,0.7978989100388495,258.5638467212841,63.318317946668884
597,5.004357890696186,-245.92905977259826,-79.66504322122158,-18.620572499641174,60.58228581308937,0.8742226661903093,258.5772748482269,63.40826874769805
598,4.989252654087854,-245.9473688568807,-79.65517655929065,-18.788777203057247,60.60893559428376,0.9508105189409151,258.59118570840536,63.49404325050187
599,4.976379103684976,-245.96806613482258,-79.63919549541484,-18.95758536944869,60.62933366071432,1.0270671198687915,258.60549812481514,63.57523145636809
600,4.966080979768466,-245.99090313048308,-79.61776533662847,-19.128258527718497,60.64291727760982,1.1023775641647238,258.6201953266997,63.651542439866475
601,4.9586253518303565,-246.01566606389758,-79.5916314288006,-19.301893855724163,60.649303983845876,1.1761206865477996,258.635317355023,63.722787346031076
602,4.954195180638683,-246.04217383405725,-79.56158846813365,-19.479361213593098,60.64829405584399,1.2476845455903052,258.65094925852685,63.788860864919265
603,4.952883620053657,-246.0702731026958,-79.52844886357589,-19.661245575920237,60.63987065116712,1.3164832394155948,258.6672062807357,63.849722806179116
604,4.954690401294467,-246.09983135262428,-79.49301140108629,-19.847798954055463,60.624197727425134,1.3819741062299222,258.6842172684497,63.90538122350439
605,4.959520655346886,-246.13072865826368,-79.45603143499403,-20.03890548573833,60.60161569470926,1.4436743491199633,258.7021073911843,63.95587826959353
606,4.967186431964254,-246.16284869082816,-79.41819394065406,-20.234062618948897,60.57263461393652,1.5011762074095916,258.7209810849061,64.00127958478093
607,4.9774110269273,-246.19606933435833,-79.38009095440042,-20.432380355057827,60.537924612231606,1.554159990895075,258.74090604924555,64.04166758547642
608,4.989836090627146,-246.23025329778267,-79.34220492560779,-20.632599494628916,60.49830311428938,1.6024045452315916,258.7618991338996,64.07713862561783
609,5.004031369819374,-246.26523922920475,-79.30489910456075,-20.83312886520325,60.45471854843324,1.645794944128852,258.7839149417464,64.10780374821857
610,5.019506816282892,-246.3008339269712,-79.2684154201539,-21.032100665983698,60.40823038899557,1.684327370109851,258.8068378538085,64.13379265305844
611,5.035726668396635,-246.33680617666818,-79.23287965330628,-21.227442335543888,60.359985702115054,1.7181112505881277,258.83047791689114,64.1552605402946
612,5.052124963214394,-246.37288252661136,-79.19831319130729,-21.416962692228132,60.311192701224066,1.7473687410651821,258.8545706637758,64.1723975690966
613,5.068121791850463,-246.40874505673514,-79.16465016074518,-21.598449500998196,60.2630921045259,1.7724315529157038,258.8787805365421,64.18544070939133
614,5.08313955184647,-246.44403102489298,-79.13175826280073,-21.7697751299377,60.216927238272675,1.7937349054147116,258.9027072748609,64.1946877018257
615,5.096618541166237,-246.47833425802983,-79.09946136112899,-21.92900661412541,60.173913834042054,1.8118081215963973,258.92589453525613,64.20051268038183
616,5.108031442701908,-246.51120825960328,-79.06756196529062,-22.07451622572853,60.13521040809527,1.8272612296567365,258.94784013999157,64.20338283177996
617,5.116896455430025,-246.5421711098898,-79.03586212604698,-22.205088511368597,60.101890087577566,1.8407669893258742,258.9680075717817,64.2038753527851
618,5.122788943320732,-246.5707122469741,-79.00418170498949,-22.320019694528174,60.07491478904256,1.8530380432111557,258.9858384767787,64.20269394804502
619,5.125351475738307,-246.5963011616351,-78.97237339963074,-22.41920540795454,60.05511270686117,1.8647993020624003,259.0007660104178,64.20068415666289
620,5.1243020977324125,-246.61839800493505,-78.9403342902047,-22.503212991399742,60.043160054384536,1.8767560802043568,259.01222894102665,64.19884685520766
621,5.119440706636784,-246.63646609086942,-78.90801401415087,-22.573335080827093,60.03956786429354,1.8895588301425081,259.0196865115843,64.1983493128318
622,5.110653540051226,-246.64998618467177,-78.87541994060565,-22.631621870263235,60.044674385213064,1.9037656105325906,259.02263405420945,64.20053314380398
623,5.097915877172212,-246.65847224546584,-78.84261987490243,-22.68089017003939,60.05864323913174,1.9198037124991014,259.0206191897205,64.20691841801815
624,5.081293001192973,-246.66148799128123,-78.80974284124562,-22.724708170650032,60.081467091786564,1.937932145034641,259.01325816264773,64.21920309386505
625,5.060939306260857,-246.65866337218014,-78.77697835426946,-22.767355631261793,60.11297621675751,1.9582068640884231,259.00025154885714,64.23925689565114
626,5.037095312779403,-246.64970984425992,-78.74457427953523,-22.81376000899156,60.15285105334531,1.9804506861536222,258.9813982950691,64.26910879928352
627,5.01008236502752,-246.6344332928827,-78.71283295220562,-22.869409760436255,60.20063765479718,2.0042297859719187,258.95660688238326,64.31092737638346
628,4.9802948809404395,-246.61274363326856,-78.6821049076685,-22.94024662201986,60.25576476438665,2.0288385754749245,258.92590249058253,64.3669933274016
629,4.948190153842813,-246.58466054334878,-78.65277965588622,-23.032539110726038,60.317561153747434,2.0532945950824364,258.8894294784063,64.43966362109974
630,4.914275888890922,-246.55031534350923,-78.62527343789029,-23.15273983895813,60.3852718767837,2.076344781533161,258.8474491881188,64.53132683467877
631,4.879095894135408,-246.50994952094857,-78.60001461854682,-23.307329563308166,60.45807231586269,2.0964840697882483,258.80033376502087,64.64434965366077
632,4.843214558998649,-246.46391063005817,-78.57742803062223,-23.502651182551173,60.535079345662034,2.1119867547305553,258.748557108625,64.78101506081036
633,4.807200860000762,-246.41264626773082,-78.55791999056666,-23.744737107014217,60.615359509952974,2.12095045366312,258.69268416377327,64.94345340051314
634,4.771612608939879,-246.35669667480167,-78.54186571578668,-24.039133501110868,60.6979346203951,2.121351917768205,258.633359618715,65.13356806944864
635,4.736981524983138,-246.2966864116401,-78.52960042972101,-24.390724891891708,60.78178552298134,2.111113299688968,258.57129684015695,65.3529579556927
636,4.703799553414695,-246.23331549639994,-78.52141465121078,-24.803562635573,60.86585493406512,2.0881767470073016,258.5072675765967,65.60283895647059
637,4.672506780561123,-246.16735027013976,-78.51755333935921,-25.28070082381875,60.94905029188827,2.050584416053212,258.4420925933876,65.8839670417276
638,4.643481325656632,-246.0996140303565,-78.518218054799,-25.824043402042133,61.03024755923329,1.9965603538179086,258.376633039166,66.1965654550618
639,4.6170316315742665,-246.03097725502005,-78.52357121053454,-26.43420649482208,61.10829685808505,1.9245903539657758,258.3117821095682,66.54025874209547
640,4.593391535651064,-245.96234715225353,-78.53374164951671,-27.110400086514062,61.18203070174402,1.8334959594123919,258.24845653942185,66.91401631912046
641,4.57271836533935,-245.89465633204432,-78.54883099121618,-27.85033322178932,61.25027541108319,1.722499261167059,258.1875875699905,67.3161082155821
642,4.555094105619578,-245.8288505019423,-78.56892032802325,-28.65014677613814,61.31186608095319,1.591275920943882,258.13011117343837,67.7440754591999
643,4.540529461866663,-245.76587515356235,-78.5940768887096,-29.50437763012818,61.36566521455288,1.4399947151672294,258.0769573821205,68.19471733334044
644,4.528970408331966,-245.70666122937095,-78.62436024807248,-30.405957755290096,61.410584850390386,1.2693426511255084,258.0290385733785,68.6640973873661
645,4.520306571912737,-245.65210974081637,-78.65982761216281,-31.346251248704736,61.44561166885403,1.0805352552912748,257.9872365218221,69.14756960076727
646,4.514380599407822,-245.60307523393067,-78.70053765707081,-32.31513170983677,61.46983426390073,0.875312019044884,257.9523879397725,69.6398255547764
647,4.510997619455874,-245.56034793373303,-78.7465523353691,-33.30110150816334,61.48247159853961,0.6559172759250045,257.9252681448754,70.13496293227435
648,4.509934144156385,-245.52463449724112,-78.79793606701669,-34.29145341465138,61.48290162512768,0.4250670268688936,257.9065725934558,70.6265751318035
649,4.510946185316985,-245.49653763850546,-78.85475190777268,-35.272473770718435,61.47068904218757,0.1859024750285376,257.8968963983081,71.10786115498335
650,4.513776746890398,-245.47653532771093,-78.91705460065553,-36.22968490388703,61.445611120706786,-0.05806869962827588,257.89671247028247,71.57175418039434
651,4.518162991450161,-245.46496058838716,-78.98488068608663,-37.14812297725708,61.40768051314659,-0.30304206025526775,257.90634931508697,72.01106646107533
652,4.5238432283144085,-245.46198301061088,-79.0582359646055,-38.01264605110762,61.35716401519366,-0.5449957496569069,257.92596964072743,72.418647508144
653,4.530563568797775,-245.46759301834769,-79.13708067195627,-38.808266063979985,61.2945963706501,-0.7797781013606895,257.95555087200574,72.78755204847045
654,4.538083864567857,-245.48158979199704,-79.22131290418196,-39.520497868242785,61.220788366155915,-1.0032023125599892,257.99486859053616,73.11121402938811
655,4.546182546581438,-245.5035736011744,-79.31075111069764,-40.13571831364373,61.136828656476766,-1.2111471181630438,258.0434838668138,73.3836229630305
656,4.554660171401879,-245.53294310928788,-79.4051166833393,-40.641528340491966,61.04407897690399,-1.3996625175180735,258.10073533445814,73.5994989871125
657,4.563341659751467,-245.56889796591022,-79.50401769225252,-41.027110717869526,60.94416259424171,-1.5650795881312827,258.1657366327006,73.75446292744103
658,4.572077221131588,-245.6104468243895,-79.60693472237048,-41.283575181304506,60.83894600542217,-1.7041231368072278,258.23737964350335,73.84519723242936
659,4.580741831876329,-245.65642095778065,-79.71320972036526,-41.40428132180167,60.73051402113446,-1.8140252731928925,258.31434396873703,73.86959293488363
660,4.589233048565924,-245.70549389330782,-79.82203885636375,-41.38512798902589,60.62113845210931,-1.8926369715189235,258.3951133568871,73.82687693690026
661,4.597467022282743,-245.7562077474851,-79.93247052976669,-41.224796680443376,60.513240610743075,-1.9385335191911464,258.4780000788078,73.71771312992524
662,4.60537280669303,-245.80700698024245,-80.04340962757706,-40.92493582878624,60.40934777161706,-1.9511087207815374,258.56117828392354,73.54427040661623
663,4.612885316953168,-245.8562799687349,-80.15362889457006,-40.49027334771992,60.31204370387641,-1.9306520747340892,258.6427269932147,73.31025074555858
664,4.619937502828115,-245.90240810823195,-80.26178781711913,-39.928646348819406,60.22391349234818,-1.878403007310262,258.7206825877466,73.02087141128513
665,4.626452409994984,-245.94382114129579,-80.36645884134921,-39.25093954212454,60.14748310651974,-1.7965766695222156,258.79309951668034,72.68279689971993
666,4.632335846373973,-245.97905632107765,-80.46616018120648,-38.47092731123455,60.08515449666361,-1.6883567475764156,258.8581167325358,72.30401843846813
667,4.637470382427939,-246.0068181587997,-80.55939405137944,-37.60501859092522,60.03913734636982,-1.557852147117705,258.91402641660653,71.8936814516311
668,4.641711378215365,-246.02603507007694,-80.64468891549792,-36.67190820676842,60.011378984156444,-1.410016194909125,258.9593410653041,71.46186424254445
669,4.6448856060372306,-246.03590916106216,-80.72064421265975,-35.69214295014142,60.003494377276176,-1.250529022102289,258.99285489435835,71.01931404175231
670,4.64679281131391,-246.0359555856423,-80.78597596545316,-34.687615024989235,60.01669861368772,-1.0856458942259777,259.01369567377156,70.5771492989306
671,4.647210236459021,-246.0260283647554,-80.8395616959293,-33.68099933275121,60.051744784986624,-0.9220162879830632,259.0213635428566,70.14653945321894
672,4.645899771902241,-246.00633030910979,-80.88048316479147,-32.69515418344213,60.10887062323867,-0.7664803532741249,259.01575408692736,69.73837522175285
673,4.642617089664729,-245.9774056864249,-80.90806546558125,-31.75250733626171,60.18775751217471,-0.6258509181559267,258.9971639056913,69.3629435751093
674,4.637121961526301,-245.94011546700253,-80.92191083457595,-30.874450691247166,60.28750549641885,-0.5066902744157843,258.96627798044204,69.02962192477
675,4.629189023813186,-245.89559629406938,-80.9219252902636,-30.08076736029429,60.406627600609646,-0.4150915199967286,258.9241393190089,68.7466055730246
676,4.618618465956965,-245.8452056142768,-80.90833617061102,-29.38911412035334,60.54306613532395,-0.35647419475126885,258.8721025722283,68.52068116182033
677,4.605246293738338,-245.79045649131714,-80.8816989587163,-28.814580286607807,60.69423271388935,-0.3354033827576153,258.81177445338295,68.35705673245153
678,4.588953771792219,-245.7329463868147,-80.84289240194937,-28.369340769600235,60.85707245674054,-0.3554404598747894,258.7449447079531,68.25925614961885
679,4.569675447713079,-245.6742845697692,-80.79310166185532,-28.062416526924828,61.028151402105756,-0.41903227189183284,258.6735119672608,68.22908222498533
680,4.547405081127886,-245.61602279336046,-80.73378998389649,-27.89955001912503,61.20376462319325,-0.5274436891062146,258.59940903525717,68.2666491777491
681,4.522199031894449,-245.55959347661286,-80.66666010523778,-27.883197122061677,61.38006112038286,-0.6807361777852,258.52453201209437,68.37048140077883
682,4.49417708693729,-245.50625888609844,-80.59360725316829,-28.012630872605026,61.553180284493976,-0.8777924016090694,258.4506771620404,68.53767208145479
683,4.4635210465967265,-245.45707376236138,-80.51666605684296,-28.284146999815775,61.71939363159979,-1.1163842379552238,258.3794885907295,68.76409217924966
684,4.430471498239956,-245.41286254467883,-80.43795396310632,-28.691356820097745,61.87524464389349,-1.393279325118255,258.31241865760234,69.04463771986921
685,4.395323150470327,-245.37421096710432,-80.35961376605592,-29.22555002928037,62.01767903375286,-1.7043795766042178,258.25070174377436,69.3735015385818
686,4.358419020552059,-245.34147052608807,-80.28375762159412,-29.876108356518795,62.14415772037189,-2.0448840370388712,258.1953407104399,69.74445471972467
687,4.320143713128728,-245.31477334225366,-80.21241452843883,-30.630950881141818,62.25274539185531,-2.409467905927913,258.14710432935925,70.15112317168278
688,4.280916011139912,-245.29405441625278,-80.14748284904528,-31.476992744819846,62.342168787551266,-2.792469398944813,258.1065333394416,70.58724602827077
689,4.241181044354161,-245.2790782826103,-80.09068906018759,-32.40060060845009,62.411840737807246,-3.1880762815693147,258.07395266470735,71.04690470255368
690,4.201402384233988,-245.2694674865093,-80.04355355235055,-33.38803016387456,62.46184837927103,-3.5905043902894045,258.04948761165525,71.52471416294514
691,4.162054439289268,-245.26473090002278,-80.00736396590433,-34.4258331156074,62.49290657076519,-3.9941613006687757,258.03308232070043,72.01597105549924
692,4.123615429717506,-245.26429046430815,-79.98315631238391,-35.501223198233575,62.50628006698688,-4.393789552532592,258.02451920938375,72.51675636166017
693,4.086561060088289,-245.2675054729706,-79.9717039721938,-36.60239290005135,62.503680155560666,-4.784585444062501,258.02343859368204,73.0239930465201
694,4.051358882733622,-245.27369404576692,-79.97351449237074,-37.718774525117496,62.487142985731055,-5.162291185339384,258.0293581248597,73.53546135570525
695,4.018463271326172,-245.28215193362806,-79.98883384762037,-38.8412410234227,62.45889763431901,-5.523259934989065,258.04169206273133,74.04977597011673
696,3.988310843175013,-245.29216912628576,-80.01765750413531,-39.9622437439257,62.42123215246186,-5.864494720471856,258.05977061643335,74.56633023685079
697,3.96131603389612,-245.3030448291049,-80.05974735763412,-41.07588603990602,62.37636554317365,-6.183663310317864,258.08285958682313,75.08521333041875
698,3.937866381314203,-245.31410124083203,-80.11465352189641,-42.17793354935641,62.326332888653425,-6.47909172579596,258.11018038248415,75.60710655249972
699,3.9183170409710875,-245.32469627749725,-80.18174007127597,-43.26576398352133,62.27288967456255,-6.749739337133616,258.14093024712724,76.13316506792087
700,3.902984242819719,-245.33423509624663,-80.26021411753979,-44.33826131495536,62.21743977772717,-6.995158528079133,258.17430234892953,76.66489120444707
701,3.8921377784266253,-245.34218011152254,-80.34915782575736,-45.39566123084094,62.16098971295832,-7.215441846361764,258.2095053068285,77.20400504096571
702,3.8859929979243137,-245.34805920146013,-80.44756292766715,-46.43935645404499,62.1041297776155,-7.411159448155565,258.2457817285013,77.75231744041139
703,3.8847030091364836,-245.3514719232728,-80.55436689585164,-47.471671904364364,62.047040926086055,-7.5832895069927755,258.28242533289176,78.3116100504748
704,3.8883517752623553,-245.3520937033486,-80.66848932491185,-48.495620573437115,61.98952472803875,-7.733144071568443,258.3187961799144,78.88352616382532
705,3.8969486962542566,-245.34967803537404,-80.78886650533752,-49.514651349070874,61.931052667655486,-7.862292618575197,258.35433341907486,79.46947569308075
706,3.9104251058725845,-245.34405662636829,-80.91448197305479,-50.532399869267614,61.870830289556594,-7.972485306421631,258.38856481507696,80.07055685703608
707,3.9286329313260153,-245.3351372034433,-81.04439113880802,-51.55245294067389,61.80787126160285,-8.065577747810279,258.4211121916643,80.68749654694366
708,3.9513455641756043,-245.3228984992795,-81.17773885699326,-52.578136245710844,61.74107633342952,-8.143458987562664,258.4516919861844,81.320610837049
709,3.97826083978294,-245.30738195681852,-81.31376966594851,-53.61233399785172,61.66931245234128,-8.207984280962894,258.4801104031365,81.96978674477512
710,4.009005958890378,-245.28867999211394,-81.45183109962464,-54.65734780496026,61.59148789398412,-8.260914218462709,258.5062531483149,82.63448602989676
711,4.043144167441232,-245.26692115479045,-81.59137082049497,-55.71480020074506,61.506620020536594,-8.303861720673522,258.5300703084598,83.31377137898518
712,4.080182970103849,-245.24225309543667,-81.73192843366192,-56.78558612581059,61.41389305271461,-8.338248374145483,258.5515575128842,84.00635463882439
713,4.119583617036152,-245.21482474398758,-81.87312284527668,-57.86987320019624,61.31270398253154,-8.365271426444702,258.57073497989325,84.71066585780403
714,4.160771675301014,-245.1847694091257,-82.01463601800295,-58.96714910884835,61.20269546521354,-8.385882476113958,258.5876263362368,85.42494087256439
715,4.20314866004112,-245.15219057410133,-82.15619397970083,-60.07631200120421,61.08377520028621,-8.400778481599653,258.602239162231,86.14732413967138
716,4.246104751849428,-245.11715197846019,-82.29754598339306,-61.19579760780789,60.95612192442577,-8.410405202950852,258.61454905315975,86.87598252260725
717,4.289032410303416,-245.07967313754605,-82.43844287170445,-62.32373485907848,60.82017871591128,-8.414972626595132,258.62448861961695,87.60922486557807
718,4.331340347060595,-245.03973079864525,-82.5786159892786,-63.4581202052657,60.67663490422173,-8.414481334302854,258.6319423188872,88.34562150106379
719,4.3724671406437325,-244.99726610504723,-82.71775826643244,-64.59699967509322,60.52639848144593,-8.408758172172263,258.63674740803737,89.08411741852272
720,4.4118938707208715,-244.95219664412147,-82.85550915610543,-65.73864711112812,60.37056141457322,-8.397498997387935,258.6387007675603,89.8241327019306
721,4.4491553824833865,-244.90443218494744,-82.99144488088561,-66.88172713099611,60.21036051083662,-8.38031581992148,258.63757092595637,90.56564405037719
722,4.483849983769449,-244.85389269095293,-83.12507504233706,-68.02543227399337,60.047136416860646,-8.356785403539682,258.63311428000657,91.30924177039836
723,4.51564745864939,-244.80052707139112,-83.25584615120808,-69.16958545796744,59.88229299039063,-8.326496406356794,258.62509423161754,92.05615760273619
724,4.544295278397856,-244.7443311692315,-83.38315204166443,-70.3147011078496,59.717258821568315,-8.289092448438229,258.61330180213275,92.80826010271292
725,4.569622871152336,-244.68536366875236,-83.50635045383969,-71.46200087838257,59.55345226110722,-8.244309046305986,258.59757624401055,93.56801595702072
726,4.5915438187237125,-244.62375881089397,-83.62478447835431,-72.61338256992477,59.3922510085499,-8.19200302888946,258.5778241767721,94.33841746990458
727,4.6100558737414,-244.5597349719075,-83.73780726118623,-73.77134349189022,59.23496706089405,-8.132173706262988,258.55403583966205,95.12287833210242
728,4.625238696942582,-244.4935984142252,-83.84480838783183,-74.93886205091515,59.08282749669351,-8.064975614276122,258.526297298752,95.92510152408963
729,4.637249196812198,-244.42574194122264,-83.94524052553267,-76.11924360993477,58.936961134555624,-7.990723092931284,258.49479789420883,96.74892468025443
730,4.646314385322262,-244.35663865844046,-84.03864504870242,-77.31593860318297,58.79839065101175,-7.909887306316028,258.45983270349126,97.5981494496802
731,4.652721848491466,-244.28683139155328,-84.12467551642825,-78.5323424892061,58.66802940500062,-7.823086600437216,258.4218001727915,98.47636240409867
732,4.656808256867668,-244.2169185028211,-84.20311807757646,-79.771588357927,58.546682057535726,-7.7310713133745095,258.38119532158044,99.38675588183546
733,4.658946648088876,-244.14753695273834,-84.27390812013624,-81.03634377067684,58.43504806229415,-7.634704280292272,258.33859910682645,100.33195770834759
734,4.659533349414176,-244.07934350640016,-84.3371426683383,-82.32862351823375,58.33372717133727,-7.534938300257643,258.2946646453071,101.31387881006157
735,4.658975347024002,-244.01299494523934,-84.39308814885229,-83.64962927233793,58.24322621599205,-7.432791734100137,258.25010099251364,102.33358718851089
736,4.657678713649049,-243.94912800691702,-84.44218329300291,-84.99962558276204,58.16396655476122,-7.329323172862572,258.20565509101044,103.39121552405038
737,4.656038476040506,-243.88833965534914,-84.48503720069796,-86.37785952266559,58.096291653719916,-7.225605788721931,258.1620924682472,104.48590793422322
738,4.654430151384618,-243.83116830230372,-84.52242287810303,-87.78252877629609,58.04047421893958,-7.122701627980393,258.1201773732809,105.61580929730506
739,4.653203161883006,-243.77807669773895,-84.55526666428689,-89.21080033486253,57.996722169281725,-7.021635800373393,258.0806531652478,106.77809828142695
740,4.6526763951893555,-243.7294371902156,-84.58463379483062,-90.65887938909123,57.96518262908184,-6.923370300746835,258.0442236975143,107.96906299716917
741,4.653136196126966,-243.68551988012766,-84.61171007694101,-92.12212557483345,57.94594313690515,-6.828777072632916,258.01153618417294,109.18421615390658
742,4.654836954963588,-243.6464839841772,-84.63777953198843,-93.595211511029,57.93902946460662,-6.738609877807964,257.9831658030066,110.41844483709781
743,4.658004194941676,-243.6123726171877,-84.66419802731531,-95.0723167001059,57.94439980701167,-6.653474581180498,257.95960223394945,111.6661886392709
744,4.662839749230463,-243.58311114445877,-84.69236330907871,-96.54734851340086,57.96193554376125,-6.573797637997019,257.9412384046657,112.92163896864665
745,4.669528365012123,-243.55850916258996,-84.72368231543894,-98.0141812339135,57.991429161513295,-6.4997929246561705,257.92836177309084,114.17895192407151
746,4.678244928152983,-243.53826598749808,-84.75953705510842,-99.46690390442602,58.03257017266231,-6.431427583777051,257.9211484373197,115.432467064045
747,4.689161440276334,-243.52197931935007,-84.8012505563472,-100.90006790862012,58.08492998026199,-6.368388175793049,257.9196602368966,116.6769246121764
748,4.702452854795278,-243.50915659596555,-84.85005434431747,-102.30892568081862,58.14794667518122,-6.310048998489246,257.9238448451934,117.9076740593613
749,4.718300906550347,-243.49922845044674,-84.90705863915524,-103.68965257279666,58.220910768044156,-6.255444826886832,257.9335386770931,119.12086766379998
750,4.736895226902314,-243.49156360077524,-84.97322616400845,-105.0395446014437,58.30295290531473,-6.203250495469764,257.948472258364,120.31363295147959
751,4.758431318682217,-243.48548440122488,-85.04935025811504,-106.35718553069411,58.39303473302158,-6.15176971313564,257.9682775541242,121.48421898049519
752,4.783105244347171,-243.48028222203268,-85.13603789623616,-107.64257755216578,58.48994421379497,-6.09893530064347,257.99249667041323,122.63211188005556
753,4.811105078528411,-243.47523181879868,-85.23369814726404,-108.89723080512726,58.59229672811407,-6.042322690059263,258.0205913212998,123.75811601718414
754,4.842599381635368,-243.46960391160346,-85.34253653317656,-110.12420817452315,58.69854306900105,-5.979178020580502,258.05195249064866,124.86439807101705
755,4.87772327357946,-243.4626753770707,-85.46255566367232,-111.32812319770534,58.80698500026431,-5.906461485887269,258.08590986846633,125.95449229564291
756,4.916563093915227,-243.45373683341734,-85.59356236931012,-112.51509040922022,58.915798536467946,-5.82090576342941,258.1217409538374,127.03326632019167
757,4.9591409842181715,-243.4420979099966,-85.73518127533472,-113.69262898853704,59.02306462354331,-5.719088500696302,258.1586801116722,128.1068479609065
758,5.005400876251644,-243.42709093604157,-85.88687434693088,-114.86952209011595,59.126806477445434,-5.597517073733507,258.19592815400966,129.18251466840536
759,5.055197243419674,-243.4080739762341,-86.04796546386473,-116.05563563233281,59.22503247812482,-5.4527232020969985,258.23266303838074,130.2685483202375
760,5.108287623298598,-243.38443409587785,-86.21766865613597,-117.26170151021992,59.315783211342804,-5.28136445103379,258.2680520841537,131.3740590073471
761,5.16432950327149,-243.3555915981603,-86.3951183661892,-118.4990711709985,59.39718096089593,-5.08032915266235,258.3012658777659,132.50878222787517
762,5.222881826761762,-243.32100579301508,-86.57940007756984,-119.779446303798,59.46747964022518,-4.846840921684143,258.33149384857893,133.68285452414656
763,5.2834111538888004,-243.28018257996035,-86.76957985527274,-121.11459406847702,59.52511285550354,-4.578558876220104,258.35796129798257,134.90657312011317
764,5.345302327166415,-243.23268377685324,-86.96473167906022,-122.516054793253,59.56873762824101,-4.273669960699713,258.379947440557,136.1901455620467
765,5.407873271048915,-243.17813782246031,-87.16396180737306,-123.9948503670232,59.59727136159255,-3.9309703045289055,258.3968038423371,137.54343573182928
766,5.470393275125272,-243.11625129883834,-87.36642973645516,-125.56120161475906,59.609919901769,-3.5499331641345027,258.40797257229787,138.97571285358788
767,5.532103829786027,-243.04682061939695,-87.5713656294564,-127.22426275262397,59.60619497887981,-3.130761570314427,258.4130033868898,140.49541020458923
768,5.592240883649175,-242.96974311404554,-87.77808439639891,-128.99188055754232,59.585919908000136,-2.6744243099679585,258.4115692593627,142.10990015136053
769,5.650057322264223,-242.88502657984148,-87.98599682253942,-130.87038515737413,59.549223213025094,-2.182674322288986,258.4034794850533,143.82529187244293
770,5.704844515872317,-242.79279625098738,-88.1946181125654,-132.864418374494,59.49652077349605,-1.6580490059101192,258.3886894778631,145.64625770408003
771,5.755951893188475,-242.693298202314,-88.40357392554901,-134.97680437212986,59.42848806311483,-1.1038523573354377,258.36730633398764,147.57589342887317
772,5.802803601169521,-242.58689842365624,-88.6126036333617,-137.2084660146603,59.34602486140742,-0.5241193280839941,258.3395893358463,149.61561698708135
773,5.844911384848401,-242.4740770768075,-88.82156038422654,-139.55838893532137,59.25021533732356,0.07643672987719316,258.30594477780045,151.76510903171362
774,5.881882928019275,-242.3554177424295,-89.03040767242804,-142.02363388822343,59.14228660931862,0.6924922560055646,258.26691481615364,154.0222975380756
775,5.913425134823279,-242.23159184296821,-89.23921242084283,-144.5993966245026,59.023568837868,1.3181957962063409,258.2231605108825,156.38338741508252
776,5.939342227761439,-242.10333888595275,-89.44813491145221,-147.27911333511724,58.89545963380163,1.9472628737204978,258.17543977729053,158.84293482407293
777,5.959528988069334,-241.9714435902492,-89.65741612080798,-150.05460865291798,58.759395046326965,2.5730819361899764,258.1245814431595,161.39396469642915
778,5.973959830325507,-241.8367111997152,-89.86736312077522,-152.91628224227907,58.61682860616525,3.1888300571361317,258.0714568759209,164.0281286946293
779,5.982674629238851,-241.6999423031862,-90.07833325304132,-155.85332903180725,58.469218888582255,3.787597230098816,258.0169506775637,166.7358995173265
780,5.985762362258549,-241.5619083376514,-90.29071780969447,-158.85398713175726,58.31802496571544,4.36251815307743,257.9619318210627,169.50679603034243
