time,ax,ay,az,gx,gy,gz,accmagnitude,gccmagnitude
0,-19.93599425803681,-235.9721436859087,67.97368298452685,58.24967439718202,15.02372629756791,0.14755057185307566,246.37539846336787,60.177644592460446
1,-19.6714202069806,-236.03007594960062,67.2864367606706,57.338455255476454,14.797256661741836,-1.4892251956525147,246.23222344394824,59.54090760802515
2,-19.41016760154205,-236.08782482384484,66.60589357557598,56.43667206602747,14.580756477101083,-3.127072662347095,246.0908965861232,58.91667461987015
3,-19.15444871622295,-236.14503299939676,65.93954702164966,55.55707610369915,14.374810052170881,-4.75128170352882,245.95317799652986,58.314323905212206
4,-18.90639925164266,-236.20135169296893,65.29459891403738,54.71203016903263,14.180479936002428,-6.347376039149246,245.82075444804124,57.74298383093298
5,-18.668041454706408,-236.25643378288956,64.67780068622871,53.913252330964326,13.99935015470227,-7.901378852727853,245.6951890484444,57.211352754626205
6,-18.441249916271524,-236.30993126555288,64.09531416478198,53.171591818462545,13.83354110282298,-9.400057594804627,245.57788030315072,56.72754090562646
7,-18.227720419312185,-236.36149828418652,63.55259580482033,52.49684579017722,13.68569272998115,-10.831140909967248,245.47003286001646,56.29894033938366
8,-18.02894192576636,-236.41080030552806,63.054306799471,51.89762375206023,13.558913480503476,-12.183501993538995,245.37264111621596,55.932127393681256
9,-17.846171809438438,-236.4575289378142,62.60425000566595,51.381263843150556,13.456693540741444,-13.44730450078518,245.28648544179038,55.63280006330225
10,-17.68041470972014,-236.50142067087592,62.205333332721224,50.953802432357136,13.382782463219769,-14.614109280121504,245.21213928904513,55.40575075969075
11,-17.53240571051976,-236.54227692722148,61.85955810859339,50.61999569397686,13.341033244480263,-15.67694249832385,245.14998433011482,55.254873260698815
12,-17.402598758557954,-236.57998250608742,61.568030143652514,50.383389137787844,13.335217365925988,-16.630327913782477,245.10023028108083,55.18320127096014
13,-17.291161217599978,-236.61451971084367,61.33099087520144,50.2464285434548,13.368817910480685,-17.47028781448222,245.06293618484773,55.19297478370907
14,-17.197975236321227,-236.64597598208678,61.14786590372557,50.2106035749634,13.44481026525513,-18.194318185755755,245.0380304038699,55.285729293285826
15,-17.1226463117602,-236.6745436182081,61.01732810990966,50.276613776626405,13.565441715409179,-18.80134387829918,245.0253272548827,55.46240190648895
16,-17.064519127486996,-236.70051111065274,60.9373723011192,50.444545856554896,13.732022122153133,-19.29165897221595,245.02453904889842,55.723447649441916
17,-17.022700399453363,-236.72424662411612,60.90539816756673,50.714051150387306,13.94473774801218,-19.666856417384864,245.0352832020333,56.068958841351616
18,-16.996088039724086,-236.74617499731616,60.918298420743,51.08451276165052,14.202499235357568,-19.929749732359824,245.0570848932123,56.49878031526513
19,-16.983405507051025,-236.76675017129284,60.97254934093328,51.555192879152656,14.50283295674102,-20.084288395365522,245.0893763169634,57.01261347381953
20,-16.98323988403223,-236.78642517331454,61.06430140926677,52.125352054140194,14.841822672551421,-20.13546771857759,245.13149388437117,57.610102664128846
21,-16.994082095948606,-236.8056218007392,61.18946806737905,52.79433379982712,15.214105898030976,-20.089233433035222,245.1826748261347,58.2908981925469
22,-17.01436771352456,-236.82470204368215,61.343810885272276,53.56160981394579,15.6129268020654,-19.952380834176704,245.24205461169404,59.05469153412917
23,-17.042516827565656,-236.84394308067044,61.52301957611138,54.42678337164597,16.030244958722623,-19.732448115426422,245.30866644262673,59.90121988104767
24,-17.076971529758016,-236.8635173926853,61.722785424747755,55.389550799322954,16.456896902935117,-19.437603513106254,245.38144383347588,60.83023896287652
25,-17.116229722460915,-236.88347918155742,61.93886682486536,56.449623198523526,16.882805211108824,-19.076526185153575,245.45922699055475,61.84146487689335
26,-17.15887440614967,-236.90375780597907,62.16714579423741,57.60661259843021,17.29722774835201,-18.65828133693972,245.54077331706705,62.93448734938239
27,-17.203598126717754,-236.92415832413562,62.40367463319182,58.85988841362202,17.68903790176031,-18.192190841395526,245.62477188408297,64.108658323638
28,-17.249222654980635,-236.9443685590916,62.644712397384865,60.208411450268684,18.047025265486084,-17.687701287861003,245.70986121654906,65.36296100281245
29,-17.294714087543955,-236.96397159491434,62.88675157501438,61.65055372556315,18.360205552976048,-17.15425193575782,245.79464944983368,66.69586547273305
30,-17.339193499004796,-236.98246241519388,63.1265360902454,63.18391302474349,18.61812852604777,-16.60114545206188,245.8777359118464,68.1051778010727
31,-17.381943252838592,-236.9992674861024,63.36107223369363,64.80513141375792,18.811173326946122,-16.037424574475647,245.95773339834716,69.58789003793503
32,-17.422409189036646,-237.01376629573997,63.5876342910699,66.50972688110846,18.93082159065883,-15.471757885436705,246.03329066316786,71.14003879657274
33,-17.460199028426537,-237.02531400945878,63.80376662422605,68.29194694563948,18.969899952408664,-14.912337629771972,246.1031147896366,72.7565800599101
34,-17.495077321234458,-237.03326443901756,64.0072837968249,70.14465247465438,18.922784983049333,-14.366791986082353,246.1659931009059,74.43128756346937
35,-17.52695718471649,-237.03699253781323,64.19626997121316,72.05923910991578,18.785565161479532,-13.84211349391236,246.22081417965703,76.15668156577493
36,-17.55588908283029,-237.03591569954128,64.36907830147311,74.02560255950932,18.556156174355472,-13.344604509625311,246.26658750343316,77.9239939952275
37,-17.58204697439524,-237.0295132442556,64.52433065969794,76.03215255102582,18.234367513694668,-12.87983967923027,246.30246121365528,79.72317480549397
38,-17.605712129716867,-237.01734360909572,64.6609179248377,78.06587848595838,17.821919936511236,-12.4526445992547,246.32773763903262,81.5429428979137
39,-17.627254796196002,-236.99905894457166,64.77800110301308,80.11246786836665,17.32241483915955,-12.067089234069677,246.34188637472798,83.37088327281438
40,-17.6471138689985,-236.97441704420456,64.87501346721746,82.15647650299381,16.741257966575397,-11.726494348199603,246.34455491443256,85.19359025538678
41,-17.66577485772351,-236.94329072948017,64.95166360630675,84.18154736785424,16.085541042380257,-11.43344916536536,246.3355769506119,86.99685477356437
42,-17.683746624692017,-236.90567488730767,65.00793886512896,86.17067303062227,15.36388578703444,-11.189838586019722,246.3149784362621,88.76589177275372
43,-17.701537552769032,-236.86169127601386,65.04410826604138,88.1064945160681,14.586255400883584,-10.996878478214512,246.2829813328951,90.48560194535584
44,-17.71963200617144,-236.81159099393858,65.0607236947086,89.97162766374926,13.763739008693069,-10.855157724304377,246.24000468851258,92.14086006961136
45,-17.738468119538254,-236.75575420173425,65.0586179705242,91.74900632656232,12.908314840234953,-10.764685819983322,246.18666236506363,93.71682049348702
46,-17.758417993238645,-236.69468640947,65.03889845892502,93.42223040067502,12.032598059947706,-10.724944892057078,246.12375647497643,95.1992288226373
47,-17.77977130862044,-236.62901050122534,65.00293512526734,94.97590581748908,11.149579195963499,-10.734945068674381,246.05226550864086,96.57472786468577
48,-17.80272329976135,-236.5594537488824,64.95234234827433,96.39596343791776,10.27235914506537,-10.793282224068752,245.9733263117745,97.83114553761493
49,-17.827367910359243,-236.48682938895416,64.88895437255451,97.66994440130284,9.413886779636444,-10.898197196839632,245.8882095193237,98.95775291070906
50,-17.853696660446147,-236.41201290197645,64.81479491874912,98.78724092725412,8.586705167228633,-11.047635578917966,245.7982887441191,99.94548183323721
51,-17.881603145579653,-236.33591387134177,64.7320420409162,99.73928374593329,7.802712212080148,-11.239307037704469,245.70500463989794,100.78709360371867
52,-17.91089235239689,-236.2594450175567,64.64298965260687,100.51967005359758,7.0729410915206135,-11.470742867493621,245.60982569090766,101.47729265741617
53,-17.941293402990187,-236.18349049393612,64.55000716983406,101.12422896264238,6.407365193581173,-11.739350152323501,245.51420802184418,102.01278212709508
54,-17.972474097788513,-236.1088757002716,64.45549851984288,101.55102466760164,5.81473137138746,-12.04246070162514,245.41955661629808,102.3922612128039
55,-18.004055675146265,-236.03634077254475,64.36186148081677,101.80030081389839,5.302424241788919,-12.377372917939832,245.32719016404246,102.61636743251431
56,-18.035626458317246,-235.96651964396204,64.2714480724343,101.87437267176435,4.876363066411965,-12.741385045906158,245.238311456166,102.68756986883857
57,-18.066753451767774,-235.8999261953319,64.18652658264537,101.77747652683018,4.540931621699225,-13.131818841791699,245.15398487522063,102.61002232874269
58,-18.096991391741785,-235.8369484690981,64.10924579568545,101.51558799824078,4.298940541634387,-13.546033503532387,245.07512202972703,102.38938768401623
59,-18.125889134215587,-235.77785114273928,64.04160201364371,101.09622247702822,4.151620984895406,-13.981430544544269,245.00247586643496,102.03264623425737
60,-18.152993537141906,-235.72278552223764,63.98540945082341,100.52823118769213,4.098648153776395,-14.435451035574085,244.93664270907615,101.54790136008761
61,-18.17785126933001,-235.67180549899447,63.94227449668829,99.82160528241052,4.138193144753125,-14.905567226375538,244.8780708830831,100.94419477219081
62,-18.20000935439459,-235.62488749666863,63.91357422924057,98.98729790777305,4.267001734770778,-15.389270988477453,244.82707418240793,100.23134133014
63,-18.219015620630085,-235.58195246362902,63.900439455345776,98.03707065480309,4.48049881798316,-15.884061736651999,244.7838484630982,99.41978999531713
64,-18.234420322469152,-235.54288822712982,63.903742447682156,96.98336676738366,4.772917134369808,-16.387436379835723,244.74848987982682,98.52051351212606
65,-18.245779919763518,-235.5075707284114,63.924089383297236,95.83920961208736,5.137448628298668,-16.896883374917984,244.72101341506314,97.54492552951797
66,-18.25266350893391,-235.47588264028585,63.96181720639606,94.61812180506165,5.566416302747486,-17.409882209843623,244.70137022458604,96.50482068794501
67,-18.254661942064562,-235.44772770543236,64.01699426457574,93.33405841185636,6.051463843035395,-17.92390880421503,244.68946203489853,95.41233108844
68,-18.25139934770872,-235.42303909397594,64.08942375907371,92.00134685357726,6.583759563805509,-18.436446513789097,244.68515068559756,94.27989161485046
69,-18.24254653641589,-235.40178039409864,64.17864899220768,90.634626392394,7.154210399004744,-18.945001698874037,244.68826118184245,93.12020662797886
70,-18.22783560114169,-235.38393851217242,64.28395964589568,89.24878100679466,7.753680800453642,-19.447122162829928,244.69857731517368,91.94621127273568
71,-18.207074918416755,-235.36950860301488,64.4043987862231,87.85886076062441,8.373210652218352,-19.94041620735272,244.71582984020463,90.77102170913939
72,-18.180163698846123,-235.3584720558148,64.53877084956437,86.47998818050708,9.004225727771827,-20.422569676311277,244.7396782121338,89.60786978514261
73,-18.14710519635924,-235.3507694698223,64.68565143858135,85.12724756250871,9.638733891757663,-20.891358305036736,244.76968791409627,88.47001893637412
74,-18.10801769477714,-235.34627136466926,64.84340016774793,83.81555647030066,10.26950027302379,-21.3446530493203,244.80530629252937,87.37065940635507
75,-18.06314248380643,-235.34474994207224,65.01017786859609,82.559519938632,10.89019506753526,-21.780416820650345,244.84584039285608,86.32278222375075
76,-18.012848184407027,-235.34585545173746,65.183969214501,81.3732690652579,11.495508442183668,-22.196692093714123,244.89044045684983,85.33903274876043
77,-17.957630911346744,-235.34910058386748,65.36261140932534,80.27028676211283,12.081228145855748,-22.591580047019672,244.9380925132179,84.43154599024722
78,-17.898109800227594,-235.35385582436408,65.5438290923322,79.26322440356707,12.644276856682078,-22.96321311952301,244.9876228931728,83.61176723994608
79,-17.83501737506261,-235.35935789499584,65.72527506072232,78.36371389406023,13.182707947227216,-23.309723960044337,245.0377165655832,82.89026277002979
80,-17.76918422506289,-235.36473227175696,65.90457584399475,77.58218021789004,13.6956601171984,-23.62921452947362,245.0869499459589,82.27652627316782
81,-17.701517697647592,-235.3690293399346,66.07938066023826,76.92765978613993,14.183273100532913,-23.91972946387926,245.1338373360694,81.77878729394702
82,-17.632974853382194,-235.37127213597748,66.24741194110572,76.40762985480637,14.64656830703661,-24.17923771810204,245.17688855343275,81.40382808412568
83,-17.564530606985095,-235.37051217062992,66.40651553403174,76.02785399207431,15.087299733063107,-24.405626064368132,245.2146739411512,81.15681515249833
84,-17.49714259754804,-235.36588887093555,66.55470890893564,75.79224808637235,15.507781703734942,-24.596707305629153,245.24589213340508,81.04115134178909
85,-17.431714797164254,-235.35668783142535,66.69022608581864,75.70277079846018,15.91070093831563,-24.750245132363386,245.26943575478575,81.05835363365668
86,-17.3690621629106,-235.34239319096847,66.81155833662439,75.75934176456836,16.298921017918993,-24.86399642352253,245.28445046018035,81.20796114059792
87,-17.309878753725275,-235.32272990234057,66.91748984087896,75.95979030734637,16.67528753609499,-24.93577049734989,245.2903831904664,81.48747693773892
88,-17.25471163692879,-235.2976924306037,67.00712736160763,76.29983690500396,17.04244198834994,-24.963503456090187,245.28701621412972,81.89234653398768
89,-17.2039425379007,-235.2675575217287,67.07992273264493,76.77310918463819,17.402651809950722,-24.945344507380305,245.27448448172711,82.41597490501728
90,-17.1577785176689,-235.23288000419532,67.13568669698695,77.37119373470301,17.75766298009394,-24.879750147984456,245.25327497295834,83.0497831602576
91,-17.11625208689529,-235.19447192826436,67.17459264652237,78.08372457788093,18.10858039403943,-24.765581441574877,245.224207947705,83.78330513884835
92,-17.079230276732297,-235.15336658262802,67.1971691894751,78.89850869865111,18.45577985797959,-24.6021992749859,245.18840124081092,84.60432352016674
93,-17.046431504995862,-235.11076997412914,67.20428113109617,79.80168852429394,18.798854140037907,-24.38955236123254,245.14721987997513,85.49904432785405
94,-17.017448708773614,-235.0680030852874,67.19709929586314,80.77794062935799,19.136594071517955,-24.12825289324985,245.1022142160947,86.45230793981082
95,-16.991777079321416,-235.0264385347755,67.17706054739763,81.81070913666366,19.46700432106776,-23.819635253564112,245.0550503051866,87.44783390753769
96,-16.96884466834863,-234.98743523671095,67.14582013571838,82.88247138784995,19.787352259618928,-23.46579407910699,245.00743646584164,88.46849612042406
97,-16.94804408201954,-234.95227449372456,67.10519885372511,83.97503254711094,20.09424735211692,-23.069599117649652,244.9610498753949,89.49662417049171
98,-16.928763507982424,-234.92210077814482,67.0571274035791,85.06984490755794,20.38374771868251,-22.63468550633699,244.91746687030346,90.5143261349756
99,-16.910415492075753,-234.89787019008548,67.00359009476088,86.14834677847728,20.651489822073106,-22.165419281304114,244.87810029028518,91.50382734805412
100,-16.89246218078664,-234.88030912971703,66.9465697454547,87.19231499395254,20.892836643575226,-21.66683910416621,244.84414671797546,92.44781912952276
101,-16.874436116317728,-234.86988507478597,66.88799550431979,88.18422440451218,21.103039272848974,-21.144576345165216,244.8165458237145,93.32981098746637
102,-16.85595605968555,-234.86679054997796,66.82969524461372,89.1076072516787,21.27740660668467,-20.604756694915547,244.7959532595159,94.13447955401577
103,-16.83673768204413,-234.87094041867707,66.77335423853188,89.9474050379795,21.411477789792894,-20.05388727459927,244.78272766989744,94.84800737422871
104,-16.81659926548661,-234.88198158387306,66.72048193897578,90.69030531068063,21.501192069608425,-19.498733709462243,244.7769314417922,95.458404547272
105,-16.795462758067412,-234.89931327013454,66.6723885923662,91.32505564392581,21.543050860393734,-18.94619178272393,244.7783439272768,95.95580608472687
106,-16.77335062354019,-234.92211552025785,66.63017282489076,91.84274703873385,21.53426706989193,-18.40315807945796,244.78648520835534,96.332737729089
107,-16.7503789307529,-234.94938346557475,66.5947204219286,92.2370589412804,21.472897198008724,-17.8764035182109,244.80064815407266,96.58434287984943
108,-16.72674707788661,-234.97996521536524,66.56671363631384,92.50445807068147,21.35795237622658,-17.372452997912887,244.81993655310234,96.70856320608475
109,-16.7027245167018,-235.01260165296412,66.54664970226113,92.6443432923961,21.189485296350068,-16.89747372139022,244.84330734751015,96.70626554070824
110,-16.678634936501208,-235.04596682327917,66.53486674158643,92.65912903915117,20.968650762575834,-16.457174185180673,244.86961524562668,96.58130790306686
111,-16.654838635497175,-235.07870784977715,66.53157492631215,92.55426050328221,20.697738330277872,-16.056715362941304,244.89765816377556,96.34053819729938
112,-16.631714165008873,-235.10948343175505,66.53689069684089,92.33815519943747,20.380176185153587,-15.700635255425729,244.92622206049114,95.99372047649517
113,-16.60964061468736,-235.1369999706386,66.55087194961457,92.02206758045996,20.020506103435412,-15.392787727463759,244.95412377439018,95.55338570938525
114,-16.58898196759711,-235.16004431574976,66.5735521713338,91.61987606310022,19.62432999583215,-15.136296328390818,244.980250440997,95.0346066091911
115,-16.570074693737922,-235.17751216612814,66.60497144046668,91.14779484245035,19.19822908277702,-14.933523454114264,245.0035940750496,94.45469901120818
116,-16.553219169217364,-235.18843147820678,66.64520221286155,90.62401597786298,18.74965709202795,-14.786054644330221,245.02328016777275,93.83285522563945
117,-16.538674787903833,-235.19198076794268,66.6943680345786,90.06829021098756,18.28680902568867,-14.694697014135434,245.03858968323598,93.18971754684279
118,-16.526658046250823,-235.18750273242168,66.75265381067462,89.50145768042698,17.818467119887597,-14.659489907345012,245.04897444871466,92.54690256280495
119,-16.517342582513,-235.17451396805893,66.82030691935398,88.94494195869748,17.35382572917527,-14.67972503300468,245.05406643207374,91.92648896446347
120,-16.51086013948806,-235.15271169150182,66.89762918290958,88.42022243611959,16.90229707771884,-14.753972835076079,245.05368171758067,91.35048303537599
121,-16.507301629597332,-235.12197827645264,66.98496040734801,87.94830085239977,16.473300190204156,-14.880111811206556,245.0478201063288,90.84027679195216
122,-16.506717773269063,-235.08238410635406,67.08265482949392,87.54917776485875,16.076035929873626,-15.055357999947232,245.03666115735172,90.41611391093579
123,-16.509118996246368,-235.03418878889823,67.19105228949942,87.24135415939755,15.719251997035421,-15.27629285994517,245.0205571956837,90.09657835015153
124,-16.514474411969914,-234.97784033259495,67.31044617871734,87.04137248742583,15.411002953129046,-15.538889152271103,245.00002345939063,89.89812014361812
125,-16.52270994093276,-234.91397154419326,67.44105016020096,86.96341022967549,15.158411680372726,-15.83853602105628,244.97572523108389,89.83463224533881
126,-16.533705977337686,-234.84339267333053,67.58296541638727,87.01893755445121,14.967439947300548,-16.170065975100307,244.94846153412482,89.91709131856922
127,-16.54729532382722,-234.76707922085927,67.73614993313271,87.21644861378441,14.842676733031732,-16.52778756180414,244.9191448215076,90.15327377616397
128,-16.563262180646003,-234.68615393560464,67.90039122722013,87.5612734722885,14.78715351013384,-16.90552790837388,244.88877616482304,90.54755605744847
129,-16.581342804097396,-234.60186245221922,68.07528394831371,88.05547473075568,14.802195641495809,-17.296688899329386,244.85841585499185,91.10080517996617
130,-16.601228216174917,-234.51554273010717,68.2602137891236,88.69782985400681,14.88731829086634,-17.69431968900454,244.8291499885045,91.81036230390828
131,-16.622569196069563,-234.4285892273025,68.45434901203969,89.48389729698543,15.040173771463333,-18.091206734339366,244.80205430836304,92.67011869565138
132,-16.64498370958259,-234.3424133351726,68.65664063672259,90.4061618786833,15.256555172280846,-18.479980815257303,244.77815705622598,93.67068027418892
133,-16.66806682902652,-234.25840188895128,68.86583190214074,91.45425249137715,15.530458587560776,-18.853238831115466,244.75840274123524,94.79961395219817
134,-16.691402951446715,-234.17787561205728,69.0804769704589,92.61522314384693,15.854203560280194,-19.203676739081203,244.74361857634753,96.04176629799338
135,-16.714579714326998,-234.1020492919312,69.298968090433,93.87388657618116,16.218608690260506,-19.524228966630677,244.73448504103658,97.37964274991535
136,-16.737202593922934,-234.03199541122737,69.51956985090901,95.21318835474888,16.61321695944895,-19.808209010831227,244.73151176879867,98.79383384123685
137,-16.75890899607941,-233.96861286689193,69.74045888709075,96.6146085537842,17.02656329217223,-20.04944567417624,244.73501978404587,100.26347373754393
138,-16.779380787805042,-233.9126022628733,69.95976734988007,98.05857790729281,17.446475213820065,-20.24240941687523,244.7451309654534,101.76671589545286
139,-16.798354524331206,-233.86444902143234,70.17562839403374,99.52489567969573,17.860396194411386,-20.38232364419766,244.76176538473243,103.28121083814335
140,-16.815628940640035,-233.82441519022603,70.38622180387935,100.99313743477131,18.255720367542036,-20.46525646866129,244.78464679718437,104.78457190999211
141,-16.83106953701343,-233.79254032950573,70.58981779709774,102.44304234378362,18.620126805287306,-20.488189584332506,244.8133160821421,106.25481638720001
142,-16.844610270456666,-233.7686512917726,70.78481719305753,103.85487158610923,18.94190143137092,-20.449062195246405,244.84715193756247,107.67077137894297
143,-16.856252469899268,-233.75238011254044,70.9697864771656,105.20973158601123,19.210235044184213,-20.346789216996886,244.88539767189204,109.01243635493498
144,-16.866061177947405,-233.7431886713651,71.1434867032143,106.48985804056788,19.41548689620344,-20.181254079114147,244.92719252720292,110.26129662718482
145,-16.874159230478238,-233.7403983231975,71.30489559547513,107.6788586855855,19.549404885231358,-19.953277397583644,244.97160566022438,111.40058448200973
146,-16.88071951527466,-233.74322239144817,71.45322262240752,108.76191439428872,19.60529560517418,-19.664563637774712,245.01767074273985,112.41548679645469
147,-16.88595597786817,-233.75079926489275,71.58791713707548,109.72593948604629,19.578140116945658,-19.317628708367764,245.06441910273585,113.29329984262581
148,-16.890113992391743,-233.76222389223165,71.70866987717393,110.55970301696257,19.464654081577528,-18.915712203286265,245.11090943596457,114.02353350595553
149,-16.893460580721694,-233.7765758317139,71.81540826809974,111.25391327922507,19.26329359287943,-18.462678656903986,245.15625249666616,114.5979681957814
150,-16.89627464801592,-233.7929427072618,71.9082861321165,111.80126777031022,18.974210496408013,-17.9629125997971,245.19962986135465,115.01066827222425
151,-16.898837081104187,-233.8104387582849,71.98766850533644,112.19647065959363,18.599163120048267,-17.421212329926703,245.24030666216382,115.25795597520487
152,-16.901420424213335,-233.8282189109063,72.05411223796476,112.43621949767852,18.14139010391656,-16.842687111920554,245.27763887427128,115.33834981764132
153,-16.904277948673965,-233.8454893233125,72.10834299847332,112.51916277451772,17.60545628002316,-16.23266198500519,245.31107623176183,115.25247136647876
154,-16.907632172611272,-233.86151561951326,72.1512294038059,112.44583006433764,16.997080182785822,-15.596593536178746,245.34016214046753,115.00292440125132
155,-16.911663157293255,-233.87562999554873,72.1837553001199,112.21853695506039,16.32295270917381,-14.939998949554017,245.36453203396232,114.59415068108142
156,-16.916497152862963,-233.88723810561808,72.20699152804751,111.84126773014167,15.590555713826333,-14.268399489320965,245.3839114618672,114.03226698628939
157,-16.922196356616244,-233.89582623210944,72.22206857881328,111.31953975238429,14.807987981330593,-13.587278465596757,245.39811484680132,113.32488867678047
158,-16.928750662496935,-233.90096881362612,72.23015133401768,110.66025449445905,13.983804165485454,-12.902052798560282,245.40704537765245,112.48094557093249
159,-16.936072304642032,-233.90233600839076,72.23241670558156,109.87154089577767,13.126870123448647,-12.218056579762814,245.4106960151887,111.51049625827335
160,-16.9439942185664,-233.89970068137845,72.23003456269733,108.96259693655442,12.246235911378353,-11.540534497764586,245.4091511753725,110.42454678544314
161,-16.952272795955853,-233.89294409540682,72.22415191452944,107.94353484638059,11.35102586211327,-10.874642595947611,245.40258841852264,109.23487886265603
162,-16.960595558980458,-233.88205965310055,72.21587998118594,106.82523418861012,10.450343812057152,-10.225453529749974,245.39127942800968,107.95389132177736
163,-16.968594102264422,-233.86715418091586,72.20628354511483,105.61920531410681,9.553190672462632,-9.59796327939362,245.37558961911137,106.59445664357166
164,-16.975862297769233,-233.84844635344703,72.19637178374983,104.33746364477946,8.668391029119592,-8.99709615003005,245.35597574290117,105.16979223090986
165,-16.981979147327383,-233.8262618716225,72.18708968154131,102.99241332917323,7.804525218286722,-8.427704842395572,245.33298079561212,103.6933441215492
166,-16.98653492746345,-233.8010249689669,72.1793092565102,101.59673737899159,6.969863386795141,-7.894562417891845,245.30722549879954,102.17867937563038
167,-16.989158598824723,-233.77324585244645,72.17382027402105,100.16329065187072,6.172298459683184,-7.402343202956055,245.27939573103924,100.6393826548776
168,-16.98954396015897,-233.74350394888,72.17132068210393,98.70499204247429,5.419275700512982,-6.955590205539616,245.25022567609082,99.08895259269725
169,-16.987471850164592,-233.71242737139133,72.17240742026938,97.23471295914344,4.717717564532083,-6.558667507353017,245.22047708163097,97.54069441042884
170,-16.98282605075174,-233.680669660031,72.17756844145445,95.7651605290947,4.07394368593698,-6.215697282649804,245.19091571422337,96.00760677776111
171,-16.975601446545628,-233.64888528276404,72.18717685259855,94.30875584380831,3.493586992301164,-5.93048243134892,245.16228659624588,94.50226297236473
172,-16.96590410717082,-233.61770545955935,72.20148806350254,92.87750964868525,2.9815080380620023,-5.706417139924887,245.13528976520635,93.03668866634612
173,-16.953943840300155,-233.58771570274655,72.22064062584086,91.48289978089089,2.54171069037296,-5.546388845105353,245.11055814232665,91.6222407278087
174,-16.940020265432025,-233.55943620739802,72.24466103562433,90.13575592187344,2.1772632542748336,-5.452675932103532,245.08863876796195,90.26949282214129
175,-16.924503749600042,-233.53330589245658,72.27347237925659,88.8461575468653,1.890229833947433,-5.426845961565224,245.0699782469433,88.98813401168273
176,-16.907812816014054,-233.5096704570195,72.30690650048743,87.62335023398505,1.6816169642465422,-5.469659326595886,245.05491278578359,87.78688589337902
177,-16.89038988285735,-233.48877437184822,72.34471925558685,86.47568386809385,1.5513401936684774,-5.580983162069272,245.04366276042606,86.67344222080956
178,-16.87267729066853,-233.47075646306507,72.3866081946694,85.4105740514206,1.4982144431072637,-5.759720198620065,245.03633143880228,85.65443275564157
179,-16.855095474625323,-233.4556487374095,72.43223160941741,84.4344856549533,1.519970800701342,-6.003757025934781,245.03290734890402,84.73541072665984
180,-16.838024861020504,-233.4433782026847,72.48122748609383,83.55293537847656,1.6133011053831916,-6.309935772671798,245.0332697430732,83.92086120043771
181,-16.82179262585603,-233.4337714652076,72.53323073746057,82.77050878764125,1.7739303252814353,-6.674052495164991,245.03719655581983,83.21422623534006
182,-16.80666486114425,-233.42656181064342,72.58788731252592,82.09088670209857,1.9967154483247695,-7.090884657286891,245.04437420726356,82.6179420372782
183,-16.792844073325888,-233.42139838134383,72.64486434601848,81.51687595836037,2.275768453823583,-7.554249017070622,245.0544086411417,82.13348339884473
184,-16.780471461702597,-233.41785699239492,72.7038561601087,81.0504403204713,2.6045999474219506,-8.057090010968087,245.06683707933823,81.76141133669002
185,-16.769633155934027,-233.41545205991633,72.76458641045573,80.69272852369666,2.976279195528861,-8.591597365187942,245.0811400316555,81.5014209081967
186,-16.76036945647926,-233.41364906552698,72.8268068878266,80.44409798452325,3.3836055895605504,-9.14935025629657,245.09675310532054,81.35238756634914
187,-16.75268601833951,-233.41187704375886,72.89029352685924,80.3041344371106,3.819286053256604,-9.721484064314346,245.1130782206281,81.31241195732952
188,-16.74656580337389,-233.40954084081866,72.95484017702161,80.27166943623445,4.276112632973247,-10.298874803839306,245.129494078683,81.37886457183563
189,-16.741980528688877,-233.4060332882863,73.02025075835257,80.34479901620175,4.747134484298212,-10.87233577213569,245.1453661142071,81.54843285986509
190,-16.738900329687095,-233.40074771956108,73.08633056735951,80.5209075673145,5.225818635434773,-11.43282075752565,245.16005647631602,81.8171740683102
191,-16.737300503421626,-233.39309120786035,73.15287763652907,80.79670109256654,5.70619421811198,-11.971628170498306,245.1729345826788,82.18057706626773
192,-16.73716452979162,-233.3824985519955,73.21967506759795,81.16825350753675,6.182975303702605,-12.480600572520823,245.1833884837217,82.63363585262519
193,-16.738483054818424,-233.3684466291902,73.2864851066043,81.63106866091896,6.651658089703344,-12.95231421143458,245.1908368750658,83.17093641073758
194,-16.741249058158306,-233.35046850902492,73.35304547967012,82.18015933892747,7.1085889746234106,-13.380253301396696,245.19474134693866,83.78675714916282
195,-16.745449874277362,-233.3281667448425,73.41906826972722,82.81014271903685,7.551001039689658,-13.758963930794474,245.19461844238182,84.47518140049954
196,-16.751056994166046,-233.30122542815693,73.48424142712084,83.51534970379996,7.977017602594305,-14.084182729451339,245.19005122032343,85.23021850516406
197,-16.758014651859956,-233.26942072654487,73.5482328550172,84.28994354959397,8.385622800970774,-14.352935909680053,245.18070010778803,86.04592816079362
198,-16.766228223398887,-233.2326295863157,73.61069687330426,85.12804147450157,8.776600578988603,-14.563605086351755,245.16631274731645,86.91654124408443
199,-16.77555355682948,-233.19083609751914,73.67128272180985,86.02383169221442,9.15044493861852,-14.715957298626353,245.14673233238497,87.83656939022922
200,-16.7857884569306,-233.14413490422078,73.72964461108413,86.97167773643946,9.508245795278246,-14.811137762514237,245.12190377494892,88.80089536340532
201,-16.796667497754175,-233.09273120678958,73.78545274221608,87.96620216329458,9.851556129825706,-14.851625065928587,245.0918771760586,89.80483679748033
202,-16.807861083744154,-233.03693733084125,73.83840483216949,89.00234287083424,10.18224718055521,-14.841149869833158,245.05680849608402,90.84417734598621
203,-16.818979321397507,-232.97716631494856,73.88823802954752,90.07537735395059,10.50235897161618,-14.78457968957108,245.01695785580318,91.91516162919815
204,-16.829580852303977,-232.9139232772882,73.93474148670953,91.18091299515308,10.813953435369509,-14.687773798266598,244.9726862777188,93.01445333742932
205,-16.839186337670036,-232.84779533960779,73.9777699537383,92.31484456791549,11.118976836030248,-14.557413484829553,244.92445169010188,94.13905900930388
206,-16.84729582110107,-232.7794406271869,74.01725844795538,93.4732830802921,11.419137290924663,-14.400813704758551,244.87280464035638,95.28622293981728
207,-16.853408774687775,-232.70957651128535,74.05323750581454,94.65246260983614,11.715802016407526,-14.225722586384615,244.81838363182325,96.45330110299818
208,-16.857045268245436,-232.63896704680516,74.08584797732864,95.84863365808714,12.009917583618053,-14.04011533977025,244.7619096007968,97.63762369961927
209,-16.857766491887023,-232.5684095159863,74.11535382655416,97.05795259368422,12.301955094248363,-13.85198892851738,244.70417884263975,98.83635679665326
210,-16.855192968971778,-232.49871998725754,74.14215096961522,98.27637685549901,12.591880927502446,-13.66916349250384,244.64605356807462,100.04637343758107
211,-16.849019223548662,-232.43071780503956,74.1667700083938,99.49957482861623,12.879152635615272,-13.499096003100467,244.5884492514443,101.26414366316533
212,-16.839024202675503,-232.36520903287501,74.18987104742729,100.72285792595665,13.162738660154353,-13.348710992729222,244.53231816978067,102.48565132803768
213,-16.82507719592475,-232.30296907724264,74.21222969139907,101.94114069633244,13.441159770484187,-13.224252441967707,244.47862903783604,103.70634371518939
214,-16.80713931229029,-232.2447249017735,74.23471465288925,103.14893297086826,13.712549497581216,-13.131160101518695,244.42834325836014,104.92111798181212
215,-16.785260825843423,-232.1911373374089,74.25825872428292,104.3403662951171,13.974730403540233,-13.073972759891555,244.38238883653693,106.12434657347879
216,-16.759574903447177,-232.14278404654723,74.28382565162008,105.50925522842212,14.225302830908348,-13.056260277579058,244.34163332307946,107.3099419838074
217,-16.730288377666145,-232.10014375431055,74.31237550797476,106.64919250507526,14.461742796431123,-13.080585545647278,244.3068572346155,108.47145958676454
218,-16.697670349252668,-232.0635824059338,74.34483081605589,107.75367548440254,14.681505860068233,-13.148496744091336,244.2787293420659,109.60223564660926
219,-16.662039491816216,-232.0333418985928,74.38204533025869,108.81625975326348,14.882134023056462,-13.260549197970516,244.25778510341348,110.69555597140686
220,-16.62375089958529,-232.00953193000385,74.42477718907477,109.83073424615083,15.061362883866973,-13.416354713285907,244.2444093467752,111.74484906181868
221,-16.58318309381741,-231.99212532040377,74.47366795600855,110.79131087904456,15.217226298647065,-13.61465469862919,244.2388240542433,112.74389608198906
222,-16.540725476896565,-231.98095695862938,74.52922869404631,111.69282046527476,15.348155599058233,-13.853411946157905,244.24108176362162,113.68704857640196
223,-16.496766312966674,-231.9757263093429,74.5918335752098,112.53090560763381,15.453070076919262,-14.129914906571118,244.25106469218576,114.56944362110583
224,-16.45168134029962,-231.97600313722464,74.66172066080703,113.3022004059185,15.531455121594274,-14.440887784384444,244.2684891583387,115.38720513467047
225,-16.40582330191615,-231.98123575427996,74.73899858579702,114.0044862722307,15.583424302934565,-14.782599890718696,244.29291428310927,116.13761951840053
226,-16.35951285312919,-231.99076083200978,74.82365724295879,114.63681301504371,15.609761986191074,-15.150968484040185,244.3237535200922,116.81927379033425
227,-16.313031363728342,-232.00381384200148,74.91558045015985,115.19957485801073,15.611943750837238,-15.541650777566238,244.36028755240014,117.43214514266582
228,-16.266616047994997,-232.01953956365844,75.01455899867645,115.69453255224786,15.592132797288137,-15.950122748619576,244.40167757061968,117.97763269021101
229,-16.220457630876105,-232.03700269494962,75.12030315160378,116.12477543530188,15.55315147359895,-16.371744604601638,244.44697870030558,118.45852523509063
230,-16.17470046281498,-232.05519917678882,75.23245426824118,116.494620948604,15.498428012449713,-16.801814889564966,244.49515405658713,118.87890286067815
231,-16.12944478209578,-232.07306919983077,75.35059562305518,116.80945316279167,15.431919637177282,-17.235616803223742,244.54509034742148,119.24397446352923
232,-16.08475078335383,-232.0895129589677,75.4742627094108,117.0755057867479,15.358014348487895,-17.668460912730136,244.5956161024306,119.55985739845376
233,-16.040644179553073,-232.10341010945535,75.60295343243291,117.29959875029465,15.28141468725002,-18.095727839477078,244.6455235345693,119.83330899705146
234,-15.997122877249405,-232.11364361948003,75.73613857616994,117.48884059644881,15.207007294786193,-18.5129128675988,244.69359478463295,120.07142265745007
235,-15.954164221169712,-232.11912834109583,75.8732727739718,117.65031129213637,15.139722052771745,-18.91567230857182,244.73863288462653,120.28130324344993
236,-15.911732149559537,-232.11884414123642,76.01380601715547,117.7907414135989,15.08438408885422,-19.299869555074558,244.77949725205406,120.46973752058413
237,-15.869783646566942,-232.11187284496285,76.1571955670207,117.91620405311066,15.045561251731412,-19.661617585732102,244.8151429181992,120.64287546848021
238,-15.828274101058447,-232.0974375809323,76.30291792411987,118.03183551102214,15.02740917398886,-19.99731448273757,244.8446620156341,120.80593792279122
239,-15.78716155011648,-232.07494247581562,76.45048023281278,118.14160001726238,15.03351612812911,-20.30366928871354,244.8673253805441,120.96296532200944
240,-15.746410174740996,-232.04401012816476,76.5994302941516,118.24811219492486,15.066750692540714,-20.5777170436756,244.88262159959774,121.11662120217551
241,-15.705993609894268,-232.00451398939705,76.74936435007072,118.35252845145749,15.129116598432752,-20.816823718528997,244.89029055464945,121.26806213645474
242,-15.665898518958194,-231.95660275615904,76.8999319475401,118.45451486285283,15.221620647510955,-21.01868349123887,244.89034853436343,121.41688281140345
243,-15.626128585931976,-231.900714178522,77.05083740375896,118.55229459420161,15.344160902440382,-21.181311938540208,244.8831023123413,121.56114090300485
244,-15.586708809096217,-231.83757626823663,77.20183763969604,118.64277286489909,15.495443166899648,-21.30303903989413,244.8691501989237,121.69746165652549
245,-15.547689838836227,-231.7681946080382,77.3527363965522,118.72173239249663,15.672933857896567,-21.382505481798862,244.84936882010638,121.82121703560557
246,-15.509152058815342,-231.69382524916253,77.50337508894032,118.78408762136522,15.872856567438603,-21.418664775044032,244.82488519322345,121.92676948967514
247,-15.471209097353247,-231.61593362807258,77.65362087232805,118.82418227812771,16.09023788068158,-21.410792336042146,244.79703466363236,122.00776624925501
248,-15.434010439227658,-231.53614105225296,77.80335298264094,118.83611216038396,16.31900550896761,-21.35850120002323,244.76730647616014,122.05746692622918
249,-15.39774276199644,-231.45616140383882,77.952448916319,118.81405365157093,16.552138796613892,-21.26176274765076,244.7372799531684,122.06908524478877
250,-15.362629521587067,-231.37773155804183,78.10077227115782,118.75257826344833,16.781868490149446,-21.1209299479934,244.7085551268127,122.0361250204736
251,-15.32892822237516,-231.30253947079623,78.24816381923,118.64693455157857,16.999919582571543,-20.936760170646984,244.68268202126293,121.95269107595378
252,-15.296924885942573,-231.23215387649708,78.39443665240115,118.49328103738544,17.19778825934374,-20.710434499939165,244.66109254123347,121.81375764127537
253,-15.266925560757363,-231.16795909194477,78.53937535837444,118.28885717135086,17.367041642236806,-20.44357057428463,244.6450382428262,121.6153798001763
254,-15.239245181314361,-231.11109775508658,78.68273854852482,118.03208355729687,17.499627309210325,-20.138226194681778,244.63553645749676,121.3548373962267
255,-15.21419448762578,-231.06242365940727,78.82426380085006,117.72258724051426,17.58817857674911,-19.796891300976633,244.63332655042427,121.03070514138712
256,-15.192065928599147,-231.0224662604932,78.96367404805454,117.36115256163848,17.626301303891367,-19.422466467159413,244.6388375443014,120.64284722428096
257,-15.173119530351897,-230.99140793107887,79.10068450749525,116.94960271657663,17.60882852966944,-19.01822685479274,244.65216789368097,120.19233934559246
258,-15.157569725351193,-230.9690746442045,79.23500947446202,116.49062156986123,17.532030617580943,-18.587771546576793,244.6730778981131,119.68132566032385
259,-15.145574127112527,-230.95494044886502,79.36636866460071,115.98752923437529,17.393770737338333,-18.134959285131483,244.70099506619704,119.11282237530881
260,-15.137225093920547,-230.94814573456915,79.49449304432446,115.44402816749388,17.19359836041625,-17.663832787863203,244.73503247023348,118.49048343926448
261,-15.13254457298668,-230.94752874398796,79.61913003494112,114.86393862373652,16.932776816785246,-17.17853486709739,244.774019584404,117.81834642717254
262,-15.131482220078102,-230.95166912441692,79.74004772393769,114.25094279218469,16.614244640477235,-16.683220359216442,244.81654435529308,117.10057785394456
263,-15.133916362521441,-230.95894162535782,79.85703751821148,113.6083556185828,16.242514131765738,-16.181968218512665,244.86100451798282,116.34123646515947
264,-15.139657205598883,-230.9675774412248,79.96991470244632,112.93893738109227,15.823513954675114,-15.678698089790483,244.9056655960599,115.544070684415
265,-15.148451748808558,-230.97573027609263,80.07851667706521,112.2447591047096,15.364385392223516,-15.177095365932146,244.9487227303971,114.71236283933146
266,-15.159990027786586,-230.98154413467262,80.18269917499254,111.5271274798647,14.87324392954185,-14.680548243017073,244.9883635917191,113.84882862255384
267,-15.173912472660957,-230.9832201780665,80.28233128434817,110.7865715647913,14.358919043281961,-14.192099604037008,245.02283012868878,112.95557592534564
268,-15.189818370061815,-230.9790805045226,80.3772904129892,110.02288949776006,13.83068538976825,-13.714415692152727,245.05047750712075,112.03412301648888
269,-15.207275523899813,-230.96762706396805,80.46745836765513,109.23524994721689,13.297997993892729,-13.249772550340452,245.06982894290854,111.08547228155528
270,-15.225831095859267,-230.94759395891293,80.55271958711073,108.42234024452883,12.770242641495964,-12.800060217735483,245.07962512118283,110.11023259492727
271,-15.245023298890587,-230.9179913309922,80.63296236102514,107.58255110491967,12.256510649221312,-12.36680374143168,245.07886675503894,109.1087809486032
272,-15.264393297604574,-230.8781391386883,80.7080835876104,106.71418645907704,11.765404718205074,-11.951199183498817,245.06684882360153,108.081452156425
273,-15.283496523250157,-230.82768945037927,80.77799722060998,105.81568605873557,11.304879877763547,-11.55416198206765,245.0431851863276,107.02874418509333
274,-15.301912711080462,-230.7666363240669,80.84264602162126,104.88584803936884,10.882120852702545,-11.176384304114896,245.00782252188415,105.9515258157262
275,-15.319254258207295,-230.69531287588106,80.90201567334826,103.92403839964534,10.503454816086983,-10.818397458853882,244.9610428741829,104.85123281427948
276,-15.335172870048057,-230.61437576188092,80.95614989881456,102.930374410069,10.174296605741237,-10.48063507084245,244.9034545627934,103.73003862264052
277,-15.349364814656784,-230.52477797443672,81.00516510524469,101.9058695448436,9.899122140930576,-10.163492595964021,244.83597183260557,102.59098603576314
278,-15.36157532204276,-230.42773150407461,81.04926323415411,100.85252899896166,9.681464942553427,-9.867378973605907,244.75978429658267,101.43806776566518
279,-15.371602622352276,-230.32466199822676,81.08874179270707,99.7733873893319,9.523930291513887,-9.592756790218514,244.6763178668894,100.27624639454189
280,-15.379301798322414,-230.21715802508868,81.12400025560132,98.67248371920974,9.428221618304528,-9.34016824300377,244.58718937085123,99.1114078554422
281,-15.384588196249382,-230.10691781358238,81.15554211200129,97.55477279378184,9.395174149841676,-9.110245315170822,244.49415729834223,97.95024691851872
282,-15.387439809997792,-229.99569627275443,81.18397192559632,96.42597667607089,9.424791581777539,-8.903703758241042,244.39907107445939,96.800087848067
283,-15.387897953166162,-229.88525469654854,81.20998700157736,95.29238416368457,9.51628253233776,-8.721321602293655,244.3038209456819,95.6686481097908
284,-15.386065676576015,-229.77731494626707,81.23436360345295,94.16061034710049,9.668094692713819,-8.563903916080656,244.21029011495676,94.5637574337296
285,-15.382103669621015,-229.6735192096013,81.25793806587589,93.03733175550595,9.877945813454108,-8.432236393788347,244.1203102611468,93.49304833918676
286,-15.37622366281982,-229.57539575643523,81.28158354781624,91.92901503533813,10.142851840104626,-8.327031018557012,244.03562109130317,92.46363701689093
287,-15.36867957452513,-229.4843305107184,81.3061834951979,90.84165808646968,10.459153555591511,-8.248867463456053,243.95783413278298,91.4818147721182
288,-15.359756844486917,-229.4015438204912,81.33260305757156,89.78056165182839,10.822543958452991,-8.198133984894326,243.88840063245854,90.55276960154544
289,-15.349760553971295,-229.32807162731245,81.36165971951178,88.75014633101608,11.228099233369191,-8.17497139504131,243.82858327428954,89.68035471154069
290,-15.339003010307788,-229.26475032893072,81.3940943686745,87.75382515022571,11.670316429982377,-8.17922337362968,243.77943150337325,88.86691615287427
291,-15.327791519320577,-229.2122049247569,81.43054407272459,86.79393586389415,12.143160767974656,-8.210395944261666,243.74176054024014,88.11318591780564
292,-15.316417142953126,-229.1708404190923,81.47151799805143,85.87173097781952,12.640124866251298,-8.267628385806619,243.71613458895814,87.41824069582091
293,-15.305145283046672,-229.14083678888028,81.51737801882273,84.98741797176669,13.154301292213997,-8.34967718009659,243.7028550962126,86.7795209182809
294,-15.29420882233188,-229.122147980958,81.5683254605639,84.14023811775614,13.678468800622781,-8.454913863043004,243.7019550258912,86.19290050531293
295,-15.283804262450891,-229.11450539176516,81.62439505836092,83.32857008418057,14.205191603014717,-8.581336899322729,243.71319996215277,85.65279531510782
296,-15.27409091021167,-229.1174261932393,81.6854566417197,82.55004426453864,14.726930063333242,-8.726596943013709,243.7360965550281,85.15229776964493
297,-15.26519278912454,-229.13022672448625,81.75122435494492,81.80165526471006,15.236160399942351,-8.88803405112865,243.76990842790772,84.6833262845698
298,-15.257202715635243,-229.1520409125922,81.82127250687999,81.0798628220758,15.725500289285247,-9.062724607682792,243.8136791712186,84.23678056483074
299,-15.250187970891444,-229.18184334594244,81.89505663589058,80.38067505424338,16.187836692037934,-9.247535008523087,243.86626155685184,83.8026969944903
300,-15.244197160237658,-229.2184763326074,81.97193823369021,79.69971169068359,16.61645178118232,-9.43917870509423,243.926351797723,83.37040162251829
301,-15.239267986399243,-229.26068011204947,82.05121167993956,79.03224822731538,17.005142638896853,-9.634273093881456,243.9925275675181,82.92866106583263
302,-15.235435638630806,-229.30712532076447,82.13213202316476,78.37324436062151,17.348330513017245,-9.82939292721049,244.06328845831644,82.46583364902278
303,-15.232741383370579,-229.35644677671795,82.21394222304909,77.7173614383783,17.641155904385407,-10.021117305085976,244.1370975049677,81.97002412505783
304,-15.23124089368507,-229.40727757921633,82.29589850679696,77.05897403712935,17.87955650463515,-10.206067841588416,244.2124223494078,81.42924539966435
305,-15.23101194673105,-229.4582824063154,82.37729269313566,76.39218030936824,18.060325897783922,-10.380936333258779,244.287774582948,80.83158997853342
306,-15.232161245685122,-229.50818882804825,82.4574706450632,75.71081468169432,18.181151893727634,-10.542501229138466,244.36174585618792,80.1654126118283
307,-15.234830127169543,-229.55581556173195,82.53584637186984,75.00846509872568,18.24063430479299,-10.687633337427103,244.43303957000165,79.4195240677709
308,-15.239198789318666,-229.60009687039306,82.61191169305353,74.2784955681702,18.23828280149432,-10.813292341220293,244.5004973442074,78.58339434594332
309,-15.245488561566642,-229.64010263939826,82.68524173547412,73.51407355014756,18.174496095672616,-10.916516677354648,244.56311988723027,77.64736217164383
310,-15.253961740436857,-229.67505399236452,82.75549678875754,72.70820100737045,18.050524082240283,-10.994410049662443,244.62008227929152,76.60284653588373
311,-15.26491862518705,-229.70433461733444,82.82242114611978,71.85374781640029,17.868414769668256,-11.044128239375842,244.6707440109967,75.44255550022795
312,-15.278691570074098,-229.72749821478988,82.88583945039613,70.94348662367818,17.630947902424573,-11.062869901228867,244.71465431914257,74.16068739537796
313,-15.295636115206873,-229.74427253414268,82.94565079623217,69.97012883942261,17.34155718984817,-11.047874672975285,244.7515533398954,72.75311967837207
314,-15.316119492495597,-229.75456028668663,83.00182066635561,68.92636205734158,17.004243071954143,-10.996431223422142,244.78136939250226,71.21758088698964
315,-15.340506896608451,-229.7584369481057,83.05437092902407,67.80488966460403,16.623478023014954,-10.90589695538105,244.80421250934225,69.55380128965636
316,-15.369145854681985,-229.75614532730708,83.1033684963394,66.59847373124629,16.2041065390598,-10.773730113702833,244.82036432500541,67.76363798400418
317,-15.40234901589057,-229.74808685063172,83.14891349752,65.29998240017247,15.751242165596423,-10.597534100768877,244.83026459084732,65.8511703323381
318,-15.440375907289608,-229.73480960389685,83.19112769531172,63.9024429249291,15.270164160306894,-10.375112922967439,244.83449464119823,63.82276173961776
319,-15.483414624402462,-229.71699311203045,83.23014339386584,62.39910131062303,14.766216596311772,-10.104535992147678,244.83375794371958,61.68708398023807
320,-15.531564792013492,-229.69542971814207,83.26609253507397,60.783489368145986,14.244712819496302,-9.784210104480962,244.82885759307828,59.45510073228758
321,-15.584823211245498,-229.67100250602581,83.29909538410328,59.04950000591015,13.710848098176728,-9.412956317362553,244.82067058945435,57.140007780390505
322,-15.643073351404466,-229.64466007959254,83.32924830921796,57.19147172023213,13.169623011503639,-8.99008950719812,244.81011910998657,54.757128442195246
323,-15.706079351915973,-229.61738900786995,83.35661056554798,55.20428335079583,12.62577965398999,-8.515498443811204,244.79813955294955,52.32376399131598
324,-15.773484633919026,-229.5901851617783,83.3811904835409,53.083460070021836,12.08375214411587,-7.989724158674432,244.7856506574432,49.85900001469283
325,-15.844814747164545,-229.56402543340116,83.40293187372998,50.82529115720022,11.547632221301702,-7.414034219965545,244.77352235798566,47.38347062903411
326,-15.919483822004155,-229.5398414318018,83.4217016970607,48.42695933254115,11.021149874031076,-6.790490335686526,244.76254719281482,44.91908323802661
327,-15.996803981725687,-229.51849664483504,83.43728008891361,45.886680348644255,10.507668003385085,-6.122006575183131,244.75341599687468,42.48870708417367
328,-16.075997180873866,-229.50076820705144,83.44935374422792,43.203850297134146,10.010189243240609,-5.412395480757752,244.74669926075828,40.115829369750514
329,-16.156209007143854,-229.48733386788413,83.45751357636779,40.37919685110348,9.531372405419438,-4.666399441415862,244.7428349954257,37.82418333631477
330,-16.236523956384293,-229.47876409502626,83.4612574488478,37.41492954084582,9.07355566083738,-3.8897049054561776,244.74212328095695,35.63735346328022
331,-16.31598160391464,-229.47551856988275,83.45999857585882,34.314883185054505,8.638783458743502,-3.088937285631655,244.74472696342806,33.57836382867275
332,-16.393592997172078,-229.47794583406122,83.453079869574,31.08464776801898,8.228834254795458,-2.2716346941681387,244.75067737983204,31.669256570999522
333,-16.468356556417163,-229.48628478406133,83.43979407803148,27.73167737997979,7.8452463212785135,-1.4461988659611926,244.75988378325292,29.93066821679515
334,-16.539272915461183,-229.50066712504326,83.41940901898352,24.26537040414163,7.489339245856927,-0.6218217891646179,244.77214535867313,28.381412386684953
335,-16.605358472296814,-229.52112049924386,83.39119668771737,20.697113089009996,7.162229227364254,0.19161323540490804,244.78716513407295,27.03807813847981
336,-16.665657759473003,-229.54757245521458,83.35446470429024,17.04027913126884,6.864836974356776,0.9836569938846377,244.80456543180577,25.914654012194372
337,-16.719254917860933,-229.57985558298034,83.30858857184579,13.310178965232849,6.597887851937375,1.7434464119429036,244.82390466621627,25.02218865445391
338,-16.76528460040777,-229.61771406704383,83.25304340848231,9.523954069525695,6.36190480015271,2.4598824181110728,244.84469528932547,24.368499548660747
339,-16.802942662656786,-229.66081173263117,83.18743393587897,5.700413685865168,6.157195391951259,3.1218314339884556,244.86642256030925,23.957941662457714
340,-16.83149703405484,-229.7087415094681,83.11152144693297,1.8598138238837958,5.983835187365477,3.7183467700026496,244.88856365038632,23.791247554527136
341,-16.850299116676748,-229.761036202252,83.02524632226833,-1.976418808708888,5.841650229472698,4.238904656662152,244.91060650185463,23.865449432208273
342,-16.858795847845496,-229.81718053283217,82.92874452679943,-5.786012446616638,5.7302020110094745,4.673648297704415,244.93206786495165,24.173891535304282
343,-16.856542246332875,-229.8766245024216,82.82235647578617,-9.546217251184533,5.648778393231439,5.013632369698699,244.95250997626943,24.706337814515287
344,-16.84321398014221,-229.93879813165537,82.70662692340906,-13.234203024513613,5.596393699828241,5.25105993562039,244.97155542587862,25.44917523863046
345,-16.818619317177227,-230.00312759685374,82.58229527333718,-16.827475070087328,5.571800517941259,5.379503886691779,244.9888999778376,26.385707690419462
346,-16.782709728680636,-230.06905272632793,82.45027671569291,-20.30429411290638,5.5735146438516665,5.3941058123199666,245.00432340968123,27.49653007442199
347,-16.735588395525596,-230.1360457085352,82.31163534820098,-23.644085298142556,5.599853195696589,5.291746510342442,245.01769859706474,28.759967717710538
348,-16.677515920442374,-230.20363065357918,82.16755067376334,-26.827821205218193,5.648984326277951,5.07118394160013,245.02899895627127,30.152562888712513
349,-16.608912651286925,-230.27140336958064,82.01927873848032,-29.838364623557595,5.718985404274868,4.733156007513326,245.03830405127033,31.649588443707717
350,-16.530357138917303,-230.33905042407662,81.86810901136788,-32.66075840385886,5.807905227921315,4.280446787606337,245.04580284214816,33.22556811584966
351,-16.442580392303842,-230.40636631335062,81.71531816384694,-35.2824517650867,5.9138250398220205,3.717915569219628,245.05179383885513,34.854783531221976
352,-16.34645581610162,-230.473267410717,81.56212223556922,-37.693454777984805,6.0349130225601915,3.0524880776743006,245.05668139913487,36.51174944971792
353,-16.242985095146672,-230.53980132878553,81.40962909823496,-39.88641530597406,6.169467642257552,2.293108971427655,245.06096753797618,38.171640929503745
354,-16.1332808181186,-230.6061503944291,81.25879342076333,-41.856615591242736,6.315946572883687,1.4506542135987535,245.06523880496272,39.810659189136636
355,-16.01854718283772,-230.67262810453872,81.1103764304216,-43.60188909946089,6.47297972563646,0.5378016094332031,245.07014800950566,41.406326959861396
356,-15.900060485065103,-230.7396677543525,80.96491271143087,-45.1224622327761,6.639366788192355,-0.4311422280565763,245.0763908819765,42.9377089947478
357,-15.779151041721528,-230.80780291563997,80.82268608051923,-46.42072992883084,6.814061314692963,-1.4404597892186906,245.08467814301218,44.38555884347328
358,-15.657187643306225,-230.87764001573512,80.6837161728764,-47.500978583692806,6.996144529496772,-2.4732856971664208,245.09570382200073,45.73239851889597
359,-15.535564688596578,-230.94982385076804,80.54775678028398,-48.36907358001715,7.184792457397383,-3.5119133107704026,245.11011095935572,46.96254262470549
360,-15.415691133519376,-231.02499739832083,80.4143062902018,-49.032131353177945,7.379239785743493,-4.5381409300047775,245.1284560373501,48.06208222240228
361,-15.298979668989674,-231.10375769768066,80.28262985717184,-49.49819692597612,7.578743209938131,-5.533650849531398,245.15117358591692,49.018845689149295
362,-15.186834408088401,-231.18660980390186,80.15179223319636,-49.77594697992022,7.78254622530825,-6.480411757518896,245.17854239846062,49.822353817823
363,-15.080635796341669,-231.2739209942214,80.02069949954819,-49.87443588156583,7.98984665746097,-7.3610926115771305,245.21065476300475,50.46378449933706
364,-14.981722184170911,-231.36587763158983,79.88814732354868,-49.8028979672255,8.199767753155061,-8.159474375196787,245.24739017413475,50.935958839026924
365,-14.891368234014228,-231.46244729820748,79.75287292882952,-49.57061428286026,8.411333326583478,-8.86084500573751,245.28839509218076,51.23335600786536
366,-14.810760934635393,-231.56334879591904,79.6136078442753,-49.18684638314823,8.62344719805936,-9.452362949336601,245.33307029639394,51.35215909028862
367,-14.740974393278966,-231.6680322978493,79.46912874276707,-48.66083416916964,8.834876963302278,-9.923375175977775,245.38056718664416,51.29032919475428
368,-14.68294472277684,-231.77567144873302,79.31830423329096,-48.00184949483983,9.044242002658006,-10.265677439162532,245.42979411622156,51.047700583616816
369,-14.63744628378704,-231.8851686852372,79.16013614156913,-47.21929279137466,9.25000554622555,-10.473706832810569,245.4794335558432,50.626085919451434
370,-14.605070455045832,-231.9951745056874,78.99379440200877,-46.322816593728184,9.450470502809562,-10.54465967033351,245.52797056165343,50.02937819393541
371,-14.586208121170367,-232.104120794904,78.81864510548083,-45.32245781417074,9.643778652896495,-10.478531043630012,245.57373256685645,49.263634644292615
372,-14.581037113141715,-232.21026753560778,78.63427153354183,-44.22875993572631,9.827912799393337,-10.278075925917305,245.61493987889784,48.3371279567862
373,-14.589515703353715,-232.31176130952167,78.44048817173561,-43.0528669281357,10.0007016911954,-9.948695127337146,245.6497654307504,47.26035119900329
374,-14.611382863624174,-232.4067029764634,78.23734767374374,-41.80657254197227,10.15982802556214,-9.498252528833005,245.67640134643239,46.04596507869224
375,-14.646165494782368,-232.49322096899635,78.02514057265606,-40.502311635186835,10.302840460176544,-8.936832521452484,245.69312889784104,44.70867914281666
376,-14.693192443131943,-232.56954600342007,77.80438747235956,-39.1530842169885,10.427171061747883,-8.276448252616296,245.69838778606874,43.265062230372436
377,-14.7516148919426,-232.63408290464926,77.57582378852845,-37.77230777388997,10.530159784827212,-7.530712105022119,245.69084067782867,41.73328170384905
378,-14.82043256628414,-232.68547566059,77.34037777625232,-36.37359890534963,10.609087399675152,-6.714479974671093,245.66942952665104,40.13277553048442
379,-14.898525020932983,-232.72266254480013,77.09914321679781,-34.97049097479079,10.661217888058102,-5.843480611815905,245.6334210826387,38.483865917658335
380,-14.98468705829697,-232.7449189766437,76.85334849227944,-33.576099898113824,10.68385082704751,-4.933940741030452,245.58243987645784,36.807327549685624
381,-15.07766704944123,-232.75188662272302,76.60432386876582,-32.202754803061836,10.674383779632727,-4.00221598938038,245.51648776177984,35.12392705722191
382,-15.176206634865043,-232.7435879824399,76.35346871169183,-30.86161362738823,10.630384279593489,-3.0644368348755524,245.435949748737,33.45395275998276
383,-15.279080022505092,-232.72042624628838,76.10222007893329,-29.56228552447384,10.549670649639225,-2.136177799638392,245.34158627290725,31.816754736136097
384,-15.385130975588499,-232.68317059990642,75.8520237194206,-28.312482176484455,10.430400544657376,-1.2321569194255886,245.23451226912985,30.230314863541178
385,-15.493305704670318,-232.63292757286018,75.6043081103467,-27.117718859641876,10.271165647053815,-0.36597112584812397,245.11616370603323,28.710864736987993
386,-15.602680270851785,-232.57109967642504,75.36046192112083,-25.981083508167494,10.07109030971273,0.45012836909536363,244.98825279526505,27.27256645955497
387,-15.712481617524874,-232.49933337113188,75.12181513408689,-24.903088329894658,9.82993120191276,1.205418187602463,244.85271382569735,25.927267520463804
388,-15.822101739289383,-232.41945913108057,74.8896238419138,-23.881614125831867,9.548174279062689,1.8908414113348513,244.7116422195717,24.68433672284741
389,-15.931104660644987,-232.3334268973584,74.66505846825548,-22.911952843112047,9.227124780365942,2.499103096852745,244.567229830653,23.55058390098841
390,-16.039225940612102,-232.24324049303596,74.4491949513273,-21.98694950614509,8.868985537930346,3.0247243135285147,244.42169970954686,22.530262407915828
391,-16.146364538120206,-232.15089452693005,74.24300841263529,-21.097240832984454,8.47691867308654,3.46405750364683,244.277243523124,21.625150316944506
392,-16.252567168385,-232.05831689853338,74.0473689777995,-20.231584635620628,8.055085709520796,3.8152669881288133,244.13596448849287,20.83470396341873
393,-16.358005702701405,-231.96731933901094,73.86303955554551,-19.377271377455827,7.608661200916222,4.0782791967030825,243.99982811191646,20.15627564682802
394,-16.46294857060705,-231.8795576699871,73.69067538467523,-18.520606717042238,7.143815207960289,4.254707596674886,243.8706223372679,19.585385748766768
395,-16.567727373235304,-231.79650274568934,73.53082505594313,-17.647451179638693,6.6676605224719205,4.347757326225745,243.7499280141916,19.116038002138826
396,-16.672699983690585,-231.7194223429292,73.38393262007531,-16.74380006003373,6.188161575695611,4.362114238954764,243.63909990576954,18.741065096944855
397,-16.778211416860053,-231.6493735150301,73.25034037846291,-15.796383298394879,5.714003533611703,4.303822423120944,243.5392577404926,18.45249027187558
398,-16.88455383280165,-231.58720418052084,73.13029201781457,-14.793261701666049,5.254422128024842,4.18015324933107,243.45128612994745,18.241889183445714
399,-16.991927208017813,-231.53356214129752,73.02393584396111,-13.724393070250612,4.818997207962042,3.9994677301671064,243.37584166546515,18.100735459666108
400,-17.100402386515636,-231.4889094483132,72.9313279205172,-12.582140240802456,4.417415684174694,3.771072713518423,243.31336527096693,18.02071334067112
401,-17.209888323486975,-231.45354007224535,72.85243488639294,-11.361693478679598,4.059212227860436,3.5050704744448744,243.26409792402742,17.993982129602784
402,-17.320105315753025,-231.42759913319173,72.78713617337947,-10.061382537808434,3.753498377434187,3.2122007926033556,243.22809812201257,18.01338014228594
403,-17.43056587888222,-231.41110238224582,72.73522537941825,-8.68285908260043,3.5086921653536134,2.9036746012013976,243.20525988795703,18.072560441596377
404,-17.54056470430305,-231.40395506712778,72.69641071224093,-7.231137524049107,3.332260703876214,2.590998635170956,243.1953305596393,18.16605642925776
405,-17.64917880901204,-231.4059696901011,72.6703146657915,-5.714490756810751,3.2304873391761633,2.28579104869577,243.19792801404256,18.289281562108044
406,-17.755278544513466,-231.41688252425985,72.6564733598341,-4.144205778289758,3.208273232596082,1.9995886458422238,243.2125573690454,18.43847314697761
407,-17.857549542747837,-231.4363691154328,72.65433615042036,-2.5342118431093406,3.2689809381245385,1.7436471374130575,243.23862756086595,18.610594509180547
408,-17.954524979078347,-231.46405925784057,72.66326611075247,-0.900600059145024,3.414325103278937,1.5287366552162343,243.2754683940955,18.80321222014567
409,-18.04462681776359,-231.49955193281937,72.68254179986282,0.7389421182733666,3.644313100555155,1.3649355777225771,243.32234855815386,19.01436523163474
410,-18.12621410723533,-231.5424303732954,72.71136045239128,2.365755209836102,3.957236323622533,1.2614265164987957,243.3784946653795,19.242440783121737
411,-18.197636041947174,-231.59227689445908,72.74884239548987,3.9608633135335696,4.3497110744365735,1.2262990519655053,243.44311074479734,19.486068299950713
412,-18.25728745811522,-231.64868667805024,72.79403619650554,5.505633545619857,4.816766387269482,1.2663644614955571,243.5153970987217,19.74403800046029
413,-18.303664606938867,-231.71127946102058,72.84592385939001,6.982413152077041,5.351974732931622,1.3869881939740931,243.5945671594668,20.015246509088467
414,-18.33541929511696,-231.77970799743534,72.90342541233744,8.37512039464742,5.947620300852631,1.59194607998898,243.6798609289692,20.298668127797807
415,-18.35140970091473,-231.8536621649699,72.9654025298987,9.669768394403107,6.594898490342196,1.8833100606926463,243.77055369127194,20.593347827502214
416,-18.35074638969388,-231.9328677291728,73.03066135683892,10.854904737851502,7.284139390989676,2.261368510901049,243.86595899562005,20.89841041563027
417,-18.332832294185593,-232.01707913547355,73.09795522501331,11.921953543447412,8.00504741916188,2.7245851464886073,243.96542542407593,21.21307949933055
418,-18.29739563106196,-232.1060662390601,73.16598823652294,12.865450654329054,8.74694891440667,3.2695992484324705,244.06832727454622,21.536699601397096
419,-18.244514865594354,-232.19959549669622,73.23342067172621,13.68316659614801,9.499039400988432,3.8912686271398975,244.17404988412778,21.868755013281586
420,-18.174634979834135,-232.29740677731644,73.29887700646078,14.376115949858175,10.250622418765062,4.582755398714698,244.28197088205974,22.208879708814507
421,-18.088574473797177,-232.399187597932,73.36095713404522,14.948455884548723,10.991332374194197,5.335653244670202,244.39143923955476,22.55685393626071
422,-17.987522687062842,-232.5045471546526,73.41825118695904,15.407280724530176,11.711334789781867,6.140153415827502,244.50175447379738,22.91258490253884
423,-17.873027205884114,-232.61299280242469,73.46935805688712,15.762323382406677,12.4014986128035,6.985245375395275,244.6121485590247,23.27607105343926
424,-17.746971408511772,-232.72391155739462,73.51290731050963,16.025577952191792,13.053536797807842,7.858946728405748,244.72177292303428,23.647351523999642
425,-17.611542560764075,-232.83655881149545,73.54758378749725,16.21086038089669,13.660113091352633,8.748556067577251,244.8296924447249,24.026444075801745
426,-17.46919118091351,-232.95005582192064,73.57215384852151,16.333325670851305,14.214914687858114,9.640921694233532,244.93488769738255,24.41327603155831
427,-17.32258261880117,-233.06339672780686,73.58549204646887,16.408960452372604,14.712692037008015,10.522718882245448,245.03626586683092,24.807613275232367
428,-17.174541988598193,-233.17546500195442,73.58660689978647,16.454069201610256,15.149268435545055,11.380728375157089,245.13267995216702,25.208992384614398
429,-17.02799375535837,-233.2850585324848,73.57466444746977,16.484771227418953,15.521523083057788,12.202109041689523,245.22295518615337,25.616660615719212
430,-16.885897349043898,-233.39092200216095,73.54900837616886,16.516524169930857,15.82735205479678,12.974658010191817,245.30592114540767,26.029528009778897
431,-16.7511801572981,-233.49178490060288,73.50917569862732,16.56368833628204,16.065612167249103,13.687052144611448,245.3804477555058,26.446135475317487
432,-16.62666920103864,-233.58640341001885,73.45490719692405,16.639144751363673,16.236052915550015,14.329065380794399,245.44548336936077,26.86464225158231
433,-16.5150228303519,-233.6736045110196,73.38615219338078,16.75397822616275,16.339241435733904,14.891757177391156,245.50009330193492,27.28283554376734
434,-16.418663961169734,-233.75233077165873,73.30306774785743,16.917234935790628,16.376484777195262,15.367628165466204,245.5434974865315,27.698164281706607
435,-16.33971667362294,-233.82168422204677,73.20601299735691,17.13576185568324,16.34975280294776,15.75074001556791,245.575106064713,28.107797931740325
436,-16.279948268652085,-233.8809674633797,73.09553980901478,17.414132833803166,16.26160399275845,16.036797502048675,245.59455163518888,28.508710116363154
437,-16.240718979940613,-233.92971986100855,72.97238101439054,17.754663026630904,16.115115521929624,16.223191641960344,245.6017166374243,28.897785502645092
438,-16.222941426959036,-233.967746504534,72.83743720297552,18.15750993580288,15.913818355504317,16.309003653489942,245.59675409253006,29.27194711220735
439,-16.227051636095602,-233.9951376888606,72.69176255044788,18.62085550708116,15.661637729901216,16.294970424578427,245.58009982417926,29.62829999187709
440,-16.25299309346745,-234.0122769926984,72.53654975799044,19.141159968062308,15.362839180444933,16.18341323024562,245.55247444625226,29.964286080730744
441,-16.300214792462928,-234.01983657664178,72.37311411727553,19.71347461775412,15.021980084155288,15.978132515230271,245.51487387239519,30.277844080148434
442,-16.367683589039345,-234.01875909709517,72.20287692818691,20.331797936520974,14.643866444380883,15.68427262022894,245.4685478622476,30.567567213436593
443,-16.45391049386534,-234.01022665945476,72.02734870585479,20.98945737226676,14.233514341429888,15.30816137256983,245.4149671188356,30.832851077783676
444,-16.556989982609643,-233.9956183971614,71.84811262644162,21.679498104339814,13.796115166988418,14.857130401087664,245.35578053217972,31.074023458240237
445,-16.674651042130705,-233.97645924809163,71.66680848775108,22.395060013987266,13.33700352592568,14.339322673999847,245.2927650296722,31.29244800875992
446,-16.804318392298885,-233.95436301062554,71.48511720228667,23.129724904162135,12.861626560157504,13.763493954030084,245.22777088485861,31.490594060515406
447,-16.943182017795944,-233.93097275278538,71.30474560627161,23.87781754577823,12.375513389084986,13.138814644555817,245.16266523468073,31.672065453735925
448,-17.088272790553177,-233.9079013259081,71.12741126718424,24.63464625949076,11.884243310701239,12.474677981880019,245.09927618999626,31.841582229782567
449,-17.236541647385266,-233.88667438514616,70.95482704506394,25.396671482584797,11.39341136460281,11.780519808899028,245.0393395863435,32.00491038828801
450,-17.38493962658182,-233.86867809539066,70.78868532838746,26.16159423869165,10.908589908432496,11.065654305902278,244.98445024158076,32.168736920975746
451,-17.530496092180016,-233.8551135313533,70.63064200397842,26.92836072143642,10.435285109776064,10.339129073318606,244.93601946255757,32.34049015645241
452,-17.670392631527783,-233.84695949369993,70.48230027512076,27.697084242967815,9.978887736140134,9.609601822250495,244.89524029133068,32.52810905805716
453,-17.802030402303586,-233.8449449850628,70.34519441837688,28.468891252518414,9.544618271433556,8.88523961058612,244.86306153528716,32.7397692033126
454,-17.923089189656277,-233.84953200027942,70.2207734960589,29.2457034878688,9.137467087201706,8.17364015125919,244.8401710752331,32.98357725913686
455,-18.031577031154885,-233.86090874020866,70.11038492661031,30.02997305136919,8.762131027204498,7.481773393057636,244.82698843613713,33.26724935608338
456,-18.125869713906333,-233.87899298407734,70.01525762920198,30.824390849028624,8.422948222806177,6.81594051856246,244.8236662274636,33.59779143835463
457,-18.20473957236274,-233.90344515812131,69.93648422981069,31.631591066429976,8.12383321225749,6.181746857893829,244.8300998145444,33.98120113379567
458,-18.267372947445303,-233.93369047462303,69.87500172170239,32.45387500457667,7.868214521875841,5.584085060275022,244.8459443933552,34.42221081932641
459,-18.31337570516294,-233.9689491959249,69.83157020115986,33.292976607808384,7.658976809254323,5.027125202586096,244.87063840461025,34.92409032478118
460,-18.342766525952747,-234.00827358693098,69.80674983494578,34.14988936022715,7.4984094559648105,4.5143092619248835,244.9034319327466,35.48852509118022
461,-18.3559581980508,-234.0505896946121,69.80087686192849,35.02476990489855,7.388163126623418,4.048348381824679,244.9434185549687,36.115581545179595
462,-18.35372773661705,-234.0947419512983,69.81403997795198,35.91692788284207,7.329215348898522,3.631222427604114,244.98956917050953,36.80376605536162
463,-18.33717675821228,-234.13953864846934,69.84605878475695,36.824904486368176,7.321845733222247,3.264182250409845,245.04076652692544,37.550177411466166
464,-18.307684150120078,-234.18379633529491,69.89646611423537,37.74663474725885,7.365621135379098,2.9477556688723214,245.09583924900002,38.35074587193877
465,-18.26685353439955,-234.22638112638444,69.96449606598344,38.679681455357695,7.4593909025976055,2.6817583218205203,245.15359415049747,39.20054517297652
466,-18.216458117936703,-234.26624491583425,70.04907955167582,39.62152257617939,7.601292335800736,2.465310281525916,245.21284561491154,40.09415820259231
467,-18.158385209157288,-234.30245473959937,70.14884892743564,40.569869659266956,7.788766641357943,2.2968588054380383,245.272440981652,41.026072908317
468,-18.09458219946165,-234.3342140542203,70.2621528155739,41.522992360725006,8.018585904248278,2.174207042896867,245.33128120482007,41.99108283270104
469,-18.027005433765176,-234.36087542370763,70.38708150155968,42.480024013083444,8.286891916487262,2.0945480494430746,245.38833651348483,42.98466664356877
470,-17.957573214290424,-234.3819448375652,70.5215024907532,43.441225105536674,8.589247923498787,2.054503169406847,245.44265726119156,44.00332308360044
471,-17.888124047697147,-234.3970784712388,70.66310506385817,44.40818530239757,8.920704366267413,2.050163768471712,245.49338049296773,45.044841611232435
472,-17.8203809876985,-234.4060731178985,70.80945202673998,45.38394977331645,9.275879379834326,2.0771354428191393,245.53973295504215,46.10849418069386
473,-17.755922558178973,-234.40885176925784,70.95803634612827,46.37306157276636,9.649054116750266,2.130584137177556,245.5810313408618,47.19513954863933
474,-17.6961603898679,-234.40544588160992,71.10634012084573,47.38151797559483,10.034281948123056,2.205283974944958,245.61668053086805,48.30723759171041
475,-17.64232340662177,-234.39597575861924,71.25189344423585,48.41664446598831,10.42550938686401,2.2956670071219167,245.64617049479148,49.44877680573117
476,-17.59544813560539,-234.38063030081756,71.39233108026768,49.48689500970046,10.816705373426412,2.3958755261675875,245.66907243840254,50.625122978010566
477,-17.556374518869713,-234.35964719646321,71.52544534946267,50.601590997727044,11.201994576352481,2.499818001786495,245.68503472919681,51.84280069020787
478,-17.5257464879642,-234.33329453532832,71.64923410720276,51.77061371559729,11.57578975453881,2.6012299627419293,245.69377917467958,53.10922173018021
479,-17.504016467257397,-234.30185485072062,71.76194312354525,53.004066423335175,11.932918083978157,2.6937412088685946,245.69509836081002,54.43237574992249
480,-17.491452859168273,-234.26561263184107,71.86210244952792,54.31192226497294,12.26873663346548,2.7709505986828447,245.68885485893722,55.820498750565584
481,-17.488149501844397,-234.22484619742215,71.94855640182669,55.703673377317145,12.579232740713982,2.826509333739611,245.67498296776054,57.2817343024206
482,-17.494036168051796,-234.17982436527515,72.02048659981493,57.18799483267248,12.861105731837934,2.854213133018735,245.65349316292497,58.823800887073816
483,-17.508889420790396,-234.130807661997,72.0774271566122,58.772434639223185,13.111827159520839,2.848102936010281,245.62447868276493,60.45367656849261
484,-17.532343538311906,-234.0780531211253,72.11927087810737,60.46313830677779,13.329677514723056,2.8025728196315716,245.58812296522677,62.17730972355719
485,-17.563901705018576,-234.02182128754657,72.146265351692,62.264613849837524,13.513758236621769,2.712482781613563,245.54470627833578,63.99936217348544
486,-17.602948044827578,-233.96238403564428,72.15899818406352,64.17954080289478,13.663978826419054,2.5732731156254505,245.49461001204654,65.92298901251047
487,-17.648761103810916,-233.90003214053593,72.15837138488558,66.20862502453593,13.781019922621333,2.381076436543972,245.43831763676033,67.94965787459138
488,-17.7005290469389,-233.83508194343764,72.14556594289158,68.35049988095878,13.866274227434099,2.1328230623364686,245.3764120097016,70.07900940045202
489,-17.757366403574405,-233.76788068215012,72.1219987790436,70.60167384520966,13.92176809542102,1.8263353811828311,245.3095692456142,72.30876026297574
490,-17.818331968107938,-233.69881011561287,72.08927508810054,72.9565245072501,13.950067348366895,1.4604069571745935,245.23854965945662,74.63465015267083
491,-17.882447475958983,-233.62828811600463,72.04913926769098,75.4073392371218,13.954171433911737,1.0348624218784812,245.1641863907073,77.05043439583882
492,-17.948716811129955,-233.55676800459258,72.00342714895962,77.94440300473165,13.937400386706923,0.5505946800811754,245.08737228371317,79.5479241117633
493,-18.01614564436144,-233.48473552807738,71.95402132601916,80.55613387542444,13.903279172933573,0.00957663889019705,245.00904545327154,82.11707576116297
494,-18.083761446127657,-233.41270352300825,71.90281037472205,83.22926628802256,13.85542389149642,-0.5851544897543522,244.9301738144198,84.74613141708339
495,-18.15063367820785,-233.34120456372443,71.8516519282534,85.9490812974044,13.797433968228315,-1.2295413166743376,244.85173883687864,87.42181001853686
496,-18.215893671470152,-233.270782174229,71.80233909436843,88.69968153196145,13.732793960540533,-1.9185787953526288,244.77471888907755,90.12954826011803
497,-18.278753419045948,-233.2019812946533,71.75656965234435,91.46430676471944,13.664787982475476,-2.6464139685761574,244.70007260520345,92.85378773047444
498,-18.338522437154513,-233.13533851076673,71.71591785021921,94.22568387956044,13.596429123700995,-3.406470652596535,244.62872264250115,95.57830260166277
499,-18.39462202223212,-233.07137223172563,71.68180918737804,96.96640281975367,13.530405518557979,-4.191595781783397,244.5615400698272,98.28655977065418
500,-18.4465965588011,-233.01057276908907,71.6554989365557,99.66930803409247,13.46904382385449,-4.994223328653614,244.49932954184598,100.96210104898678
501,-18.494121824564715,-232.95339215788516,71.63805518438114,102.31789318878316,13.414289818968122,-5.806551030211577,244.44281533419704,103.5889349944893
502,-18.537010342636865,-232.9002334555247,71.63034702544047,104.89668569817643,13.367704862649331,-6.620724560671102,244.3926281759408,106.15192451776312
503,-18.575213717510454,-232.85143917181702,71.63303843956479,107.39160713614486,13.330476240389233,-7.429023346847227,244.34929269178636,108.63715569897842
504,-18.608821701196792,-232.80727856631685,71.64658833339058,109.79029593354278,13.303439033316746,-8.224041984061971,244.31321531224592,111.03227343572726
505,-18.638057678091908,-232.76793384641465,71.6712571112341,112.08237993343509,13.287106890674389,-8.99886116630702,244.28467275248045,113.3267705826807
506,-18.663270402417435,-232.7334857432519,71.70711983415273,114.25968827415028,13.281708881131328,-9.747202158577855,244.2638015055638,115.51221903600748
507,-18.68492204714773,-232.7038994766226,71.75408551264613,116.31639459183398,13.28722945957014,-10.463559128553165,244.25058917479961,117.58243365872056
508,-18.703572829764834,-232.67901263534708,71.81192147445464,118.2490865482491,13.303448586876229,-11.143304203445226,244.2448688042524,119.53356292569663
509,-18.719862737286004,-232.65852675006957,71.88028123862368,120.05676003525974,13.329979187042387,-11.78276103923997,244.246317480363,121.3641035445417
510,-18.734491227886892,-232.64200416174242,71.95873403578807,121.74073992842085,13.366299418963122,-12.379244046356945,244.25446025736755,123.07483993572438
511,-18.74819608438275,-232.62887132190028,72.04679402658591,123.3045328248171,13.411777780101373,-12.931062141704784,244.26868001215163,124.66871320747371
512,-18.761732613205126,-232.61842913545334,72.14394731053235,124.75362065482763,13.465689975737476,-13.437487831946804,244.28823334609288,126.15062798888952
513,-18.7758540485954,-232.60987046573226,72.24967501060267,126.09520716894494,13.527227762204703,-13.898694426485266,244.31227221451846,127.52720893759872
514,-18.791293461250987,-232.60230442224042,72.3634711560813,127.33793171606193,13.59550140008282,-14.315666085137357,244.33987057663046,128.8065215239653
515,-18.808746928278612,-232.5947864883251,72.484854727523,128.49156606057457,13.669538656576085,-14.690087002737414,244.37005497346448,129.9977733660914
516,-18.828857417878528,-232.5863529648906,72.61337586640072,129.56670998926273,13.748284211576276,-15.024217065428074,244.4018375561516,131.11101264451543
517,-18.852198834893997,-232.57605778035096,72.74861673775885,130.57450015309763,13.830603627052234,-15.320761638970835,244.43424982434266,132.15683893830285
518,-18.879259880775667,-232.56300958278126,72.89018791394489,131.5263442020489,13.915295617100625,-15.582742803554252,244.4663753331578,133.146139415278
519,-18.910427730769467,-232.54640712732416,73.03772150375755,132.4336891037687,14.001115258557341,-15.813378476176602,244.49737984963272,134.08986000279702
520,-18.94597196386068,-232.5255711314084,73.19086249752608,133.30782888107655,14.086809210879117,-16.01597460968436,244.52653769679804,134.99881728970428
521,-18.986029557653698,-232.4999709193281,73.34925977027416,134.15975317663572,14.171162232676654,-16.193834135200387,244.5532531860241,135.8835528167026
522,-19.030591936800707,-232.4692443760937,73.51255790632435,135.00003446720746,14.253052531323375,-16.350184621765774,244.5770761574725,136.75422753888213
523,-19.079495042725362,-232.43321003395243,73.6803907127144,135.83874884364403,14.33151194798366,-16.488124907791285,244.5977108457335,137.62055105520386
524,-19.13241327418026,-232.3918705074645,73.85237711922682,136.68542332536614,14.405785828083728,-16.61058939025538,244.6150175983175,138.49173800411776
525,-19.188857992802145,-232.34540696741277,74.02811998670147,137.54900168915844,14.475386813176183,-16.720327373952305,244.62900735812053,139.37648285159793
526,-19.24818112455683,-232.29416492111733,74.20720797383589,138.43782056021368,14.540136800564964,-16.819893935320746,244.63982924420748,140.28294396522352
527,-19.30958425643381,-232.23863219881102,74.38922010893772,139.35958783613768,14.600191919320903,-16.911648162243573,244.647752004394,141.2187281792936
528,-19.372133504428458,-232.17941062414926,74.57373232721226,140.3213563274927,14.65604645357233,-16.997754450116915,244.6531405374118,142.1908679476678
529,-19.43478020943574,-232.11718330436608,74.76032509425913,141.32948684383794,14.708513079793118,-17.080182842432425,244.65642905761533,143.20578469405962
530,-19.496387161404453,-232.052679762284,74.94859127944083,142.38959685375832,14.758678458186319,-17.160705210893546,244.65809273148724,144.2692341154493
531,-19.555759646544256,-231.98664116601333,75.13814360427962,143.5064932108808,14.807835023372766,-17.240885272736445,244.6586196620667,145.3862318602887
532,-19.61168025282223,-231.91978767937718,75.32862124948805,144.6840900385995,14.857391641627963,-17.322061852306224,244.65848492376566,146.56096092862094
533,-19.66294608928076,-231.8527895845699,75.51969545582239,145.9253153690536,14.908767478665245,-17.405326192200054,244.65812804878118,147.7966649488772
534,-19.70840689292963,-231.78624345603612,75.71107407291858,147.2320121966766,14.963274748167285,-17.491495311467872,244.65793503187098,149.09553379255
535,-19.747002412490616,-231.72065429163158,75.90250502851494,148.60484100771063,15.021996820937487,-17.58108424306912,244.65822556378825,150.45858953519942
536,-19.777797448847547,-231.65642404727862,76.09377872095828,150.0431915030799,15.085668418952421,-17.67428036701013,244.65924577650182,151.88558146743802
537,-19.800013020019442,-231.59384646580975,76.284729390696,151.54511117678103,15.15456435744883,-17.770923004839016,244.6611662813794,153.374898749106
538,-19.813052328060643,-231.53310757036203,76.47523557495121,153.10725778168285,15.228402640771165,-17.870491094300863,244.66408482130367,154.92350855008652
539,-19.816520468390003,-231.4742908544094,76.66521982483671,154.7248817130345,15.306266784746391,-17.972101277753236,244.6680325822991,156.52692636659663
540,-19.810237103273302,-231.41738603941175,76.85464791431197,156.39184314746598,15.386551144426816,-18.07451817352843,244.67298309820404,158.1792238401463
541,-19.794241725253833,-231.36230016437008,77.04352761616201,158.10066747436667,15.466931865060168,-18.176177945809105,244.6788625715719,159.87307792758054
542,-19.768791684290925,-231.30886970834504,77.23190672345918,159.84264114716018,15.544364925435916,-18.27522558747479,244.68556030298961,161.5998636862127
543,-19.734353615193996,-231.25687258991843,77.41986963118092,161.60794855554454,15.615111687482658,-18.369565694474563,244.69293798643946,163.3497912586152
544,-19.691589034475143,-231.2060393183809,77.60753179022402,163.3858488949398,15.67479146679897,-18.45692601594204,244.70083704826428,165.1120858993056
545,-19.641334693339427,-231.15606310400582,77.79503173018948,165.16489031355306,15.718459897392588,-18.53493269569457,244.709083815868,166.8752081060136
546,-19.58457800634358,-231.1066090859118,77.98252085619436,166.93315689595377,15.74071123013298,-18.60119584664124,244.71749276965818,168.62710913878195
547,-19.522427744433358,-231.05732289775625,78.17015159674736,168.67854239090923,15.73580213983501,-18.653403924746463,244.72586829280783,170.35551552309116
548,-19.456080310383854,-231.00783866350392,78.35806461000419,170.3890431222526,15.697794124865815,-18.689425256483318,244.7340052616637,172.04823464488393
549,-19.386782361341233,-230.95778635642642,78.5463756725201,172.05306129630864,15.620711171906967,-18.707414892751455,244.74168867995817,173.69347230206677
550,-19.315791219818955,-230.90679839659518,78.7351627207163,173.65970896261885,15.498708993991537,-18.705924590841224,244.7486925141688,175.28015208621977
551,-19.244335130231583,-230.85451548779298,78.92445349080126,175.1991022476542,15.326251789488317,-18.684013165009777,244.75477804996817,176.7982257761487
552,-19.173575672681594,-230.80059195402572,79.11421436955986,176.6626352534102,15.098292115504458,-18.641353791372484,244.75969240719846,178.2389636296641
553,-19.104574441741182,-230.74470102134003,79.30434126567168,178.0432232821437,14.810449156502164,-18.57833419023035,244.7631680696146,179.59521365976732
554,-19.0382655272966,-230.68654040997745,79.49465337108865,179.33550588484866,14.459180404280783,-18.496144978182034,244.76492417994442,180.8616197491745
555,-18.97543458722039,-230.6258382687535,79.68489061315704,180.5360016975112,14.041941517646308,-18.396850924725268,244.76466995203302,182.03478985577524
556,-18.916704593847776,-230.56235909431058,79.87471546816423,181.64320914050512,13.557328900604778,-18.283439457928285,244.76211008292884,183.11340761383687
557,-18.862527810114486,-230.49590903788027,80.06371959658317,182.65764968727342,13.005199419674403,-18.159840688347696,244.75695170651156,184.09828323798288
558,-18.813183224940065,-230.4263399990897,80.25143542822391,183.581853267456,12.386761816661718,-18.030913610826858,244.74891228794647,184.9923425264334
559,-18.76877852326847,-230.3535520836955,80.43735241010712,184.42028808446932,11.704634840407927,-17.902394088654823,244.73772787336824,185.80055558290485
560,-18.729255691456775,-230.27749422113558,80.62093723583465,185.17923937495368,10.962867875320493,-17.780801715522607,244.7231611869928,186.52980930863956
561,-18.69439955147863,-230.19816292889942,80.80165708235964,185.86664325003665,10.166920804921785,-17.673304598546196,244.70500916829133,187.18872957528623
562,-18.66384877878051,-230.1155994545725,80.97900466677551,186.49188274721274,9.323601011664737,-17.58754336041353,244.68310972559922,187.78746026834872
563,-18.637109174933844,-230.0298858874988,81.1525237644671,187.06555369940773,8.440956835731175,-17.53141802866773,244.65734778868642,188.33740718060716
564,-18.613569094471043,-229.94114115846176,81.32183379136166,187.59920812389828,7.528128510029451,-17.51284380050553,244.6276610540737,188.85095514241465
565,-18.592516971134135,-229.84951786799957,81.4866522497106,188.10508268500573,6.595159499519845,-17.539483872001146,244.59404591178958,189.34116692238553
566,-18.5731608682912,-229.75520049275883,81.64681416999098,188.59581953895483,5.652773197013057,-17.61846956952799,244.55656378529676,189.82147245330088
567,-18.554649912174416,-229.6584048733134,81.80228794943011,189.08418662701186,4.712121915741592,-17.75611978942394,244.5153475923321,190.30535691024826
568,-18.536097365470816,-229.55937828899891,81.95318712711689,189.58280422790315,3.784516890989108,-17.957672979773072,244.4706075095593,190.8060560396745
569,-18.51660495733003,-229.4583991327182,82.09977772338175,190.10388419335374,2.881149389589814,-18.227045308198218,244.4226349655574,191.33626676176908
570,-18.495287913728134,-229.35577528301116,82.2424808706296,190.65898764750654,2.012813877492237,-18.56662807486371,244.3718038838673,191.90788031397986
571,-18.47129996877916,-229.25184059746636,82.38187059199856,191.258806012327,1.189644366862394,-18.977135790505322,244.31856853360284,192.5317440641386
572,-18.4438575242486,-229.14694931112533,82.51866677566777,191.9129691335432,0.4208744489496176,-19.457513695243133,244.26345773711256,193.21745672935367
573,-18.412262101285865,-229.04146841359267,82.6537236552774,192.62988316860265,-0.2853698712246258,-20.004910061594625,244.20706554190014,193.97320026663172
574,-18.375920340085134,-228.9357683615431,82.78801435237352,193.41659982947235,-0.9222374251692197,-20.61471479372868,244.1500388188958,194.80561025637672
575,-18.334361037542195,-228.8302128406481,82.92261216321381,194.2787175265267,-1.484274477722258,-21.280662021555965,244.09306264238384,195.7196851854252
576,-18.287248947630726,-228.72514862878896,83.05866929678477,195.22031390787927,-1.9675004585275597,-21.9949909100269,244.03684464767875,196.71873364395313
577,-18.23439514232139,-228.62089671021573,83.19739378093885,196.2439082906077,-2.3694371120537787,-22.74865601753514,243.9820996620747,197.80435715736763
578,-18.17576358527899,-228.5177455745456,83.34002527149056,197.35045166518117,-2.689093621022979,-23.531576483169847,243.92953569705728,198.9764653280894
579,-18.111473314187272,-228.41594726408286,83.4878104835565,198.5393414178278,-2.9269121009978663,-24.33291223761684,243.8798420180158,200.2333192730417
580,-18.041795450806575,-228.31571636520468,83.64197889715132,199.80845766500204,-3.0846791340936903,-25.14135527253168,243.83367962687507,201.5715990219321
581,-17.967144320364454,-228.21723177272028,83.8037192793467,201.154218081563,-3.1654096667568643,-25.94542459185373,243.79167411648336,202.98649053502675
582,-17.888062321664396,-228.12064066034512,83.97415739844205,202.5716482622796,-3.173209689890224,-26.73375458752474,243.75441045490032,204.47178822654942
583,-17.80519877191075,-228.0260637388263,84.15433506492822,204.05446490433582,-3.1131237679516004,-27.49536803331014,243.7224288910825,206.02000924514007
584,-17.71928361489334,-227.9336006753276,84.34519039369792,205.59516937602862,-2.9909728521248815,-28.219926532927527,243.6962209504204,207.62251619292607
585,-17.6310975178162,-227.84333450780252,84.5475390966307,207.18514955668962,-2.813187068236549,-28.897952988095312,243.67622447716286,209.26964546079287
586,-17.541440378986763,-227.75533400377884,84.76205674587258,208.8147882818365,-2.5866374605882476,-29.521022329968776,243.66281687982385,210.95083898620373
587,-17.45110046676411,-227.66965321881688,84.98926218623465,210.47357739924828,-2.3184701428075467,-30.08191819927195,243.65630612503733,212.65477806723783
588,-17.360826213584588,-227.5863280801668,85.22950249106349,212.15023735439758,-2.015946063238811,-30.574754335659456,243.65691962227515,214.36951889134565
589,-17.27130217198241,-227.505370632933,85.48293999978321,213.83284327685735,-1.6862896045849822,-30.995060172898196,243.66479191457472,216.08263056273682
590,-17.183129995676932,-227.42676237799137,85.7495420042784,215.508959535802,-1.3365493059003073,-31.339830694901927,243.6799527949055,217.7813374637992
591,-17.09681475022983,-227.35044850912905,86.0290735385842,217.16578545725844,-0.9734738644343228,-31.607541151243336,243.70231774214378,219.45266857125864
592,-17.01275654491837,-227.27633462770234,86.32109355544671,218.7903151961235,-0.6034060874580902,-31.79812782436418,243.73168227432524,221.08361672476985
593,-16.93124743803901,-227.2042868507989,86.62495467472404,220.36951456681004,-0.23219663623993758,-31.912936661044164,243.76772116000598,222.6613107465441
594,-16.852473661545524,-227.1341354843625,86.93980669570428,221.8905169382177,0.13486160493816182,-31.954642177671335,243.80999274073022,224.17320270858096
595,-16.77652321776735,-227.0656818582994,87.26460411749085,223.34083907975307,0.49307870326076797,-31.927139589153185,243.85794809845373,225.60727152123349
596,-16.70339867736256,-226.9987075890196,87.59811794956326,224.70861612783148,0.8383934324898562,-31.83541358959766,243.91094448924133,226.95224239314908
597,-16.633034595400073,-226.9329853821134,87.93895209052424,225.9828527378909,1.167381323565238,-31.685387638099588,243.96826229138924,228.19781969812973
598,-16.565318551886946,-226.86829036603348,88.28556446750002,227.1536851938466,1.4772472049141887,-31.483757978628418,244.0291245420446,229.33492857500025
599,-16.500114575034413,-226.80441076191372,88.63629290353008,228.21264699021398,1.7658047578841456,-31.2378169424173,244.09271786232492,230.3559584035065
600,-16.437287611690817,-226.7411565563117,88.98938532559076,229.15292839953176,2.0314458577671832,-30.955270328507382,244.15821330347939,231.25499935576863
601,-16.376727642056817,-226.6783649877486,89.34303357582542,229.9696190256909,2.2731026239421346,-30.644053800423812,244.22478564438447,232.0280617482722
602,-16.31837191162324,-226.6159021694087,89.69540989698868,230.65992156829432,2.4902051074059535,-30.31215322439288,244.29163006300837,232.6732671505013
603,-16.262223634578984,-226.55366086789795,90.0447051506152,231.22332513174342,2.682637386134161,-29.967433661775356,244.3579757350541,233.19100028410853
604,-16.208365579559057,-226.49155506017166,90.38916787142846,231.6617273757795,2.8506945532269046,-29.617481310060363,244.42309648796885,233.58401164274417
605,-16.156967325385974,-226.42951222670118,90.72714323281434,231.979496495277,2.9950426755684516,-29.269462122192127,244.48631896123604,233.8574623611358
606,-16.108285661715254,-226.36746438791928,91.05711085505585,232.18346635048457,3.1166832366782704,-28.93000021933939,244.54702876006638,234.01890509079172
607,-16.062658394415894,-226.30533872793927,91.3777201757552,232.28286102679382,3.2169228495110507,-28.605078598024882,244.60467491179384,234.07819748842087
608,-16.020492392524744,-226.2430484319177,91.6878219370496,232.28914864924238,3.297348186371698,-28.299963979725234,244.65877271060552,234.04734835247203
609,-15.982246953697324,-226.18048427813036,91.98649438821417,232.21582825126512,3.359805213609582,-28.01915689875495,244.70890498981592,233.94030028795035
610,-15.948413651168565,-226.11750764350876,92.27306314336327,232.07815755900106,3.406381045400862,-27.766367288610297,244.754722101628,233.7726567038383
611,-15.919493988716612,-226.05394578873918,92.5471141726295,231.8928332060117,3.4393861488205584,-27.544514986654608,244.79594128618322,233.56136446805698
612,-15.895976378151785,-225.98959038595416,92.80849990684595,231.67763760917055,3.461334309262437,-27.355753767582346,244.83234639934668,233.32436614073063
613,-15.878313923553057,-225.92420009294204,93.05733873238766,231.45106813048042,3.47491771659554,-27.201516708033797,244.86378892942753,233.08023699330897
614,-15.866904181417146,-225.85750753045363,93.29400826362432,231.2319641040724,3.482974736185877,-27.082579889861567,244.89019084055678,232.84782188407885
615,-15.862071664399826,-225.78923033975695,93.51913279391175,231.0391459638343,3.4884483385819416,-26.99914079191537,244.91154913254465,232.6458856542937
616,-15.864053557737599,-225.71908524977673,93.73356525423898,230.89107839832343,3.494333719544426,-26.950907359823695,244.9279412707471,232.49278838273082
617,-15.872988919554945,-225.64680356761139,93.93836386206681,230.80556664187264,3.50361429977589,-26.937193743884006,244.9395300958616,232.40619404983929
618,-15.88891146463652,-225.5721464486467,94.13476355114803,230.79949214934277,3.519186020838271,-26.9570189745646,244.94656672600365,232.40281836764484
619,-15.911745858407125,-225.49491856658972,94.32414239943587,230.88859134323104,3.543770629212164,-27.009205228171506,244.94939024700182,232.49821905071835
620,-15.941307253621309,-225.41497904875527,94.50798363670849,231.0872790346546,3.579819433193046,-27.092472648389876,244.9484233431149,232.70662978260518
621,-15.977303582566016,-225.33224867591045,94.68783425497762,231.40851649263112,3.6294097745754663,-27.205527837350566,244.94416330167087,233.040837547015
622,-16.019339968448254,-225.24671259058493,94.8652615513249,231.86372281887918,3.6941371235552336,-27.3471431221136,244.93716816057483,233.51210169468237
623,-16.066924666565026,-225.15841828467367,95.04180902764425,232.46272711169,3.775006248251078,-27.51622363871023,244.9280382947137,234.13011195143162
624,-16.119476148071655,-225.06746934583103,95.21895308350818,233.2137578153334,3.8723253181734836,-27.711859313705688,244.91739441100276,234.90298150303494
625,-16.176331086755084,-224.97401608633444,95.3980620333671,234.12346471722262,3.985607088063057,-27.93335912065485,244.90585356568235,235.83727040335347
626,-16.236752970415868,-224.8782445689437,95.58035911871393,235.19696839305016,4.113481537009041,-28.180265638045007,244.89400523269833,236.93803397535868
627,-16.299940935712893,-224.78036561069246,95.76689115516454,236.43793159951105,4.253624593076362,-28.452348952432214,244.88238949558757,238.2088907030122
628,-16.365038414019992,-224.68060508850735,95.95850414156872,237.84864717428746,4.402707874938615,-28.74958030184352,244.87147907755607,239.65210434215356
629,-16.431141334736648,-224.57919635133408,96.15582668328503,239.43013734385679,4.556374638181009,-29.07208742433108,244.86166627301554,241.26867551507522
630,-16.497305841043897,-224.47637492188304,96.3592616377788,241.1822598678539,4.709247200637015,-29.420095128499156,244.85325511330845,243.05843876997358
631,-16.56255559928225,-224.37237516582138,96.5689860468647,243.10381708538722,4.854970944322322,-29.793855871214145,244.84645850878937,245.02016186852757
632,-16.625888848327833,-224.26742835187778,96.78495910372943,245.1926645809583,4.986299418718322,-30.193575944054558,244.84139975566788,247.15164479886988
633,-16.686285464302294,-224.1617614896579,97.0069375283721,247.44581675328538,5.0952238924517514,-30.619343145321942,244.83811762361688,249.44981658698148
634,-16.742714543985294,-224.05559638694248,97.23449730478814,249.85954702964253,5.173148774234499,-31.07106147128961,244.83657414167442,251.91082837211553
635,-16.79414320970641,-223.94914842257555,97.46706038550468,252.42948096240502,5.211111722941579,-31.54839737882433,244.8366641301026,254.53014156298602
636,-16.83954735251333,-223.84262457038216,97.7039248300265,255.15068121676794,5.200044264503759,-32.05074066253308,244.838225514666,257.30261045753167
637,-16.877924842493155,-223.73622026801516,97.94429693620017,258.0177246858984,5.13106569031087,-32.577181181860546,244.84104954416333,260.2225596904496
638,-16.908311467453377,-223.6301148524499,98.18732412471125,261.0247736124357,4.995800278408774,-33.1265008591387,244.8448902147913,263.2838582601595
639,-16.929799606885886,-223.5244655223462,98.43212751994182,264.1656443708974,4.786705711409124,-33.69717883918047,244.849472479,266.4799934314947
640,-16.941559353570895,-223.4194001293565,98.67783333070963,267.4338790611705,4.497399071902114,-34.28740665725451,244.85449917086206,269.8041491275164
641,-16.942861355513777,-223.31500945732117,98.92360232513965,270.8228259017344,4.122965988594257,-34.895109775693605,244.8596569489746,273.2492941537263
642,-16.933100098573114,-223.21133988905697,99.16865690085119,274.32573437803256,3.6602384193525297,-35.51797190410707,244.86462181848975,276.80828553580574
643,-16.91181586949813,-223.10838742166308,99.41230540345522,277.93587020357603,3.108027274138911,-36.153459069451074,244.86906487194054,280.473991409655
644,-16.878713403042084,-223.00609391835806,99.65396341325751,281.6466535941587,2.46729763555622,-36.7988413795017,244.87265882579896,284.2394364809237
645,-16.833675289596577,-222.90434633057617,99.89317173880352,285.451822423247,1.741276649902091,-37.451211722936385,244.8750857947144,288.09797133961405
646,-16.776768577548307,-222.8029793866637,100.12961085910068,289.3456197441102,0.9354870769580967,-38.10750213757673,244.87604654913247,292.04346507464044
647,-16.70824355737491,-222.70178192424848,100.36311153566994,293.3230030589049,0.057702802583413065,-38.76450006965487,244.8752712359939,296.0705187760656
648,-16.62852434311899,-222.60050664786914,100.59366130556776,297.3798706767323,-0.8821738581490888,-39.41886800060201,244.87253121707946,300.1746956859191
649,-16.53819148006577,-222.49888260683727,100.82140669610891,301.5132986342416,-1.8723096563276145,-40.067170720769965,244.86765132800173,304.3527620279875
650,-16.437957344841514,-222.39662917814715,101.0466513340133,305.7217800539371,-2.8992057938536715,-40.7059147875326,244.8605215654222,308.602930996188
651,-16.328635522960074,-222.29347001597333,101.26985049229617,310.0054575478356,-3.948021082466884,-41.331604418153475,244.85110709112638,312.92510106933105
652,-16.211105650289856,-222.18914547250932,101.49160279002713,314.36633834833185,-5.002940095857396,-41.94081723373089,244.83945556480154,317.3210787598156
653,-16.0862754385721,-222.08342233850954,101.71263970318924,318.8084812346843,-6.047571616315585,-42.530301871140885,244.82570111447086,321.7947750709154
654,-15.955041814427515,-221.97610012530134,101.93381343089676,323.3381439567333,-7.0653616592455375,-43.09709755411736,244.8100645527103,326.35236428400685
655,-15.818253257260704,-221.86701331487313,102.1560836115929,327.9638796494039,-8.040005343854212,-43.638673405681644,244.79284961563516,331.00239316907135
656,-15.67667541532935,-221.7560290987475,102.38050338137761,332.6965706361703,-8.955842893775024,-44.153082824872236,244.77443507844183,335.7558283054852
657,-15.530961819542359,-221.64304031187885,102.60820531742309,337.549388118873,-9.798226968761282,-44.639125925165054,244.75526276689482,340.6260290375578
658,-15.38163104051534,-221.5279536513392,102.84038798555189,342.53766676734824,-10.553851050289978,-45.09651112668562,244.73582186841628,345.62863392268537
659,-15.229051099771004,-221.41067376194175,103.07830403401992,347.6786844199204,-11.2110313927169,-45.526005736418014,244.7166304463043,350.78134964165884
660,-15.073431510063077,-221.2910841962797,103.3232507427893,352.9913391778104,-11.75993787908175,-45.92956485456965,244.69821540187607,356.10363342961773
661,-14.91482306518745,-221.16902649792672,103.57656343588042,358.49571921814663,-12.19277189326142,-46.310428209628896,244.68109212318248,361.6162632437647
662,-14.753125392416615,-221.04427866450527,103.83961134659813,364.2125646715988,-12.503892014066201,-46.67317547301539,244.66574472095937,367.3407941091989
663,-14.588102197026046,-220.91653402133977,104.11379472935977,370.16262578289115,-12.689890894269745,-47.02373212447082,244.65260721237354,373.29890423100704
664,-14.419403950255445,-220.78538119364006,104.40054143355412,376.3659269699537,-12.749628912997556,-47.36931992448628,244.64204545062788,379.5116401818791
665,-14.246597455017634,-220.65028560820824,104.70130084709686,382.8409518533051,-12.68423177304896,-47.71834843162723,244.6343392189871,385.99857628343347
666,-14.069201308688188,-220.51057287977505,105.01753313531373,389.60376935366963,-12.49705989299696,-48.080246713330865,244.62966382640744,392.776908692762
667,-13.886725864874933,-220.36541446540755,105.35069204910486,396.6671251281574,-12.19365711493528,-48.46523729701079,244.62807069782917,399.8605092407904
668,-13.698715934997335,-220.21381600570322,105.70220012811204,404.0395256326871,-11.781684953360656,-48.88405727476077,244.62946670662257,407.25896742105726
669,-13.504794158535306,-220.05460881965143,106.07341575237955,411.72434385923395,-11.270846486459508,-49.34763408273233,244.63359230054283,414.97665097030915
670,-13.304702753824271,-219.88644516679577,106.46559221307264,419.7189764380835,-10.672801252342936,-49.866725643602734,244.6399989124223,423.01181633320806
671,-13.098341394254561,-219.70779820401503,106.87982984789859,428.0140816136311,-10.001069452761666,-50.451536146093794,244.6480268234458,431.3558002434992
672,-12.885799336879224,-219.51696797817752,107.31702327039018,436.5929268714413,-9.270920768623313,-51.11131963370352,244.65678548422116,439.9923229479665
673,-12.667380534402442,-219.3120950834251,107.77780662573325,445.4308738151547,-8.499240605344536,-51.85398376887678,244.66513900240074,448.8969323527752
674,-12.443621018750678,-219.0911835702928,108.2625004272198,454.49502617374606,-7.704365054516435,-52.68570575671845,244.6716997873837,458.0366165188403
675,-12.215298189417888,-218.85213433022295,108.77106375394877,463.74406436381986,-6.905875613331837,-53.610571704881714,244.6748331486122,467.36960931553534
676,-11.983431792436456,-218.59278963041027,109.30305541352449,473.1282866163755,-6.124345861797459,-54.630249949210665,244.67267509479723,476.84541047982873
677,-11.749276408935087,-218.3109888221913,109.85760715215494,482.58987210962414,-5.381034721964919,-55.74370829447295,244.66316478135857,486.40503665232245
678,-11.514305227467526,-218.00463448715166,110.43341118314297,492.063375732184,-4.697524293309649,-56.94698473660207,244.64409202494508,495.98151407251765
679,-11.28018482243909,-217.67176741972943,111.02872321505734,501.4764571355678,-4.095304205518864,-58.23302090563986,244.61315905571104,505.500616586189
680,-11.04874072985189,-217.31064794722698,111.64138083571063,510.7508389781784,-3.5953086238636414,-59.59156699893417,244.5680542999915,514.8818447693031
681,-10.821913915350395,-216.91984028105102,112.26883569514268,519.8034812686444,-3.2174161859093684,-61.00916622335883,244.5065346582994,524.0396338316093
682,-10.601708789018886,-216.49829600657299,112.90819664893529,528.547951101997,-2.979926934998126,-62.469225658011865,244.42651168020055,532.8847701291121
683,-10.39013411843155,-216.0454325956148,113.55628010067055,536.8959604292633,-2.899033425339444,-63.95217888436959,244.32613646217132,541.3259891537293
684,-10.189138808667028,-215.56120305228959,114.20966340856343,544.7590393051197,-2.9883053188064213,-65.43574356093806,244.20387816055955,549.2717222612199
685,-10.000544884342773,-215.04615336716674,114.86473749382932,552.0503086513955,-3.258207773219837,-66.89527426997763,244.05859165895876,556.6319554765499
686,-9.825980109929722,-214.501465085289,115.51775565277228,558.6863150055312,-3.7156736338575898,-68.30420754068436,243.88957089591034,563.3201615520427
687,-9.66681263813976,-213.9289808210058,116.16487675687416,564.5888896989957,-4.363747870284951,-69.63459219742509,243.6965853745861,569.2552657945994
688,-9.524090028230813,-213.33121105768174,116.80220213041198,569.6869958773071,-5.201319942425898,-70.85769438090554,243.47989833251148,574.363606514356
689,-9.398485004472844,-212.71132122195382,117.42580622992732,573.9185281338537,-6.222956076913323,-71.94466306189301,243.2402660061421,578.580851725843
690,-9.29025042015765,-212.07309881949698,118.0317619474996,577.2320308947031,-7.418839163924979,-72.86723895176496,242.97891844377955,581.8538346082594
691,-9.19918599133088,-211.42090117078732,118.61616208880174,579.5883029888081,-8.774819549609145,-73.5984876932888,242.69752331057936,584.1422711676499
692,-9.124619354844286,-210.75958483703357,119.175139263033,580.9618572112065,-10.272575721560555,-74.11353722037327,242.39813491652112,585.4203247052585
693,-9.065403761853538,-210.09441823053973,119.70488683617361,581.342205312806,-11.889879955955049,-74.39029920073605,242.0831312134967,585.6779832681236
694,-9.019934194405147,-209.43097932444945,120.20168363047921,580.7349407907762,-13.600960471545376,-74.41015542887202,241.75514183967772,584.9222183016244
695,-8.986182935958363,-208.77504087217707,120.66192481434204,579.1625939341313,-15.376948466352411,-74.15859171298591,241.41697054517334,583.177895050193
696,-8.96175469971273,-208.13244598619082,121.0821610934692,576.6652353534147,-17.1863955220424,-73.62576384930243,241.07151548603863,580.4884073817658
697,-8.943960358529594,-207.50897712064372,121.45914792423905,573.3008051486297,-18.99584428000527,-72.80698229432106,240.72169077867858,576.9160110597284
698,-8.9299071632358,-206.91022142101596,121.78990593390846,569.1451446520688,-20.770433239555704,-71.70310379708913,240.37035229371958,572.5418297279004
699,-8.91660216474182,-206.34143523640094,122.07179300342054,564.2917065706395,-22.47451536313587,-70.32081936176345,240.02023008312258,567.465507246824
700,-8.901064504646952,-205.8074105344548,122.30258761047432,558.8509181820743,-24.072270299122295,-68.67282850460218,239.6738692854148,561.8044793775692
701,-8.880441465379507,-205.31234598023437,122.4805821256931,552.9491722024153,-25.528291806551604,-66.77789009752212,239.33358085802067,555.6928383917527
702,-8.852122830548556,-204.8597253729658,122.60468383075997,546.7274221821484,-26.80813558225407,-64.66074056239295,239.00140291924205,549.2797672013259
703,-8.813848273844656,-204.45220599900452,122.67452045837693,540.339364528499,-27.878818031911685,-62.35187124192574,238.67907285197825,542.7275258240742
704,-8.763803052090882,-204.09151949074322,122.69054597059171,533.9491976628843,-28.70926306420573,-59.88715875181671,238.36800979189576,536.2089826098282
705,-8.700698000068227,-203.77838811865763,122.6541410699291,527.7289602071133,-29.270700786904026,-57.307345139399025,238.06930679531357,529.9046953971861
706,-8.623830623033776,-203.51245993153884,122.56770176910966,521.8554642078002,-29.537027839594348,-54.657368710570154,237.78373181819592,523.9995633118879
707,-8.53312504489908,-203.29226650047133,122.43470864600764,516.5068561863263,-29.48514283974175,-51.98555135635691,237.51173659755477,518.6790880846394
708,-8.42914973246108,-203.11520700960395,122.25976957762565,511.85885832039656,-29.0952712769125,-49.342653964000014,237.25347264203998,514.1253045607327
709,-8.313113108427505,-202.97756204340834,122.04862991737112,508.0807642599604,-28.35129196004749,-46.78081774699343,237.0088138556492,510.5124633843457
710,-8.186838125323115,-202.87453976544097,121.80814607060896,505.33128825721707,-27.241072089805982,-44.352415654772315,236.77738583723905,508.00257393571434
711,-8.052717455016591,-202.80035639652792,121.54622082608414,503.75439061992216,-25.756810884919993,-42.10884395614448,236.55860250923547,506.7409406270882
712,-7.913651207904645,-202.7483519090062,121.27170117003892,503.4752238063239,-23.895383550338472,-40.099289157527814,236.35171113833223,506.8518474328743
713,-7.772969192065229,-202.71114036849016,120.99424132627453,504.59635760485446,-21.658669687901728,-38.36950909535823,236.15584661285394,508.4345598654854
714,-7.6343397479042645,-202.68079222160597,120.72413527484262,507.1944447292528,-19.053844507870746,-36.96066870772864,235.97009483054435,511.559816453881
715,-7.501667071255744,-202.6490434046824,120.47212396218234,511.3174773897681,-16.093608478612325,-35.90827013744524,235.7935635072137,516.2669707245503
716,-7.378978563281165,-202.60752412703084,120.24918283962151,516.982761192067,-12.796331570355466,-35.241213563470716,235.62545723223482,522.5619199652671
717,-7.270303223837752,-202.54799897141515,120.06629534294723,524.1756977287762,-9.186091219323398,-34.98102037379054,235.46515256670804,530.4159213409939
718,-7.179541731233274,-202.462609428976,119.93421766665,532.8494255607262,-5.292587196023464,-35.14124500787185,235.31226841931175,539.7653532904394
719,-7.110328845423133,-202.3441098789177,119.86323993724716,542.9253255582056,-1.1509205455291724,-35.727096554833494,235.16672675208812,550.5124351194266
720,-7.065889131443211,-202.18608826178001,119.86294870312857,554.2943553913452,3.1987728195271448,-36.735286079910225,235.02879883150231,562.5268748859535
721,-7.048887622834638,-201.9831632607252,119.94199535231282,566.8191433326738,7.711840463044157,-38.15411064596398,234.89913263858665,575.6483790538438
722,-7.0612778993333425,-201.73115056029943,120.10787449733179,580.3367461235614,12.339787970626784,-39.963779997829384,234.77875749162385,589.689929661959
723,-7.104151173888366,-201.42719157774752,120.36671568057021,594.6619603012742,17.03111206084422,-42.13698646450334,234.66906239157095,604.4417167762256
724,-7.177591309027091,-201.06983902124728,120.72309132784434,609.5910703195256,21.732292915263127,-44.63971210847411,234.5717453142234,619.6756050119232
725,-7.280541917558689,-200.65909490224107,121.17984395270335,624.905918236774,26.388944386497954,-47.43225901964097,234.4887319058496,635.1500111735431
726,-7.410692430608747,-200.1963983555443,121.7379360742464,640.3781863285137,30.94711791600554,-50.470479105891776,234.42206383395637,650.6150732436284
727,-7.564390006589324,-199.68456279218665,122.39632686219956,655.7737931059468,35.35475185970502,-53.70716965165236,234.37375923417267,665.8179965361113
728,-7.736583507230393,-199.12766430712745,123.15187997541271,670.8573126124394,39.56325216869366,-57.09359141098633,234.34564999611294,680.5084686211894
729,-7.920804745821872,-198.53088551955847,123.99930733843044,685.3963351166174,43.52918291055686,-60.58105797526547,234.33920269793637,694.4440393263341
730,-8.109191058812833,-197.90032085332524,124.9311535987476,699.1656940356003,47.21603615556807,-64.12253922653312,234.3553315366009,707.3953654539577
731,-8.29255212874513,-197.24275064294767,125.93782560387803,711.9514894053922,50.59604090174207,-67.67421835626486,234.39421252582798,719.151222285693
732,-8.460482931878065,-196.56539248463068,127.0076704187122,723.554843050919,53.65196100157584,-71.19694164959533,234.45510863149926,729.5231862369128
733,-8.601523552475141,-195.87563894149392,128.1271042743682,733.7953254102113,56.37882376828102,-74.65750335416773,234.53621543419973,738.3498960151953
734,-8.703365188962415,-195.18079094096382,129.28079351749807,742.5139992423661,58.785515258194614,-78.02971458591163,234.63453630568267,745.5008040483037
735,-8.753099961184232,-194.48779594749595,130.45188717321528,749.5760314694519,60.896175819826595,-81.29521500066099,234.74579497066006,750.8793362029494
736,-8.73751035889841,-193.80299943660174,131.62229919155288,754.8728311920175,62.751330394921766,-84.44399778684655,234.86439188225822,754.4253859477121
737,-8.643392589528846,-193.13191755172556,132.77303690017268,758.3236795299653,64.40869182570525,-87.47463085349321,234.98340930383645,756.1170790584857
738,-8.45790665150349,-192.47903813564758,133.88457069470385,759.8768258792977,65.9435814809335,-90.39416866398349,235.0946684303837,755.9717570939503
739,-8.168944475741565,-191.847656534897,134.9372385285288,759.5100363597453,67.44891936195847,-93.21775967453563,235.1888402277188,754.0461430585478
740,-7.765505932767466,-191.23975171905352,135.91167725482887,757.2305942087308,69.03474527390495,-95.96796421675869,235.2556099179727,750.4356715408668
741,-7.23807119826876,-190.65590742179012,136.78927136671723,753.0747680209253,70.82724375689938,-98.67380746809779,235.28389330208287,745.2729876482358
742,-6.578957287196812,-190.09528212147634,137.55260832655128,747.106780346096,72.96725844453967,-101.36960195222893,235.2621014246642,738.7256426086922
743,-5.782646716514525,-189.55563050036452,138.18592859518708,739.4173243909011,75.6082962561257,-104.09358328494734,235.17844834307047,730.9930370422818
744,-4.846077199580255,-189.03337736050884,138.67555768637604,730.1216890763442,78.91403784001365,-106.88641090293238,235.02129482073852,722.3026840662043
745,-3.7688827920150465,-188.52374282161148,139.01030711086077,719.3575616358182,83.05538710880315,-109.78959171779279,234.77951863460999,712.9058824755228
746,-2.553578788015293,-188.02091511696736,139.18183107857854,707.2825817811598,88.20710848881494,-112.84388861178326,234.44290006021976,703.0729043941777
747,-1.205684834584178,-187.51826461663904,139.18492646168767,694.0717220531873,94.54411476359854,-116.0877770035267,234.00250922184827,693.0878115161016
748,0.2662168547677954,-187.00859003011425,139.01776485676928,679.9145655494034,102.23748070016084,-119.55601092064674,233.4510805647188,683.2430192790379
749,1.850488857216489,-186.48438531099924,138.6820475757882,665.0125453248605,111.45026789113946,-123.2783548107495,232.78335887658932,673.8337292870734
750,3.5325100064145425,-185.9381138841206,138.18307692151006,649.5762000478211,122.33325421627038,-127.27852867014883,231.99640119519998,665.1523473804235
751,5.294807941738327,-185.36247569405677,137.52973999518406,633.8224885839547,135.02066655204996,-131.5734023838225,231.08981967902503,657.4829982584876
752,7.117248734645876,-184.75065240268017,136.73440426524377,617.972192705783,149.62601730934296,-136.17246138470594,230.06595206333105,651.0962378423685
753,8.9772790331434,-184.09651690171253,135.81272677052496,602.2474229439033,166.23814377985187,-141.0775510720442,228.92994847560362,646.2440522619331
754,10.8502159053959,-183.39479511128576,134.78338074099776,586.8692289644916,184.91754429848757,-146.28289293188828,227.68976588814192,643.1552185494426
755,12.709579541975076,-182.64117070020492,133.66770447939064,572.0553041811932,205.69309753674148,-151.77535167770125,226.35606420871437,642.0310881171431
756,14.52746413014537,-181.83232672772027,132.48927781962766,558.0177658006835,228.55924186438168,-157.53492056132973,224.94200099478567,643.0418411235953
757,16.27494241477238,-180.9659220326027,131.2734319037431,544.9609870800235,253.47368181079096,-163.53538206347852,223.46292515610992,646.3232490000998
758,17.92249955015767,-180.04050421373952,130.0466989702762,533.0794589015107,280.3556791750889,-169.74509433701118,221.9359739004088,651.9739746680697
759,19.440491672044015,-179.0553650527914,128.83621058097364,522.5556630560158,309.0849777632494,-176.12785067620865,220.37958155686084,660.0534358243266
760,20.79962407892654,-178.0103480645523,127.6690550340961,513.5579493200863,339.50140301651084,-182.64376005183843,218.81291353578445,670.5802557507075
761,21.971443015732802,-176.9056212544642,126.57160724092397,506.23842128559687,371.40517043423057,-189.25010102154147,217.25524311098158,683.5313272557947
762,22.928833934267203,-175.74143067651795,125.56884680141334,500.7308505657302,404.5579289240613,-195.902108361101,215.72529243674512,698.8415171238081
763,23.64651800652774,-174.517851611033,124.68368218142557,497.14865428898133,438.6845562384498,-202.55366061178728,214.24056179022995,716.4040395145643
764,24.101537865003486,-173.23455401346916,123.93630046741208,495.58298559458206,473.4757128345467,-209.1578464728927,212.81667221685848,736.0715259674641
765,24.273723201153988,-171.89059756867587,123.34356289510967,496.1009997924476,508.5911474317346,-215.66739794854854,211.46674660528305,757.6578158840271
766,24.14612694947531,-170.4842696382379,122.91846613615998,498.7443683652079,543.663732146755,-222.03498809791424,210.20085300976078,780.9404836158919
767,23.705423210618047,-169.01297700085166,122.6696882109145,503.52811766312783,578.3041876130919,-228.2134009926213,209.02553208300478,805.6641060313326
768,22.942258757487274,-167.47319984021652,122.60123591171721,510.43986818567146,612.1064395566326,-234.15559082713773,207.94342801107547,831.544257854427
769,21.85155090337704,-165.86051408588497,122.7122078104633,519.4395437929991,644.6535288601092,-239.81465573305024,206.95303948196934,858.2722021578811
770,20.432725605340252,-164.16968592336445,122.99668340669977,530.459608758765,675.5239784092709,-245.14375940263753,206.04860397469784,885.5202217550924
771,18.689890726260547,-162.3948398321535,123.44374504682496,543.4058752410417,704.2985032765868,-250.09603980140383,205.22012495724027,912.9475156761165
772,16.631940127105146,-160.52969861903279,124.03763537923605,558.1589053886877,730.5669372547511,-254.62454848479575,204.4535474230522,940.2065649209392
773,14.272584504511768,-158.5678904811658,124.75804969364458,574.57601163201,753.9352392478786,-258.68226538539545,203.73108266605306,966.949854181859
774,11.630304607306886,-156.50331427886107,125.58055958977053,592.4938365439172,774.0324378686537,-262.22223121783264,203.0316784057705,992.8368216065004
775,8.72822184971161,-154.33055020175155,126.4771618039821,611.731471196514,790.5173714763587,-265.1978318122133,202.33162542415516,1017.5408970174639
