time,ax,ay,az,gx,gy,gz,accmagnitude,gccmagnitude
0,-15.968784367792406,-226.00346581286456,90.1179525627569,86.93621842108806,0.21263867303909884,-12.219753635822004,243.83062311991893,87.81284920082605
1,-15.735851494226283,-226.13453791226829,90.05711255675011,86.81278334156053,0.8533486647186674,-12.56405957664663,243.91771893256782,87.77017361218307
2,-15.50595477363793,-226.2541615667581,89.98605499267627,86.62728072496218,1.4813349160665659,-12.897185854366267,243.99063697180978,87.66372264022506
3,-15.281826050455976,-226.362700913812,89.9063545333016,86.37346361702042,2.0915672297783603,-13.21377578614854,244.05042745518728,87.48636726773162
4,-15.066076255286431,-226.4606985265425,89.8196491291281,86.04637675959431,2.679453801220868,-13.508914811081562,244.09832371328426,87.2323611086834
5,-14.861133030423181,-226.54886279919927,89.72759793392748,85.64259336841181,3.2409577523388804,-13.778287574635845,244.13571212783026,86.89760468647847
6,-14.66918704912945,-226.62804831407058,89.6318438645087,85.16041830255327,3.7727015371304193,-14.01831414409462,244.1640976261316,86.4798725435464
7,-14.492148908759525,-226.69922892850312,89.53398099850126,84.6000494050494,4.272056007119513,-14.226260283583793,244.18506465204283,85.97899407269048
8,-14.3316176981935,-226.76346408255387,89.43552665295125,83.9636898972799,4.7372114194411745,-14.400318320571952,244.20023408147642,85.39698031699217
9,-14.188861476429606,-226.82185963258095,89.33789807585144,83.25560592472655,5.167228226321609,-14.539656815409115,244.2112172920677,84.73809047450895
10,-14.064809008544579,-226.87552510816133,89.24239381489528,82.48212470099602,5.562066112350016,-14.644438872544601,244.21956915045294,84.00883346723353
11,-13.960051405816994,-226.9255295572686,89.1501797872111,81.6515702110708,5.922590425985604,-14.715810357817645,244.2267418760235,83.21790169109103
12,-13.874852001218974,-226.9728581506028,89.06227988440929,80.77413513544842,6.250555811416836,-14.75586037733826,244.23404165748363,82.37603594680539
13,-13.809162876697167,-227.0183715434864,88.97957063813125,79.86168963668179,6.548567399006084,-14.767557082335188,244.2425896299779,81.49582263725232
14,-13.762646778799565,-227.06276970055734,88.90277907552647,78.92753003871177,6.820020309682034,-14.754662222731472,244.25328842306243,80.59142673699463
15,-13.734703462780104,-227.1065615599094,88.8324826165811,77.98607322307414,7.069018481910008,-14.721627933566282,244.2667951016186,79.6782668013474
16,-13.724499631999414,-227.15004166374032,88.76910997964826,77.05250555199585,7.300273992440339,-14.673479056872415,244.28350113852295,78.77264119003554
17,-13.73100159082547,-227.1932748172168,88.71294262191866,76.1423980042462,7.518988185246241,-14.615683972998633,244.3035201970919,77.89131745818648
18,-13.75300956443148,-227.2360899728369,88.66411701319085,75.27130173439956,7.730716119949187,-14.554016616437513,244.32668489695328,77.05109931385576
19,-13.789192418685511,-227.27808467860777,88.62262867733872,74.45434028044996,7.941216170173283,-14.494412273342379,244.35255408473688,76.26838754032295
20,-13.838121365059704,-227.31864121740043,88.58833917472738,73.70581596434224,8.156287101689811,-14.442819952248879,244.38043201056493,75.55875267055212
21,-13.898301319246912,-227.3569547974769,88.5609869804309,73.03884835762487,8.381595665109765,-14.405054443862044,244.40940002017527,74.93653767191303
22,-13.968198923075668,-227.39207299697878,88.54020269665249,72.46506166701552,8.622498619904002,-14.386651450181978,244.43836012499338,74.41450807563976
23,-14.046266708418328,-227.42294449678127,88.52552849429308,71.9943352942681,8.88386409106008,-14.392729296288117,244.46608855206517,74.00356462094238
24,-14.130963384529952,-227.4484742397621,88.5164412865331,71.63462766309217,9.169898139074848,-14.427860776555129,244.4912964263164,73.71252959711586
25,-14.220770759468895,-227.46758159146302,88.51237884985491,71.39187800902185,9.483983241415693,-14.49595865084919,244.51269414035056,73.54801295527012
26,-14.314208269965134,-227.47925779410764,88.51276777403716,71.26998480333802,9.828535821417404,-14.600178135224054,244.52905561246598,73.51435846325393
27,-14.409846289062894,-227.48261902962645,88.51705172824349,71.27085365381939,10.204889815592956,-14.742839331411709,244.53927852763252,73.61366443880908
28,-14.506319205947722,-227.47695188839106,88.52471822639319,71.39450278973992,10.613212493796677,-14.925371868372105,244.54243698585756,73.84586877316737
29,-14.602338833082545,-227.46174901355488,88.53532199506284,71.63921132410015,11.05245749322881,-15.148283147313231,244.53782383427878,74.20888479678659
30,-14.696708180608223,-227.4367338601926,88.54850321603739,72.00169472752636,11.52035854782983,-15.411150616918638,244.52498107832207,74.6987734292746
31,-14.788335174112353,-227.40187447654947,88.56399930680071,72.47729321908972,12.0134658881115,-15.71263756750956,244.50371778154124,75.30993791948262
32,-14.876245518732457,-227.35738686722567,88.58164946291309,73.06016157611899,12.527225814909729,-16.050531059831442,244.47411565026533,76.03532984039967
33,-14.959593656766602,-227.3037289548179,88.60139181219802,73.74345245697951,13.056102440904596,-16.421799794469305,244.43652313378095,76.86665813251511
34,-15.037670691389259,-227.24158647254262,88.6232536061389,74.51948893355222,13.593738934117884,-16.82266901100497,244.39153936674614,77.79459611464804
35,-15.109908296443022,-227.17185224924592,88.64733535085792,75.37992488487453,14.133153772992722,-17.248708972211297,244.33998957957473,78.80898387474403
36,-15.175877970568495,-227.09560028025666,88.67379018857513,76.3158938197529,14.666965668438912,-17.694933353947388,244.28289370507648,79.89902497512429
37,-15.235285470353613,-227.01405576175574,88.70280021944771,77.31814751893558,15.187639133894296,-18.15590400051781,244.22142987321078,81.0534769519542
38,-15.287960808901024,-226.92856197649274,88.73455177584542,78.37718584541874,15.687741362091884,-18.625838980686453,244.15689436569573,82.26083490591552
39,-15.333844691131675,-226.84054466060152,88.7692118284303,79.48337852162243,16.1602001964002,-19.09872152010866,244.09065945167816,83.50950690532225
40,-15.372972486231431,-226.7514743589072,88.80690761193831,80.62707894386497,16.598552623419465,-19.56840797963667,244.02413039106807,84.78797924556832
41,-15.405456745625013,-226.6628273252863,88.8477111602447,81.79872943343042,16.99717339043093,-20.028733484360057,243.95870278557982,86.08496904690213
42,-15.43146900405225,-226.57604572324198,88.89162977237491,82.98895685748214,17.35147405332104,-20.47361409679515,243.8957213816464,87.3895613784292
43,-15.451221373559425,-226.49249818519607,88.93860260585234,84.18865736856745,17.658063953769172,-20.897144605069194,243.83644139726056,88.69132815416502
44,-15.464948377242699,-226.41344210474435,88.98850275427485,85.38906911492445,17.914866281596456,-21.29369107035709,243.7819934296665,89.98042646622751
45,-15.472889554737822,-226.33998922723933,89.04114348628882,86.58183209576713,18.121184459349536,-21.657977266908702,243.73335293755292,91.2476747341954
46,-15.475273523266774,-226.27307606243238,89.09628703017644,87.75903474839585,18.277716498772673,-21.98516411590947,243.69131515815909,92.48460593065943
47,-15.47230429878933,-226.21344034821334,89.15365453698232,88.91324724179702,18.386517554836544,-22.270921232381074,243.65647614920405,93.68349805552351
48,-15.464150673646717,-226.16160433046198,89.21293650898392,90.03754179186164,18.450913404582067,-22.511489791216714,243.62922045899603,94.83738289612769
49,-15.45093926363665,-226.11786513581282,89.27380363504878,91.12550067983449,18.475369755824236,-22.703736025902767,243.60971570701568,95.9400349196905
50,-15.432751532343296,-226.08229211415087,89.33591829203067,92.17121313179597,18.465323976070277,-22.845194744643,243.59791408380798,96.98594292342923
51,-15.40962479795791,-226.05473076328272,89.39894692304371,93.16926280988059,18.426986979059965,-22.934102276791926,243.5935604948755,97.97026781415951
52,-15.381557043070062,-226.0348127283837,89.46257327249063,94.11470829684811,18.36712364763214,-22.96941827776011,243.59620686291504,98.88879054997842
53,-15.348515302041985,-226.0219713566902,89.52651223927384,95.00305952471138,18.292820342453975,-22.95083584524944,243.60523200617732,99.73785477810499
54,-15.310447361549771,-226.01546233044618,89.59052402096583,95.8302535475284,18.211247762174292,-22.878779435022274,243.6198665140837,100.51430900069145
55,-15.267296288215311,-226.01438898214423,89.65442826544988,96.59263336180926,18.129426731973226,-22.754390112272457,243.63922211895718,101.21545318335077
56,-15.219016890419319,-226.0177319612933,89.71811801498025,97.28693357102638,18.05400353590666,-22.579497771158408,243.66232512463662,101.83899456152288
57,-15.165592871176727,-226.02438282887871,89.78157318814753,97.91027644172341,17.991040338257292,-22.356580173201376,243.6881533322701,102.38301691792319
58,-15.10705334921733,-226.03318083578196,89.84487313011407,98.46018117751032,17.945825174962255,-22.088709053195796,243.71567552468733,102.84596670927476
59,-15.043487582732652,-226.04295171339731,89.9082074104588,98.93458801950932,17.922705007501037,-21.779484104631305,243.74389205574036,103.22665809758684
60,-14.975056952864106,-226.05254694645276,89.97188371563864,99.33189718581231,17.924944492741584,-21.43295629378375,243.7718746508598,103.52429729428604
61,-14.902003452278924,-226.0608818158382,90.03633155935594,99.65102089732369,17.954612493513164,-21.05354253769657,243.7988033216108,103.73852483542728
62,-14.824654100621167,-226.0669705452468,90.10210069410462,99.89144502626489,18.012497938596702,-20.645934219650467,243.82399840767883,103.86947266594159
63,-14.743420938393255,-226.0699571754588,90.16985345806336,100.05329543973063,18.098056405925234,-20.21500227766523,243.84694616960965,103.9178313971697
64,-14.658796573991152,-226.0691412388183,90.24035067712167,100.13740304650838,18.209388720825157,-19.765701701011576,243.8673169313056,103.88492196554466
65,-14.571345668062861,-226.0639977156019,90.31443105879447,100.1453609937375,18.343252879561398,-19.30297820861848,243.88497529078384,103.77276525889637
66,-14.48169316749399,-226.05419094772978,90.39298423312744,100.07956743472332,18.495110602335053,-18.831679650120588,243.8999822026878,103.58414310651263
67,-14.390510443603878,-226.03958216178984,90.47691774995991,99.94324777668773,18.659209607088773,-18.3564742826884,243.91258879067902,103.32264430680229
68,-14.298500661443054,-226.0202301906271,90.56711855025411,99.74045129198066,18.82870212254797,-17.8817775858021,243.92322177565356,102.99269005967726
69,-14.206384650113115,-225.99638509577989,90.66440984627121,99.4760184254763,18.99579917811766,-17.41168872071479,243.9324606605616,102.59953427470448
70,-14.114888217382887,-225.96847474679325,90.76950502247067,99.15551698634337,19.15195887505649,-16.949937140990784,243.9410073725627,102.14923569263472
71,-14.02473132234919,-225.93708486098384,90.88296096869935,98.78514750020184,19.28810526541965,-16.499839269753842,243.94964974589809,101.64860044575649
72,-13.936619021820919,-225.90293334864103,91.00513389458146,98.37162007620387,19.394872776331898,-16.064264672264308,243.9592207567876,101.10509539139021
73,-13.851233892693106,-225.866839979315,91.136140868203,97.92200698259462,19.462869486197235,-15.645610829385015,243.97055564447314,100.52673409326832
74,-13.769229735973113,-225.8296924495299,91.27583000261774,97.44357657544607,19.482951195383652,-15.245785452461563,243.9844490042155,99.92193858622245
75,-13.691226564098665,-225.79240998201504,91.42376155393484,96.94361525265433,19.446497350450823,-14.86619523800025,244.00161375292896,99.29938103923214
76,-13.617806912236611,-225.7559056812476,91.57920139912167,96.429244745685,19.345679623135506,-14.507740003599324,244.02264366279408,98.66781019213612
77,-13.54951335708636,-225.72104898984637,91.74112751819753,95.90724235495857,19.17371433642032,-14.17081124807779,244.04798094510784,98.03586802971745
78,-13.486846942809763,-225.688629629558,91.9082492551949,95.38387170234536,18.925090884912855,-13.85529436854129,244.07789007326872,97.411902589862
79,-13.430266195864732,-225.6593242824468,92.07903833836458,94.86473123593618,18.5957696613061,-13.560574159958694,244.11243861432786,96.8037830886945
80,-13.380186602649404,-225.63366701337296,92.25176996316647,94.3546271042354,18.183344573542325,-13.285543931617344,244.15148535628148,96.21872368120866
81,-13.336980670975207,-225.61202421376402,92.4245717263762,93.85747613991572,17.68716679751722,-13.028619566636806,244.1946756300414,95.66312211827075
82,-13.3009787505722,-225.594574814196,92.59547790168145,93.37624354921137,17.10842777853988,-12.78776090719097,244.2414435827271,95.14241921731363
83,-13.272470537892056,-225.5812966726985,92.76248653136759,92.9129184464518,16.45020059365638,-12.56050363922246,244.29102128540976,94.66098431360975
84,-13.25170680618998,-225.57196022198767,92.92361706853531,92.46852858194198,15.717439624929485,-12.344005034873915,244.3424547989724,94.22203062785661
85,-13.23890067798262,-225.5661304371464,93.07696667638271,92.04319359418633,14.91693908110852,-12.1351062523419,244.39462743035136,93.82756285133262
86,-13.234227818849279,-225.56317786843408,93.22076353770284,91.63621413068996,14.057251217768359,-11.930412358991585,244.4462902132431,93.47835745791475
87,-13.237825170384081,-225.56229892782966,93.35341556204409,91.2461924749698,13.148565142283228,-11.72638901776997,244.4960991551726,93.17397456952654
88,-13.2497880881625,-225.56254496248087,93.47355285668776,90.87117894599162,12.202546912651883,-11.519472214424642,244.54265818772043,92.91279872471232
89,-13.270165916559575,-225.56285903055735,93.5800624773239,90.50883715183939,11.2321413481392,-11.306184983774301,244.58456624780905,92.69210453576545
90,-13.29895609838082,-225.56211878913305,93.67211436334989,90.15662001051462,10.251335689667766,-11.083253341215073,244.62046659892357,92.50814186092134
91,-13.336096890742882,-225.5591835045111,93.74917788627123,89.81194727203427,9.274885176362746,-10.847712970330312,244.64909632745338,92.35623381453406
92,-13.381458664300787,-225.55294286861144,93.8110289728482,89.47237422471038,8.318001045175592,-10.596998855719042,244.6693338431188,92.23087990364925
93,-13.434833699170884,-225.54236506539073,93.85774822117472,89.13574054013212,7.396002764837367,-10.329011891566196,244.6802421604265,92.1258560618081
94,-13.495924534165727,-225.52654145274778,93.88971070127313,88.80028794784687,6.523938735903569,-10.042159213392283,244.6811057791825,92.03430348938402
95,-13.564331367319161,-225.50472538239993,93.90756815545052,88.46473569833853,5.716183197047427,-9.735368117611086,244.67145916573105,91.94879898392453
96,-13.639539600767602,-225.47636309167302,93.9122242183163,88.12830364614277,4.986021253029784,-9.408076410468624,244.65110522038754,91.86140075326585
97,-13.720909108358507,-225.44111518619601,93.90480330898943,87.7906744524391,4.345238029995991,-9.06020436315651,244.62012270155356,91.76366552618411
98,-13.807667010687625,-225.3988678281913,93.88661408620503,87.4518891796411,3.8037311128627627,-8.692114798524274,244.57886223107246,91.64663527016067
99,-13.898905608033903,-225.3497332476215,93.85910867498737,87.1121747177141,3.3691669384478473,-8.304568062880092,244.52793108320878,91.50079525786414
100,-13.99358664140499,-225.29403965678992,93.82383917756609,86.77170707278992,3.046701374779243,-7.89867781028792,244.468167477741,91.31600971682337
101,-14.09055235140898,-225.23231117716958,93.78241326839617,86.4303211527891,2.8387823655666087,-7.475871898462259,244.40060565821153,91.08144658756315
102,-14.188543140999826,-225.1652389813358,93.73645087979808,86.08718443711146,2.745048571385816,-7.037860662346704,244.3264336282674,90.7855082744248
103,-14.286221206594256,-225.09364541826878,93.68754399216786,85.74045766737959,2.7623328082245453,-6.586612818951737,244.24694591846955,90.4157896391988
104,-14.382199247520346,-225.0184433543112,93.63722133321676,85.38696929606567,2.8847732170954337,-6.12433756324584,244.16349408786903,89.95908675014346
105,-14.475073146748738,-224.94059331809052,93.58691941811668,85.02193103828263,3.1040289846756712,-5.653470134421461,244.0774378370243,89.40147920814113
106,-14.563457278616204,-224.86106125385928,93.53796081669549,84.6387191736577,3.409591582879267,-5.176657233527766,243.99009958674003,88.7285048768839
107,-14.646020921394921,-224.7807796405245,93.49153983226769,84.22874053036881,3.7891773512724902,-4.69673815334058,243.90272505632768,87.92543880486834
108,-14.721524220105671,-224.7006143111439,93.44871510091076,83.78139418981617,4.229183116022522,-4.216717408259442,243.8164517259857,86.97767888335108
109,-14.788852256137664,-224.62133856089378,93.410408168743,83.28413109735924,4.715183578293968,-3.7397250791845864,243.73228621220431,85.87123059738774
110,-14.847045983705332,-224.54361527453514,93.37740689964497,82.72260530642097,5.2324474789613875,-3.268961991408098,243.65109072623014,84.59327352285105
111,-14.895329041058245,-224.46798705683395,93.35037251325899,82.0809037186865,5.766449094022316,-2.8076281530128204,243.57357808826026,83.13278428803778
112,-14.933129696593687,-224.39487378334127,93.32984907515768,81.34183670111186,6.303352463759166,-2.358834517621368,243.50031426904272,81.48118543587337
113,-14.96009741871464,-224.3245765452449,93.31627429579297,80.48727012187585,6.830447898654371,-1.9254999987941692,243.4317270464068,79.63298733741118
114,-14.976113755028283,-224.2572866121497,93.30999050052995,79.49847992535722,7.336523647919494,-1.5102376147102006,243.36811905417554,77.586390857273
115,-14.98129738083644,-224.19309785790335,93.31125465904562,78.35651278055533,7.812159956991524,-1.1152354920023495,243.30968335503178,75.34382131105933
116,-14.976003360663226,-224.13202115375677,93.32024652102523,77.04253983179048,8.24993774432407,-0.7421399739680624,243.25651979334918,72.91236862510942
117,-14.960816887341554,-224.0739994732834,93.3370742409367,75.53819441130356,8.644559362722397,-0.3919490269841764,243.20865074536388,70.30411373314679
118,-14.936541967573842,-224.01892275867345,93.3617773069812,73.82588814061684,8.992883908178063,-0.06492433801870678,243.16603534209077,67.5363264743723
119,-14.904185566226458,-223.96664193180848,93.394326960744,71.88910274082924,9.293883867342753,0.23947015892378676,243.12858169260076,64.63152513909091
120,-14.86493752829253,-223.9169818359726,93.434624451587,69.71265689110642,9.548533223970782,0.5225970979442998,243.09615705509623,61.6173921103755
121,-14.820146334488314,-223.86975334195867,93.48249735751868,67.28294864382644,9.759639298970706,0.7866378136650495,243.06859625799984,58.526543778978386
122,-14.771290726278702,-223.8247652062315,93.53769392518369,64.58817442281494,9.93163155358387,1.0345463576117777,243.04570889319862,55.39615624445188
123,-14.719947591259626,-223.78183640255958,93.5998751594713,61.61852575266825,10.070320409253227,1.2699665779390723,243.02728586595242,52.26745148592338
124,-14.667757028205466,-223.74080957586145,93.66860443858302,58.3663647997842,10.18263796254652,1.4971157748498718,243.0131058710852,49.18505185958631
125,-14.616385890943715,-223.70156607532707,93.74333479191488,54.82637966475968,10.27637053563651,1.7206402863936563,243.00294235187974,46.19621402450107
126,-14.567491195853759,-223.66404272704025,93.8233945044131,50.995720163558026,10.359890677149155,1.945449559351669,242.99657143214804,43.34995667262348
127,-14.522684640765904,-223.62825005793383,93.90797218172102,46.87411451067855,10.441893966888701,2.1765357338123668,242.99378107020678,40.69609962210274
128,-14.483499247307774,-223.59429111754505,93.99610269496837,42.46396683133506,10.531144160094062,2.418785572279989,242.9943812554707,38.28423480937292
129,-14.451358854047243,-223.56237951556187,94.08665550258763,37.77043483443894,10.636228999690383,2.676790937401101,242.9982145916883,36.1626524350769
130,-14.427550839950376,-223.53285495248736,94.17832674361163,32.801486375183394,10.765328392457427,2.954663312016513,243.0051662336154,34.377247948047255
131,-14.413202058445538,-223.5061944025406,94.26963624325053,27.567933088233783,10.925996486127021,3.255857304728271,243.0151719109125,32.97043759897118
132,-14.409257620074463,-223.4830171790413,94.35893020709935,22.083438809624393,11.124959416997479,3.5830077379896923,243.02822267588283,31.980111821584256
133,-14.416462044452745,-223.46408240014068,94.44438999991438,16.364500174291997,11.36793100992323,3.937784753404835,243.04436512217427,31.43865655583717
134,-14.435342501176569,-223.45027794950786,94.5240471759566,10.430396619104684,11.65944930728678,4.320771421491006,243.06369627635692,31.37207262189173
135,-14.466194295837582,-223.44260084864106,94.59580496396829,4.303107033871128,12.002737242531847,4.731368580054402,243.08635316130358,31.7992221083356
136,-14.509069242141214,-223.44212980858717,94.65746661313057,-1.9928095185115753,12.399590872241735,5.167731825183462,243.11249792127774,32.73122816248992
137,-14.563767916464025,-223.44999137923688,94.70677108396713,-8.430371178733212,12.850298262095409,5.6267454152182745,243.1423000495557,34.1710503959338
138,-14.629836914104011,-223.4673214855006,94.74143622502845,-14.980370173943081,13.353591427399987,6.104037072273801,243.17591747886502,36.113252378285644
139,-14.706572102251421,-223.49522428221596,94.75920875644645,-21.611609466151638,13.906632799743923,6.594036209164915,243.21347810596222,38.54397066234909
140,-14.793028553663047,-223.53473024591918,94.7579193582766,-28.29117797243941,14.505036706724265,7.090076092192405,243.2550628977828,41.44108700898527
141,-14.888037453190982,-223.58675532208758,94.73554035909024,-34.98476169170928,15.142925445038953,7.58453813790415,243.30069130219206,44.77459775679662
142,-14.990229932335426,-223.65206282527356,94.69024323695596,-41.65698705180811,15.813018758755018,8.06903425790448,243.3503094454921,48.50716753361547
143,-15.098067590715997,-223.73122963391802,94.62045339444538,-48.27179266748497,16.506754911121014,8.534621176492662,243.40378154199155,52.59484950165499
144,-15.20987930706323,-223.8246179565739,94.52490020999889,-54.79282653711323,17.214441016857883,8.972039103993298,243.46088490005874,56.98795131346966
145,-15.323903612394057,-223.93235358478677,94.402660895722,-61.18386701524638,17.925429806263644,9.371966137402712,243.52130876448902,61.63202451979543
146,-15.438335356483286,-224.054311216036,94.25319702364978,-67.40926688061624,18.628319477194854,9.725279329005337,243.58465702794322,66.46895451449357
147,-15.551374876056768,-224.19010719638592,94.07638269103302,-73.43441977710586,19.311172771105138,10.023313486301573,243.6504546405326,71.43812746649266
148,-15.661277647505086,-224.3390998415179,93.87252326932418,-79.22624686758192,19.96175091231016,10.258109307853745,243.71815734940026,76.47764958210416
149,-15.766402546709896,-224.500397301558,93.6423636592412,-84.75369868830697,20.567757580433465,10.422643215712952,243.78716422824797,81.52559227617964
150,-15.865257133153612,-224.67287277405885,93.38708503337112,-89.98826324162444,21.117087658123694,10.511032047872764,243.85683235726646,86.52123454499358
151,-15.956538551580921,-224.85518676201573,93.10828920280542,-94.90446693913711,21.598075149663558,10.518706606002787,243.92649299001687,91.40627149719604
152,-16.039168659084424,-225.0458159679118,92.80797006417635,-99.48035092388609,21.999734426444668,10.442549032225767,243.9954685688907,96.12595630143262
153,-16.112322008136058,-225.24308823824754,92.48847218243897,-103.69790238385684,22.311988818575507,10.280990207672433,244.06309001494853,100.63014245246144
154,-16.175445500676947,-225.4452226892933,92.15243742857568,-107.54341936400216,22.52588056961756,10.034064795776644,244.12871379510014,104.87419477252776
155,-16.22826891447776,-225.6503737752996,91.80274149624648,-111.00778861458568,22.633756423304007,9.703423090690414,244.19173829756704,108.81974119974515
156,-16.270806021633202,-225.85667769475552,91.44242278675985,-114.0866591404441,22.629423776163673,9.292300358154428,244.25161899538773,112.43524308915084
157,-16.303346539786133,-226.0622992631842,91.07460646107297,-116.7804989805437,22.50827350039467,8.805445749688028,244.30788178007344,115.69636907245578
158,-16.326439600737334,-226.26547722237282,90.70242647439458,-119.09452877604318,22.26736717567407,8.249014024270096,244.36013373128756,118.58616587023039
159,-16.340869787846188,-226.46456590177894,90.32894821939902,-121.03853222057694,21.905488392829678,7.630424183599142,244.40807048377908,121.09502811279951
160,-16.34762707506325,-226.65807129925014,89.95709407679917,-122.6265499052487,21.42315974050296,6.958189745835876,244.4514793797117,123.22047752093982
161,-16.34787216490285,-226.84468008632334,89.58957382322546,-123.87646883911555,20.822628771789834,6.241725786758494,244.49023786950855,124.96676913578243
162,-16.342898748612505,-227.0232806557767,89.22882158072,-124.8095246199536,20.107827456786175,5.491138078997419,244.52430708098356,126.34434820883529
163,-16.334094081806946,-227.1929759450641,88.87694082935546,-125.44973655787649,19.284310264091534,4.7169996751150824,244.55372096358641,127.36918556813778
164,-16.32289899898227,-227.35308834223926,88.53565894399529,-125.82329786160872,18.359176065501178,3.9301201595431476,244.57857189038302,128.06202162568525
165,-16.310768183102233,-227.50315748552345,88.20629274324673,-125.95794327315618,17.34097853486924,3.141312616010853,244.59899404325955,128.44754969797785
166,-16.29913130655744,-227.64293211105985,87.8897265256871,-125.88231544671825,16.23962867603719,2.3611631941239035,244.61514619479726,128.55356817329928
167,-16.289355636369663,-227.77235727123772,87.58640385771142,-125.6253492481489,15.06629173864528,1.5998080494062834,244.62719556782073,128.41012865737898
168,-16.282710770960836,-227.89155834923776,87.2963339885706,-125.2156904081415,13.833279309858519,0.8667223713655676,244.63530440492013,128.0487040226267
169,-16.280336164506647,-228.00082338789525,87.0191133221213,-124.68116194284548,12.553935995117794,0.17052616505572377,244.63962079594228,127.50139666861932
170,-16.283211859327352,-228.10058521865838,86.75396180059963,-124.04828869348312,11.242518911707107,-0.48118863994842065,244.64027505281382,126.8002035406175
171,-16.29213245986344,-228.19140453623498,86.49977310861412,-123.34188737522203,9.914067278699704,-1.0820053466129065,244.6373822379983,125.97635072310565
172,-16.307684145617323,-228.27395435108537,86.25517626891494,-122.58472674645787,8.584258792873113,-1.626799769318702,244.6310502990762,125.05970684359517
173,-16.33022470870734,-228.3490053587951,86.01860491661381,-121.79725993528268,7.269249337893903,-2.1118239111790613,244.62139198994777,124.07828114805481
174,-16.359867166839383,-228.41741108760183,85.78836986765191,-120.99742858820557,5.985492935000661,-2.5347530166382604,244.60853792993464,123.05780897308645
175,-16.396468156809977,-228.4800915412649,85.56273070273075,-120.20053639358822,4.749539665166552,-2.894694053927055,244.5926480990276,122.02142451793071
176,-16.439622763266392,-228.53801446774048,85.33996271587381,-119.41918782532773,3.57781046524368,-3.1921551313196597,244.57391970567693,120.98941846624218
177,-16.488667383974153,-228.5921741559062,85.11841645199785,-118.66328680471959,2.4863491342972845,-3.4289770513567435,244.5525903963879,119.97907627934039
178,-16.542691502961716,-228.64356855837275,84.89656801312339,-117.94008945321394,1.49055356647569,-3.6082299574062593,244.5289369194816,119.00459194397371
179,-16.600558140252677,-228.69317632633647,84.67305915359192,-117.25430516609494,0.6048901515621433,-3.7340796030639387,244.5032703409783,118.07705156739746
180,-16.660931912297663,-228.74193576519752,84.44672675080906,-116.6082407676202,-0.15740265707865508,-3.811629002761003,244.47592947619543,117.2044813538197
181,-16.722313424748826,-228.7907276123875,84.21662157177863,-116.00198334428914,-0.7846136820858765,-3.846742017962562,244.4472742244574,116.39195499051792
182,-16.783078941630524,-228.84036297321734,83.98201655284312,-115.43361824779855,-1.2668518908940964,-3.8458557790481414,244.4176800974169,115.641756066497
183,-16.841524511389707,-228.89157695834305,83.74240522276142,-114.89947938176451,-1.5963226960789874,-3.815788743418851,244.3875346545918,114.95359151559258
184,-16.895913700217324,-228.94502777614017,83.4974914535397,-114.39442891468535,-1.7675776707226176,-3.76355067526346,244.3572360065581,114.3248519107168
185,-16.944527765477982,-229.00130044358806,83.24717237941427,-113.91216283739331,-1.7777283923928646,-3.69615998080373,244.32719318956347,113.75091358859903
186,-16.98571661802515,-229.06091399441334,82.99151693207428,-113.4455373693128,-1.626616234082039,-3.620472770011577,244.2978281136424,113.22547611821203
187,-17.017948419687947,-229.12433093693937,82.73074267613018,-112.98690933736259,-1.3169311488825324,-3.5430268763073864,244.26957870725872,112.74092675472771
188,-17.039855323856184,-229.19196749677698,82.46519328737125,-112.52848161760049,-0.8542737028299423,-3.469902952159761,244.24290253654635,112.2887215432066
189,-17.050272856920262,-229.2642029142814,82.19531829377203,-112.0626429038832,-0.24715576269917003,-3.4066037295685803,244.21827968373887,111.8597709990771
190,-17.04827081061159,-229.34138608795146,81.92165590066767,-111.58228981363735,0.49306358298590064,-3.357951633109973,244.1962134471175,111.4448171487816
191,-17.03317426599198,-229.42383834227908,81.64481895929131,-111.08111897181011,1.3523089229883667,-3.3280042074863156,244.17722768197203,111.03478847127597
192,-17.00457443212188,-229.51185185463623,81.36548355943067,-110.55387742580933,2.3139865338326207,-3.3199863111559957,244.16186019913582,110.62112013046489
193,-16.962330067634625,-229.60568397802328,81.08437954439017,-109.99656153052268,3.3592475712403513,-3.3362377630216775,244.15065231871625,110.19602881502121
194,-16.906560918689888,-229.70554817965936,80.80228231983698,-109.40655707300108,4.467311990047912,-3.37817512717709,244.14413520393157,109.75273425835508
195,-16.837634627295717,-229.81160256131602,80.52000526417132,-108.78271652647155,5.6158462832606935,-3.4462665289862944,244.142813808279,109.28562272169981
196,-16.756148144938997,-229.92393697804502,80.23839184182876,-108.12537258323236,6.78138618566968,-3.540018681254233,244.1471492126332,108.79035102263175
197,-16.662904272986076,-230.04255972839243,79.9583065763371,-107.43629021592827,7.939794388111131,-3.657975560415881,244.1575400694865,108.2638927826056
198,-16.55888389136068,-230.16738472855258,79.68062447954155,-106.71856219765303,9.066743087838395,-3.797728432582026,244.17430394799962,107.70453120647454
199,-16.445214789906643,-230.29821999111337,79.40621897454548,-105.97645507500205,10.138211552334539,-3.9559372785263656,244.19765945003428,107.11180470581131
200,-16.323138560584304,-230.4347581243516,79.13594846851693,-105.21521394071449,11.130989351975044,-4.128364140129783,244.22770993788384,106.48641293710044
201,-16.193977398759017,-230.57656953790317,78.87064164917228,-104.44083499506733,12.023176204609747,-4.309919429000055,244.26442967736165,105.83009133524831
202,-16.059102674181858,-230.72309908128935,78.61108157127512,-103.65981484867422,12.794669354584231,-4.494722642963132,244.30765322791083,105.1454620044738
203,-15.919906810169609,-230.8736668332543,78.35798873924688,-102.87888484206172,13.427629047575385,-4.676179077013387,244.35706891900094,104.43586791537112
204,-15.777779563636562,-231.02747361616002,78.11200360972312,-102.10473743311384,13.906911984145337,-4.847073914953942,244.4122171496477,103.70519584604563
205,-15.63408937149379,-231.1836115538755,77.87366918759463,-101.34375011947039,14.220461820595524,-4.999684540266895,244.47249405165496,102.95769160848808
206,-15.490169979972066,-231.34107970585043,77.64341461561794,-100.60171070278179,14.359645180421873,-5.125911022016621,244.5371608249277,102.19776914808023
207,-15.347312002711385,-231.49880453559285,77.42154076740067,-99.88354634508714,14.31952157869599,-5.217423528546555,244.60535878792075,101.42981352247382
208,-15.206758413620493,-231.65566467206173,77.2082087952502,-99.19305825362366,14.09903631216733,-5.2658239908622955,244.67612984067628,100.65797702746113
209,-15.069702488512187,-231.81051908639972,77.00343237137017,-98.53266432968469,13.70112673503418,-5.26281794056663,244.7484416192853,99.88596822868833
210,-14.937286530317493,-231.96223749825126,76.8070740328854,-97.9031538480154,13.132734379568527,-5.200391479684577,244.8212162120372,99.11683551403381
211,-14.810599834116465,-232.10973156616703,76.61884567896504,-97.30346092951845,12.404718084618635,-5.070988129776358,244.89336095260398,98.3527497646967
212,-14.690674698795378,-232.25198517765426,76.43831300855942,-96.73046659627514,11.53166667840716,-4.867680899554075,244.9637995174703,97.59479424702008
213,-14.578479851416576,-232.3880820297723,76.26490362541887,-96.17884173675216,10.53161374905015,-4.584336040456561,245.03150145198558,96.84277303038445
214,-14.474911365123711,-232.51722886447456,76.09791859052422,-95.64094464458522,9.425661339311505,-4.21576623838738,245.09550847664687,96.095051356583
215,-14.380781847254898,-232.6387732178053,75.93654717941871,-95.10678654365478,8.237523535436601,-3.7578720858884656,245.15495643243503,95.34844191935096
216,-14.296809154486944,-232.75221514267108,75.77988446943314,-94.5640766925562,6.993004390773776,-3.20777136384871,245.20909228233165,94.5981498556498
217,-14.223606065087473,-232.85721280266785,75.62695132961863,-93.99835558522246,5.719427134110099,-2.5639157871383595,245.2572859953733,93.83778665259932
218,-14.161672207376787,-232.95358201625447,75.47671654296418,-93.39322084804392,4.445033054902037,-1.8261944115613902,245.29903735413404,93.05945956118842
219,-14.111389168067882,-233.04128990347033,75.32812099366289,-92.73064605212065,3.198368774746193,-0.996022024427528,245.33397784053932,92.25393890719161
220,-14.073019221773816,-233.12044296340144,75.18010383070083,-91.99138812834558,2.007679746233213,-0.07640982938235623,245.36186789270963,91.41090128333127
221,-14.046707715088218,-233.19127024434647,75.03163021408689,-91.1554747142796,0.9003258288800012,0.9279851741945822,245.38259002917187,90.51924237924976
222,-14.032488904086536,-233.25410267647337,74.88171979749816,-90.20275890126004,-0.09776800179620525,2.010836408685748,245.39613857380976,89.56744952602294
223,-14.030294921113573,-233.30935004977903,74.72947463578049,-89.1135257057341,-0.9626157895892657,3.164154246875168,245.40260696022517,88.54402112385101
224,-14.03996740723368,-233.3574774723696,74.5741048981276,-87.86913217781252,-1.6726222324227114,4.3783276543180945,245.40217383378305,87.43791797772349
225,-14.061271158255447,-233.3989833016784,74.41495084615872,-86.45266123646086,-2.2089764504029676,5.642205407301273,245.39508934540237,86.23903000961087
226,-14.093908974181899,-233.43438040271536,74.25150002458403,-84.8495678899865,-2.555983854145287,6.943220498008684,245.3816630540546,84.93864063407132
227,-14.137536847792544,-233.4641821865368,74.08339923334366,-83.04829533253,-2.7013330767917907,8.26755993660505,245.36225466996734,83.52987013652194
228,-14.191778677808397,-233.48889432307502,73.91046132255603,-81.040837529036,-2.636295857432678,9.600380195808752,245.33726848834974,82.00807868963838
229,-14.256239795737491,-233.50901240489964,73.73266712517255,-78.82322453999116,-2.35585867716727,10.92606606518015,245.3071518630657,80.37120938094957
230,-14.330518692861926,-233.52502523829537,73.55016303915865,-76.39590736548222,-1.8587858188502953,12.228527861727652,245.27239756049292,78.62005214206307
231,-14.414216394285315,-233.53742287353472,73.36325501663772,-73.76402087504283,-1.1476144149458984,13.491529091524248,245.23354937142454,76.7584111124201
232,-14.50694297595739,-233.54670795048796,73.17239998553698,-70.93750665428064,-0.2285831384136854,14.699034134476495,245.19120993056765,74.7931609480117
233,-14.608320799910855,-233.55340848641052,72.97819582587002,-67.93108236595485,0.8885024484325076,15.83556362401998,245.1460492972529,72.73418192191718
234,-14.717984151828357,-233.55808996857124,72.78137078916122,-64.76405037057948,2.1904634332314648,16.88654411547787,245.09881253330576,70.59416924245444
235,-14.835575101424636,-233.56136458231902,72.58277275938536,-61.459945641537466,3.6609943539751173,17.838638519543053,245.0503243419096,68.38831861206516
236,-14.960735637224433,-233.56389559461874,72.38335825145728,-58.04603104560795,5.280956946265231,18.680044648890572,245.0014888723012,66.13389728580131
237,-15.093096507280501,-233.56639530289846,72.18418071101661,-54.552656261661795,7.028714303163871,19.400750933131818,244.95328308679922,63.84971719161149
238,-15.232263631826738,-233.56961554410205,71.98637751500881,-51.01250428782359,8.880499066979109,19.992740630221956,244.90674261749135,61.55553336576974
239,-15.37780327201787,-233.5743305440561,71.79115500781538,-47.459755952011335,10.81080977095754,20.450138441867956,244.86293978377347,59.27139637052003
240,-15.529227295236929,-233.58131282727234,71.59977096625467,-43.929207449723364,12.792830201816857,20.769296112860044,244.8229543600609,57.01699088635938
241,-15.685979964923861,-233.59130385345782,71.4135141259432,-40.455378103015114,14.79886736082658,20.948816180574866,244.78783865666657,54.81099377278136
242,-15.847427740155952,-233.60498180178087,71.23368078393409,-37.07164487220898,16.800803884652527,20.989515426969465,244.75857930946802,52.6704832678651
243,-16.0128534962963,-233.62292933664753,71.06154895248197,-33.809436692434396,18.770560452001895,20.894331729828355,244.73605869631368,50.61042680471457
244,-16.1814562765278,-233.64560418347338,70.89835103502143,-30.6975160119564,20.680562802679166,20.66817987725013,244.72101901936708,48.6432687816528
245,-16.352357176577616,-233.67331493624255,70.74524636709383,-27.761367865620944,22.504206717385888,20.31776341721329,244.71403178210875,46.7786323545058
246,-16.524611323267138,-233.70620386960908,70.6032949490759,-25.022709346650547,24.216312849704014,19.851350680117594,244.71547472650573,45.023141684615396
247,-16.69722521265176,-233.7442378752714,70.47343323681088,-22.499125264128793,25.79356185475448,19.278523736875684,244.72551749591315,43.380363724507774
248,-16.869178077351037,-233.78720808222877,70.35645221663246,-20.20382976940518,27.2148990664255,18.609909338626128,244.74411653199965,41.85086216593294
249,-17.03944563246867,-233.8347381204752,70.25297751787576,-18.145549246774053,28.46189740441428,17.856900968362606,244.77101898354118,40.43235119486195
250,-17.207024545983813,-233.88630021923365,70.1634512077499,-16.32851891649057,29.519067614654002,17.03138111887204,244.8057746392411,39.11993359620075
251,-17.370956157122066,-233.9412375069125,70.08811517620651,-14.752584210511817,30.3741064811506,16.145452776175926,244.84775419736775,37.90640654893288
252,-17.53034815891302,-233.99879026666605,70.02699646928824,-13.413397652493265,31.0180760792981,15.211188680577298,244.89617174205625,36.782618770924046
253,-17.68439312391086,-234.05812369579866,69.97989529106258,-12.302702168446759,31.44551008457366,14.240406082509208,244.95010921399094,35.73786392799085
254,-17.832382947710446,-234.11835497373372,69.94637649660743,-11.408691901036173,31.654446215771667,13.244473368661586,245.0085409494945,34.760296849555544
255,-17.97371854716528,-234.17857810175857,69.92576529669681,-10.716441237086338,31.6463867163768,12.234153204639703,245.07035697842733,33.8373606353
256,-18.107914430739996,-234.23788588717477,69.91714777638228,-10.208391662823717,31.426191020045525,11.219484806746843,245.13438462397258,32.95621383146609
257,-18.234598017974786,-234.29538937013604,69.91937678800046,-9.864884257332825,31.001906177650362,10.209705647500842,245.19940883588356,32.10414729029862
258,-18.353503861168097,-234.35023562540357,69.93108370325602,-9.664723317934252,30.384541288177445,9.213210441695702,245.26419229039195,31.26898018147375
259,-18.464463276438128,-234.4016249559052,69.9506962661038,-9.58575413053304,29.587792407629294,8.237542931663448,245.32749632650837,30.43942428494519
260,-18.567390306816815,-234.4488280468841,69.97646242674021,-9.605435758864068,28.627724614467706,7.289414080830565,245.3881032892899,29.605405635776698
261,-18.662265285811607,-234.49120299451747,70.00647967968814,-9.701388528426566,27.522418330623825,6.374738952603538,245.4448401518811,28.758333167559957
262,-18.749117400175308,-234.52821162718112,70.03872910755435,-9.851896191236353,26.291587684844124,5.498683848302186,245.49660273580014,27.89130544219176
263,-18.828007544865574,-234.55943432447725,70.07111308926616,-10.03634494883046,24.956179613501064,4.665715232548105,245.54237956999148,26.999249029790352
264,-18.899012533274476,-234.58458248810666,70.10149561532837,-10.235585587220738,23.537963395359064,3.879642618343114,245.58127435842883,26.07898562848682
265,-18.96221151608126,-234.60350778718941,70.12774442902702,-10.432210496131695,22.059121131145016,3.1436489194343085,245.61252605753666,25.12922926974586
266,-19.01767535207686,-234.61620727597904,70.14777457614228,-10.610743526892456,20.54184990109518,2.460303738654833,245.6355256346917,24.150519280481664
267,-19.065459611088908,-234.6228235397993,70.1595930374413,-10.757746615874813,19.007985654195586,1.8315574889942468,245.6498286552778,23.145098320928255
268,-19.10560172112342,-234.62363923540303,70.16134375771452,-10.861852134466787,17.47865730320829,1.2587169112781362,245.65516293366042,22.116747258703118
269,-19.138122423967804,-234.61906576151557,70.15135176969682,-10.913733573589088,15.973977298723996,0.7424052205768251,245.65143063905532,21.07058968106549
270,-19.163031283193096,-234.60962626308282,70.12816462145791,-10.906029264549732,14.512772483604017,0.2825125468486594,245.63870452558413,20.012878541396997
271,-19.180335638480017,-234.5959336761701,70.09058914320156,-10.833234407361376,13.112356587161258,-0.12185573080643687,245.61721835998634,18.95077597643259
272,-19.1900521277745,-234.5786650278431,70.03772166400884,-10.691575868915697,11.788343566944329,-0.47242397591659513,245.58735210138335,17.892135045949686
273,-19.19221965384153,-234.55853367306182,69.9689700210405,-10.478882273703476,10.554499365835794,-0.7717755397833729,245.54961287629447,16.84528949727256
274,-19.186912476334644,-234.53626151419962,69.88406610825308,-10.194459186128837,9.422628645894767,-1.0233577782545842,245.50461323473922,15.818855130812677
275,-19.174252001247048,-234.51255341564305,69.7830682867403,-9.838976088342871,8.40249268777343,-1.231455760338229,245.45304848372734,14.821544311674264
276,-19.154415820881837,-234.48807585311897,69.6663536152215,-9.414368796005238,7.501754852497332,-1.4011296820186405,245.39567490559156,13.861993833702465
277,-19.12764269833917,-234.46344124947476,69.53460040975301,-8.9237582249784,6.7259507356010655,-1.5381135664451449,245.3332902727235,12.948605721930361
278,-19.09423261740469,-234.43919859360238,69.38876203586243,-8.371384151268092,6.078481265780086,-1.6486756048062483,245.26671740039862,12.089400512350416
279,-19.054541721139415,-234.41583011051057,69.23003316089881,-7.762550810538019,5.560628222765102,-1.7394432674664075,245.19679084196196,11.291882817638037
280,-19.00897270759654,-234.39375315605457,69.05981010245264,-7.10357989814751,5.171592646726723,-1.8171989534817046,245.12434644905966,10.562919339009884
281,-18.957961773634302,-234.37332616285852,68.87964735721842,-6.401765827435147,4.908557208375395,-1.8886542588986257,245.05021336827417,9.908629785856633
282,-18.901963425170546,-234.35485727313107,68.69121263570509,-5.665327992522615,4.76677379574233,-1.9602126692747324,244.97520795472087,9.334291363490655
283,-18.84143450392722,-234.33861420609162,68.4962426414155,-4.90335518304358,4.739677373002587,-2.0377314062620857,244.90012897430918,8.844257585038319
284,-18.776818717561056,-234.32483392947927,68.2965015552574,-4.125738106799931,4.819026560287492,-2.1262932279197497,244.8257533965124,8.441892204472607
285,-18.708532849741946,-234.31373085611958,68.0937438958714,-3.3430870669073274,4.995070380408566,-2.229998317911386,244.75283212634199,8.129519087659276
286,-18.636955709370277,-234.30550261415132,67.88968317004237,-2.566633016226874,5.256739345982144,-2.351785225261517,244.68208525043667,7.908388775401849
287,-18.562420776036834,-234.30033297481833,67.68596740970379,-1.8081112343630477,5.5918577630337785,-2.493288360074453,244.61419678395657,7.778662235818524
288,-18.485213395911426,-234.29839212396504,67.48416217522563,-1.0796275628805585,5.987373093460676,-2.6547379799784974,244.5498093278512,7.739411843881636
289,-18.405573229851047,-234.29983484451918,67.28574086776564,-0.39350743691643114,6.42959769539933,-2.8349070368815226,244.48951919459054,7.788639129487389
290,-18.323702335679997,-234.30479721700095,67.09208140329856,0.23787207613706607,6.9044583599795395,-3.031107762650481,244.43387235730327,7.923308543652562
291,-18.239778659749867,-234.31339232924415,66.90446771058406,0.8022672256587832,7.397749687147393,-3.239239441290893,244.38336126166138,8.139396535032501
292,-18.153973926036063,-234.32570543021217,66.72409429336948,1.2877696759822432,7.895388195918924,-3.4538873650067967,244.33842237021184,8.431955508381074
293,-18.066474279216763,-234.34178899567831,66.55207220992973,1.683025841205155,8.383664786650774,-3.6684714353095815,244.29943432578474,8.795192497576432
294,-17.977501797760368,-234.36165825897496,66.38943507162952,1.977473114628103,8.849493534598118,-3.8754412455437275,244.26671675081275,9.222562423273839
295,-17.887335091806175,-234.3852878995842,66.23714387504317,2.161591820334344,9.280654794070282,-4.066512815317191,244.24052989533934,9.706875613535805
296,-17.796327446446675,-234.41261074374592,66.096089644813,2.2271704609052403,9.66603036746943,-4.232940510463505,244.22107556069645,10.240418977579063
297,-17.70492124678341,-234.44351939681218,65.96709302820851,2.167580192427082,9.995828127654542,-4.3658161762653505,244.20849985074423,10.815089916604844
298,-17.613657728837403,-234.47787153346044,65.85090016436666,1.9780525884851063,10.26179293497253,-4.456386273817271,244.2028981859651,11.422541667158635
299,-17.523181447831647,-234.5154990205476,65.74817439614557,1.6559529441697949,10.4573999171867,-4.496376959093946,244.20432257658643,12.054338211590855
300,-17.434239183935595,-234.55622025029805,65.65948376685573,1.201039909112764,10.578025285005301,-4.478316618830321,244.2127905114651,12.702116208481371
301,-17.347673271227368,-234.59985434703833,65.58528468739682,0.6157012953265024,10.621089087948441,-4.3958453201156,244.2282942744317,13.35775079540323
302,-17.26440957656531,-234.64623559692623,65.52590249452173,-0.09484448247266404,10.586163911717044,-4.244000838192478,244.25080930720827,14.01352179328449
303,-17.18544062097642,-234.69522658588926,65.4815097414749,-0.9223917412242021,10.475043547525626,-4.019471323893577,244.2803004185342,14.66227683910894
304,-17.111804619092226,-234.7467288707856,65.45210300701919,-1.8556454574909682,10.291766032825322,-3.72080526076257,244.31672496779842,15.297588188493922
305,-17.04456146701025,-234.80069025568315,65.43747889610316,-2.8801826834005553,10.04258607036891,-3.3485702056868325,244.36003237288574,15.913900243612417
306,-16.984766868227755,-234.85710781858558,65.43720985471158,-3.9784852043097727,9.73589268513313,-2.905452976964311,244.4101593567622,16.50666524575676
307,-16.933445771339112,-234.9160258860039,65.450620502273,-5.130049873290749,9.382069145300196,-2.3962954841929975,244.4670204150756,17.072465054284773
308,-16.891566098519682,-234.97752835913292,65.47676542712047,-6.311581486864712,8.993293676255844,-1.828062244682686,244.53049323451197,17.609117493573994
309,-16.860013506387354,-235.04172519779073,65.51440981198196,-7.497271094196402,8.583281285827338,-1.2097376868762253,244.60039927328697,18.115766284876894
310,-16.83956781888415,-235.10873338628923,65.56201481520063,-8.659160082866265,8.166969034736216,-0.5521535018554585,244.67648035471686,18.592953995831294
311,-16.83088185664323,-235.1786532262038,65.6177301638647,-9.767587134826261,7.760149292580094,0.13225142858859934,244.75837277371355,19.042677710816083
312,-16.834463508185603,-235.25154127799337,65.67939666235232,-10.791711221186915,7.379057868837104,0.8297335604278627,244.8455809525854,19.46842722293792
313,-16.850661810288845,-235.32738174089144,65.74456109429055,-11.700099406429644,7.039926315225874,1.525602085266083,244.93745307363898,19.875205366611457
314,-16.879657462030526,-235.40605849973284,65.810505342526,-12.461363714037157,6.758510084301541,2.204620891317004,245.03316134872276,20.269529527249883
315,-16.92145778513031,-235.48733031099474,65.87429070885351,-13.044827166799683,6.549606569191093,2.851442105153762,245.1316895719608,20.659412386755896
316,-16.975895907954353,-235.57081147354182,65.93281756774559,-13.421195963673629,6.426579266417318,3.4510557842287612,245.23183023827434,21.054318777157004
317,-17.042633951974807,-235.65595986809484,65.9828996275887,-13.563213126239605,6.400906136395324,3.9892383516141345,245.33219283559524,21.465094428814577
318,-17.121170097425715,-235.74207368040967,66.0213510971891,-13.44626908068158,6.481771259726166,4.452981149855345,245.43122411749974,21.90386175504579
319,-17.21084939442825,-235.8282976340362,66.04508394777275,-13.048946409448765,6.67571872623607,4.830880348117862,245.5272403977576,22.383877911808085
320,-17.310877957771904,-235.91363917504393,66.05121138528727,-12.353479060793092,6.986386179278291,5.113470589497192,245.61847123891096,22.919351413845618
321,-17.42033983481961,-235.9969946799527,66.03715288441599,-11.346110281117264,7.414332584343818,5.293487253813447,245.70311332439618,23.52521564875471
322,-17.538215622789668,-236.07718521941905,66.00073588149442,-10.017338165881064,7.956970730095373,5.366045873002444,245.77939270618447,24.21686061284392
323,-17.663402013793544,-236.15300055534703,65.94028944420796,-8.36204281518992,8.608609951451333,5.328731748247927,245.84563286911114,25.00982780262505
324,-17.794731765422323,-236.2232489961445,65.85472573494498,-6.379494436296733,9.36060895612267,5.181597762029046,245.90032520210218,25.919476940137624
325,-17.930993859977068,-236.2868098437394,65.74360569280937,-4.073247116828411,10.20163288221913,4.927073340181249,245.9421977941088,26.960636474091746
326,-18.070953668943474,-236.34268470285858,65.60718600090135,-1.4509281290244131,11.118003297118754,4.569792164601766,245.97027820155898,28.147251969093613
327,-18.21337282980394,-236.3900439043031,65.44644502904416,1.4760627593659033,12.094125233090452,4.1163502830415855,245.9839459707052,29.49204705936542
328,-18.357028386684863,-236.4282646406555,65.2630860274522,4.692925708660791,13.11297188610468,3.5750094119493636,245.98297117099222,31.006210286387574
329,-18.500730614926333,-236.45695806714699,65.05951650041824,8.181884110322338,14.156605426287593,2.955362194455102,245.96753598359706,32.69911794168722
330,-18.64333885870613,-236.47598351301133,64.83880358652931,11.922636792637938,15.206711496577345,2.2679767828671524,245.93823747496634,34.57809866227589
331,-18.783774657945873,-236.48544897965564,64.60460643681823,15.892817576318988,16.24512541336921,1.524037399116147,245.89607097853536,36.648241097533415
332,-18.921031456305652,-236.48569817024114,64.36108782711798,20.06844244097799,17.25432981941947,0.734995751121572,245.84239486300504,38.912242561869014
333,-19.05418034999649,-236.4772853130298,64.11280835818681,24.42432750305522,18.21790644512497,-0.08775427100021693,245.77887874897425,41.370294787500754
334,-19.182371718143372,-236.4609399233535,63.86460748275968,28.934464806501747,19.120928383200546,-0.9331689814629386,245.70743834370555,44.020002692057844
335,-19.304833095241975,-236.43752430414574,63.62147617944114,33.57234733281285,19.950283380412223,-1.7908075855159247,245.6301608833485,46.85633308832739
336,-19.420864110277922,-236.40798693949583,63.38842629316829,38.311239368243655,20.694922584999585,-2.651041086879479,245.54922559742215,49.871591973827194
337,-19.529829567873925,-236.3733149899003,63.17036137664227,43.12439310245768,21.34603262312535,-3.5052157160181294,245.4668236288869,53.05543099170567
338,-19.631151787708422,-236.33448891949507,62.971953381936395,47.98521669566241,21.897131740066694,-4.345771151538777,245.3850815435379,56.39488550484193
339,-19.72430325898927,-236.29244192870402,62.79752888079849,52.86740261415844,22.344093133968617,-5.166315350705555,245.3059920360123,59.8744481694108
340,-19.80880055352227,-236.2480263445037,62.65096772641629,57.745027407341425,22.685100658576243,-5.961658907179963,245.23135472711684,63.47618264664008
341,-19.884200207349433,-236.20198847802456,62.53561625603512,62.59263506316894,22.920543847621538,-6.727812531219458,245.16272909711986,67.1798819616846
342,-19.95009690046863,-236.15495278097112,62.45421632587526,67.38531566738823,23.052860715997532,-7.461951594182227,245.10140070635285,70.96327499469578
343,-20.0061238546537,-236.1074154534394,62.40885078647557,72.09878956116229,23.086337949495984,-8.162351836323976,245.04836099167724,74.80228282725915
344,-20.051955075418565,-236.05974694910486,62.40090556417229,76.709504920477,23.0268787990961,-8.828300431333021,245.00430011007947,78.67132442487267
345,-20.08730892444847,-236.01220212543302,62.43104830284378,81.19475404793425,22.88174917472,-9.459986724350266,244.96961156390802,82.54366869731959
346,-20.111952494541242,-235.96493623530486,62.4992234104889,85.53281094685859,22.659312086912777,-10.058377140203604,244.94440678425664,86.39182756762976
347,-20.125706347470448,-235.9180246775946,62.6046632033426,89.70309007608108,22.368759779135193,-10.625078935464172,244.9285375509626,90.18798241439052
348,-20.12844932145379,-235.87148443407273,62.74591458219171,93.6863236335677,22.019851751095864,-11.162197545429201,244.92162408431972,93.90443419909153
349,-20.12012321998117,-235.8252953184375,62.920880388512984,97.46475239106452,21.622665547358704,-11.672192182502554,244.9230867696522,97.51406585252472
350,-20.10073718510576,-235.77941940597645,63.12687442574214,101.02232314789714,21.18736578216681,-12.157734018806414,244.9321796663186,100.99080420496375
351,-20.070371510659264,-235.73381725212192,63.36068912671513,104.34488442630094,20.723995407645102,-12.621570700812246,244.9480241779572,104.31006800518026
352,-20.02918075085862,-235.68845983022968,63.61867482546606,107.42037118957782,20.24229170954044,-13.066400159855542,244.96964157369445,107.44918845005387
353,-19.97739629780534,-235.64333559380435,63.896829334518294,110.23896920155583,19.751528024179535,-13.49475587458718,244.99598346822953,110.38778921324119
354,-19.91532895318065,-235.59845264595893,64.19089599368849,112.79325019520525,19.260380871019482,-13.908905102883907,245.02595981583315,113.10811426967626
355,-19.843372142708112,-235.55383655979824,64.49646767421943,115.07827021747363,18.7768211904507,-14.310761238303021,245.05846434553396,115.59529380469945
356,-19.762006229482978,-235.50952483305716,64.80909357660802,117.09162519964684,18.30802767052296,-14.701811356740903,245.09239760166165,117.83754098686798
357,-19.6718039781051,-235.46555923150777,65.12438520620204,118.83345975610081,17.860319716143312,-15.083060119062289,245.12668785913877,119.82627513221168
358,-19.57343676261766,-235.42197739152672,65.4381177342924,120.30642725082951,17.439107472222503,-15.454991349290735,245.16031020526574,121.55616958097096
359,-19.46768070574533,-235.3788050332841,65.74632306442682,121.51560118064394,17.04885648509823,-15.81754866720498,245.19230405156523,123.02512531317291
360,-19.35542161779047,-235.33604996008685,66.04537129631309,122.46833989598562,16.693065066153157,-16.170136427449666,245.22178923629414,124.23417391667776
361,-19.23765739173967,-235.2936986789914,66.33203789129519,123.17410864413146,16.374253144336766,-16.511641905485043,245.24798069106683,125.18731600521932
362,-19.115496499477405,-235.25171606106818,66.60355467827264,123.64426484753784,16.09396223880036,-16.840479209961753,245.27020146300598,125.89130352241746
363,-18.99015154152083,-235.21004808278127,66.85764384753756,123.89181431760257,15.852766967021758,-17.154654786314673,245.28789381547128,126.35537643359041
364,-18.862927433260282,-235.1686273836034,67.09253513462319,123.93114761890881,15.650299029556319,-17.45185358645044,245.30062817067983,126.59096594533146
365,-18.735204595608863,-235.1273810993349,67.30696731299106,123.77776688318424,15.485284772135904,-17.72954405992037,245.30810970300254,126.6113774453517
366,-18.608418207157616,-235.0862401339814,67.500175757453,123.44801379452596,15.355597256611484,-17.985099164689256,245.3101823341549,126.43146661830052
367,-18.484034989996605,-235.04514871536108,67.67186818951649,122.95880895212396,15.258323383457977,-18.2159296356118,245.30682970084797,126.06732142368023
368,-18.3635291032356,-235.00407288648316,67.82219084610436,122.32741118716488,15.189846086066579,-18.419624760106917,245.2981725197738,125.53596066452224
369,-18.24835853065909,-234.96300673540225,67.9516873584404,121.57120273175288,15.145941017697224,-18.594094905076396,245.28446191415242,124.85505681452396
370,-18.139942892120725,-234.92197570188435,68.061252710938,120.70750273335949,15.121886536329106,-18.73770911348714,245.2660687658785,124.04268695779187
371,-18.039642981401396,-234.88103700636393,68.1520847506563,119.75340796236407,15.112585200295902,-18.84942039230267,245.24346981517988,123.11711164335942
372,-17.94874178803213,-234.84027784418498,68.22563563960854,118.72565621780625,15.112694381406953,-18.92887101026214,245.21723174126538,122.09657773558608
373,-17.868426558488416,-234.7998123052494,68.28356519687728,117.64050545091968,15.116762893681441,-18.976470372392697,245.1879946270786,120.99913852325113
374,-17.799771617167174,-234.75977799089233,68.32769730930094,116.51362048391579,15.119369711632544,-18.993438967263984,245.15645602799592,119.84248294555732
375,-17.743721952299975,-234.72033308109263,68.35997974827197,115.35995970785743,15.11526007455991,-18.98181355466075,245.12335644839496,118.6437661430381
376,-17.70107772565437,-234.68165426631543,68.38244704755753,114.19365632035222,15.09947384518784,-18.944411106479386,245.0894665312341,117.41943570021924
377,-17.67247986886422,-234.64393559640067,68.3971856715732,113.02789218127472,15.06746121834399,-18.884751805502535,245.0555758032531,116.18505159704222
378,-17.65839690427477,-234.60738797265958,68.40630054919025,111.87476653817234,15.015181908830325,-18.806944332699292,245.0224824618795,114.95510233036069
379,-17.659113131412614,-234.5722387332117,68.41188214582111,110.74516579878303,14.939185660090496,-18.715539426395296,244.99098345266194,113.7428239592067
380,-17.674718340715675,-234.5387305729542,68.41597355866988,109.64864334143525,14.836673909149042,-18.615359988190985,244.96186397399694,112.56003202212369
381,-17.705099264946934,-234.50711898193265,68.42053758921462,108.59331949148326,14.705544224072616,-18.51131757821941,244.93588562433538,111.4169777052234
382,-17.749933090108275,-234.4776675612566,68.42742426935357,107.585811141602,14.544420309362097,-18.408225826579812,244.91377272805826,110.32223911292321
383,-17.808683529411486,-234.45064091730526,68.43833975177519,106.63119837117317,14.352670765159878,-18.310621102413904,244.89619683703987,109.28265629700313
384,-17.88060016331763,-234.42629515672093,68.45481771856245,105.73303239313255,14.130419409455072,-18.222599871682302,244.8837597957407,108.30331542365928
385,-17.964721877909593,-234.40486618811988,68.4781944852407,104.89338582433015,13.878549012783841,-18.147680690872605,244.87697595148563,107.38758374743227
386,-18.059885233089737,-234.3865561131319,68.5095887899085,104.1129430985977,13.598699003192145,-18.088696805853413,244.8762541169327,106.5371934203531
387,-18.164738417862942,-234.37151807026194,68.54988691470128,103.39112608650653,13.293256320739362,-18.04772291132266,244.88187986591345,105.75236889873288
388,-18.277761048820064,-234.3598400762924,68.59973338769458,102.72624778164867,12.965337373451478,-18.02603695884306,244.8939987808537,105.03198999709619
389,-18.397289466264372,-234.35152870956196,68.65952711970144,102.11568534756924,12.618758191737433,-18.024115353903177,244.9126014057763,104.37378063416992
390,-18.521546543928054,-234.34649380358172,68.72942247464798,101.5560629719462,12.257989540065582,-18.04165787296784,244.93751082425783,103.77451216489133
391,-18.64867455832614,-234.34453549760246,68.80933454231571,101.04343487656344,11.888093953135503,-18.0776373890976,244.9683738530874,103.23020996021566
392,-18.776769500767344,-234.3453349098365,68.89894788510146,100.57345942368539,11.514642369677812,-18.130369005093463,245.00465675260028,102.73635252267295
393,-18.90391537266688,-234.34844940934227,68.99772827124316,100.14155642428793,11.143609175035976,-18.197593316633505,245.04564615579795,102.28805377318432
394,-19.028217365054743,-234.35331310126278,69.10493724950445,99.74304138982605,10.781245983024332,-18.2765690808229,245.0904556949506,101.88022108133946
395,-19.14783323337638,-234.35924278701296,69.21964965632448,99.37323248862049,10.433936313456353,-18.364171355819902,245.13803856208904,101.50768400751345
396,-19.261002533977404,-234.36544934015834,69.34077415312446,99.02752822795992,10.108035269930168,-18.456992060273336,245.18720595922707,101.16529138915227
397,-19.366073587840212,-234.37105419198326,69.46707675081198,98.70145619124251,9.809700075476721,-18.55144076448476,245.23665113206732,100.84797708276598
398,-19.46152800324025,-234.3751104813423,69.59720714639514,98.39069534879683,9.544718549975377,-18.64384421996236,245.28497850809165,100.55079713459384
399,-19.546002404701905,-234.37662837771845,69.7297275658291,98.09107641755132,9.318343142311079,-18.730543526222203,245.33073736675527,100.2689432434056
400,-19.6183068864673,-234.37460410496612,69.86314357531937,97.79856636955138,9.135138002666517,-18.807987915530994,245.3724594126752,99.99773901185615
401,-19.677439745093952,-234.36805220853884,69.99593604726407,97.50924434842062,8.998845928636465,-18.87282401463855,245.40869956113914,99.73262656890958
402,-19.72259819540417,-234.35604049805642,70.12659331027464,97.21927676377868,8.912280941042685,-18.921979241821205,245.4380791036674,99.46915154563335
403,-19.753184952578994,-234.33772679604883,70.25364249499714,96.92489903609173,8.877250811023739,-18.952737812587948,245.45933013864345,99.20295397018998
404,-19.76881074432892,-234.31239618841153,70.37567911423588,96.62241034395028,8.894512182739538,-18.96280771900555,245.47133975358656,98.92977142116092
405,-19.769293004198705,-234.2794969954648,70.49139399180606,96.30818595037182,8.963759183991636,-18.95037703955851,245.47319202256827,98.64545892062179
406,-19.754651171813208,-234.23867327988205,70.59959687901726,95.97870950337779,9.083644758783501,-18.914158036021206,245.46420557170157,98.3460278142155
407,-19.725099120064367,-234.18979155662413,70.69923647941037,95.63062536329066,9.25183251801964,-18.853417716588357,245.44396443389425,98.0277035246834
408,-19.681035157178556,-234.13295962015653,70.7894169960012,95.26080876407002,9.465075779723843,-18.767993899574144,245.41234025591731,97.68699984020067
409,-19.623029855716887,-234.0685360333904,70.86941154653485,94.8664497290432,9.719319730401377,-18.65829627672289,245.36950456940468,97.32080556661249
410,-19.551811898165887,-233.99712962929172,70.93867280503287,94.44514530459197,10.009822287844184,-18.525292508287855,245.3159306060493,96.92647809474951
411,-19.468252417372685,-233.91958912591713,70.99684111075328,93.99499391305855,10.331289156002168,-18.370479970477767,245.25238484600484,96.50193776072967
412,-19.373348775501164,-233.83698353243824,71.04375017455685,93.51468547964747,10.678018532385039,-18.195844452280852,245.17990904947814,96.04575681920761
413,-19.268208928118582,-233.75057444205447,71.07943047022412,93.0035814488565,11.04405083076266,-18.00380786463181,245.09979392809052,95.55723738895836
414,-19.154037232833577,-233.66178161573535,71.1041103857876,92.4617797867894,11.423318637095118,-17.79716775503161,245.01354588006998,95.03647376053016
415,-19.032121937858793,-233.5721434577656,71.11821518149534,91.89016138736264,11.80979202499548,-17.57903190673092,244.92284834153756,94.48439577272974
416,-18.90382392357407,-233.48327402923871,71.12236377990875,91.29041572969476,12.197614418105562,-17.352751409451358,244.82951928877975,93.90279132890525
417,-18.770565770671855,-233.39681813444807,71.1173634143191,90.66504493050061,12.58122449193234,-17.121855335063216,244.73546628041998,93.29430732085544
418,-18.633819952550056,-233.31440582494542,71.10420211903607,90.01734632197416,12.955460224072066,-16.88998963183501,244.64264021349692,92.66242911793711
419,-18.495094929607074,-233.2376075075621,71.08403893510447,89.35137433804378,13.315642089765186,-16.66086213823708,244.5529887841904,92.01143935078586
420,-18.35591823202154,-233.1678907730175,71.0581916063886,88.67188293365072,13.657633386550499,-16.438194748673332,244.46841057551273,91.3463570785569
421,-18.217816242596903,-233.106580053475,71.02812146593887,87.98425013319334,13.977876583707255,-16.225682795085937,244.39071071748748,90.67285869847613
422,-18.082291123140184,-233.054820196923,70.99541508170691,87.29438665925436,14.273405411936414,-16.026960752331203,244.32155906909,89.99718220691841
423,-17.950795911256662,-233.01354495260819,70.96176210545863,86.6086309083725,14.541833253294424,-15.845572564464838,244.26245179272874,89.32601667152247
424,-17.8247091362137,-232.9834511820102,70.92892886760413,85.93363275703305,14.781319345403976,-15.684944303601268,244.21467707322296,88.66637899313449
425,-17.705310363733677,-232.96497937330045,70.89872766758879,85.27622873045114,14.990515341244938,-15.54835651196403,244.17928562855715,88.02548015308712
426,-17.593757916063236,-232.95830079628723,70.87298224585675,84.64331092623874,15.16849577391229,-15.438913421241963,244.15706657145344,87.41058311544508
427,-17.491069700480327,-232.96331144305648,70.85349033931499,84.04169181778018,15.314676893671562,-15.35950634674038,244.14852909293134,86.82885444660398
428,-17.398107719045413,-232.97963275569407,70.8419844128633,83.47796678760602,15.42872910957404,-15.312769069736305,244.15389032775795,86.28721166276954
429,-17.315566535738245,-233.00661897464093,70.84009171664643,82.95837607182551,15.510488777734396,-15.30102409841197,244.17306959473518,85.79216844295198
430,-17.24396584574674,-233.0433707126619,70.84929489510743,82.48866780598065,15.559875210815283,-15.326220313829483,244.20568900053806,85.34968019800715
431,-17.183647309060746,-233.08875414528305,70.87089445851377,82.07396407413606,15.576818479542986,-15.389864393822974,244.25108022182334,84.96499302118552
432,-17.13477579791445,-233.1414251150997,70.90597435845594,81.71863225364062,15.561202890451009,-15.49295015040695,244.30829717661297,84.64249966174525
433,-17.097345015439288,-233.19985752364144,70.95537165140642,81.42616448515459,15.512830075568813,-15.635891128429458,244.37613428639872,84.38560677158532
434,-17.071187103875438,-233.26237561219227,71.01965095098271,81.19906875530837,15.431404521418049,-15.818462235178764,244.45315014514614,84.19661822391909
435,-17.05598549871322,-233.32719000442466,71.09908420562502,81.0387757857894,15.316543121934362,-16.03975570429097,244.53769659803416,84.07663972067485
436,-17.05129001811261,-233.39243752255533,71.19363631401283,80.94556652469927,15.167808927995198,-16.298155429518744,244.62795333751478,84.02551006248497
437,-17.056533115436242,-233.4562246839343,71.30295713417482,80.91852533521272,14.984767676873085,-16.591331898115257,244.72196802891364,84.04176420348757
438,-17.071046415524513,-233.5166744556474,71.42638042034477,80.95552375879981,14.767064007171301,-16.916257977773935,244.81770166619341,84.12263241188724
439,-17.094077017409056,-233.57197533416135,71.56293003732745,81.05323878976165,14.514512665798112,-17.269244039493934,244.91307833885128,84.26407838680996
440,-17.12480338960267,-233.62043115455867,71.71133352789481,81.20720784056557,14.227198679738795,-17.645989638568373,245.00603789944645,84.46087703622106
441,-17.162350846250146,-233.66050937164266,71.87004291571432,81.41192015706926,13.905579574537333,-18.04164842180868,245.09458934163894,84.706730028656
442,-17.205806558038756,-233.6908851769763,72.03726254464262,81.66094177265632,13.550582429270117,-18.450903129755154,245.1768623097862,84.99441465033638
443,-17.254233935416565,-233.71047887672222,72.21098362551807,81.94706866916121,13.163688958364428,-18.868048403132715,245.2511541726352,85.31595941926359
444,-17.30668613675078,-233.71848432649992,72.38902486321182,82.2625009800456,12.747002874159232,-19.2870803095043,245.31597035426276,85.6628385961907
445,-17.362218436289556,-233.7143867042703,72.56907815269797,82.59902990596669,12.303295327615324,-19.70179269372869,245.37005596184594,86.02617713817877
446,-17.419899235424435,-233.69796846873697,72.74875805591486,82.94822844525774,11.836025960162804,-20.105881245608387,245.41241720765743,86.39695754968417
447,-17.478819644826572,-233.66930304409343,72.92565368124846,83.30163703019385,11.349338725602047,-20.493056321350856,245.4423317620929,86.76622034741304
448,-17.538101807447042,-233.62873655960652,73.09738152844956,83.65093574192828,10.848032922423512,-20.857164963213975,245.45934792085066,87.1252504546703
449,-17.596906340966527,-233.576858783891,73.26163761365778,83.98809596981064,10.337510716360232,-21.192321285671376,245.4632731821629,87.46574280455498
450,-17.65443929032778,-233.51446516268504,73.41624680214133,84.30550605456799,9.823702899405543,-21.493042654034763,245.45415344957064,87.77994169884467
451,-17.70995880483798,-233.44251248813154,73.55920712821349,84.59606733266644,9.312974896841494,-21.75438726024626,245.43224461245168,88.06074987960251
452,-17.762781526721863,-233.36207108953377,73.68872734391526,84.85325879549788,8.812015274053143,-21.972087240356238,245.39797872908014,88.30180466184218
453,-17.812288524213095,-233.27427653711595,73.80325698378768,85.07117013584102,8.327709342852433,-22.14267069299561,245.35192744385193,88.49751978524972
454,-17.85793061695112,-233.18028377485973,73.90150936699987,85.24450428110812,7.867000988542351,-22.263565935774547,245.29476554702492,88.64309291528014
455,-17.899233117980422,-233.08122638047746,73.98247859286418,85.36855172261683,7.436746491524529,-22.333181964995017,245.22723758409236,88.73448005149316
456,-17.935800177923607,-232.97818321518696,74.04545151585224,85.43914018733614,7.043564741118699,-22.350960164604977,245.15012999524086,88.76833956729469
457,-17.96731888751551,-232.8721540141104,74.09001515120617,85.45256455583235,6.693688613229356,-22.31739367638079,245.0642504177488,88.74195024203524
458,-17.993563092262203,-232.76404459109804,74.11605933022723,85.40550338137736,6.3928222014733525,-22.234012396978954,244.97041473566972,88.65310939216934
459,-18.014396624241474,-232.65466154466404,74.12377394458426,85.29492975506804,6.146007944841808,-22.10333323201433,244.86944154013338,88.50001889280283
460,-18.029775411315594,-232.54471587830255,74.11363994390153,85.11802535420397,5.957506579005612,-21.92877691703383,244.76215313422452,88.28116826254268
461,-18.039747640995877,-232.43483481196628,74.08641349914542,84.87210707136794,5.830691591589816,-21.71455431578814,244.6493821358197,87.99522483096145
462,-18.04445085302632,-232.32558102872386,74.04310336097952,84.55457548981774,5.767958904540059,-21.465526579727385,244.5319828642956,87.64094117228
463,-18.044104716564426,-232.21747834091263,73.98494209703495,84.16289355891503,5.770652069229396,-21.187044894568047,244.41084664271324,87.21708939555018
464,-18.038998587478815,-232.11104215301296,73.91335227805823,83.69460205624047,5.839003292600589,-20.884776716291704,244.28691971741927,86.72243044641127
465,-18.029473759893833,-232.00681235447138,73.82990885507103,83.14737575461936,5.972090970363298,-20.564526304052023,244.1612219094886,86.15572421832205
466,-18.015901275338337,-231.90538570955093,73.73629916801157,82.51912074600304,6.167815032878036,-20.232057859871666,244.03486371100308,85.51578305615406
467,-17.998656825392526,-231.80744457563367,73.6342822990346,81.80810943671409,6.422892283679373,-19.89292957057551,243.90905944998698,84.80156744771612
468,-17.978094569485144,-231.71377886235774,73.52564968118156,81.01314578151366,6.73287483751692,-19.55234623084125,243.78513430338506,84.01231874861385
469,-17.954521721124713,-231.62529850242038,73.41218886156284,80.13374979875938,7.09219537742417,-19.215036906982867,243.66452327264486,83.14772006269634
470,-17.928175627605384,-231.543034336784,73.2956520512764,79.17034762741692,7.494242900216934,-18.885162391242822,243.54876074389057,82.20807322668887
471,-17.899204791804987,-231.4681262254526,73.17773060167515,78.12445160062703,7.931471729026078,-18.56625513695124,243.439459948456,81.19447751012832
472,-17.867654946726756,-231.40179835473074,73.06003593822568,76.99881424998223,8.395544838847314,-18.261192068501558,243.33828253436369,80.10899441232513
473,-17.83346106288158,-231.34532301938364,72.94408688601881,75.79754099535056,8.877510119179865,-17.972198280215054,243.2468995062755,78.95478303626885
474,-17.7964461230807,-231.29997535636562,72.83130280093894,74.52614856296464,9.368005394688291,-17.70087742541677,243.16694577213576,77.73619204300086
475,-17.756327504322307,-231.26698224707877,72.72300152081277,73.19155978270518,9.857485263171917,-17.448262830133473,243.09997112224866,76.45879706945783
476,-17.71273159828415,-231.24746873703126,72.62040094213435,71.80203004094606,10.336460539304316,-17.214882260558788,243.04739051986456,75.12937648883128
477,-17.665216734326346,-231.2424050520464,72.524623024304,70.3670058517219,10.795739694598076,-17.000828978535285,243.01043628956972,73.75582312846883
478,-17.613303668076302,-231.25255691786577,72.43669910287106,68.89692121261105,11.226661366189818,-16.805832321060425,242.9901144052746,72.34699457764148
479,-17.556512126336546,-231.27844150909092,72.3575754189717,67.40294210543136,11.621307731419433,-16.629322487217664,242.98716666972095,70.91250953907584
480,-17.494401316996548,-231.3202909265152,72.28811775955322,65.89667326137726,11.972690084557438,-16.470486253133565,243.0020401236621,69.46250186003678
481,-17.426611938521884,-231.37802465013712,72.22911417023185,64.3898438388514,12.274900011903618,-16.328312543294803,243.0348645829926,68.00734703294903
482,-17.352907053208018,-231.4512320094149,72.18127491452432,62.89398978450051,12.523221847567928,-16.201628708834594,243.08543886345515,66.55737777200027
483,-17.2732092470946,-231.5391653938974,72.1452291858284,61.420150316763724,12.714204351463552,-16.089129644507402,243.1532260497426,65.12260557600848
484,-17.18763175536037,-231.64074470506856,72.12151845470234,59.97859426623264,12.845691630025721,-15.989402346051016,243.23735808214337,63.712463985478735
485,-17.096501584220274,-231.75457337110993,72.1105866688408,58.57858910815714,12.916815151633887,-15.900948210842053,243.33664988648923,62.33558670197786
486,-17.00037306831083,-231.87896594564876,72.11276781396377,57.22822170521552,12.927950210933602,-15.822204554258882,243.44962310231017,60.999630156307255
487,-16.90003080820526,-232.0119867426914,72.12827167747135,55.934275442901374,12.880641243162628,-15.75156579550765,243.57453905949538,59.71114591043401
488,-16.79648153965432,-232.15149820907706,72.15716904033455,54.70216410511949,12.777500913336336,-15.687403874460571,243.70944009858687,58.475504000227495
489,-16.69093514636663,-232.2952170618847,72.19937778519487,53.53591907294578,12.622087992784143,-15.628086895669488,243.85219781412795,57.29686457683744
490,-16.5847757183994,-232.4407757778297,72.2546513773447,52.438223736346536,12.418768900563329,-15.571994840350193,244.00056641986382,56.17819252927149
491,-16.479524229988595,-232.58578678807712,72.3225708657948,51.41048766501137,12.172567654451056,-15.517531441682497,244.15223916620008,55.12130848488042
492,-16.376794911964048,-232.72790663644042,72.40254110767506,50.4529530057276,11.889008985435572,-15.463131923395846,244.3049055514711,54.12696962564993
493,-16.278247579741542,-232.8648973780057,72.49379148593852,49.56482631758063,11.573959541759068,-15.407267124954883,244.45630696875597,53.19497468069473
494,-16.185538057272097,-232.9946826472614,72.59538110418784,48.74443000859769,11.233472348076653,-15.348445361133638,244.6042884771594,52.3242886014663
495,-16.10026853793558,-233.11539616889547,72.70620839586408,47.989368167481175,10.873639806510344,-15.285213941469546,244.74684467409787,51.51318318797726
496,-16.023939400243933,-233.22542106280116,72.82502518376798,47.29670164642686,10.500460319514604,-15.216162444074946,244.8821581986044,50.759389992591416
497,-15.957903793510376,-233.3234190299087,72.9504551566441,46.66312684792415,10.119722950024444,-15.13992958731716,245.00863006115608,50.06026125166038
498,-15.90332627568167,-233.40834921293433,73.08101623681804,46.085152130833954,9.73691345427816,-15.055214974617817,245.12490152647297,49.41293373527666
499,-15.861146820938975,-233.4794770577349,73.21514553451259,45.55926542690703,9.35714374332381,-14.960796242069883,245.2298675616868,48.81448966948278
500,-15.832051472362664,-233.53637384146717,73.35122498115913,45.082086760369776,8.985105627935281,-14.855551335651317,245.32268201006246,48.26210855506681
501,-15.816450726356512,-233.57890775529816,73.48760567423031,44.65049992400402,8.625048744817574,-14.738484871107081,245.40275483189777,47.753203865616925
502,-15.814466405234457,-233.6072275883291,73.62262946560449,44.26175847749983,8.280781804862086,-14.608756869195561,245.46974203087944,47.285539168934704
503,-15.825927336080534,-233.62174016811923,73.75464713416535,43.91356233679187,7.955695572148188,-14.465711711242072,245.52352919828573,46.857319028532515
504,-15.850373667635223,-233.6230827872906,73.8820333311583,43.60410239806362,7.652805153405006,-14.308905000964488,245.56420989749222,46.467250996959336
505,-15.88706922795286,-233.61209191106434,74.00319923236357,43.33207185655743,7.374808265058111,-14.138126161561116,245.59206036617184,46.11457608842615
506,-15.93502108283515,-233.58976950188512,74.11660439395513,43.0966441675837,7.1241552489704505,-13.953415001152333,245.60751220272016,45.7990663466347
507,-15.993005431885342,-233.5572482695986,74.22076955323648,42.89741896032709,6.903125859814282,-13.755071062942738,245.61112474544518,45.52098950365072
508,-16.059599016108997,-233.51575707856904,74.3142918884612,42.73433857171472,6.713907366489398,-13.543655213020589,245.6035587116649,45.28104215560411
509,-16.133215094783075,-233.46658769630537,74.39586352948956,42.60757910042912,6.558668351135869,-13.31998348565334,245.58555239528857,45.080254218414
510,-16.212142783030075,-233.4110640558336,74.46429309912435,42.51742096586555,6.439622737422091,-13.085113665740742,245.55790139096666,44.91986863540274
511,-16.294588355491268,-233.3505151284478,74.5185291379746,42.464104991545646,6.359078994356676,-12.840325478170918,245.52144245208365,44.80120148812859
512,-16.37871716264217,-233.2862522855279,74.55768374698927,42.447681112421805,6.319470077909914,-12.587095586380089,245.47704172898736,44.72548889667587
513,-16.46269495869966,-233.21955166188013,74.58105477592946,42.46785789483774,6.323360405296274,-12.327068824567453,245.42558729270132,44.69372832416543
514,-16.544727532496783,-233.15164156654936,74.58814529046094,42.52386199863072,6.373426987777526,-12.0620271317775,245.36798553362632,44.70652295498686
515,-16.623097582972626,-233.08369452373694,74.57867962472947,42.61431732430829,6.472412887855218,-11.793857498602442,245.30516076168297,44.76393855001344
516,-16.696197935594824,-233.0168231840219,74.5526157770511,42.737153728163904,6.623052560696464,-11.524519955289447,245.23805715590174,44.86538251410868
517,-16.76256052285027,-232.9520791652023,74.51015407325637,42.88955470853,6.827970407946176,-11.256016399752642,245.16764211153276,45.00951476269951
518,-16.820880966240484,-232.89045380140738,74.45174200699446,43.06795221694125,7.089555863360486,-10.990361031482992,245.09490997809522,45.19419921376612
519,-16.870038954624782,-232.83287971776045,74.37807516495502,43.26807465719527,7.409820301797975,-10.729553301692924,245.0208851455105,45.4165032279761
520,-16.90911482935947,-232.78023210983096,74.29009416513665,43.48505127659457,7.790242786129785,-10.47555445415951,244.9466234188968,45.672750035917026
521,-16.937402851187574,-232.73332867993517,74.18897742363373,43.71357272223218,8.231612980386782,-10.230268749970053,244.87321066233227,45.95862621835932
522,-16.95442155492137,-232.6929274178646,74.07612930082107,43.948103789387936,8.733880375980375,-9.995530244514647,244.80175783189435,46.269342836758696
523,-16.95992144169094,-232.65972175440177,73.9531629700665,44.183140613869526,9.29601924829446,-9.773095516270756,244.73339176877795,46.59984511117892
524,-16.953890086331743,-232.63433296451888,73.82187740814608,44.41350106130896,9.915918418255757,-9.564642143503155,244.66924145870667,46.94506193192358
525,-16.936554566580373,-232.61730001303482,73.68422823418524,44.634634166497094,10.590303876728889,-9.371772136777127,244.61041985022413,47.30018332207426
526,-16.908380899367916,-232.60906733838354,73.54229254944633,44.84293245659951,11.314700648549998,-9.196019033273688,244.5580017253139,47.6609515482189
527,-16.870069912199245,-232.60997137058442,73.3982282571952,45.036030010723046,12.083438045382115,-9.038856918089673,244.51299848297822,48.02395008082941
528,-16.822548846130903,-232.62022683190506,73.25422854973465,45.213069197226496,12.889699895044737,-8.901709246874631,244.47633099103302,48.38687409071493
529,-16.766958138455475,-232.63991398311472,73.1124725056927,45.3749201836851,13.725618703528394,-8.785955093127114,244.44880185861402,48.74876666967863
530,-16.70463321740294,-232.66896786746847,72.97507314794538,45.52433952365013,14.582410239316115,-8.69293048330908,244.431068525905,49.11020652230758
531,-16.637081536516405,-232.7071702770196,72.84402476447828,45.66605730173123,15.450542860275622,-8.623922908212961,244.423618418331,49.473435439750354
532,-16.565955306672052,-232.75414478879256,72.72115164384174,45.80678622514502,16.31993409404785,-8.580157860994868,244.42674717223915,49.8424172131613
533,-16.493020429880534,-232.80935498991002,72.608060580126,45.95515032718651,17.18016564487116,-8.562777179546297,244.44054078260285,50.2228234367629
534,-16.42012209181571,-232.87210596428343,72.50609953148427,46.12153520263273,18.020707321319623,-8.572809872357052,244.46486248123176,50.62194554289646
535,-16.34914744324503,-232.94154913368928,72.4163246011273,46.31786555224543,18.83114049184261,-8.611136853004389,244.49934510446357,51.0485360899002
536,-16.281985852892106,-233.01669051491808,72.3394770415153,46.55731895209431,19.601372532294903,-8.678451546724016,244.54338954171595,51.51258550836324
537,-16.220487334622824,-233.09640231321941,72.2759713724001,46.85398695317381,20.321835160180488,-8.775218679773298,244.596169546733,52.02504299295141
538,-16.16641993282341,-233.17943755596,72.2258951077712,47.22249575175742,20.98366137749263,-8.901633778862974,244.65664282127193,52.597491909581066
539,-16.12142710542515,-233.2644473357612,72.18902009683262,47.67759882180139,21.57883780241591,-9.057586043567804,244.72356802335827,53.24179101069797
540,-16.086986412457442,-233.35000032153184,72.16482506863898,48.23375335556599,22.100331245102456,-9.242627299964006,244.79552733177218,53.96969308733134
541,-16.064370960290123,-233.43460442907542,72.15252853867447,48.90469155199609,22.54219021160706,-9.455949639213326,244.87095430376417,54.792452687949826
542,-16.05461501358839,-233.5167306482893,72.1511307776371,49.70299713432578,22.89962337736456,-9.696374046981767,244.94816672756693,55.72043444502177
543,-16.058485046045764,-233.59483883729126,72.15946314585516,50.63969721304313,23.169057837820905,-9.962351858351212,245.02540386859945,56.762733532561796
544,-16.076457312157782,-233.66740497536207,72.17624280942204,51.723879773560114,23.34818009483074,-10.25198027188725,245.1008671083082,57.92681986506559
545,-16.10870275773493,-233.7329492273178,72.20013061300945,52.96234750646854,23.435962311612183,-10.563032432910704,245.17276275338315,59.21821772712691
546,-16.155079759444934,-233.79006429371464,72.22978961618679,54.3593191144951,23.432675477240657,-10.893001736765202,245.239345808577,60.640232368159175
547,-16.215134892899318,-233.83744366131918,72.26394153663773,55.91618927840054,23.339889955517474,-11.239159016143887,245.2989635437647,62.19373446353569
548,-16.28811172538936,-233.8739092842826,72.30141822158991,57.63135790539541,23.160462678928653,-11.598620187397042,245.35009755841102,63.87701209660992
549,-16.372967413869556,-233.898437994656,72.34120543404188,59.50013810073998,22.898509182152406,-11.96842078715142,245.391402863114,65.68569811456227
550,-16.46839653675208,-233.91018584701237,72.3824767334714,61.51475065964205,22.559357873319687,-12.34559273146168,245.42174253350294,67.61277856068538
551,-16.572861156291403,-233.9085097879767,72.4246159571797,63.66441095314898,22.149483462940786,-12.727237702983345,245.44021685678268,69.64868558615863
552,-16.68462581724031,-233.8929863804676,72.46722761976834,65.93551193181425,21.67641635256055,-13.110590955094915,245.44618643521483,71.7814758862246
553,-16.801796198992026,-233.86342756304447,72.51013534637615,68.31190449067675,21.14862513939077,-13.49306921914564,245.43928918645707,73.99709329008293
554,-16.92236040306205,-233.81989342829976,72.55336922633865,70.77527344958102,20.57537036138533,-13.872297068313829,245.41945143049853,76.27971162713573
555,-17.044232151395146,-233.76270180397572,72.59714370421675,73.30560378948933,19.966529239276667,-14.24610765377676,245.38689329891585,78.61215135225781
556,-17.165295276021048,-233.6924341834614,72.64182819666505,75.88172761965642,19.332393353085592,-14.61251604400755,245.34212865242546,80.9763606244608
557,-17.28344876854062,-233.6099373367169,72.68791286986229,78.481937920242,18.683443655330947,-14.969666157186294,245.28595955030832,83.3539486619151
558,-17.396651473267323,-233.51631966416863,72.73597189474727,81.08465081807357,18.03010961906089,-15.315755164637478,245.21946500808932,85.72675638080587
559,-17.502965370790406,-233.41294106184668,72.78662617332229,83.66909436919933,17.382521298548127,-15.64894194982061,245.1439833893053,88.07744669189829
560,-17.600596294845907,-233.30139492450297,72.84050722655792,86.2159987546136,16.750264395919924,-15.967248371894431,245.06108754044536,90.39009444091904
561,-17.687930804237766,-233.18348104397342,72.89822375248454,88.70826057432646,16.142148976284993,-16.2684633392756,244.9725518355488,92.65075391732351
562,-17.763567843543033,-233.06116856378375,72.96033219073712,91.13155270897201,15.566002275028227,-16.550059827377023,244.88031062165598,94.84798032565995
563,-17.826343912361498,-232.93654883595045,73.02731231454162,93.47485121243078,15.028495152256621,-16.809134017549237,244.78640812221403,96.97328093039833
564,-17.875350802673317,-232.81177898185314,73.09954847203554,95.73085208019785,14.535010206619662,-17.042373944129416,244.69294067550362,99.0214720552989
565,-17.9099454670482,-232.6890180307963,73.17731683378409,97.89625360549363,14.089557391961703,-17.24606271435951,244.60199316642337,100.99091995091956
566,-17.929752083531497,-232.57035844735765,73.26077892963723,99.97188441462204,13.694740282795248,-17.416118754798863,244.51557241692308,102.88364684431916
567,-17.934656811284988,-232.45775649341712,73.34998168399689,101.96266312146622,13.351773143080317,-17.548172827404553,244.43554091044214,104.70528826973747
568,-17.924796079269473,-232.3529651808509,73.44486389378734,103.87738272777615,13.060546029452581,-17.63767891605787,244.3635544626573,106.46489396720797
569,-17.900539492844285,-232.2574735820246,73.54526864473293,105.72832117987979,12.819732677334668,-17.68005366254578,244.30100734039212,108.17457202737138
570,-17.86246857823995,-232.17245595679591,73.65096067108851,107.5306884864631,12.62693410206079,-17.670836979523436,244.2489878952419,109.84898419964627
571,-17.81135267830333,-232.09873350393065,73.76164723706326,109.30192994495499,12.478849700278614,-17.605864971908122,244.20824703255423,111.5047088332519
572,-17.748123408465286,-232.03675062091898,73.87700075125029,111.06091361607777,12.371466987345757,-17.481445575177787,244.17918084826215,113.15949611162316
573,-17.67384912748034,-231.98656651620598,73.99668102961921,112.82703749515757,12.300260744271132,-17.294527492854808,244.16182768696325,114.83144735187021
574,-17.58971077082324,-231.9478620154909,74.1203550874195,114.61929720848532,12.260392184558166,-17.042853983209568,244.1558789048884,116.53815552036043
575,-17.496980065487396,-231.9199605335069,74.24771281697504,116.45535802561578,12.246898883841213,-16.725094545149094,244.16070192479614,118.29584726558832
576,-17.397000615489663,-231.9018615094655,74.37847784208206,118.35067522226022,12.254866837332367,-16.340949352888263,244.1753737897976,120.11856739256389
577,-17.291171751289586,-231.89228419300957,74.51241378147041,120.31770427870758,12.279577265792797,-15.891223237906082,244.19872328696428,122.01744472915728
578,-17.180934553887575,-231.88971953153379,74.64932667224848,122.36523728164599,12.316622668251782,-15.377867957880511,244.22937970942257,124.00007395728788
579,-17.06775920623259,-231.89248795242867,74.78906436858705,124.49789474323651,12.361988926551236,-14.803993228035074,244.2658263655899,126.07004164427929
580,-16.953132774321755,-231.89880091764815,74.93151362829852,126.7157935441294,12.412102706348854,-14.173848352404999,244.30645698538117,128.22661698786064
581,-16.838546578639846,-231.90682421012463,75.07659559710605,129.01440249232752,12.463845689805892,-13.492777203663186,244.34963325119924,130.46461924313647
582,-16.72548240700637,-231.91474102029605,75.2242605255747,131.3845876096943,12.514539117736176,-12.76714976916143,244.39374182694556,132.77446493009225
583,-16.615396973010107,-231.9208129843457,75.37448264390599,133.81284018986986,12.561903611588399,-12.004273571331007,244.43724937390678,135.14238919535703
584,-16.509704321514604,-231.92343727198468,75.5272560209685,136.28167234864802,12.60400027012717,-11.212288073992925,244.47875398043462,137.55082757219085
585,-16.409756302123547,-231.92119765656886,75.68259191708249,138.77015759684699,12.639159603068656,-10.400044803682505,244.51703120675873,139.97893726162692
586,-16.31682162083455,-231.91290742864024,75.84051766897463,141.2545882548895,12.665904952383448,-9.576975444187193,244.5510727601376,142.40323131803143
587,-16.232064205808033,-231.89764222466314,76.00107663380672,143.70921759080565,12.682876612586238,-8.752949674258,244.5801158739727,144.7982950745515
588,-16.15652169537837,-231.87476133701793,76.16432830759278,146.10705257798702,12.688761894501107,-7.938124057438763,244.60366181230808,147.1375519835944
589,-16.09108488928237,-231.84391669200448,76.33034752371013,148.42066314852207,12.682235013318204,-7.142782935758158,244.62148244799894,149.39404581268232
590,-16.036479061207608,-231.80504928468775,76.49922166245621,150.62297559240517,12.661909218743947,-6.377172173806975,244.63361444576552,151.5412076941882
591,-15.993248059091725,-231.7583734086137,76.67104505287202,152.68802100286206,12.62630242965248,-5.651326889503822,244.6403411818452,153.5535796000012
592,-15.961742071560572,-231.70434951013866,76.84591015020446,154.59161400879606,12.573817107034298,-4.97489500972845,244.6421631201752,155.40747004006175
593,-15.942109854888027,-231.64364688861636,77.02389548848036,156.31194208494418,12.50273520190682,-4.356959477896508,244.63975786041922,157.08152277978277
594,-15.934296107071413,-231.57709776671942,77.20505075126788,157.83005111372722,12.411229411485762,-3.805863033129742,244.6339314612017,158.55718472767933
595,-15.938044464763475,-231.50564460212277,77.38937961638065,159.13021822155832,12.297392216831328,-3.329040488421818,244.62556305628863,159.8190644527188
596,-15.952906252576627,-231.43028302896698,77.5768213874341,160.200207906753,12.159283980708878,-2.9328641513043285,244.61554536275688,160.8551777065799
597,-15.978254718064239,-231.35200343970246,77.76723279471662,161.03141190302134,11.995000747866989,-2.6225082403999895,244.60472436089566,161.65708063492903
598,-16.01330412783773,-231.2717346823151,77.96037157848443,161.6188770184606,11.802761445641938,-2.4018377078992756,244.59384191445127,162.2198950146167
599,-16.057132807421507,-231.1902934208742,78.15588343324265,161.9612284328819,11.58101303484276,-2.2733257862054175,244.58348513802457,162.5422329428832
600,-16.1087090034251,-231.10834239913055,78.35329361572002,162.06049876898203,11.328550821328339,-2.2380030114128076,244.5740459252858,162.62603108010035
601,-16.166918377575314,-231.02636033086253,78.55200412463344,161.92187580219232,11.044649577630304,-2.295438703859661,244.56569343294754,162.4763069366982
602,-16.230592025102155,-230.94462547500976,78.75129695343536,161.55338401726115,10.729199379814865,-2.443754163414518,244.55836156097578,162.10085187542816
603,-16.29853409307261,-230.86321401815238,78.95034356195325,160.9655173742446,10.382838328068779,-2.6796653745638888,244.55175248287267,161.5098774957349
604,-16.369548276617238,-230.78201314358282,79.14822042763163,160.1708425484612,10.007072897479896,-2.998551982317149,244.54535602598227,160.71563382773897
605,-16.44246265332049,-230.7007473418279,79.34393026412397,159.183593353781,9.60437589211821,-3.394548804269102,244.53848337370925,159.73201910861619
606,-16.51615246452316,-230.61901543433711,79.53642814134734,158.0192776404462,9.178252172983887,-3.860656212017873,244.5303124324287,158.57420147298075
607,-16.5895605211494,-230.5363350961235,79.72465130987844,156.69431713232137,8.733263727836475,-4.388866274279263,244.51994142025748,157.2582721504761
608,-16.661714870317997,-230.45219134202904,79.90755118169446,155.22573798293274,8.275008210501994,-4.970302426481171,244.50644681098984,155.80094728472173
609,-16.731743278815962,-230.36608542323242,80.08412583650973,153.63092517591826,7.810048442238007,-5.595371345872522,244.488941712113,154.21933112520728
610,-16.798884096767573,-230.2775808422882,80.25345164634288,151.92744759015622,7.345794032869235,-6.2539263630145605,244.4666310700956,152.53074735214346
611,-16.862493197866446,-230.1863436763954,80.414713002246,150.13295324928106,6.890339777466537,-6.93544189344065,244.4388606800744,150.75263826572203
612,-16.9220468767218,-230.09217496929523,80.56722948520428,148.26512683420387,6.452268454945213,-7.629197944195649,244.4051576371261,148.9025243133845
613,-16.977140777278024,-229.99503350840135,80.71047998557742,146.34169487152906,6.040427872175991,-8.324472812448294,244.36526044976418,146.9980098376387
614,-17.027485199121724,-229.89504788313886,80.84412320946628,144.38045894728992,5.663693378089236,-9.010740804200198,244.31913757399485,145.05681583655198
615,-17.072897518875884,-229.7925174579269,80.9680138883055,142.39933442780463,5.3307276103699355,-9.677870347473956,244.26699380471123,143.09681755662177
616,-17.113292826091318,-229.68790282810315,81.08221405088037,140.41637178434354,5.049748923096484,-10.316316498914466,244.2092648808101,141.13606420064798
617,-17.148673962915424,-229.58180731764176,81.18699887969342,138.44973969688198,4.8283187686480815,-10.917300864234335,244.14660165947322,139.19275994797815
618,-17.179121862761075,-229.4749519054549,81.28285670360582,136.51765336106934,4.673156320063929,-11.472971671942506,244.07984599980824,137.28518959476241
619,-17.20478655275277,-229.36814643606345,81.37048255893916,134.63823732366228,4.589985984024434,-11.976537284001635,244.01000088197512,135.4315779379701
620,-17.225878715598625,-229.2622599575644,81.45076477674995,132.82931907365884,4.583420494815956,-12.422367693651088,243.9381972682902,133.64987890577336
621,-17.242661496345725,-229.15819255770649,81.5247644122369,131.1081568566097,4.656879443441505,-12.806060294024565,243.86565987995326,131.95749770366635
622,-17.255442250314438,-229.05685030555816,81.59368791757552,129.49111215928983,4.812540798943351,-13.124468133990135,243.79367354017973,130.3709562834619
623,-17.264563995831566,-228.95912404890348,81.65885408505424,127.99328347265475,5.051321469538806,-13.375690855364248,243.7235511380893,128.90551868777044
624,-17.270396381413768,-228.8658719982457,81.72165681019716,126.628122736864,5.372882289230695,-13.559030492194271,243.65660367129496,127.57479773984349
625,-17.27332609024021,-228.77790534947383,81.78352549678166,125.40705885239142,5.775652915517996,-13.674916247214805,243.5941122833523,126.39036769053924
626,-17.273746866072806,-228.6959757976685,81.84588482552813,124.33915357428998,6.256872819784305,-13.724804037382087,243.53730182183824,125.36140854820974
627,-17.272049608414378,-228.62076377586277,81.9101151886564,123.43081399827659,6.812645657013577,-13.711057747124991,243.48731530644193,124.49440687317583
628,-17.26861298840557,-228.5528665572386,81.9775146251745,122.68558286311703,7.438005611261659,-13.63681959020779,243.44518882985466,123.79293495265742
629,-17.263794753875757,-228.49278582040637,82.04926285669926,122.10402330127816,8.126995588637701,-13.505876800102355,243.41182674970509,123.257525739383
630,-17.257923595326027,-228.44091474564829,82.12638807951444,121.6837088287971,8.872758135224435,-13.322531198568992,243.3879774648204,122.88565509555691
631,-17.251291395759697,-228.39752507535766,82.20973738819244,121.4193227186485,9.667640530286885,-13.091477169765216,243.37421047729873,122.6718361762242
632,-17.244145911872604,-228.36275479191798,82.29995194846157,121.30286394117493,10.50331557233628,-12.817692268178577,243.37089573967447,122.60782370313397
633,-17.23668428698701,-228.3365972189823,82.39744819748034,121.32395008502519,11.370919095828434,-12.506343196003277,243.37818650315,122.68291892910983
634,-17.229048086324966,-228.3188925154454,82.50240631445867,121.47020160392803,12.261204165704546,-12.162708343956721,243.3960070410112,122.88435979313591
635,-17.22132060233434,-228.30932261977378,82.61476690808689,121.72768688184789,13.164710195033189,-11.792116650770524,243.42404660725506,123.19777564296665
636,-17.21352692547772,-228.3074105742237,82.73423641149535,122.08140442015569,14.071943142431303,-11.399901309446866,243.46176069945676,123.6076824220815
637,-17.20563679379253,-228.3125248430259,82.86030124180016,122.5157771804708,14.97356090629316,-10.99136593526836,243.5083802191323,124.09799266721633
638,-17.197569733196715,-228.32388891229473,82.99225040524176,123.01513471773342,15.860556481124284,-10.571760295754151,243.56292865355988,124.65251503149182
639,-17.18920170225791,-228.3405962148914,83.12920580328472,123.56416088426627,16.724430665397293,-10.146262553736458,243.62424700702798,125.25542004135357
640,-17.1803724453806,-228.36163017990202,83.27015897601125,124.14828817159567,17.55734622807958,-9.71996505245928,243.69102580292414,125.89165202423499
641,-17.170892944421105,-228.38588887875758,83.41401250585507,124.75402389322133,18.35225641899477,-9.297860873324174,243.76184300837323,126.54727132524263
642,-17.160552587622085,-228.41221339814558,83.55962393338741,125.36919821330652,19.103002392828294,-8.884828720937074,243.83520630095362,127.20971587878198
643,-17.14912585239253,-228.4394188530658,83.70584987335344,125.9831292595191,19.804376282309505,-8.485614179910119,243.90959784889478,127.86797666833323
644,-17.13637840148112,-228.46632690128195,83.8515880516878,126.5867058649522,20.452149044915515,-8.104806061444991,243.98351974411582,128.51268721036345
645,-17.12207254577512,-228.49179867441805,83.9958151837704,127.17239345373557,21.043064559565952,-7.746807357601337,244.05553834905984,129.13613248798666
646,-17.1059720831497,-228.51476713551415,84.13761898594468,127.73417286909086,21.574803526865175,-7.415801127689139,244.12432603815094,129.73218734381265
647,-17.087846615760167,-228.53426792375365,84.27622316930986,128.26742528349038,22.04592232889993,-7.115712353598459,244.18869906125383,130.29619792304945
648,-17.06747557105082,-228.54946764254436,84.41100495271237,128.7687785152051,22.45577301094992,-6.85016736660046,244.24765040570074,130.82482210251285
649,-17.044652269811596,-228.55968828621442,84.54150532464577,129.23593095108208,22.804410940521617,-6.622452816024314,244.30037653764222,131.31584579234905
650,-17.019188448476445,-228.56442627699892,84.66743284981568,129.6674688371171,23.092496522920744,-6.435476263061933,244.34629689431534,131.7679915547943
651,-16.990919609128998,-228.56336462419458,84.78866215355578,130.06269109345132,23.321196675308425,-6.291730324823732,244.38506514983882,132.18073430373582
652,-16.959711429898718,-228.55637708326168,84.90522828184133,130.42145322706435,23.492090698390214,-6.193261904763116,244.4165716309604,132.55413613631032
653,-16.925467234758667,-228.54352378597736,85.01731800001285,130.74403852370392,23.607083890400965,-6.1416475013777365,244.44093675122258,132.88870879864876
654,-16.88813620940674,-228.5250384794666,85.12525892306166,131.03106073588577,23.668330869606592,-6.137974985822229,244.45849587582714,133.18530816154566
655,-16.847721708543595,-228.50130810551633,85.22950726035327,131.28339834374955,23.678169269723146,-6.182831679414753,244.46977652365052,133.44506080007002
656,-16.804288761543027,-228.47284589027643,85.33063484049272,131.50215665976404,23.639063445737733,-6.276298111001102,244.47546916603318,133.6693188715868
657,-16.75796990244692,-228.44025941366206,85.42931581211785,131.6886510332769,23.553557230513928,-6.417946525799964,244.4763930692693,133.85963644613574
658,-16.708968755515833,-228.40421533666415,85.52631293637769,131.84440247818293,23.424234613379568,-6.606843077970782,244.47345867811475,134.0177585483234
659,-16.657561239931002,-228.365402604407,85.62246284966812,131.97113633463195,23.253687317738926,-6.8415527021418745,244.46762801306744,134.14561353019585
660,-16.604094586701116,-228.32449603110908,85.71865939844638,132.07077510953118,23.04448846269038,-7.120145953485955,244.45987456581133,134.24530000521727
661,-16.548984472159624,-228.28212221163085,85.81583434005516,132.14541831788978,22.79917172840415,-7.440207615140195,244.45114429110131,134.31906131856152
662,-16.49271051961721,-228.23882960454551,85.91493523553632,132.19730470701435,22.52021573048798,-7.7988474957983165,244.44231938518078,134.3692431501418
663,-16.435810309143154,-228.19506427841316,86.0169009162469,132.2287552987039,22.21003368677567,-8.192714419303973,244.43418639895486,134.39823295886782
664,-16.378871920298625,-228.15115223789192,86.12263530610582,132.24209879801757,21.870968918998045,-8.618014803528704,244.42740982895734,134.40838314317315
665,-16.32252496163003,-228.1072886414082,86.23298064278569,132.23958371757988,21.50529718370798,-9.07053737812084,244.42251184970988,134.40192262791138
666,-16.267430084918985,-228.06353377464308,86.34869131197108,132.22328381354254,21.115237120950457,-9.545685494331803,244.4198584943035,134.38086382971252
667,-16.21426714620949,-228.0198154190623,86.47040958197869,132.19500502201905,20.70297007182936,-10.03851811165238,244.41965241440772,134.34691347381116
668,-16.163722347629076,-227.97593719776222,86.59864447810016,132.15620300929712,20.270670015460006,-10.543799846635531,244.42193228992807,134.30139649994507
669,-16.116474723621955,-227.9315924654781,86.73375486233793,132.1079206879041,19.82054337328336,-11.056059428930949,244.42657888298118,134.24520228248807
670,-16.07318215128985,-227.88638321207037,86.87593750043978,132.05075449413982,19.35487699831995,-11.569654659641632,244.43332752681656,134.17876151257678
671,-16.03446677086322,-227.83984324565373,87.02522054476975,131.9848567137338,18.876091011316138,-12.07884077190713,244.4417865070428,134.1020602373476
672,-16.000899558441812,-227.79146470559073,87.18146250683344,131.90997867758946,18.38679159181621,-12.577838272332945,244.45146045788502,134.01469479033855
673,-15.972983996518508,-227.74072682566447,87.34435648765938,131.825556512537,17.889817757581334,-13.060896196635372,244.4617776833601,133.91596804409363
674,-15.951139248644775,-227.68712582569293,87.51343917071121,131.7308377735918,17.388275880956073,-13.522347438951556,244.47212021447802,133.8050240949583
675,-15.935683665355869,-227.63020478110536,87.68810387267027,131.62504407434224,16.885556343400904,-13.956654391272805,244.48185534213638,133.68101555361042
676,-15.92681962558702,-227.56958224197223,87.86761688539988,131.50756192292303,16.38532826152251,-14.358445285982297,244.49036728172229,133.54329518609796
677,-15.924620655067898,-227.50497824654977,88.05113648116321,131.37815136623246,15.891510377699394,-14.722543909905356,244.49708755015595,133.3916216397117
678,-15.929021534869781,-227.43623625655795,88.23773419770882,131.23715977647635,15.408218619162461,-15.0439972102213,244.50152259403563,133.2263672935922
679,-15.939811803875262,-227.36333950550642,88.42641820767213,131.08572635366772,14.939693108801064,-15.318106275788667,244.5032772152347,133.0487149414855
680,-15.956632832330962,-227.28642033556503,88.61615859274413,130.92596194488803,14.490209279809138,-15.540466037409066,244.502072404118,132.8608292555591
681,-15.978978663692816,-227.2057613071472,88.80591415484466,130.7610888636621,14.06397905488837,-15.707017872067619,244.49775631530358,132.66598906449715
682,-16.006201027373343,-227.12178725597244,88.9946600441833,130.59552667755813,13.665048739143502,-15.814117395734801,244.4903073712826,132.46866759310205
683,-16.037519041099944,-227.03504815680037,89.1814150580801,130.43491240206197,13.297200335519323,-15.858617412245959,244.47982897320372,132.27454998529606
684,-16.07203397543714,-226.94619361508174,89.36526712920863,130.28604703324194,12.96386244787007,-15.837963543755727,244.46653606645384,132.09048055042285
685,-16.108749129425963,-226.8559408147761,89.54539549681441,130.15676461461968,12.668035844111587,-15.750297759138688,244.4507347172045,131.92433601702663
686,-16.146594522425545,-226.76503853439613,89.72108841046567,130.05572476012514,12.412237204698929,-15.59456309230088,244.4327966902575,131.78482538234346
687,-16.18445580931229,-226.6742302621808,89.89175572853917,129.99213441157468,12.198462727280772,-15.370601515915629,244.41313157042185,131.6812214133019
688,-16.221206584807717,-226.58421943560182,90.05693613783801,129.97540923035214,12.028171301800032,-15.07923632608944,244.39215907648494,131.62303315418276
689,-16.25574306000878,-226.49563937860947,90.21629887602619,130.01478904796446,11.902285163994108,-14.722330543983436,244.3702838399044,131.61963259894355
690,-16.287019965358777,-226.4090296903732,90.36963996319676,130.11892496487903,11.821204532191185,-14.302813776774776,244.34787419889187,131.6798517615947
691,-16.314086475512184,-226.3248198548793,90.5168732125093,130.29545786107064,11.784831903795686,-13.824671695500957,244.32524574351436,131.81156861929597
692,-16.33612099118791,-226.24331995626628,90.65801671947695,130.55060918707304,11.792601470709572,-13.292894670885131,244.30264969379334,132.0213017306647
693,-16.352463724019522,-226.16471782785158,90.79317600219001,130.88880484359046,11.843509440566262,-12.713384923968551,244.28026586257832,132.31383361739486
694,-16.36264612547744,-226.0890817901299,90.92252526344573,131.31235166564338,11.936141825410827,-12.092824507437454,244.25819991396384,132.69188212794592
695,-16.3664161933824,-226.01636816858948,91.04628824167908,131.8211835550596,12.068697380776717,-11.438509267682614,244.23648465915403,133.15583697869423
696,-16.363758531142775,-225.94643279688253,91.16471988808246,132.41269081232582,12.239004716183247,-10.758156392971898,244.2150850476388,133.7035755965292
697,-16.354907763029388,-225.8790456550771,91.27808981208662,133.08164192068443,12.444533980790325,-10.059694994182335,244.193906328583,134.3303684294341
698,-16.34035370094434,-225.81390775364798,91.38666816545991,133.82020219205438,12.68240478223082,-9.351050256436642,244.17280470274733,135.02887927365407
699,-16.320836755018544,-225.750669394629,91.49071439023514,134.618048603212,12.949392995730717,-8.639932047923185,244.1515997177156,135.7892611904961
700,-16.29733257115539,-225.68894900915436,91.59046901741503,135.46257517537185,13.24193977831096,-7.933638534451969,244.1300876651611,136.59934360953628
701,-16.271025615432908,-225.62835189630502,91.68614848415125,136.33917875741088,13.556166354487443,-7.238884349399337,244.10805532188238,137.4449016293774
702,-16.24327220849121,-225.56848838122457,91.77794276366696,137.23161145666458,13.887897970445882,-6.561661225783675,244.08529354151906,138.30999474341738
703,-16.21555426791172,-225.50899111129297,91.86601546895565,138.12238358563462,14.232699885914434,-5.907136793802719,244.061610390179,139.17735962519987
704,-16.189425740148643,-225.44953131268105,91.95050597484119,138.99320011500762,14.585927490712505,-5.27959467593588,244.0368436213953,140.02884048881216
705,-16.16645434822209,-225.3898337750787,92.03153299604224,139.82541427577775,14.942791679416821,-4.682416371799342,244.0108722407635,140.84584094514656
706,-16.14816173870582,-225.3296901695538,92.10919898941368,140.60048386113397,15.298439540715242,-4.118103030906803,243.98362676559188,141.60978293898992
707,-16.13596528141222,-225.26897018039526,92.18359477535381,141.30041843377253,15.648049265954858,-3.5883332464539084,243.9550976902942,142.3025607728167
708,-16.131124651102223,-225.20762996855348,92.25480391107351,141.90820847268475,15.986937034908335,-3.094051486814522,243.92534174279308,142.90698083544152
709,-16.134695980837183,-225.1457176451816,92.32290653651431,142.4082299710464,16.310672597564793,-2.6355806936662356,243.89448571109858,143.4071799439419
710,-16.14749589752848,-225.08337555261906,92.38798261812146,142.7866197431019,16.615199421669352,-2.21275194127016,243.86272777218932,143.78901680502366
711,-16.17007718110675,-225.02083910201833,92.45011475826806,143.03161758040193,16.896954658751298,-1.8250438768075308,243.83033626293422,144.04043188035917
712,-16.202717159210348,-224.95843173280767,92.50939098917831,143.1338715124418,17.15298380191063,-1.4717248674482455,243.79764571357475,144.15177099530874
713,-16.245419238639005,-224.89655539403378,92.56590813373971,143.08670194460169,17.381044742807475,-1.151991239349336,243.765049823773,144.1160675280626
714,-16.29792714580006,-224.8356759766201,92.61977631769813,142.88631952569116,17.57969593865503,-0.8650955951409632,243.7329910324659,143.9292771073888
715,-16.359750553339524,-224.77630345766852,92.67112501681919,142.5319904451993,17.748363532335127,-0.6104598543776668,243.70194650568877,143.5904576307977
716,-16.430199967316526,-224.71896712802956,92.72011061533046,142.02614180310547,17.887382529160252,-0.3877683217713259,243.67241072714867,143.10188641372017
717,-16.508428198331515,-224.66418698413827,92.7669249777241,141.37439914128714,17.998007582580644,-0.1970367572399521,243.6448753207915,142.4691058070892
718,-16.593475500638803,-224.612442960755,92.81180425336846,140.58554856734673,18.082389680295428,-0.038654178725338856,243.619807164059,141.70088907905273
719,-16.684315498173298,-224.5641440709251,92.85503716398195,139.67141744758925,18.143516134854107,0.08660492409147494,243.59762622297598,140.80912006490271
720,-16.77989926942064,-224.51959971124822,92.89697222155486,138.6466705489564,18.18511279006246,0.17759909259424211,243.5786848060504,139.80858320313087
721,-16.87919536797953,-224.47899537023434,92.93802346142138,137.52852263682738,18.211509232847902,0.2328688090604836,243.5632499915738,138.71666496035712
722,-16.981223987794394,-224.44237471602935,92.97867424809226,136.33637338677556,18.227470003340777,0.25071387524987593,243.55149075775125,137.55297280232352
723,-17.08508383469848,-224.40962956677595,93.01947857080076,135.09137527729243,18.23799720864122,0.22929560767196444,243.5434708760258,136.33888301480582
724,-17.18997059618425,-224.38049863602473,93.06105915680475,133.81594909891297,18.248112319094982,0.16675856764149596,243.539148050757,135.0970329851592
725,-17.29518639913659,-224.35457525731664,93.10410186584456,132.53326423868333,18.262626922514308,0.06136519448270437,243.53837924004054,133.85077636789586
726,-17.400140414071025,-224.3313235660876,93.14934620067989,131.26670169710832,18.285913557312007,-0.08836419221147937,243.54093162275018,132.62362055471792
727,-17.504341643052943,-224.31010192706216,93.19757221285568,130.03931694591955,18.321688311011656,-0.2835139294893491,243.5464982783801,131.43866511163145
728,-17.607385570616792,-224.29019187688198,93.24958444344297,128.87331764780933,18.372816625379684,-0.5246458551374138,243.554717356514,130.31805774089338
729,-17.708936540238593,-224.27083061261357,93.30619377220971,127.78956857071636,18.441152724383237,-0.8116896108482473,243.56519339718466,129.28248151849067
730,-17.808707546334688,-224.251245072485,93.36819815465455,126.80713340896851,18.527421389528516,-1.143856477160104,243.5775195068052,128.3506843352625
731,-17.906438868555,-224.23068579985943,93.43636321375487,125.9428611516898,18.631148625529914,-1.5195813096490771,243.5912992037227,127.53905913399306
732,-18.00187674241508,-224.20845894273018,93.51140357664003,125.21102328113601,18.75064527216314,-1.936495357525522,243.6061668489817,126.86128187022562
733,-18.094752998264926,-224.1839548922179,93.59396574077343,124.62300732287441,18.88304499465482,-2.3914308981762207,243.62180565646912,126.32801302620409
734,-18.184766303997137,-224.15667225331296,93.68461307343384,124.1870718404791,19.024395457100493,-2.8804569168986003,243.6379623593174,125.94666771755462
735,-18.271565487256755,-224.12623612277062,93.78381325322978,123.9081675950276,19.16979891276154,-3.398943578179371,243.65445774318582,125.72125868144676
736,-18.35473555300669,-224.0924100202861,93.89192810053667,123.7878290884475,19.31359595707262,-3.9416519566818375,243.671192470296,125.65231554349523
737,-18.433787360374733,-224.05510123798396,94.00920542712193,123.82414002076491,19.449583867648254,-4.502844414468403,243.6881479089777,125.73688268423804
738,-18.508152161931342,-224.01435979964106,94.13577240652063,124.01177531882826,19.571258985888583,-5.076410151580798,243.70538204630935,125.96859679721268
739,-18.577182084048836,-223.97037160012644,94.27163011107592,124.34212129200284,19.67207121415033,-5.655999857628207,243.72302095913818,126.33784384490144
740,-18.64015715046966,-223.9234465431441,94.41664917555877,124.80347402868088,19.745678098604962,-6.235163131864757,243.74124663424763,126.83199351127519
741,-18.6962988361968,-223.8740025597732,94.57056680674107,125.38131430111531,19.786186191006937,-6.807482546960367,243.76028204289733,127.43570738730354
742,-18.744789609362044,-223.8225463095582,94.73298546556131,126.05865505555202,19.78836836298469,-7.366698993966818,243.78037430200735,128.13131508197503
743,-18.784797566648805,-223.76965124127142,94.9033735855112,126.8164551701006,19.747847406562034,-7.906824216466133,243.8017766256513,128.8992503690348
744,-18.815505040989194,-223.71593363046745,95.08106873807833,127.63409068372847,19.66123853532357,-8.422238054387849,243.8247297141014,129.71853746904665
745,-18.836139892029664,-223.6620272827247,95.26528371167538,128.48987220949715,19.526246158161463,-8.907769660121302,243.84944330067881,130.56731565981605
746,-18.846008109648007,-223.60855775307053,95.45511599893524,129.36159484530992,19.34171327076616,-9.358763600968235,243.87607872947248,131.42338863155942
747,-18.84452642036905,-223.55611701771753,95.64956111347666,130.22710478589588,19.10762472618513,-9.771133100122809,243.9047334911094,132.26478347278044
748,-18.831253729007372,-223.50523940584705,95.8475298858133,131.06486528538338,18.825068298107183,-10.14140350367085,243.93542842972178,133.0703030886382
749,-18.805920317199597,-223.45637933484343,96.04786941510233,131.85450384340783,18.496159675802286,-10.466749280996755,243.9680979116683,133.8200553986403
750,-18.76845367532233,-223.40989122157288,96.24938680635614,132.57732259656396,18.123939175362306,-10.745027437647575,244.0025828701211,134.4959429228664
751,-18.718999686511037,-223.36601197798157,96.45087438237731,133.21675489473427,17.71224888176134,-10.974809195722381,244.03862648552962,135.08209734780897
752,-18.657937697903787,-223.32484665700179,96.65113487779523,133.75875287660597,17.265599048941837,-11.15541035475719,244.07587231858705,135.56524532843258
753,-18.585887931469312,-223.28635798633465,96.84900527042686,134.19209343470393,16.78903184771094,-11.286919173358672,244.11386491835265,135.9349940676885
754,-18.50370983591341,-223.25036066958558,97.04337834257353,134.5085931164421,16.287989059201276,-11.370219192380588,244.15205323897146,136.1840280002642
755,-18.412490428440513,-223.2165213807681,97.23322164609364,134.70322603459874,15.768188307774453,-11.407003340023499,244.18979750256193,136.30821103310004
756,-18.31352240572792,-223.18436521947794,97.41759407484508,134.77414256576887,15.23551021740058,-11.399775028840311,244.226380265119,136.30659211581712
757,-18.208272738975147,-223.15328897465164,97.59566056681676,134.72259035898395,14.695896735793088,-11.35183187634466,244.2610222568104,136.1813153310108
758,-18.098343428066592,-223.1225809271778,97.76670548777419,134.55274283239606,14.155259047005234,-11.267228235899019,244.29290308906857,135.9374391157287
759,-17.985426805764508,-223.09144625655946,97.93014498431431,134.27144373207219,13.6193922150623,-11.150713894703955,244.32118626271514,135.58267250413255
760,-17.871258060054135,-223.05903657596514,98.08553813013839,133.88787925583148,13.093893129358865,-11.00764793245566,244.34504725281278,135.12703921682362
761,-17.75756749391358,-223.02448183103206,98.23259623939079,133.41319153390305,12.584078508189991,-10.843888614200873,244.3637029907959,134.58248283167063
762,-17.646034634930228,-222.9869227900341,98.37118951139907,132.86004879748438,12.094900614709102,-10.665662083318756,244.37644094314814,133.96242802226035
763,-17.538245843618434,-222.94554254130776,98.50135027260498,132.2421882735253,11.630859808262345,-10.479414317885697,244.3826461637072,133.2813138269911
764,-17.43565669814388,-222.89959566910517,98.62327238500876,131.57394766873824,11.195914833530633,-10.29165214470929,244.38182502262603,132.55411501720076
765,-17.339560183704105,-222.84843403146735,98.73730673281916,130.86980008170644,10.793393510630182,-10.108779936412223,244.37362466222493,131.7958668481343
766,-17.251061489129643,-222.79152832176,98.84395296117155,130.14390542061574,10.425907955791931,-9.93693885191544,244.35784755243301,131.02120687391175
767,-17.171059898130473,-222.72848488856815,98.94384774196604,129.4096890607268,10.095279469172704,-9.78185510043472,244.33446080328085,130.24394522735972
768,-17.100237847287964,-222.65905760661147,99.03774976158232,128.67945578258775,9.802478659988038,-9.648702826137527,244.3036001207253,129.47667204585758
769,-17.039056780072453,-222.58315487138105,99.12652150177794,127.96404431631746,9.547586142180293,-9.541986039529977,244.26556846874118,128.73040790845522
770,-16.98775904726523,-222.50084198290594,99.21110795964907,127.27252539957111,9.329778204508635,-9.465442760102668,244.22082968416845,128.0143005781407
771,-16.946374911170228,-222.41233930641096,99.292512802693,126.61194434370574,9.147340350281986,-9.421973270850387,244.1699975355446,127.33536924343363
772,-16.914733806514167,-222.31801667258273,99.37177287838568,125.98710779626987,8.997709734059178,-9.413593108036496,244.11382096709715,126.69829594447195
773,-16.892479317808906,-222.21838449684765,99.44993222240971,125.4004137333684,8.877545528842019,-9.441410103434622,244.0531663977063,126.10526300823938
774,-16.879087594378465,-222.1140820843427,99.52801663425963,124.85172370298437,8.782824313817526,-9.505623544391494,243.98899791983877,125.55583510802289
