time,ax,ay,az,gx,gy,gz,accmagnitude,gccmagnitude
0,-1.9537694865327282,-181.95905794566482,166.1631605466759,66.63598375927826,9.842167175330033,-9.872652194045273,246.41942080445406,68.0788227065701
1,-1.826727222679662,-182.08425152835756,166.2976357293157,65.42565530362836,9.750398752648056,-9.978779265242265,246.60351297241826,66.90635082124497
2,-1.700180150513656,-182.2126997806704,166.42580532834475,64.25160963328442,9.668468962247085,-10.08590162578822,246.78582167889695,65.77063965123563
3,-1.5747054964539886,-182.34454396424246,166.5453268527758,63.123438155992574,9.596546981138763,-10.191637505211835,246.96485944867072,64.68060060612146
4,-1.450927288171225,-182.4798529414244,166.6539795609323,62.0498762593466,9.53468228411268,-10.29377513679485,247.13916767410873,63.64433188135572
5,-1.3295186624969308,-182.61860197298748,166.74972337471777,61.03862391346517,9.482805465587107,-10.390344842311187,247.30734099764268,62.6689580606287
6,-1.2112004179581415,-182.76065621457178,166.83075234698802,60.09617954408368,9.440728791378035,-10.479679614888628,247.46805143940907,61.76048043263052
7,-1.0967355742864262,-182.90575992554426,166.89554083881166,59.22769166492325,9.40814678182315,-10.560461712427841,247.62007176924493,60.9236419510073
8,-0.9869200897570264,-183.05353210556692,166.9428809061518,58.43683368312397,9.384637380236892,-10.631753529369293,247.76229763711842,60.161811828873766
9,-0.8825701166036631,-183.2034689515447,166.9719098073507,57.72570792683321,9.369664369451097,-10.693011860770076,247.8937680181688,59.476895538241195
10,-0.7845062453212531,-183.35495309415737,166.98212706893057,57.09478504940649,9.362581679699158,-10.744085569552205,248.0136835650465,58.869276244218646
11,-0.6935352093392532,-183.5072689998142,166.97340114212244,56.5428844024015,9.362640129840154,-10.785197564033524,248.12142243985468,58.337793309340945
12,-0.6104295921235147,-183.65962332297676,166.9459662187059,56.06719975070208,9.36899701050503,-10.816912831534465,248.2165531177329,57.87976246253652
13,-0.5359062236775197,-183.81116854858865,166.90041015739038,55.6633729601709,9.380728788745035,-10.840094995312754,248.2988435847333,57.49104066121549
14,-0.47060413939204665,-183.9610280714255,166.83765467419008,55.325616197656856,9.396847115676136,-10.855854406721347,248.3682663468999,57.16613674533403
15,-0.4150631352851634,-184.10832089175815,166.75892895402046,55.046880902734046,9.416318259089422,-10.8654910955915,248.42499869406558,56.898366830401216
16,-0.3697040104014363,-184.25218430152097,166.665737658878,54.819069449575466,9.438086021424148,-10.87043593279829,248.4694176836416,56.680051120886105
17,-0.33481148625177565,-184.3917932365773,166.55982408404472,54.6332831482848,9.461098056922273,-10.872193101118198,248.50208938169604,56.50274655956451
18,-0.31052054301103843,-184.5263753366331,166.44312914108218,54.48009820179949,9.484335215577177,-10.87228647660703,248.52375211855218,56.35750762332702
19,-0.2968065753505661,-184.65522120054112,166.3177469396874,54.34985962135127,9.506843149724276,-10.872211880438547,248.53529390583623,56.23516583414894
20,-0.29347944945705523,-184.7776898907152,166.18587785353856,54.23298207552206,9.527765021018572,-10.873396444311425,248.5377246546689,56.12661736654674
21,-0.3001813685028091,-184.8932103452897,166.04978003242914,54.12024630285861,9.546373839238031,-10.87716560122295,248.5321443354089,56.02310762180843
22,-0.316388496244519,-185.00127980221367,165.91172043598965,54.00308004655391,9.562102802720576,-10.884717543324598,248.51970862921718,55.91650181660328
23,-0.3414164479423103,-185.10146052034798,165.77392662077446,53.87381336899537,9.574571986165095,-10.89710445192777,248.5015938652754,55.799531409496595
24,-0.3744298450994903,-185.19337606597608,165.6385406368613,53.72589953637885,9.583609794339367,-10.91521942315851,248.4789631104237,55.66600742648514
25,-0.4144560535963442,-185.27670829660775,165.50757644716478,53.554094296295695,9.58926775014564,-10.939787766206571,248.45293521274027,55.510993310806256
26,-0.4604030272070284,-185.3511959218,165.38288225843638,53.354588189272654,9.591827423816442,-10.97136123820582,248.42455839218442,55.33093170382631
27,-0.5110809482364403,-185.416635189747,165.26610900907858,53.12508845892597,9.591798637899608,-11.010313848800806,248.39478962353476,55.123721495021584
28,-0.56522715884272,-185.47288293883534,165.15868600340684,52.86484911559611,9.589908468971272,-11.056838164875439,248.36448065036484,54.88874352575822
29,-0.6215337211697252,-185.51986199787365,165.06180437506768,52.57464973084122,9.587080973135764,-11.110941532580073,248.3343710684538,54.62683544673068
30,-0.6786768015420702,-185.55756864405868,164.97640871639237,52.256725510659514,9.58440797763964,-11.172442190841927,248.3050884768588,54.340218306567216
31,-0.7353469404456953,-185.5860815064104,164.9031967740609,51.9146529699611,9.583111715069643,-11.240965781067812,248.2771551607039,54.03237933376115
32,-0.7902791798645702,-185.60557103056283,164.842626573773,51.55319696755797,9.584500512587011,-11.315943230998686,248.25100020653946,53.707916919968255
33,-0.842281964601468,-185.61630850787688,164.7949298012435,51.17812588663559,9.589919133776407,-11.39661137148651,248.2269755089655,53.372354932633975
34,-0.8902636626412636,-185.61867374927283,164.76012987523342,50.79600236142664,9.600695673941159,-11.48201784525122,248.20537392270512,53.03193415628619
35,-0.9332554866025597,-185.61316069799076,164.73806293279756,50.413957194720915,9.618087159944519,-11.571031801440483,248.1864478286709,52.693388909648306
36,-0.9704296813802143,-185.60038050098532,164.72839983508283,50.03945404135899,9.643226241695158,-11.662361520507364,248.17042647574908,52.36371677035796
37,-1.0011121748341407,-185.58106169901626,164.73066728319267,49.68005214606233,9.677071550210734,-11.754579519680066,248.15753055350064,52.04994895530238
38,-1.0247894025914903,-185.55604726265162,164.74426632080252,49.34317404740278,9.720364324482597,-11.846154919054658,248.14798262830408,51.75892836859353
39,-1.0411095413737854,-185.52628821152632,164.76848700196706,49.03588479334351,9.773593675045275,-11.935492005300176,248.1420124201577,51.49710173962123
40,-1.0498788035940128,-185.49283347025116,164.80251879809484,48.76468887237567,9.83697236220285,-12.02097315754771,248.13985636808218,51.270331675416614
41,-1.0510537675650315,-185.45681552119083,164.8454572380791,48.5353506656517,9.91042433730365,-12.101003751020409,248.1417514801754,51.08373381971262
42,-1.044730970121237,-185.41943156866756,164.89630807886607,48.35274363032517,9.993584646456329,-12.174056433119132,248.1479241208374,50.941543558968704
43,-1.0311350994274224,-185.38192045344374,164.95399081561115,48.220732527407066,10.085811646081293,-12.238712293994828,248.15857512608176,50.84701575603161
44,-1.0106069891017633,-185.3455361929034,165.01734350436965,48.14209180728835,10.18621077493027,-12.293696879042015,248.17386322606737,50.80235980960895
45,-0.9835922686480316,-185.31151936736313,165.08513067825547,48.11846183405959,10.293668368410568,-12.337909625010004,248.19388888461307,50.808710983848705
46,-0.9506311519221213,-185.28106752680966,165.15605564168766,48.150343057565244,10.406893297999053,-12.370446024972802,248.21868029942442,50.86613750381697
47,-0.9123495786439735,-185.25530562889574,165.2287778052303,48.237126653877965,10.524463718033445,-12.39061250939387,248.24818276865824,50.97368147726868
48,-0.8694517384146815,-185.23525750863507,165.30193515601763,48.37715871044643,10.644875982180924,-12.397934575931725,248.28225224177675,51.129430419808585
49,-0.8227138031583764,-185.22181949113724,165.37417143683848,48.567833865804815,10.76659282479093,-12.392159066342451,248.32065360573586,51.3306151409582
50,-0.772978431902968,-185.21573725556735,165.44416702201462,48.80571348293822,10.888088125668883,-12.373251648257119,248.36306386354235,51.57372903335805
51,-0.7211493360026432,-185.21758678208232,165.51067185607434,49.08666292135033,11.007885994841423,-12.341390495247007,248.40907973940597,51.85466338287451
52,-0.6681849697632316,-185.2277597176135,165.57253833246406,49.40600219110606,11.124592585911339,-12.296956917878907,248.45822854677726,52.16885313377317
53,-0.6150902968407199,-185.24645298024507,165.62875179492713,49.758664103763344,11.236919948576269,-12.240523415785844,248.50998063900855,52.511427515279344
54,-0.5629056470283584,-185.27366210512758,165.67845651076232,50.13935391848155,11.343702168586823,-12.172839436416776,248.56376163731187,52.87735999102841
55,-0.5126919793009593,-185.30917786016187,165.7209754647947,50.54270448162891,11.443904753989505,-12.094815084628024,248.6189629855585,53.26161213896063
56,-0.46551236297217535,-185.35258599753053,165.75582304832682,50.9634210974728,11.536628569763206,-12.007503071485795,248.67495012110183,53.6592663756923
57,-0.4224100412210799,-185.40327044687706,165.78271048961818,51.396410904205744,11.621109662338972,-11.912079245536754,248.73106839617876,54.065642960006485
58,-0.38438392018239714,-185.4604205795045,165.80154447464182,51.83689235751983,11.696716229658065,-11.80982208128208,248.7866475272583,54.476397473660704
59,-0.3523626549893775,-185.52304331845983,165.81241970621184,52.28048154640436,11.762943925102304,-11.702091499727635,248.84100565623385,54.88759601934733
60,-0.32717864514896483,-185.58998086332696,165.81560621070068,52.72325346882937,11.81941065819743,-11.59030736518822,248.893454142042,55.29576668871172
61,-0.3095432289181464,-185.65993461622128,165.81153222610047,53.16177795747418,11.865851996491108,-11.475927955790455,248.94330408073955,55.697927310608726
62,-0.30002425606175487,-185.73149550505798,165.80076364328306,53.59313145568864,11.902118097897075,-11.360428666969117,248.98987535190366,56.09159087728183
63,-0.29902708745745243,-185.80318038207764,165.78398120336053,54.01488710727838,11.928172799845067,-11.245281204747466,249.03250875448396,56.4747511816141
64,-0.3067799424360541,-185.87347367694355,165.76195681750016,54.425086521386056,11.944095124762766,-11.131933572021245,249.07058152824425,56.84585198313089
65,-0.32332438035458394,-185.94087307697353,165.73553029157875,54.82219705265207,11.950083087463375,-11.021791212074826,249.10352619248332,57.20374340706811
66,-0.3485115219007619,-186.00393765044535,165.70558735468688,55.20505851568787,11.946459293576687,-10.916199681862983,249.13085210681942,57.54762927044368
67,-0.38200433483196977,-186.06133643259543,165.67303936008057,55.57282302932554,11.933677372137174,-10.816429153631585,249.15216850465714,57.877008703454266
68,-0.4232859220878793,-186.1118950142829,165.63880460483864,55.924891290896774,11.91232785689345,-10.723660910112928,249.16720710624085,58.19161493690311
69,-0.4716733381393862,-186.15463720263477,165.6037910490469,56.260848127653325,11.883141867770286,-10.638975826709208,249.1758419530676,58.491353600587644
70,-0.5263361307238342,-186.1888186366882,165.5688802389333,56.58039975640788,11.84699095868876,-10.563344639746717,249.17810398058884,58.77624244220554
71,-0.586318608221037,-186.21394970178974,165.5349122739014,56.88331486507417,11.804881792559938,-10.497619648590211,249.17418821785427,59.04635410432146
72,-0.6505647561420965,-186.22980630866485,165.50267163925835,57.169371388897645,11.75794479210359,-10.442527485695,249.16445241466366,59.30176346696384
73,-0.7179447654391571,-186.23642865970524,165.47287376235812,57.43831060308934,11.707416487243375,-10.398662728673452,249.1494070976959,59.54250097151808
74,-0.7872823147751493,-186.23410933189794,165.4461523428895,57.6897998469463,11.65461584603948,-10.366482324595523,249.12969809731408,59.768513205350885
75,-0.8573820400574917,-186.2233725512669,165.4230478033375,57.923404878367855,11.600915365043917,-10.346300936424603,249.1060831940442,59.979631852788785
76,-0.9270568771995945,-186.20494661981752,165.4039974510077,58.13857258836637,11.54770804509175,-10.33828736984418,249.07940476001795,60.175551941458586
77,-0.9951550151584101,-186.17973140554867,165.3893280242005,58.334624549459825,11.49637154262411,-10.342462223960187,249.0505602840644,60.35582009850817
78,-1.0605860465466606,-186.14876274604975,165.37925118453768,58.51076153477376,11.448230755209382,-10.3586968653881,249.02047254738008,60.51983319361546
79,-1.1223456802982863,-186.11317546278383,165.3738622711578,58.66607870361589,11.404519935138325,-10.386713775552213,248.99006093486176,60.66684728059517
80,-1.1795381601880526,-186.0741663302862,165.37314237854716,58.79959071424301,11.366345256162939,-10.42608829496117,248.96021493118135,60.79599629322835
81,-1.2313953371205384,-186.0329578668123,165.37696367135874,58.91026574112069,11.334648707108782,-10.476251812151691,248.93177039179332,60.906319672046756
82,-1.277291289261504,-185.99076342305625,165.38509779764823,58.997067287992,11.310174273124584,-10.536496514423247,248.9054888513856,60.996798044791426
83,-1.3167516384797213,-185.94875387173335,165.39722721059582,59.05900270731007,11.293437499335207,-10.60598190595768,248.88203996947553,61.06639614297279
84,-1.3494572434917773,-185.90802620902863,165.4129591076985,59.09517731031791,11.28469960757805,-10.683743380125577,248.86198715558695,61.11411213989777
85,-1.3752424921591087,-185.86957447579192,165.43184158514507,59.10485279321231,11.283947331755739,-10.768703167387287,248.8457764184211,61.13903244674661
86,-1.39408874603928,-185.83426353636273,165.45338153207987,59.08750843268788,11.290879583818631,-10.859683912936132,248.83372853313864,61.14039071952273
87,-1.406113629572086,-185.80280641010663,165.47706372969319,59.04290317221111,11.304901970925672,-10.955424952421955,248.82603469755708,61.11762946283588
88,-1.4115569479742256,-185.77574601408716,165.50237050744718,58.971136354460235,11.325130040234962,-11.054601120252896,248.8227558936815,61.070462199796175
89,-1.4107641499460501,-185.75344224388516,165.5288011347263,58.87270449777021,11.35040192078495,-11.155843750818047,248.82382610566648,60.99893376614735
90,-1.4041684115051836,-185.73606517748001,165.55588996044654,58.748551278249266,11.379300741594463,-11.257763457478415,248.82905932891256,60.903475993091796
91,-1.392272522810031,-185.72359483587715,165.5832222343447,58.60010789679651,11.410186797961972,-11.358974244053021,248.83815999009482,60.78495598151017
92,-1.3756317101299096,-185.71582748113426,165.61044659386417,58.42932132843052,11.441238922049248,-11.458118448324052,248.85073609157564,60.64471437668102
93,-1.354838279789872,-185.71238798185937,165.63728339550795,58.2386684887612,11.470503980114994,-11.553891918366382,248.86631418400475,60.484591461231695
94,-1.330508583643378,-185.712747416127,165.66352838690432,58.0311549508163,11.4959529969336,-11.645068718284577,248.8843552092175,60.3069393699315
95,-1.303272366694848,-185.71624489714307,165.68905157307898,57.810297378316506,11.515542167961657,-11.730524599043656,248.90427035071096,60.114619190592826
96,-1.2737641437464242,-185.7221126035377,165.7137914583897,57.58008929649475,11.52727692047389,-11.80925846651363,248.92543623965594,59.91098213403286
97,-1.2426159576629485,-185.7295030486658,165.7377451885272,57.34495027661525,11.529277119434443,-11.88041111177486,248.94720912766113,59.69983438623822
98,-1.210450810226415,-185.73751756109758,165.76095556195946,57.109659139334646,11.519841404260427,-11.943280520711113,248.96893788513498,59.4853857528034
99,-1.1778762581168716,-185.7452347042122,165.78349636267473,56.87927239717244,11.497508510196026,-11.99733316483441,248.9899758231056,59.27218278845187
100,-1.1454780011702437,-185.7517370386304,165.80545773906508,56.659029807997655,11.461113384583257,-12.042210822114384,249.00969127738765,59.06502775177549
101,-1.1138135316762694,-185.7561344194039,165.8269332041368,56.45424949239816,11.409836059050459,-12.07773268812258,249.02747663698742,58.86888535492336
102,-1.0834059035172814,-185.75758207326604,165.84800929553424,56.2702154249582,11.343241584817548,-12.103892765591482,249.04275518096605,58.68877973415152
103,-1.0547374642018492,-185.7552921170967,165.8687583003261,56.11206010991355,11.261309772823891,-12.12085268094467,249.0549849771108,58.52968418497703
104,-1.028243222952417,-185.74853804876977,165.8892340564042,55.984644881230565,11.164453861201878,-12.12893012135352,249.06365948774328,58.39640593313949
105,-1.0043036715821967,-185.73665302676872,165.90947078407007,55.89243966282293,11.053527472482571,-12.128583077752564,249.06830545814833,58.293467675674016
106,-0.9832373403167968,-185.71902410027184,165.92948495730994,55.83940339793078,10.929819345108179,-12.120390161293951,249.0684797165626,58.22498706231821
107,-0.9652938556070108,-185.6950854621839,165.94928012810004,55.82886590258255,10.795035435517317,-12.105027517303277,249.06376713910743,58.19455492261844
108,-0.9506484437842057,-185.66431402820874,165.96885431449226,55.86341179056242,10.651268184978779,-12.083243215727519,249.05378200595186,58.20511304847968
109,-0.9393986200672527,-185.6262302489489,165.98820917352606,55.9447675405738,10.500953055223878,-12.055830278315897,249.03817441762988,58.258832859807036
110,-0.93156338662145,-185.58040617674058,166.00735983575063,56.0736938762338,10.346812844292712,-12.023599604347291,249.01664254719208,58.35699742580962
111,-0.9270848660320394,-185.5264815987552,166.02634405594745,56.24988739483782,10.191790801423465,-11.987354001893971,248.98895045013515,58.4998910809837
112,-0.9258320563027778,-185.46418774793545,166.0452292522585,56.4718975534444,10.038974179364931,-11.947864390500444,248.9549501271287,58.686703032919006
113,-0.9276063208484315,-185.3933769341583,166.0641160354651,56.737067197749695,9.891510546497305,-11.905849043837865,248.91460567989785,58.91545342299162
114,-0.9321482765046056,-185.3140554834735,166.08313697021953,57.04150615001497,9.752519797023124,-11.861956471524236,248.86801677995066,59.18295161644305
115,-0.9391458748225027,-185.2264166113479,166.102449654862,57.38010732876447,9.625005211576903,-11.816752183212186,248.8154383307426,59.48479643346862
116,-0.9482436223689376,-185.1308693308753,166.12222385469875,57.74661306441472,9.51176709230427,-11.770709176222084,248.7572932457967,59.81542621565976
117,-0.9590529546791557,-185.02805942251652,166.14262331197142,58.13373574891564,9.415322463514006,-11.72420164297583,248.69417580390717,60.16822313044588
118,-0.9711637295633497,-184.91887909350902,166.16378376925928,58.533332250017644,9.337834126528865,-11.677501208564012,248.62684410033995,60.53567149615319
119,-0.9841567128041773,-184.80446319593938,166.18578947407366,58.9366264702299,9.281051981105056,-11.630775013394347,248.55620152345836,60.90956497276499
120,-0.9976168568858578,-184.68617141991265,166.20865084976194,59.33446985691025,9.246268963122368,-11.584085104275106,248.48326861499774,61.281252980631535
121,-1.0111470853034452,-184.56555734339923,166.23228602710887,59.71762613686482,9.234293223880425,-11.537388836709235,248.40914776751893,61.64191321406477
122,-1.0243821465700749,-184.44432636706438,166.2565084892544,60.07706433888562,9.245437355404798,-11.490540329084372,248.33498377001453,61.98283489687527
123,-1.037001934149041,-184.32428533075282,166.28102227040398,60.40424339878285,9.279524616103112,-11.443293466496376,248.26192324098574,62.29569661937754
124,-1.0487435604853201,-184.2072870423902,166.30542516175794,60.69137235108688,9.335911284154248,-11.3953074530991,248.19107565023316,62.57282323826007
125,-1.0594114677438924,-184.0951731051478,166.3292194131133,60.93163223745456,9.413523524404173,-11.34615627024272,248.123478098531,62.80740833012824
126,-1.068884948986805,-183.9897183094118,166.35182859326054,61.119349183056165,9.510906573647453,-11.295343414637708,248.06006538072265,62.99369183069367
127,-1.0771225929757562,-183.89257946340757,166.37261867927086,61.250112215955106,9.626283661735933,-11.24232286940238,248.00164616633157,63.12708637459758
128,-1.0841632846994755,-183.80525094564834,166.39092120923058,61.32083382882203,9.757621845464245,-11.186526466191646,247.9488855335079,63.20424999301087
129,-1.0901234703939089,-183.72902857345196,166.40605649640034,61.32975549755102,9.902701768960963,-11.127396833719619,247.90229368974806,63.22310674992106
130,-1.095190495431658,-183.66498263775978,166.41735530519048,61.27640394051486,10.059188272506969,-11.06442422566464,247.8622204314789,63.18282020615506
131,-1.0996120273948093,-183.61394019942693,166.42417780772388,61.16150650774545,10.224698816746976,-10.997184821322488,247.8288546171052,63.083727012879194
132,-1.103681877975091,-183.5764760842713,166.42592901175155,60.98687557234216,10.396866932918638,-10.925377661256002,247.8022276923151,62.92723932376871
133,-1.1077228510790322,-183.55291155387349,166.42207028787826,60.755272187063426,10.573398348334296,-10.848857271802858,247.78222026145667,62.71572512524551
134,-1.1120674988454968,-183.5433193928242,166.41212723532692,60.47025875373917,10.752118012645791,-10.767659287804367,247.76857093743985,62.452375207842124
135,-1.1170378271097068,-183.54753412129187,166.39569482859338,60.136049271006954,10.931006899178625,-10.68201697148757,247.7608871544547,62.141064563275435
136,-1.1229250366871812,-183.56516616967215,166.37244129424795,59.75736409483445,11.108228115428151,-10.592367310377202,247.75865806494113,61.78621466730459
137,-1.1299703152383578,-183.5956190594699,166.3421122076185,59.33929427591134,11.282142455329577,-10.499346184988095,247.76126982390844,61.3926615490584
138,-1.1383475195465345,-183.63810882060605,166.30453585480214,58.88717865863361,11.451314007803761,-10.403772850060257,247.76802340396102,60.9655329458299
139,-1.1481483419552905,-183.69168497309826,166.2596302157873,58.40649526835924,11.614506818873815,-10.306624697869562,247.77815469432795,60.510136428915004
140,-1.159370315149603,-183.75525244677186,166.2074112966502,57.90276723921862,11.770673953661523,-10.209003958338098,247.79085624890715,60.031859329071054
141,-1.171907879047928,-183.82759391783162,166.14800214471518,57.381482673480065,11.918940641584589,-10.112098530563214,247.80529985986553,59.5360806011267
142,-1.1855467707045466,-183.90739223809308,166.08164171116394,56.84802729534644,12.058583478001482,-10.017139434798262,247.82065916354756,59.02809434355219
143,-1.1999621537290075,-183.9932528260511,166.00869269378083,56.307628485108985,12.189007869663005,-9.925357417510586,247.8361316055607,58.513044447287726
144,-1.2147210360146257,-184.08372600585878,165.92964752009337,55.7653092227634,12.309726025717795,-9.83794108510383,247.85095919466036,57.995869766987475
145,-1.229289519740512,-184.1773293498136,165.84513167367288,55.22585059746888,12.42033773117743,-9.755998632508563,247.86444755145456,57.481259247774204
146,-1.2430452867694295,-184.27257012286884,165.75590363667905,54.69376175810254,12.52051578554149,-9.680524820428001,247.8759828321517,56.97361649981555
147,-1.255295511689124,-184.36796787550986,165.66285088852914,54.173256374099765,12.609997318237413,-9.612374401683558,247.88504617583823,56.4770332828906
148,-1.2653001417113048,-184.4620770146227,165.56698171025357,53.66823477493837,12.688581306883759,-9.552242745379111,247.89122536677624,55.995271200915155
149,-1.272300124263464,-184.55350886285487,165.46941290300455,53.182270954763744,12.75613169276954,-9.50065395694426,247.89422340471012,55.53175065676836
150,-1.2755496172908707,-184.64095247436882,165.37135369764994,52.718603624916,12.812584690888755,-9.457956346027595,247.89386360843508,55.08954587531732
151,-1.2743505331858622,-184.72319344710772,165.27408595873362,52.28013049081115,12.85795840706656,-9.424324704450035,247.89009074169564,54.671384633967065
152,-1.2680871400202758,-184.7991301562463,165.17894046267972,51.8694048826539,12.892362804859186,-9.399768574497477,247.8829675715771,54.27965124156276
153,-1.2562580761493103,-184.86778712539345,165.08726896233634,51.48863377329163,12.916008350842619,-9.38414550616198,247.87266644000476,53.916391256730805
154,-1.2385031601459169,-184.92832550857088,165.00041214401597,51.13967614089496,12.9292121346779,-9.377178187808017,247.8594558817029,53.58331645888801
155,-1.2146228623505257,-184.9800507538189,164.91966429600615,50.824040662434825,12.932400746299473,-9.378474284790697,247.8436828726561,53.28180872142963
156,-1.184589184184539,-185.02241744756134,164.84623624685503,50.54288190025362,12.92610959189358,-9.387547844670014,247.8257517396617,53.012921706095135
157,-1.1485477303775506,-185.05503123128244,164.7812186328109,50.296994488152954,12.910978598458557,-9.403841209286849,247.80610102470501,52.77737970504821
158,-1.106811660779002,-185.07764769618473,164.72554764260627,50.08680531760006,12.8877444240554,-9.426746478964562,247.78517967573504,52.57557348723023
159,-1.059848795139927,-185.09016833737002,164.6799750841332,49.91236427404107,12.857229425861297,-9.455625692036724,247.7634238692385,52.40755358273301
160,-1.0082634051669417,-185.0926339077599,164.64504416896315,49.77333453993765,12.820327764970669,-9.489829038839185,247.74123566551145,52.27302194239716
161,-0.952774234648764,-185.08521575403316,164.62107207306377,49.668983772380244,12.777989114988715,-9.528710649979516,247.7189646514497,52.17132324914486
162,-0.8941901235770625,-185.06820589597643,164.60814010788908,49.59817756566764,12.731200474718932,-9.57164176985407,247.6968937063786,52.10143731419378
163,-0.8333843691036595,-185.0420067187963,164.60609203461252,49.55937654802296,12.68096659139696,-9.618021376597838,247.67522990305415,52.06197398271771
164,-0.7712687469852259,-185.0071211402932,164.61454057456515,49.55063825730006,12.628289510320283,-9.667284447132786,247.65410122930902,52.051171808789356
165,-0.7087680183678347,-184.96414391554885,164.63288159078854,49.569624622889464,12.574147790232551,-9.718908056576195,247.63355928246412,52.066901461989865
166,-0.6467957212300575,-184.91375438835263,164.6603148821304,49.61361553618824,12.519475973416323,-9.772415406736565,247.6135874703654,52.10667449380539
167,-0.5862319810222855,-184.85671067104235,164.6958701842033,49.679528752289535,12.46514498820293,-9.827377807839575,247.59411377682477,52.16765787056091
168,-0.5279039229279917,-184.79384502872392,164.73843689228647,49.763946305164446,12.411944278677401,-9.883414666426196,247.57502694071565,52.24669465381744
169,-0.47256909805726494,-184.72606005406374,164.78679611349452,49.86314768750719,12.360566559623555,-9.940191653755159,247.55619481465692,52.34033132044419
170,-0.4209022373620999,-184.654324957994,164.83965372014316,49.973150158769755,12.311596125567755,-9.997417362813472,247.5374835150865,52.44485235262372
171,-0.3734856107941263,-184.57967107818817,164.89567308223718,50.08975668228678,12.265501548053567,-10.05483882372789,247.51877581190425,52.55632284719307
172,-0.33080319283212384,-184.5031856674654,164.95350629165944,50.20861214203797,12.2226333466578,-10.112236218892686,247.49998726639356,52.67063997224862
173,-0.2932386560725841,-184.42600315989318,165.01182307691053,50.32526852829026,12.18322682786964,-10.169417061402466,247.48107898491455,52.783594030157886
174,-0.2610769822698273,-184.34929333201313,165.0693371050987,50.43525952113031,12.147409820113262,-10.226210021791761,247.46206635041705,52.89093951592003
175,-0.23450926853381093,-184.27424605931756,165.12482972148692,50.534184253939536,12.11521461402646,-10.282458548290553,247.4430235383777,52.98847583986428
176,-0.21364011948471673,-184.202052743964,165.1771712722449,50.617799098566145,12.086593155304062,-10.338014454243002,247.42408396585174,53.07213643397525
177,-0.1984968315256409,-184.1338849383744,165.2253401062631,50.682115297512546,12.061434455260397,-10.392731735719854,247.40543712268715,53.13808399227285
178,-0.18903942782450475,-184.07087110613637,165.2684393765527,50.72349939326198,12.039583215680368,-10.446460971004736,247.38732256085453,53.18280878728937
179,-0.1851705783311438,-184.01407267955835,165.3057119572802,50.73877277511406,12.020858728697192,-10.499044660799228,247.37002211114984,53.20322642127388
180,-0.18674459642438976,-183.9644604676194,165.3365539907489,50.72530627348152,12.005073162405184,-10.55031376449367,247.3538514511952,53.19677098990758
181,-0.19357501690455714,-183.92289213307194,165.36052749856427,50.681105586186874,11.992048362681158,-10.600085522579391,247.33915184709923,53.1614794695863
182,-0.2054406268103392,-183.8900911973376,165.37737205518573,50.604883486760315,11.981630309145979,-10.64816250220275,247.32628240780213,53.096063268086844
183,-0.22209011080454305,-183.86662805622242,165.38701493679918,50.49611526984774,11.973700408689172,-10.69433269921489,247.31561281984384,52.99996334863178
184,-0.2432455992358483,-183.8529036985614,165.38957870449096,50.355074664699366,11.968182935078087,-10.738370467522584,247.30751638383435,52.87338609113627
185,-0.26860537777969884,-183.84913696784136,165.38538502396744,50.18284838641953,11.965048135661412,-10.780038000642461,247.3023631799501,52.717317986111894
186,-0.29784591627396034,-183.85535615940066,165.37495365832513,49.981328507910334,11.96431082211599,-10.81908705733162,247.30051324413995,52.53351828083819
187,-0.33062329634591164,-183.87139552747627,165.35899585403442,49.75318285866283,11.966024633263308,-10.855260633173318,247.30230966306212,52.32448975684075
188,-0.36657413605371314,-183.89689697629018,165.33840164347592,49.50180463683465,11.970272563531442,-10.888294357395303,247.3080714741992,52.093428857720596
189,-0.4053162425963094,-183.93131689156232,165.3142208801554,49.23124329920118,11.977154714679303,-10.917917510449799,247.31808621651226,51.84415732748223
190,-0.44644939024457814,-183.97393775905476,165.28763808826608,48.946119494959184,11.986774486724512,-10.943853668349716,247.3326019242313,51.58103826731293
191,-0.48955669946561353,-184.02388395993543,165.25994141472478,48.65152726133247,11.99922454772412,-10.965821094353121,247.3518183032011,51.30888000028227
192,-0.5342070452936807,-184.08014100046793,165.23248618269255,48.35292684964185,12.014573882221674,-10.98353314352471,247.37587687061009,51.032831298348526
193,-0.5799587840976235,-184.14157744751557,165.2066539005561,48.05603137753233,12.032856988779058,-10.996699072222361,247.40485008451753,50.75827133619206
194,-0.6263648821325398,-184.2069689514584,165.18380811705836,47.766690033788066,12.054065916770464,-11.00502566720903,247.43872992760853,50.490697207734115
195,-0.6729792720953883,-184.27502389897182,165.16524909965156,47.49076990307274,12.078145399086818,-11.0082200293724,247.47741691817137,50.235611097295035
196,-0.7193640047962157,-184.34441043853647,165.15216975186928,47.23403781735379,12.104990928984016,-11.005993753392895,247.52071096032316,49.998408454283954
197,-0.7650965693023664,-184.41378480369542,165.14561534056028,47.002043200264396,12.134449283186438,-10.998068685948732,247.56830568144457,49.784268007789066
198,-0.8097766777812085,-184.4818208934252,165.14644945348448,46.800002819584414,12.16632074524037,-10.984184380323361,247.61978782746755,49.598044335728616
199,-0.8530318712823745,-184.54724088095958,165.1553282049296,46.63268873610214,12.200362181980841,-10.964107246473695,247.67464287724286,49.444164006660316
200,-0.8945214881690077,-184.60884628215427,165.1726841144131,46.5043213976781,12.236290209074811,-10.937641230652988,247.7322673915677,49.32652692278113
201,-0.933938808325715,-184.66554856035896,165.19872035326188,46.418470521841755,12.273783939135043,-10.904639689441293,247.79198786883504,49.248415177489726
202,-0.9710114689591381,-184.7163980876479,165.23341522588396,46.37796690092213,12.312487166319407,-10.86501799443883,247.8530851446615,49.21241226773056
203,-1.0055004377867864,-184.76061019081598,165.27653588720932,46.38482842580242,12.35201020963639,-10.818766344736403,247.9148227348916,49.22033573520294
204,-1.0371978552114791,-184.79758710088797,165.32765952443813,46.44020343316195,12.391931950853998,-10.765962257846262,247.97647707624932,49.27318620887505
205,-1.0659239650989119,-184.82693483257358,165.38619970272683,46.544333960523325,12.43180283046937,-10.706782204036251,248.03736742151258,49.37111538729202
206,-1.0915233067926364,-184.84847423099774,165.4514353832555,46.69654071803219,12.471149664984932,-10.641511816988244,248.09688317532144,49.51341478654761
207,-1.1138604636142306,-184.8622455792263,165.52254028428294,46.895230700045964,12.50948306894018,-10.57055407111106,248.1545066811577,49.698526215132986
208,-1.1328158945289104,-184.8685063157601,165.5986107006473,47.13792751903735,12.546307993851844,-10.494434782772963,248.20982988216332,49.92407406849266
209,-1.1482825403928876,-184.86772164855833,165.67869047478044,47.42132380017889,12.581137487906224,-10.41380478037213,248.26256383848502,50.186918727765615
210,-1.160163879130254,-184.860548182971,165.76179239066127,47.74135425797734,12.613509317554684,-10.329438112033342,248.31254071217467,50.48322955666587
211,-1.168373903593441,-184.847811053594,165.84691577576737,48.09328733690355,12.643004647592488,-10.242225741037062,248.35970844596952,50.80857519344587
212,-1.1728391821901605,-184.830475399555,165.93306045777314,48.47183260668502,12.66926762842688,-10.15316433888596,248.40411885909106,51.15802812258499
213,-1.1735028399533418,-184.80961329574785,166.01923733237294,48.87126055954818,12.6920245727024,-10.063340028791428,248.44591015585937,51.526279999939966
214,-1.1703300533048302,-184.78636742196153,166.10447572569595,49.285531074154555,12.711101441237513,-9.973907239076901,248.48528491767337,51.907763909311754
215,-1.1633145058313203,-184.76191283152,166.1878277258409,49.70842655390744,12.726438517499698,-9.886063181388273,248.52248469987452,52.296779589983416
216,-1.1524851769191184,-184.73741820797525,166.26836986136462,50.13368561320922,12.73810130521146,-9.80101886597882,248.55776250816396,52.68761765858387
217,-1.1379128123723714,-184.71400799007495,166.34520281264372,50.5551331899222,12.746286783433533,-9.719967954442996,248.5913546261342,53.074678946833444
218,-1.119715467905353,-184.6927267113724,166.41745005653237,50.96680310608908,12.751324268136251,-9.644055015612393,248.6234533818649,53.45258528601068
219,-1.0980626270317255,-184.67450687577224,166.48425638835678,51.36304939927703,12.753670370599744,-9.574344792206249,248.65418245219988,53.81627841615308
220,-1.0731775286935836,-184.66014169170595,166.54478718910815,51.73864326461792,12.753897932920099,-9.511793903199989,248.68357625535293,54.161104248032956
221,-1.045337432138561,-184.65026396949585,166.5982291596855,52.08885323118647,12.752679266502877,-9.457226099811841,248.71156487382356,54.48288050093278
222,-1.0148716293206694,-184.645332346479,166.64379302402827,52.40950719783766,12.750764408501196,-9.411311878825906,248.73796570084625,54.77794672687558
223,-0.9821572266369811,-184.64562563995668,166.68071844338945,52.697036016763946,12.74895538138336,-9.374552987832773,248.7624825623872,55.04319675791673
224,-0.9476130946408416,-184.65124555969982,166.70828121524426,52.94849926144371,12.748077569405998,-9.347272119924646,248.78471253599176,55.276094502690356
225,-0.9116927480174762,-184.662127413101,166.72580285074034,53.16159456596271,12.748949329429825,-9.329607877176628,248.80416026060226,55.474674694360665
226,-0.8748770708370356,-184.67805794809715,166.73266273704274,53.334652504946554,12.752350903139952,-9.32151490323179,248.8202592456768,55.63753070266242
227,-0.8376677167792708,-184.69869908801417,166.72831304695956,53.46661945836405,12.758993666866902,-9.322768962708166,248.8323993671397,55.76379194506847
228,-0.8005817708111781,-184.7236159679867,166.7122962185898,53.5570312924862,12.769490744971753,-9.332976662211095,248.83995925259245,55.853093781953795
229,-0.7641479200213754,-184.75230742092867,166.68426435661038,53.605980961794764,12.78432996805479,-9.351589438831597,248.8423417471855,55.90554301706566
230,-0.7289039826271927,-184.78423698187228,166.6439995966917,53.61408325113452,12.803850049178102,-9.377921370353443,248.83901038522959,55.92168219511973
231,-0.6953952431182387,-184.81886264441044,166.59143438552516,53.582439786338114,12.828220702224675,-9.411170271744998,248.82952485677197,55.902455750731434
232,-0.6641727366486249,-184.85566392942832,166.5266705770092,53.51260710885412,12.85742726448128,-9.450441446279301,248.81357366753392,55.849180690375384
233,-0.6357905258091523,-184.89416511418196,166.4499961228964,53.406570020094804,12.891260225140595,-9.494773408151321,248.79100232374157,55.76352387841609
234,-0.6108011629778015,-184.93395361629803,166.36189803798175,53.26672157096909,12.929309923046619,-9.543164917733074,248.76183541768958,55.647487175352126
235,-0.589748860255571,-184.97469265357014,166.26307039159101,53.09585005739497,12.97096657214485,-9.594602741559479,248.7262911335085,55.503400692709576
236,-0.5731602691008402,-185.01612758819434,166.15441639829564,52.89713228014845,13.015425676445153,-9.648089620369957,248.68478712351737,55.33392336328572
237,-0.5615331314592596,-185.05808583914626,166.0370442161128,52.67413126402283,13.061698766451356,-9.702671956938039,248.63793741837307,55.14204898222519
238,-0.5553233845101465,-185.10047077283122,165.91225664490648,52.43079573434232,13.108629206780591,-9.757466659131097,248.5865408167245,54.931114961071366
239,-0.554931539425186,-185.14325041088748,165.78153537862457,52.17145802266685,13.154912609407122,-9.811686363535529,248.53156182564294,54.70481035304722
240,-0.5606892590460769,-185.18644205414904,165.64652076186096,51.9008267975675,13.199121195035849,-9.864662005639664,248.47410561217632,54.46717935618022
241,-0.5728470326966095,-185.230093980671,165.508988169611,51.623971133500454,13.239731337738283,-9.915861540736831,248.41538857919485,54.22261656032032
242,-0.5915637217563036,-185.2742652332037,165.3708221511181,51.34629291914446,13.275153518222739,-9.964903643591484,248.35670608410894,53.97585067159422
243,-0.6168985323301585,-185.31900427926735,165.23398929032638,51.07348538661058,13.303763956566234,-10.011565440865457,248.2993985184521,53.73191424212507
244,-0.6488056708405034,-185.3643271682396,165.1005103235125,50.81147652460547,13.323937254040942,-10.05578375138765,248.24481657295848,53.49609795896092
245,-0.687131639106095,-185.41019575829912,164.97243152899009,50.56635723142314,13.334079436900335,-10.097649876138162,248.1942861240387,53.27388920733914
246,-0.7316149427768811,-185.4564965590534,164.85179500302158,50.34429513823198,13.332660839595073,-10.137398556175905,248.1490728896069,53.070895765240344
247,-0.7818879390120672,-185.5030206947472,164.74060740845593,50.15143593893228,13.318248231614337,-10.17539211363201,248.11034695157502,52.89275641545309
248,-0.837480537915675,-185.54944545408907,164.64080716660607,49.99379472068937,13.289535476802486,-10.21210087818548,248.07914746732683,52.745040877987456
249,-0.8978254067864908,-185.59531786018866,164.55423059593153,49.8771402177306,13.245371926315016,-10.248080806459456,248.056348221604,52.63314181980829
250,-0.9622642117771918,-185.6400407030613,164.48257783304138,49.80687513824885,13.184787796647218,-10.283948888655452,248.04262489629585,52.562161873997105
251,-1.0300543454290296,-185.6828616262068,164.42737939287488,49.78791571608099,13.107015959579574,-10.320356669478933,248.03842505967353,52.536798599080484
252,-1.1003756362332275,-185.72286622894322,164.38996412715562,49.82457337261182,13.011509782565863,-10.357962051273956,248.0439420876993,52.561230079885625
253,-1.1723367867621304,-185.7589767127153,164.3714293436196,49.9204408247869,12.897956838202738,-10.397399496529188,248.0590946568864,52.63900338427001
254,-1.2449816737384645,-185.78995820402966,164.37261396666096,50.07828418966762,12.76628840603115,-10.43924882812183,248.08351398060867,52.772927386436166
255,-1.3172959991135125,-185.81443525011053,164.39407571285724,50.29994178686909,12.616684688626854,-10.484003081309057,248.1165412954534,52.96497071213007
256,-1.388215003317764,-185.8309207993242,164.43607318471612,50.58622974091571,12.449575575109376,-10.532036285228598,248.15723791973647,53.216165053255
257,-1.4566330235464169,-185.8378591056343,164.49855351500148,50.93685448200253,12.265636680307672,-10.583572558964233,248.20440937274486,53.526514166924606
258,-1.5214155627421588,-185.83368257958483,164.5811458428766,51.350333064550234,12.06578035160909,-10.638658355891321,248.25664375026142,53.89490972678354
259,-1.5814142083759177,-185.8168809679773,164.68316066302293,51.82392390055806,11.85114143352585,-10.69713991708503,248.31236316596357,54.31905685034045
260,-1.635484294528395,-185.78607967792763,164.80359499933152,52.35357283705862,11.623057834935178,-10.758647875232073,248.36988583675867,54.795414378564935
261,-1.6825047563165372,-185.74012276477058,164.94114325946268,52.93388201976998,11.383046328185072,-10.8225904658191,248.42749535495008,55.3191573732899
262,-1.7213992382240508,-185.67815521249182,165.0942133929597,53.558110978045214,11.13277447279058,-10.888156062977549,248.48351286459533,55.88417116310108
263,-1.7511572657223862,-185.59969878570828,165.26094768037768,54.218220119607864,10.874030038534958,-10.954324962222218,248.53636739877038,56.483086941008146
264,-1.7708543486153003,-185.50471604516142,165.43924733506407,54.90496586778624,10.608689706875268,-11.01988967613174,248.58465977481353,57.10736796046695
265,-1.7796703428147982,-185.39365805567596,165.6268002186247,55.608053931557514,10.338689054095475,-11.083482585148106,248.6272162369616,57.74745271244497
266,-1.7769060355418864,-185.26749258955664,165.82111126902836,56.31635295388057,10.065995841978792,-11.143609575922444,248.66312920313504,58.39295736345264
267,-1.7619983770975538,-185.1277109157936,166.01953554830385,57.018165603382734,9.792588500368899,-11.198688261163383,248.69178365192127,59.03293474042355
268,-1.7345349081000694,-184.9763124854301,166.21931404963857,57.70154881861463,9.520441364185098,-11.247089499208109,248.71286875564275,59.65618198791665
269,-1.6942678050266102,-184.81576806136022,166.41761256680567,58.35467015704746,9.25151763867943,-11.28718119724662,248.72637539565798,60.25158441574132
270,-1.6411277213964612,-184.64896307420213,166.61156402268517,58.96618361945054,8.987770179602624,-11.317373687593612,248.73258117427713,60.808479527571855
271,-1.5752373533716426,-184.47912406365577,166.79831463695166,59.525606230297,8.731149097197452,-11.336166160463463,248.73202532637654,61.31702307162045
272,-1.4969244483948967,-184.30973189396332,166.9750741131752,60.023676200186145,8.483614136041888,-11.342193627678615,248.72547641722886,61.76853834820002
273,-1.4067337128194095,-184.1444260086755,167.13916956518136,60.45267470141015,8.247148985425815,-11.334273697463795,248.71389583704578,62.15583101780668
274,-1.305436686077903,-183.9869042454728,167.2881022184979,60.806696000289065,8.023774311839693,-11.311452133823131,248.69839983937544,62.47345417175459
275,-1.1940382631562316,-183.84082251132398,167.41960524296772,61.08185453298952,7.815556398614484,-11.273045826915123,248.6802222552047,62.71791210505018
276,-1.0737783790569453,-183.70969788328983,167.53170063635108,61.276421951400735,7.624608708067946,-11.218681481364131,248.6606791791904,62.88779554119018
277,-0.9461274597491118,-183.59681765824357,167.62275291570253,61.390891649167735,7.45308429583868,-11.14832809573373,248.64113604353037,62.983845447576186
278,-0.8127744462957285,-183.50515584804774,167.6915173669497,61.42797233959571,7.303157701860984,-11.062321186028981,248.62297672872162,63.00894658227795
279,-0.6756063822064952,-183.43729783065825,167.73718069217426,61.39251556661608,7.176995678069913,-10.961376703375828,248.60757383368622,62.968055200226054
280,-0.5366787041722146,-183.395373374069,167.75939211227876,61.291384403458174,7.076716909399861,-10.846592719775382,248.59625900192688,62.868067745280904
281,-0.39817555477671485,-183.38099800541343,167.7582833687098,61.13327195742723,7.0043417935014665,-10.719437235487081,248.590292270927,62.717638807236135
282,-0.2623597977040063,-183.39522267344398,167.7344765916637,60.928478631564275,6.961734379795456,-10.581720948542612,248.59082974010408,62.52695712420403
283,-0.13151318057649508,-183.43849185199497,167.68907954126257,60.68865644656111,6.950539653366404,-10.435554576662447,248.59888936029802,62.30748801468809
284,-0.00786829823127157,-183.51061061882447,167.62366813224816,60.42652733072227,6.972120331286924,-10.28329133510083,248.6153152064063,62.07168953400469
285,0.10646463459902251,-183.61072170081002,167.54025634650446,60.15558059413534,7.027498035588776,-10.12745632569187,248.6407410617838,61.83270825266678
286,0.20957208601341426,-183.7372938583513,167.44125363692046,59.88975335513573,7.117303939333009,-9.97066565097633,248.67555441671925,61.60405930292449
287,0.299807800918774,-183.88812322826192,167.32940982259728,59.643096888421674,7.241743607348574,-9.815538826842705,248.71986207914662,61.39929457744979
288,0.3758546553778301,-184.06034941543805,167.20774747085827,59.429431878928376,7.400579698637798,-9.6646084577291,248.7734586971762,61.23166284785249
289,0.43677290470409735,-184.25048826922819,167.07948212603722,59.26199638960434,7.593134497698536,-9.520231218820033,248.8357998247647,61.113766131006905
290,0.4820305659972304,-184.4544832717531,166.94793159915312,59.153091872184305,7.818312087391588,-9.384504092663478,248.90598171424583,61.05721780479151
291,0.5115126911841449,-184.66777705509676,166.81641665734386,59.113734464939476,8.074637705382253,-9.259189672462453,248.98273046184477,61.07230950459258
292,0.525507649028457,-184.8854036591096,166.68815644618368,59.15332064552012,8.360309781532965,-9.14565418563738,249.0644031229146,61.16769525737156
293,0.5246702966434079,-185.1021009042656,166.56616261017302,59.279317667125824,8.673258501939424,-9.044821524224293,249.14900291719013,61.350102249933876
294,0.5099641577169658,-185.3124409032828,166.4531363715527,59.496990101377925,9.011203530365696,-8.957145756105044,249.23420984184432,61.624078074268894
295,0.4825872783487437,-185.51097539281395,166.3513729191209,59.809174452801805,9.371702951756252,-8.882603280610464,249.31742708022944,61.99178451658077
296,0.4438888265014941,-185.69239131480927,166.26267749002056,60.21611421877451,9.75218606888074,-8.820704204619897,249.3958426864763,62.45284813318294
297,0.39528509837539666,-185.8516710151778,166.1882975683905,60.71536757341164,10.14996478981792,-8.770521058415515,249.46650525370833,63.004277810528
298,0.33818385211945573,-185.98425065025572,166.12887559115782,61.30179841557822,10.562221893240038,-8.730732054528087,249.526411653827,63.6404587277778
299,0.27392459013615617,-186.0861699787922,166.08442623149043,61.96765829167723,10.985978766276713,-8.699675926280047,249.57260440280925,64.35323002056465
300,0.2037397764194,-186.15420672948454,166.0543415005052,62.70276166164071,11.418049269227462,-8.675415859530618,249.6022756686119,65.13204967419396
301,0.12873859296246046,-186.18598920472792,166.03742547572335,63.494750839970955,11.854989276464893,-8.655810777546206,249.61287436362122,65.96424507788092
302,0.04991140576372525,-186.18008170089425,166.03195853988657,64.3294409275629,12.293052694187718,-8.638592778692976,249.60221220414078,66.83534218400773
303,-0.03184980866305232,-186.1360386141354,166.0357888129385,65.19123032641384,12.728164379595798,-8.621449475372097,249.56856414800143,67.72946146530067
304,-0.1157218166969059,-186.05442461779782,166.04644621059617,66.06355965144978,13.155918678324467,-8.602109221528101,249.51075827724173,68.62976563367116
305,-0.2009187666915185,-185.9367999150481,166.06127253104455,66.92940096401406,13.571609606176924,-8.578425984839118,249.42825005489442,69.51894250082013
306,-0.2866660631433344,-185.78567120934608,166.07755945888277,67.77175964134415,13.970295364090138,-8.548459409070142,249.3211760985936,70.37970596405738
307,-0.3721847301946771,-185.60441060398378,166.0926856234774,68.57417212275259,14.346896233098297,-8.510544894467825,249.19038327845954,71.19529825372437
308,-0.45668910782791966,-185.39714600221603,166.10424399024834,69.32118372316212,14.696321310838794,-8.463348578464661,249.03743005340237,71.94997684955706
309,-0.5393981298017556,-185.16862764614334,166.11015190687874,69.99879147596128,15.01361644552325,-8.405903009327691,248.8645584492052,72.62946973894246
310,-0.6195581210426108,-184.92407623690542,166.10873786535353,70.59483758910504,15.294123565897033,-8.33762096507826,248.67463683396556,73.22138304899988
311,-0.6964733168246843,-184.6690186702479,166.09880107068602,71.09933978436474,15.533640747806661,-8.25828698310575,248.47107542569623,73.7155457797888
312,-0.769539295690039,-184.40911779056378,166.07964189529517,71.5047458881982,15.728572852456518,-8.168028379566374,248.2577180463609,74.10427771907817
313,-0.838274326069284,-184.15000269295638,166.05106317263076,71.8061018972557,15.876064155017819,-8.067269606871418,248.03871496111364,74.38256889954751
314,-0.9023442965865665,-183.89710597645464,166.01334410332908,72.00112553800452,15.974106605001426,-7.956675558479313,247.818382751177,74.54816224724163
315,-0.9615782978451023,-183.6555139437623,165.96719031494166,72.09018108985464,16.021619751219845,-7.837090646933233,247.6010580485355,74.60153525618392
316,-1.0159736589755743,-183.42983502770966,165.91366522943096,72.07615587195768,16.01850056838062,-7.7094808367660015,247.39095251833288,74.54578143755668
317,-1.065690845964474,-183.22409073111606,165.85410911903872,71.96424415534025,15.965643247926508,-7.574885094554875,247.1920165681469,74.38639774573261
318,-1.1110398036684683,-183.04163220470747,165.79005273850498,71.76164999442616,15.864930395584832,-7.434380983619674,247.00781874444732,74.13098984207276
319,-1.152459969664408,-182.88508438692955,165.72313200251065,71.47722593133551,15.719198022053936,-7.289066721020569,246.84144660135416,73.78891233218758
320,-1.1904963015580783,-182.7563184371572,165.65500901829682,71.12106892635273,15.532177282729487,-7.140059422757987,246.69543315675796,73.37086527675284
321,-1.225773334514146,-182.65645198058905,165.58730337112772,70.7040975397328,15.308416191661994,-6.988506971855653,246.5717111922489,72.88847071245203
322,-1.2589687390675992,-182.58587543316477,165.52153622008146,70.23763496529536,15.053184577646812,-6.8356092955401335,246.4715958145052,72.35385330461138
323,-1.2907873235629657,-182.54430142135575,165.45908844901194,69.73302096800508,14.772365464061705,-6.6826439633454155,246.3957938731065,71.77924760135487
324,-1.3219360604438628,-182.5308331371951,165.40117274163998,69.20127236670066,14.4723359291028,-6.530990855756729,246.34443702440478,71.17665095681515
325,-1.3531005003265328,-182.54404651294814,165.34881817532687,68.65280687891917,14.15984034417003,-6.382151067017762,246.3171336573116,70.55753648138828
326,-1.384922761247863,-182.58208053852144,165.30286504002763,68.0972394279141,13.841858623049227,-6.237756103708713,246.31303387616222,69.932634852467
327,-1.4179810475263974,-182.64273004104825,165.26396721554946,67.54325390711075,13.525471696754556,-6.09956475052477,246.3309014752411,69.31178795222672
328,-1.4527703841806117,-182.7235358750523,165.23259950631996,66.99854739465324,13.217725908217613,-5.969446539787319,246.3691873453025,68.70387154704808
329,-1.4896840915951155,-182.82186862908355,165.20906773628568,66.46983843654223,12.925497525685063,-5.849352346466439,246.42609988038242,68.1167790795953
330,-1.5289956504582178,-182.93500334597658,165.1935201273093,65.9629268040322,12.655358258820478,-5.741274029570642,246.49966947232843,67.55745462466078
331,-1.5708410847136314,-183.06018402458437,165.1859593800938,65.4827894928208,12.413442676641992,-5.647196115877506,246.58780573330554,67.03196058276502
332,-1.6152026549101661,-183.1946775823734,165.18625549259042,65.03369686368782,12.205318878764862,-5.56904318028093,246.68834719274722,66.54556496388608
333,-1.6618952063484458,-183.33581748051208,165.19415931029613,64.61933368120039,12.03586464639294,-5.508626798535116,246.79910359946993,66.10283410895612
334,-1.7105567709757303,-183.481037499445,165.2093163707401,64.24291209544377,11.909152403499554,-5.467595800480087,246.91789090737944,65.70771909883659
335,-1.7606449870029268,-183.62789641965395,165.23128044754847,63.90726681972735,11.828347339498007,-5.447393097392378,247.04255913321745,65.3636273632878
336,-1.8114406440047024,-183.77409474566122,165.25952659744578,63.61492629639896,11.79562367999011,-5.4492215884872355,247.1710138321779,65.07347450405213
337,-1.8620592271582308,-183.9174850867104,165.29346414270415,63.368157045561574,11.812104136283962,-5.474020584260722,247.3012327098543,64.83971460257334
338,-1.9114707657600791,-184.05607819675794,165.33245039346565,63.16898140208327,11.877826961782684,-5.522452968564821,247.43127942208744,64.6643500475433
339,-1.958527653996708,-184.18804675355415,165.3758057556806,63.019171348020194,11.991743911077558,-5.594902196573133,247.55931655975607,64.54892410610721
340,-2.001999473633214,-184.31172863209412,165.4228302479588,62.920223038847716,12.151750946049024,-5.6914773796759555,247.68361915234232,64.4945010148014
341,-2.0406132486885222,-184.42563085418064,165.47282073026813,62.87331778113837,12.354751945999343,-5.81202421912982,247.80258911032755,64.50163919481616
342,-2.0730970356347163,-184.52843483847394,165.52508771582345,62.87927557129634,12.596754081905953,-5.956139432727297,247.91477031781343,64.57036324962712
343,-2.0982243751772893,-184.61900318971848,165.5789705887235,62.93850689592489,12.872991999447752,-6.1231865403507015,248.01886376211363,64.70013974011144
344,-2.1148569958649523,-184.6963880593092,165.63385021032045,63.05096750108005,13.1780765825298,-6.312311333307843,248.11374203695758,64.88986052908822
345,-2.1219833263475736,-184.75984102820283,165.68915809508727,63.216119521708485,13.50616289045566,-6.522455930960795,248.1984626271639,65.13783600288525
346,-2.1187508708356555,-184.80882441289305,165.74438153274457,63.43290102066766,13.851130950103817,-6.752370967513108,248.27227948039854,65.44179901593063
347,-2.1044912794940642,-184.84302378020067,165.7990642726234,63.699704908076285,14.206772520987899,-7.000626115392631,248.3346524547131,65.79891926434347
348,-2.0787377918574608,-184.86236126568463,165.85280274923562,64.01436761049861,14.566976791455135,-7.265619753204437,248.38525434098898,66.20582719039682
349,-2.0412353751660537,-184.86700905080244,165.90523835141298,64.37416778073289,14.925908213186242,-7.545589011907775,248.42397533760624,66.65864648901342
350,-1.991944218647205,-184.8574020282263,165.9560467872301,64.77583562514505,15.278170280759023,-7.838621600245281,248.45092498165468,67.153034661817
351,-1.9310374142887574,-184.83424822985936,166.00492593203984,65.21557382094943,15.618949907710237,-8.14267068323792,248.46643142508327,67.684231574176
352,-1.8588938324979603,-184.79853509308631,166.05158358376576,65.68909131055557,15.944138035422903,-8.455573687474846,248.47103759502411,68.24711641412551
353,-1.776087397449817,-184.751529291468,166.09572645049906,66.19165142575335,16.25042317036128,-8.775075341721166,248.4654934485114,68.83627375984884
354,-1.6833740611529968,-184.69476781921375,166.137051658276,66.71813579404844,16.535355632397813,-9.098854699848797,248.45074347549843,69.44606962375802
355,-1.5816776921182527,-184.6300383655726,166.17524213359823,67.26312529283736,16.797381345639973,-9.42455547245882,248.42790890129032,70.07073833356363
356,-1.4720758322769174,-184.55934774304095,166.20996728802797,67.82099894059502,17.035844952614045,-9.749818741415657,248.39826462380722,70.70448091759667
357,-1.3557858443023603,-184.48487813723023,166.24089036038603,68.38605106058615,17.250962898531025,-10.072316968854167,248.36321161502556,71.34157529082196
358,-1.2341514524148138,-184.40893201211384,166.26768339633682,68.952626302598,17.443767984178425,-10.38978803589147,248.32424605474736,71.9764979776579
359,-1.1086292707150693,-184.33386740696028,166.29005006949973,69.51527109899416,17.616027732048074,-10.700067826115198,248.28292661769967,72.60405629621502
360,-0.9807747671533358,-184.26202597174128,166.3077554711329,70.06889880372422,17.77013966350505,-11.001119666901,248.24084107108771,73.21952879359064
361,-0.8522271705213416,-184.19565641933724,166.32066092447306,70.60896411112026,17.909007155003565,-11.291058851480612,248.19957287179108,73.81881024693315
362,-0.724692900041348,-184.13683627169715,166.3287611373981,71.13164047480565,18.035899920504995,-11.56817056777695,248.16066810231823,74.39855583635838
363,-0.5999270658923407,-184.08739501071892,166.3322207464546,71.63399239298025,18.15430343056475,-11.83091992671361,248.12560307952612,74.95631742241304
364,-0.47971249789333587,-184.0488420088732,166.3314074722486,72.1141329276231,18.267761832766478,-12.077953448794958,248.0957532725748,75.49066357517907
365,-0.3658357118243967,-184.02230268083287,166.32691945963404,72.57135594713431,18.379719258079533,-12.30809226671359,248.072364446909,76.00127436468058
366,-0.26005925637673033,-184.00846594794493,166.31960464696718,73.00623245006061,18.493364777427992,-12.520318255827918,248.0565268680065,76.48900201882132
367,-0.1640899753527219,-184.0075454036389,166.3105701927157,73.42066098440861,18.611486615375306,-12.713755137866627,248.0491529957308,76.95588937138534
368,-0.07954289867868751,-184.01925578697708,166.30118035726656,73.8178636364609,18.736341392475683,-12.887647238118769,248.05095876733077,77.40513952730434
369,-0.007900870666573462,-184.04280572846395,166.29304195312253,74.20232130075323,18.86954404920661,-13.04133896303251,248.0624485726474,77.84103231679988
370,0.04952926670491883,-184.07690725618485,166.28797735038222,74.5796448918075,19.011983660776366,-13.174258083686805,248.08390426373052,78.26878581235931
371,0.09166218295362849,-184.11980214540583,166.28798577294287,74.95638272694312,19.163769552569395,-13.285905453245764,248.1153787483375,78.69436434292982
372,0.11767859949832969,-184.16930473419464,166.2951941721677,75.33976835684616,19.32421091673568,-13.375852913569442,248.156694748002,79.12423792692353
373,0.12706556960465584,-184.22286025268426,166.31179939775555,75.73741738012083,19.491831499740904,-13.443750062448425,248.20744916574108,79.5651016294505
374,0.11964898717320796,-184.27761707789605,166.34000374464122,76.15698583705192,19.664418988715298,-13.48933943993399,248.26702327659103,80.02356667132156
375,0.0956150162472235,-184.33051071620088,166.38194626300486,76.60580616965606,19.83910667842505,-13.512478637419342,248.3345987073933,80.50583777038572
376,0.05551772790361731,-184.37835675124822,166.4396325055214,77.090519055322,20.012483064037255,-13.513166907927658,248.40917894729225,81.01739283696133
377,0.0002712022489923834,-184.41794945451355,166.51486557911633,77.61672036870436,20.18072336794213,-13.491573165896437,248.48961586359357,81.56268154494511
378,-0.06887438301569854,-184.44616228228278,166.6091813235348,78.18864191922104,20.339735868809722,-13.448061882739106,248.5746403236717,82.14485835602534
379,-0.1503718304198998,-184.4600462130726,166.72379016557113,78.80888246818512,20.485315432357677,-13.3832133057732,248.6628956467515,82.76556337052989
380,-0.24242920621967728,-184.45692195196972,166.8595278842765,79.47820214476721,20.613296905514645,-13.297834640518776,248.75297245628371,83.42476123776144
381,-0.3430726042626583,-184.43446248745485,167.01681728451914,80.19538924630533,20.71970192484014,-13.192959380595823,248.84344368450192,84.12064475151745
382,-0.4502162207480026,-184.39076325375194,167.19564253177612,80.95720402449685,20.80087396686507,-13.069832881629496,248.93289888414535,84.84960610181257
383,-0.5617363670212333,-184.3243980695354,167.39553751296114,81.75839981637849,20.853597834287243,-12.92988349742835,249.01997742062642,85.60627531692415
384,-0.6755460324581053,-184.23445992452682,167.61558898091812,82.59181807494801,20.875200984035274,-12.77467996220367,249.10340037682707,86.38362237527802
385,-0.7896667368286588,-184.1205864334799,167.85445437065977,83.44855069672113,20.863635064609717,-12.605877004121142,249.1820009725386,87.17311691477767
386,-0.9022946258693143,-183.9829702888497,168.1103930723477,84.31816061940933,20.81753677960349,-12.425152243203595,249.2547529383637,87.96493748201294
387,-1.0118580354990119,-183.82235532300848,168.38130881799486,85.18894995665065,20.736267808647373,-12.23413815937563,249.32079573160576,88.74822084559601
388,-1.117064106257974,-183.64001893813528,168.66479997874788,86.04826388237451,20.61993403715196,-12.034353284648983,249.37945500941137,89.51134100393294
389,-1.2169325376494782,-183.4377418049086,168.95821413823225,86.8828179857658,20.46938477700874,-11.827136835195592,249.43025658657066,90.24220708456356
390,-1.3108152649840257,-183.21776591981978,169.25870332942426,87.6790368079908,20.286193004308362,-11.61359086482851,249.4729322583384,90.92856930860825
391,-1.3984016494625686,-182.98274227870618,169.5632768055713,88.4233917010884,20.072617918939553,-11.394533739284721,249.507416320261,91.5583225595014
392,-1.4797095734788932,-182.73566948623764,169.86884912573169,89.10272698253148,19.831551369357808,-11.170468249590591,249.53383228144952,92.11979782205287
393,-1.5550635601804657,-182.47982461583723,170.17228252169508,89.70456451999631,19.56644987587479,-10.94156696583704,249.55247007004047,92.60203277022842
394,-1.6250616692540258,-182.2186877229326,170.47042373284586,90.2173782679928,19.281254098348064,-10.707676541262932,249.56375492265363,92.99501398443249
395,-1.69053338688145,-181.955861730119,170.76013648986412,90.6308318149359,18.980297631527257,-10.468341721753752,249.5682100541098,93.2898846123377
396,-1.7524909084002893,-181.69498992812214,171.0383314273957,90.93597366607413,18.668207026369263,-10.222848886558706,249.56641598978592,93.47911275403314
397,-1.812076097768517,-181.43967389062377,171.3019954048943,91.12538682652475,18.349795003482228,-9.97028808095203,249.55896997493815,93.55661751363169
398,-1.8705051740883862,-181.19339490781996,171.54822209079524,91.19329132056934,18.029948992660923,-9.709631693873137,249.54644900517224,93.5178515842435
399,-1.9290130387220936,-180.95944189315875,171.77424526533727,91.13560056343975,17.713517370739165,-9.439827172174704,249.5293796308486,93.35984139003973
400,-1.9887991814987929,-180.7408481402439,171.97747567753592,90.94993482277798,17.405195987161463,-9.159900465098449,249.50821683684362,93.08118801748186
401,-2.05097717575553,-180.54033853878607,172.15554157373649,90.63559713948487,17.109417692997944,-8.869066279825658,249.4833332433019,92.68203419095671
402,-2.116529717692036,-180.36028813190316,172.3063323319434,90.19351883290155,16.830247617789368,-8.566840701527559,249.455018872035,92.16400419909743
403,-2.1862708871179524,-180.20269230608102,172.42804405709424,89.62618294265152,16.571286880158418,-8.25315127502373,249.4234908918288,91.53012480969356
404,-2.2608168125122767,-180.06914840429283,172.5192255084667,88.93753450495211,16.335587274017215,-7.928439246024669,249.38891205440257,90.7847356705782
405,-2.3405652861397277,-179.9608480280089,172.57882230964634,88.13288628866962,16.125579265816167,-7.593748335231189,249.3514158570493,89.93339735264027
406,-2.4256842024875613,-179.8785786948534,172.6062170720685,87.21882747330712,15.943015398856268,-7.250794265155555,249.3111358091426,88.98280401186078
407,-2.51610812823859,-179.82273294167624,172.6012629677676,86.2031408120865,15.788930891378305,-6.902009464058388,249.26823569327394,87.94070571698325
408,-2.611541996896975,-179.79332258287732,172.56430850645765,85.09473127923296,15.66362274498987,-6.550558136494815,249.22293758812967,86.81584300408568
409,-2.7114709233363286,-179.78999577552864,172.49621174751448,83.90356630372071,15.566648018960533,-6.200318291265549,249.175544708984,85.61789343151085
410,-2.815175400964141,-179.81205480388755,172.39834273533748,82.64062471984488,15.496841161078079,-5.855829206317351,249.1264567005971,84.35742708573211
411,-2.9217515248471893,-179.85847296784985,172.27257344586,81.31784883556996,15.452349546487394,-5.52220488799455,249.07617570885452,83.04586542161391
412,-3.0301361701501115,-179.92790953873194,172.12125493595113,79.94809187924821,15.430685741446638,-5.205016075979291,249.02530225921876,81.69543582296149
413,-3.1391370359790542,-180.01872241885434,171.94718170912256,78.54505183562814,15.428794495320139,-4.910145092665107,248.97452068062253,80.31911311885041
414,-3.247467041696085,-180.12897892872095,171.75354357754216,77.12318252050473,15.443132073178703,-4.643619257669159,248.92457456585527,78.93053917661605
415,-3.3537818747840467,-180.25646596596783,171.54386559873618,75.69757375392442,15.469755312366193,-4.411429664250313,248.87623355571088,77.543912706546
416,-3.456718844857718,-180.3987014382021,171.32193712863054,74.28379463011632,15.504417781577327,-4.219342875052736,248.83025352610346,76.17384353276994
417,-3.5549348371554945,-180.5529491975154,171.091731704494,72.8976969412264,15.542670634579835,-4.072713563757518,248.78733295411052,74.83516861474529
418,-3.6471411517308803,-180.71623966264946,170.85732022667733,71.55517942743106,15.579966060460244,-3.9763062461878196,248.74806873018474,73.54273066930517
419,-3.732133360889348,-180.88539797271503,170.62278055256343,70.27191725335233,15.61176146880999,-3.934133882987979,248.7129148855242,72.31112387796529
420,-3.8088149669335185,-181.0570809730647,170.39210701310182,69.06306451848562,15.633622582062037,-3.9493202208796765,248.68214759315518,71.15441442361602
421,-3.8762143936274533,-181.22782369828658,170.16912344559813,67.94294031622384,15.64132337951883,-4.0239913155992975,248.65583940846312,70.08584610692922
422,-3.9334953955228715,-181.39409538460635,169.95740308851518,66.92471052923221,15.630940394467215,-4.159199894618917,248.63384509106447,69.11754273745446
423,-3.9799611866716957,-181.55236445773932,169.76019813737784,66.02007797197699,15.598938393172618,-4.354884317954793,248.61580054697927,68.2602192101508
424,-4.015052668710589,-181.69917139268367,169.58038098471408,65.23899271148413,15.542244222256356,-4.609862198063338,248.60113549336424,67.522912270181
425,-4.038341396274332,-181.83120778825486,169.42039826301053,64.58939279402672,15.4583057734757,-4.921857464389662,248.5890994244418,66.9127403480777
426,-4.049518460496888,-181.94539941357883,169.28223792980617,64.07698376464582,15.345133569781476,-5.287558764509741,248.57879943235193,66.43470008247571
427,-4.048381096952255,-182.03899043844888,169.16740893192818,63.70506384510753,15.201323265373503,-5.702706372695061,248.5692475639478,66.09150573943369
428,-4.034819201419693,-182.1096257161658,169.07693249630958,63.47440075773174,15.026058212210113,-6.1622040825559825,248.55941481026724,65.88347695734846
429,-4.008803822455758,-182.15542791057302,169.01134371484312,63.38316594294147,14.819092139010625,-6.660251894167027,248.54828850336816,65.80848008307125
430,-3.9703790704769766,-182.17506632113123,168.97070175928783,63.42693200900464,14.580712990307191,-7.190494722927169,248.53492970126155,65.86192854431597
431,-3.91965794809831,-182.16781430969866,168.95460691057633,63.59873916352355,14.31169012184695,-7.746181883198298,248.51852705736437,66.03684774918972
432,-3.85682167957989,-182.1335922580606,168.9622227973198,63.88923552711007,14.013208275302908,-8.320331748956542,248.4984438151887,66.32400934691157
433,-3.782121459179803,-182.07299308364685,168.9923028163947,64.28689413312226,13.686792936155546,-8.905895834391488,248.47425502029785,66.71213784321455
434,-3.695881287584756,-181.9872876352609,169.04322050516367,64.77830588357608,13.334232656147012,-9.495916691555914,248.44577279067747,67.1881893434276
435,-3.598500706394154,-181.87840787922028,169.1130044600066,65.34854301329331,12.957504467360511,-10.083674571559962,248.41305847632228,67.73769780084466
436,-3.490456611082207,-181.74890670842416,169.1993790051323,65.9815823672347,12.558708373300439,-10.662818708465824,248.3764216301883,68.34517915238933
437,-3.372303728695926,-181.60189444130086,169.29981194909612,66.66077285735784,12.140015926278474,-11.22748023447223,248.33640671241315,68.99457890018374
438,-3.2446736640303904,-181.44095352757907,169.4115702985884,67.36932758204034,11.703636161545315,-11.772364948677113,248.29376920185572,69.66974477405643
439,-3.1082726071687765,-181.27003442962436,169.53178382297662,68.09081872543297,11.251799954494448,-12.292825266705822,248.24944319882482,70.35490357157366
440,-2.963877898341162,-181.09333683694786,169.65751516553084,68.80965265483566,10.78676162420373,-12.784911561579374,248.2045026674614,71.03512031737891
441,-2.8123337404174347,-180.91518114636025,169.7858341306781,69.51150355748774,10.310814739764394,-13.245403752009631,248.16011831151877,71.69671852902094
442,-2.6545464444363502,-180.73987550622283,169.91389306053216,70.18368638833181,9.826317878643565,-13.671824458629136,248.11751185643283,72.32764255853839
443,-2.491479616125217,-180.5715837399371,170.03899985105173,70.81545363493309,9.33572561372692,-14.062435389007938,248.07790927103548,72.91774652173402
444,-2.32414956930376,-180.41419920252562,170.15868505515718,71.39820507148761,8.84162015048504,-14.416218840568847,248.04249419430454,73.45899885433766
445,-2.1536209865900204,-180.27122918406127,170.27075965684165,71.92560474811675,8.346739606224903,-14.732846304460198,248.01236259664933,73.94559650770613
446,-1.9810025295795108,-180.14569391118067,170.3733605651005,72.39360443236801,7.853999750602025,-15.012636090318018,247.9884796063367,74.37398768927575
447,-1.8074418626182316,-180.0400434721605,170.46498174841287,72.80037723789735,7.366506958180381,-15.256501667208433,247.97163949849693,74.74280650091117
448,-1.6341195054712454,-179.95609508188437,170.54449014082903,73.14616907581471,6.8875610065547095,-15.465892071470348,247.96243001728143,75.05272665588495
449,-1.4622410923963107,-179.89499213328847,170.61112675197506,73.43307878029604,6.420647087531347,-15.642725382996083,247.9612023986202,75.30624460351537
450,-1.2930278669733166,-179.85718563505804,170.66449447774386,73.66478023829448,5.96941698322237,-15.789316066764055,247.96804858424042,75.50740483383593
451,-1.1277053984005694,-179.84243799398573,170.70453471342958,73.84620155105509,5.5376598269203825,-15.908297008990264,247.98278706898498,75.66148185535653
452,-0.967490517177188,-179.84984861829815,170.73149505044302,73.98317718316561,5.129263203751804,-16.002537343717666,248.0049585923773,75.77463434958732
453,-0.8135764680667403,-179.87790038844392,170.74589033026118,74.08208925820915,4.74816552904131,-16.075057582461387,248.03383256209727,75.85354733464533
454,-0.6671164018602366,-179.92452553804048,170.74845933555397,74.1495136605294,4.398300731861879,-16.128943986344996,248.06842473144496,75.90507781408881
455,-0.5292055732642074,-179.98718881314707,170.7401193954295,74.19188542025242,4.083536348333323,-16.167264420125537,248.1075261593089,75.93591834228948
456,-0.400862875284583,-180.06298495408075,170.7219210020712,74.21519610280033,3.8076062100688923,-16.192988046586827,248.14974275799545,75.95229129880958
457,-0.28301250506562997,-180.14874672496035,170.69500411517348,74.22473381353855,3.5740389845271383,-16.208911177916097,248.19354384736457,75.95968464580056
458,-0.17646654442248624,-180.24115907331966,170.66055730096093,74.22487417648321,3.386083906543158,-16.21759141519924,248.23731729832718,75.96263775561408
459,-0.0819090441394968,-180.33687463113188,170.61978039341503,74.21892831868878,3.24663517821832,-16.22129187808858,248.27942825857974,75.96458360621736
460,0.00011808193089444879,-180.43262572934557,170.57385107892551,74.20905141111061,3.1581567446011456,-16.221936885318843,248.3182782231412,75.96775118235269
461,0.06922726820629184,-180.52532843394832,170.5238957408302,74.19621263787393,3.1226094652249037,-16.221079968975417,248.35236140696176,75.97312926305433
462,0.1251956003773088,-180.6121747759957,170.47096505414692,74.1802247312704,3.141382983854213,-16.219884670630204,248.3803159602729,75.98049007032667
463,0.16797316121594125,-180.69071020134382,170.4160150911277,74.15982869446383,3.215234688373524,-16.21911821151056,248.40096836773188,75.98846876530664
464,0.19768932508573175,-180.75889415189997,170.35989491041067,74.1328272502179,3.3442380188329093,-16.219157823606807,248.41337015645152,75.99469270429343
465,0.21465687706093925,-180.81514248941073,170.30334159614785,74.09625892705415,3.5277421914498666,-16.22000921441816,248.41682660889074,75.99595272535959
466,0.21937377708605957,-180.85835115777877,170.24698340285974,74.04660340794092,3.7643453589291678,-16.221336291610136,248.41091745634776,75.98840741675534
467,0.21252228852552382,-180.8879011286836,170.19135105507434,73.98000771840995,4.051883356768275,-16.222500917270615,248.3955095807022,75.96781022709654
468,0.19496506922537682,-180.90364537991945,170.13689645891648,73.8925220678235,4.387436322093161,-16.222611097485263,248.3707617191893,75.92974845402593
469,0.16773770423110088,-180.90587943392356,170.0840172913887,73.78033389366534,4.76735535731822,-16.220575604630223,248.33712118844355,75.86988278448133
470,0.1320370324067345,-180.89529775628552,170.0330852760264,73.63998916566793,5.187310862442301,-16.215162565259373,248.2953127529057,75.78417641293458
471,0.08920448572779421,-180.87293894427225,169.98447541154283,73.46859142026237,5.642363165529767,-16.20505909949499,248.2463198463217,75.66910398279292
472,0.040703599009643036,-180.84012303882753,169.9385929763848,73.26397115332938,6.127054758473535,-16.18892882637767,248.1913583414047,75.52183255747987
473,-0.011908992887958115,-180.7983844838828,169.89589504968532,73.02482067845317,6.635521932580195,-16.16546412970939,248.13184314502135,75.34036915799243
474,-0.06701924552120334,-180.74940423443098,169.85690399697484,72.75079191737217,7.161622036712961,-16.13343059426124,248.06934837493063,75.12367169244222
475,-0.1229973844102919,-180.69494418096858,169.82221187514853,72.44255655643745,7.699071144179629,-16.091701909829084,248.0055626870274,74.87172208143744
476,-0.17824379528497264,-180.6367863325655,169.79247633158133,72.10182946325016,8.241585892203682,-16.039284643803775,247.9422419358582,74.58556192854732
477,-0.23123640067798612,-180.5766781962027,169.76840954621983,71.73135717827849,8.783022907222838,-15.975333398351525,247.8811613119879,74.26729215165373
478,-0.2805763534459286,-180.51628478995178,169.7507619561278,71.3348737340734,9.317509657164152,-15.899157753359386,247.8240685128126,73.92003860746253
479,-0.3250290892956817,-180.4571470108289,169.7403022432628,70.9170262164983,9.839561675356025,-15.810222854419234,247.77263880509895,73.54788607227027
480,-0.36355850740866164,-180.40064580363406,169.73779464040356,70.48327270383614,10.344182587933897,-15.708145510836111,247.7284323446814,73.15578328368731
481,-0.3953529854365767,-180.3479717426081,169.74397414303473,70.0397557985937,10.826944887172527,-15.592687361655043,247.69285391866194,72.74942237597689
482,-0.41984279090185794,-180.30010005652593,169.7595198190071,69.59315593041202,11.284050679388836,-15.463746232122444,247.66711530771366,72.33509698794492
483,-0.43670904904349583,-180.25777153013183,169.78502623035686,69.15052960532047,11.712372628815153,-15.321346381941986,247.6522006339668,71.91954426814044
484,-0.4458847356999082,-180.2214799392473,169.8209731655135,68.71913825895327,12.10947601419676,-15.16562802452969,247.64883534416865,71.50977643580406
485,-0.44754825306907187,-180.1914667147277,169.86769444113844,68.30627299686421,12.473623179609222,-14.996836301759895,247.6574598841393,71.11290714749249
486,-0.4421101071044469,-180.16772341384018,169.92534726439874,67.91907940722058,12.80376171484047,-14.815309834983697,247.6782095316552,70.73597680244794
487,-0.43019312456924647,-180.15000233549432,169.99388424019855,67.56438529260566,13.099497636740969,-14.621469063084776,247.71090208079528,70.38577959979621
488,-0.41260663269134573,-180.13783531949326,170.07303037001915,67.24853309049394,13.361054956788616,-14.415804837296122,247.75503503083246,70.06869417681396
489,-0.39031517335302535,-180.1305604820757,170.1622672802333,66.97721830164438,13.589223463734145,-14.19886809290079,247.80979364544703,69.79051936966768
490,-0.3644026452980925,-180.12735630817218,170.2608264516822,66.75533566726713,13.785297186023948,-13.971261679090619,247.87407068422945,69.55631721535966
491,-0.3360331627555516,-180.1272820574443,170.3676924611534,66.58683617027968,13.951006533320587,-13.733635423730659,247.94649774641567,69.37026670404379
492,-0.3064102479415861,-180.12932290905576,170.48161637808352,66.47459983771631,14.088447349100555,-13.486685185130806,248.02548718129512,69.23553361474293
493,-0.27673613386293944,-180.132437847026,170.60113873284143,66.42033106887338,14.200010011126928,-13.231156090700221,248.1092827091526,69.15416334290083
494,-0.24817292343291592,-180.13560804457106,170.72462099624107,66.42448402782787,14.288311331994693,-12.967849548463718,248.19601638808538,69.12700424050331
495,-0.22180719532804155,-180.13788336435397,170.8502842068478,66.48622507152483,14.356131358063761,-12.697633081023307,248.2837692470145,69.15366823487031
496,-0.1986194329661767,-180.1384245203528,170.976253140209,66.60343727822055,14.406356302513178,-12.421451646796884,248.37063268367683,69.2325334377647
497,-0.1794593908126651,-180.13653854872402,171.10060421265115,66.77276930704987,14.441927935295062,-12.140338924683554,248.454767659818,69.36079053939639
498,-0.1650281956415993,-180.13170560227869,171.22141521212043,66.98972761477332,14.46579898212608,-11.855427078034145,248.53445892296546,69.53453158296821
499,-0.15586761449314307,-180.12359567360747,171.3368150210396,67.24880800372794,14.480893581755108,-11.567953746251762,248.60816196288343,69.74887675443951
500,-0.15235650619780766,-180.11207453509203,171.4450317500437,67.54365994526093,14.490071635442908,-11.279265296952518,248.67454108191325,69.99813242844986
501,-0.15471403745963647,-180.09719885489895,171.54443802401528,67.86727529937286,14.4960958912215,-10.990815548295098,248.73249766737715,70.27597201573896
502,-0.16300885505810214,-180.07920109288898,171.63359239247438,68.21219201792935,14.501600742398377,-10.704159202962966,248.7811883800484,70.57563021334965
503,-0.1771730858396271,-180.05846545039716,171.71127592851911,68.57070324542693,14.509061916142075,-10.420939251333492,248.82003352051612,70.89010114339088
504,-0.19701973959812566,-180.0354968413182,171.7765231059902,68.93506292382483,14.520766474322029,-10.14286778305354,248.84871635388652,71.21233161603259
505,-0.22226181747832802,-180.01088542729354,171.8286460536983,69.297680398218,14.538782875750783,-9.871700065556611,248.86717459527398,71.53540222549648
506,-0.25253130898722836,-179.98526952828843,171.8672512910172,69.6512982719652,14.56493127450908,-9.609202323340442,248.87558545671024,71.85269085076553
507,-0.28739645380794115,-179.95929962652372,171.89224815375448,69.98914951199772,14.60075471860425,-9.357114258118267,248.87434566321429,72.15801500973359
508,-0.3263761644638064,-179.93360582012915,171.90384849092223,70.30509131965823,14.647492374046827,-9.117107926430867,248.86404784666863,72.44575114873705
509,-0.36895117385058457,-179.908770552225,171.90255782871637,70.5937144938535,14.706056199718361,-8.890745113277159,248.8454547754424,72.71093024632292
510,-0.4145720650886778,-179.8853077844785,171.88915876974954,70.85042797038821,14.777012523322318,-8.679435736825468,248.8194728045726,72.94931008720474
511,-0.46266475971675397,-179.86364905611885,171.86468769141013,71.07151898719191,14.860569702952759,-8.484399965714648,248.787125613031,73.1574252640896
512,-0.5126342956643115,-179.84413619937058,171.83040587623344,71.25418990921212,14.956572611727516,-8.306636516357319,248.7495288592317,73.33261641183354
513,-0.5638678291356722,-179.82702002452493,171.78776616451768,71.39657311044006,15.064504213565932,-8.146899013516817,248.70786602573156,73.47304036543514
514,-0.6157377360140469,-179.8124640743102,171.738376037181,71.49772543464776,15.183494121232922,-8.005681470112947,248.663365442984,73.57766287942313
515,-0.6676055074691166,-179.80055244325715,171.68395772059702,71.55760369671265,15.312333779821602,-7.883213055542483,248.61727818654762,73.64623533246494
516,-0.7188269246250413,-179.7913005124729,171.62630567632786,71.5770225482731,15.449497770330161,-7.779461507718534,248.57085627703944,73.67925657842629
517,-0.7687588374287905,-179.78466724069378,171.56724193441977,71.55759590038214,15.59317061713868,-7.694143878267981,248.5253305254018,73.67792087265023
518,-0.8167677630153382,-179.78056749549384,171.50857012229466,71.50166301202624,15.74127837947436,-7.626742845176978,248.4818875232984,73.6440526394096
519,-0.8622403926645688,-179.77888298121235,171.45202949127295,71.41220035269183,15.891524247989027,-7.576526627189713,248.4416456404119,73.58002880113827
520,-0.904595908499249,-179.7794707069167,171.3992505430705,71.29272051371586,16.04142739448907,-7.5425706075082575,248.4056303754196,73.48868955549618
521,-0.9432997854162134,-179.78216852276108,171.35171395971756,71.14715988257306,16.188364399446517,-7.523779106593994,248.3747498980297,73.37323895668402
522,-0.9778785337753444,-179.78679782354212,171.31071448628762,70.9797575200473,16.329612634470468,-7.51890625928471,248.3497719924219,73.23713742160008
523,-1.0079346294518647,-179.79316394955308,171.2773312352703,70.79492855765427,16.462394987031747,-7.526575524390955,248.33130379739544,73.08398919023381
524,-1.0331606678969292,-179.80105508701385,171.25240556124024,70.59713625651221,16.58392532674924,-7.545297868967131,248.31977571178948,72.91742862077754
525,-1.0533515956963098,-179.81024057967414,171.23652718686913,70.39076745746512,16.691454182078544,-7.573489042371815,248.31543058731017,72.74100982133658
526,-1.068413791887116,-179.82046952953516,171.23002868071472,70.18001636957024,16.782314253421774,-7.609486546517766,248.31831890362014,72.55810438375212
527,-1.0783698554774859,-179.831470462429,171.23298778796075,69.96878140241382,16.853965610201627,-7.651566949006635,248.328300132277,72.37181180525572
528,-1.0833582069959016,-179.84295271144157,171.24523664736,69.76057904172583,16.9040406153379,-7.697964156386982,248.34505008530724,72.18488654366163
529,-1.0836270028934107,-179.85460998175265,171.26637672167524,69.55847770376066,16.930388675381685,-7.746889203240961,248.36807376745662,71.9996846313562
530,-1.07952239265114,-179.8661262495517,171.29579833767121,69.36505326469708,16.931120763883413,-7.796551975063754,248.3967230778074,71.81813152904971
531,-1.071471800781858,-179.87718375472804,171.3327039495487,69.18236671353468,16.90465333717567,-7.84518502693343,248.43021857826446,71.64171159496792
532,-1.059963545672881,-179.88747246457993,171.37613440892412,69.01196320207278,16.849750856416538,-7.891069326843758,248.46767439219047,71.47147828512371
533,-1.0455244894704654,-179.89670007706883,171.42499750194662,68.85489067321151,16.765565772585326,-7.932561435536758,248.50812506078032,71.30808303339336
534,-1.028697437707709,-179.90460143401236,171.47809784837347,68.71173524182078,16.6516746155841,-7.968121401145273,248.55055292703827,71.1518197176419
535,-1.0100197594903941,-179.91094616255793,171.53416717819425,68.58266961961316,16.508108766265604,-7.996340517914464,248.5939145229988,71.00268074242895
536,-0.9900043346141951,-179.91554349880477,171.59189419175058,68.4675101948124,16.335378512167942,-8.015968076193994,248.63716466285464,70.86042011899241
537,-0.9691235571222,-179.9182436003707,171.64995360394366,68.36577800447002,16.134489023909797,-8.0259363100362,248.6792774699202,70.72461858346004
538,-0.9477967908849567,-179.9189351548715,171.70703434234494,68.27675886852063,15.90694694766651,-8.025382906263905,248.719264179438,70.59474585658329
539,-0.926381417827548,-179.91753954791855,171.76186704834583,68.19955841728678,15.654756455368297,-8.013670634806719,248.75618801038507,70.47021564965746
540,-0.9051674483740159,-179.91400212521896,171.81325100161592,68.13314856825448,15.380403865535584,-7.990403829908767,248.78917657226515,70.35042989554267
541,-0.8843755606836274,-179.9082812061768,171.86008041277702,68.07640305463202,15.086830322034466,-7.955441506318066,248.8174322376381,70.234809781354
542,-0.8641584049225698,-179.9003356186768,171.90136979011965,68.02812071231834,14.777392455310176,-7.908906775839012,248.8402408253881,70.12281230477657
543,-0.8446050394318747,-179.8901117214585,171.9362778563332,67.98703623449518,14.455811418733429,-7.851191974160532,248.85697892282408,70.01393211169658
544,-0.8257483467763106,-179.87753113449895,171.96412931895517,67.95181890000424,14.126111149710361,-7.782958634728374,248.86712023949548,69.90768920171355
545,-0.8075750752144335,-179.86248056863363,171.98443372645218,67.92106038555553,13.79254709790193,-7.7051312968039145,248.87024145891115,69.803603726452
546,-0.7900378031929108,-179.8448050736722,171.99690070346847,67.89325330899858,13.459526975036884,-7.618884216035366,248.86602804366345,69.7011596851226
547,-0.7730678589511261,-179.8243056353001,172.0014510061158,67.86676275262958,13.131525375721612,-7.52562038405066,248.85428026976234,69.5997599871979
548,-0.7565882382680722,-179.80074142401983,171.9982229310485,67.83979369581557,12.812994489108458,-7.4269427890357695,248.83491937860688,69.49867612933888
549,-0.7405258093351501,-179.77383636630037,171.98757358553075,67.81035793011438,12.508273570153076,-7.324618434512261,248.8079932623636,69.39699649771785
550,-0.7248223360190671,-179.7432893231424,171.9700745283512,67.77624447605731,12.221500241130823,-7.220536150663322,248.77368082584078,69.29357786061355
551,-0.7094439051926974,-179.70878711970903,171.9465015042735,67.73499762857709,11.956526892662477,-7.1166596017225645,248.7322942884342,69.1870047833137
552,-0.6943882852384974,-179.67001985199164,171.91781836022975,67.68390644405962,11.716845359825063,-7.014977111697894,248.68427907676343,69.07556138142715
553,-0.6796897933605649,-179.6266980640253,171.88515552718727,67.62000875454902,11.505522647562643,-6.917450051898373,248.63021128554297,68.95721904536792
554,-0.6654214897871209,-179.57857134167193,171.84978355347062,67.54011175126396,11.325149812480507,-6.825961597740914,248.57079272049796,68.82964262899195
555,-0.651694827948496,-179.52544758144256,171.81308210906812,67.44082995554346,11.177805287818526,-6.7422676587457895,248.5068432828393,68.69021625070798
556,-0.6386571386721518,-179.4672118434597,171.7765047509912,67.3186401254294,11.06503312190663,-6.667951684231318,248.43929011163826,68.53608846016576
557,-0.6264874675686746,-179.4038435310287,171.74153973546152,67.16995145297295,10.987835902309138,-6.604384846451871,248.3691527756506,68.36423521609444
558,-0.615391300252196,-179.33543076315678,171.7096674714858,66.99118838985004,10.946681584962775,-6.552692831471257,248.29752410785954,68.17153800544077
559,-0.6055945952122965,-179.26218111366603,171.68231582388205,66.7788826676304,10.941523021772776,-6.513730148074731,248.22554692142012,67.95487358004634
560,-0.5973373664673409,-179.1844281785901,171.66081516237168,66.52977060540903,10.971828671470904,-6.488062510705437,248.1543875296197,67.71121124547729
561,-0.5908669158605939,-179.10263359971347,171.64635552932853,66.24089165941788,11.036622791516352,-6.475957514265823,248.08520744165293,67.4377134498095
562,-0.5864307149576297,-179.01738428450005,171.63994835496794,65.90968437798234,11.134533341821793,-6.477383561456474,248.01913472611596,67.13183560411129
563,-0.5842688284275946,-178.92938475109096,171.64239474375958,65.5340764285705,11.263845858955202,-6.492016804782633,247.95723639067342,66.79142156248203
564,-0.5846057098905711,-178.83944483880964,171.6542616464681,65.112566020909,11.422561636625208,-6.519255623399609,247.90049286277895,66.41479184151405
565,-0.5876413192848096,-178.7484633669711,171.67586646609797,64.64429266556498,11.608458623588108,-6.558241833684071,247.84977537696375,66.0008222615348
566,-0.5935417894247298,-178.6574085400455,171.70726999387105,64.1290956245726,11.81915347299919,-6.607887506301011,247.8058267817758,65.54901108796126
567,-0.6024301134438127,-178.5672959363276,171.74827708882114,63.56755862111266,12.052163124169157,-6.666906006194797,247.76924597539053,65.05953293412122
568,-0.6143774111472972,-178.47916489866253,171.79844422910526,62.96103953434537,12.304964216558174,-6.733845705735456,247.74047596765934,64.53327781963768
569,-0.6293953217528966,-178.39405419200685,171.85709299909544,62.31168408515788,12.57504862243999,-6.807124767351452,247.71979555426557,63.971874049031946
570,-0.6474300414919055,-178.3129778874807,171.92332868008856,61.62242294358015,12.859973500340965,-6.885065503839068,247.7073147273765,63.37769402557841
571,-0.6683584627246962,-178.23690248300178,171.99606325836265,60.89695215247898,13.157404513598769,-6.965927128124347,247.70297408226926,62.75384264589888
572,-0.6919867489693671,-178.166726224319,172.07404226358352,60.13969716523757,13.465151193236503,-7.047936120092482,247.70654851172884,62.10412842047258
573,-0.7180515067207434,-178.10326145057465,172.1558748839189,59.355761120931,13.78119380700537,-7.12931380782,247.71765539915194,61.433017891493925
574,-0.7462234934537102,-178.0472205656845,172.24006677916577,58.550858259959305,14.103701478596127,-7.208300989685836,247.7357673404587,60.74557428123941
575,-0.7761135336396973,-177.99920593045644,172.32505494648834,57.731233622210624,14.431041655813074,-7.283179555467058,247.76022915560887,60.04738160670303
576,-0.8072800617856383,-177.959703607709,172.40924388601755,56.90357034057876,14.761781360297205,-7.352291189470425,247.79027861291866,59.34445572541935
577,-0.8392376020630246,-177.92908056247143,172.49104215680603,56.074885962238206,15.094680972756654,-7.414053401399484,247.82506994154596,58.64314395725849
578,-0.8714656376503053,-177.90758472044854,172.56889826989058,55.252419406274626,15.428681603799859,-7.466973328950492,247.86369896456316,57.9500151584569
579,-0.9034176879275623,-177.89534723352594,172.64133484753802,54.44351049866429,15.762887366531137,-7.509659947438659,247.90522863491958,57.27174249797626
580,-0.9345308092726161,-177.8923863188335,172.70698009673944,53.65547447441159,16.09654413261632,-7.540835406663619,247.94871385337223,56.6149816614491
581,-0.9642359649515583,-177.89861206854494,172.76459580000036,52.895474247644565,16.429016636810832,-7.55934608313076,247.99322457743142,55.986247628447934
582,-0.9919697066191083,-177.91383167071527,172.81310118652556,52.17039350497457,16.759766032197433,-7.564173572283711,248.0378663719415,55.391793400878306
583,-1.0171874347024308,-177.93775454832095,172.85159230675038,51.48671377918149,17.08833004817458,-7.554445375080823,248.08179778010202,54.83749408232864
584,-1.0393782431235283,-177.9699970019822,172.87935692476916,50.85039868832218,17.414307636205393,-7.529444635509451,248.1242442224176,54.32873958126268
585,-1.0580810707111141,-178.0100860105285,172.89588530761918,50.26678852809432,17.737349385756232,-7.488618082948212,248.16450843414677,53.87033899170386
586,-1.0729016368737585,-178.05746190956768,172.90087743519828,49.74050833291573,18.05715417309398,-7.4315813528382115,248.20197759988253,53.4664393834745
587,-1.0835294865750635,-178.11147979452596,172.89424705998093,49.27539226556509,18.373471647569016,-7.358121059235709,248.2361273682981,53.12046125279627
588,-1.0897544193215891,-178.17140974732075,172.87612284661174,48.874426699020184,18.686109395638724,-7.268193307061813,248.2665229723591,52.83505221885032
589,-1.0914815652715038,-178.23643631929735,172.84684666041096,48.53971365513461,18.994943013618673,-7.161918705792538,248.2928178069012,52.61205975334719
590,-1.0887443177023652,-178.30565795710575,172.8069690036629,48.272455449154286,19.2999269054539,-7.039574349191839,248.31474994835654,52.45252289353074
591,-1.081714249729255,-178.37808711847464,172.7572415646965,48.072960545924175,19.601103442714013,-6.901583623865333,248.332137121184,52.3566821117532
592,-1.0707071448748655,-178.45265174656998,172.69860673812522,47.940669833331896,19.898608211331332,-6.748505028093142,248.34487048632334,52.32400586706626
593,-1.0561844178551618,-178.52819870451626,172.63218375221584,47.874201789438494,20.192669423253037,-6.581021323183896,248.35290742567466,52.35323186294834
594,-1.0387494394570125,-178.603499790703,172.55925082139763,47.87141435002076,20.4836001337091,-6.3999302569625875,248.35626335974592,52.44242064395165
595,-1.019138540033093,-178.67726099328436,172.4812227395826,47.9294806594604,20.771782573104375,-6.206137832660597,248.3550026618511,52.589018837043426
596,-0.9982067543125501,-178.7481355699745,172.39962365692443,48.044975338035904,21.05764458377427,-6.000654724177274,248.3492289092391,52.78992908023413
597,-0.9769087136892297,-178.81474129321774,172.3160553770114,48.21396749827297,21.341628789862817,-5.784596039407093,248.33907495135827,53.04158353647101
598,-0.9562754595692646,-178.87568183564306,172.2321621931551,48.43211656255209,21.62415568921858,-5.559184276923778,248.3246934917311,53.34001792074981
599,-0.9373882448961879,-178.92957191946732,172.14959381630914,48.69476698186018,21.905582318399066,-5.325755027247376,248.30624900344202,53.68094317269169
600,-0.9213505271879283,-178.97506563504186,172.0699681446731,48.99703818493733,22.186158496194714,-5.085764689569935,248.2839117818839,54.05981223375461
601,-0.9092593442569834,-179.01088725554504,171.99483549135013,49.333906432477185,22.465982887942047,-4.840799160608056,248.2578547904729,54.471879768516146
602,-0.9021771677364364,-179.03586383894734,171.92564560857878,49.700275636683564,22.74496123225972,-4.592582120914613,248.2282537353868,54.91225302647466
603,-0.9011051783717567,-179.0489588394512,171.86371858794647,50.091034574472644,23.022769013559145,-4.342981251480466,248.19529057372543,55.375932318349484
604,-0.9069586952745027,-179.04930587090402,171.81022048335598,50.50109831105214,23.298820649602472,-4.094010510785646,248.15916043812004,55.85783981904228
605,-0.9205452425169097,-179.03624172637947,171.7661442162253,50.92543223195774,23.572246923297644,-3.847826541485326,248.12008173188156,56.35283578267251
606,-0.9425455046428338,-179.0093377652514,171.73229592379994,51.3590580876345,23.84188196639453,-3.606717419629503,248.07830887668158,56.855721999556664
607,-0.9734972498044306,-178.96842879190615,171.7092864312508,51.797043042442304,24.10626064888776,-3.373082339093286,248.0341468716596,57.361233607607694
608,-1.0137822033423447,-178.91363851165838,171.69752708252935,52.23447486164284,24.363626794024242,-3.149401387931075,247.9879664871717,57.86402218101795
609,-1.0636158284279258,-178.84540050848818,171.69722888127083,52.666428814290846,24.611952270112553,-2.9381952072294157,247.94021861834517,58.35863513158522
610,-1.1230399783808251,-178.7644734554339,171.708403842665,53.08793420577624,24.848966726039485,-2.7419749232072994,247.89144611882895,58.83949849165394
611,-1.191918403543327,-178.67194903386562,171.73086764349677,53.49395021575418,25.072197529302063,-2.5631832613255026,247.84229139275382,59.30091167088726
612,-1.2699351501170757,-178.56925089291437,171.7642429777209,53.87936143456806,25.279019305294582,-2.404128197972402,247.79349813751344,59.73706335981584
613,-1.3565960138844586,-178.4581229402868,171.80796328485624,54.239002727474215,25.466712309171182,-2.266910945375334,247.74590577809602,60.14207699081802
614,-1.4512333737892416,-178.3406053575974,171.8612766344356,54.5677205618143,25.6325286161056,-2.15335057702142,247.70043528394444,60.51009182957619
615,-1.5530148047496284,-178.21899715512544,171.92324970741987,54.8604738504967,25.773764744453615,-2.0649082040381566,247.6580654685546,60.83538197720991
616,-1.6609557288069252,-178.09580499700604,171.9927722816636,55.112472281970476,25.8878388133294,-2.00261423997638,247.6197998507989,61.112510824112235
617,-1.7739360276603728,-177.97367935746286,172.0685633787728,55.319344872448504,25.972369696011114,-1.9670028237430521,247.58662563070814,61.33651355314124
618,-1.890720207979252,-177.8553404917538,172.1491808615937,55.4773269336799,26.02525495110193,-1.9580577932936147,247.55946779306908,61.503095915025376
619,-2.0099805870455363,-177.74349787024425,172.23303635360193,55.58345045280602,26.0447437729712,-1.9751746346879255,247.53914224767996,61.608834355751405
620,-2.130323049465706,-177.64076738518375,172.31841681166546,55.63572143059013,26.029500995832677,-2.0171425036972948,247.52631201701752,61.65136112441445
621,-2.250315018282638,-177.5495907292076,172.4035132244065,55.63326815364041,25.978658439188184,-2.08214965571112,247.5214499481943,61.62951842319194
622,-2.3685151798271216,-177.4721609815878,172.4864561120895,55.57644654872584,25.89185062867493,-2.1678143952665305,247.52481060638507,61.54346788103958
623,-2.483504138346119,-177.41035783529807,172.56535695342075,55.46689230321188,25.769233079416566,-2.2712420375280873,247.53641318181,61.394745265552494
624,-2.5939146638291364,-177.36569523271078,172.63835428572932,55.30751379852028,25.611482683865425,-2.389106517658636,247.5560364899466,61.186254822699375
625,-2.6984597981272014,-177.33928349010202,172.70366284562692,55.10242454242085,25.419781058484936,-2.5177534231655394,247.58322637832782,60.922202346078194
626,-2.7959571352053803,-177.33180717301272,172.75962366169492,54.85681824548473,25.19578278222215,-2.65331962957056,247.6173149502497,60.6079705266487
627,-2.885348241040197,-177.34351894918848,172.80475257620725,54.57679362154185,24.941571194222607,-2.791863592138577,247.65744998600235,60.249943958831665
628,-2.965713152249309,-177.3742485135764,172.83778448970372,54.26913914457472,24.659604767232832,-2.929499733579445,247.70263202707855,59.85529413271679
629,-3.036280659372128,-177.42342472215773,172.8577109154837,53.94109020092943,24.352657059540093,-3.0625302008600936,247.7517561276055,59.43173669219362
630,-3.0964353137146072,-177.49010849469042,172.8638092307473,53.60007225970672,24.023752963605048,-3.187567486492572,247.80365543132484,58.98727416460844
631,-3.145721887144973,-177.57303387308974,172.85566307536442,53.25344382898741,23.676103550104546,-3.3016420506648996,247.8571443506608,58.52993732590416
632,-3.1838476746206577,-177.67065473772664,172.8331742792679,52.908252121131696,23.313041375594253,-3.402290171537482,247.91105985196097,58.06753746496163
633,-3.2106827883714604,-177.78119495791753,172.79656715418616,52.57101268040445,22.937957757448864,-3.4876187052460987,247.96429986047093,57.607440231717824
634,-3.2262585074113628,-177.90270009347523,172.74638588605018,52.24752200341081,22.554243254366654,-3.5563450690891756,248.01585797085596,57.1563697425903
635,-3.230763795413624,-178.03308906822718,172.6834853399057,51.942709696523956,22.1652324138893,-3.6078123733277083,248.06485357020009,56.72024940871921
636,-3.2245402027358288,-178.170204402763,172.60901517599146,51.660534171838705,21.774153720244236,-3.6419810427968184,248.11055631137313,56.30408369335866
637,-3.208075356507172,-178.31185965581474,172.5243969835981,51.40392338890812,21.384085561153633,-3.6593993533635873,248.1524037830056,55.911882756216016
638,-3.1819949982064557,-178.4558828585599,172.43129422639012,51.174759764989844,20.997918897546853,-3.661156004370752,248.19001137350222,55.54662974192771
639,-3.1470531552681718,-178.6001550585026,172.3315751445981,50.97390619220989,20.618327123240437,-3.6488181864037914,248.22317380130988,55.210288389065646
640,-3.104119796466737,-178.74264356539555,172.22726928593355,50.80126825204136,20.247743331670677,-3.62435865948753,248.25185848420625,54.90384680623322
641,-3.0541654020503985,-178.88142994729102,172.12051885651502,50.65588634962619,19.888344906052524,-3.5900752260524684,248.2761916054105,54.627391844239455
642,-2.998242232357651,-179.01473310479275,172.01352642202153,50.53605070463725,19.542045066549477,-3.5485057729931793,248.2964381712067,54.38020761344953
643,-2.9374625075418246,-179.14092781311538,171.90850062364194,50.43943195218745,19.21049074961569,-3.502341837793142,248.31297749355545,54.16089138415179
644,-2.8729740600643123,-179.25855907860438,171.80760163143938,50.36322045461185,18.895065932293022,-3.454343411795411,248.3262755407731,53.96748029157823
645,-2.805934284577487,-179.36635265451963,171.71288816991992,50.30426816031952,18.596899242324135,-3.40725738135202,248.33685567502647,53.7975828114095
646,-2.7374834625257276,-179.46322211980748,171.62626811108575,50.25922779509085,18.31687447782068,-3.3637416377775855,248.34526944862722,53.64850973681279
647,-2.6687187801201087,-179.5482729615269,171.54945468526827,50.22468516959372,18.055642589589368,-3.32629654242253,248.35206919625352,53.51740025519002
648,-2.6006704734043926,-179.62080404906234,171.48393012995905,50.19728130331049,17.813633788827726,-3.2972051659800936,248.35778396321814,53.401339582487324
649,-2.534281416447287,-179.68030674841597,171.4309180573339,50.17382180329414,17.59106871015375,-3.278483480993485,248.3628998343847,53.29746536476146
650,-2.470391115872322,-179.72646175769793,171.3913651443741,50.15137145860968,17.387967960418816,-3.2718413897225385,248.36784513658282,53.20306065318908
651,-2.409724582787572,-179.75913362104333,171.36593213052453,50.12733238169767,17.20415987514777,-3.278655115328008,248.3729804658415,53.11563174467288
652,-2.3528860686534183,-179.77836284196394,171.3549936205431,50.0995043877156,17.039286791277547,-3.2999511506411827,248.37859312360928,53.03296965829308
653,-2.3003572860038126,-179.7843556028656,171.3586458329203,50.0661267609793,16.892810524202197,-3.3364016903852844,248.38489535811908,52.953194556372324
654,-2.2524994946753583,-179.77747134541715,171.3767212049628,50.02590110607615,16.76401794725691,-3.388331216603559,248.39202582621746,52.87478298837361
655,-2.2095586783882974,-179.75820886104972,171.40880865765388,49.97799553808056,16.652027577521373,-3.455733578805364,248.40005390086776,52.796578346571906
656,-2.1716729770144005,-179.7271919222482,171.45427831812214,49.92203098279114,16.555797880845752,-3.5382985120002943,248.40898672159264,52.71778533269525
657,-2.1388816310112873,-179.68515560523892,171.5123095792649,49.8580508491941,16.474137724825574,-3.635446163330656,248.41877903004084,52.63794959514469
658,-2.1111349331121505,-179.63293418844873,171.58192150558838,49.78647582103709,16.405719181966344,-3.746367910488016,248.42934573433297,52.55692407275259
659,-2.0883049370961655,-179.57145096636276,171.66200466782928,49.70804597311832,16.349092780864222,-3.8700714967493304,248.44057680880266,52.47482397129684
660,-2.070196752587524,-179.50170973208338,171.75135342490134,49.62375281232541,16.30270526201496,-4.005428221163877,248.45235367216105,52.391972646376566
661,-2.0565600931629278,-179.42478728477877,171.8486975596955,49.53476413820686,16.264919834872952,-4.1512196940113375,248.46456582369973,52.30884091890804
662,-2.04710048790535,-179.34182622302453,171.95273219639319,49.442344786232184,16.23403884024071,-4.306181668638659,248.47712646146894,52.2259824902337
663,-2.0414894166901942,-179.25402740252161,172.0621451141183,49.34777635991156,16.208328639671695,-4.469042757054418,248.4899860188567,52.143968171531206
664,-2.0393726602364026,-179.1626415756119,172.1756407890187,49.25227902631815,16.186046508398984,-4.638556338488362,248.50314280590482,52.063321646912335
665,-2.040376334721971,-179.06895980035952,172.29196063378444,49.1569384127251,16.165469266230577,-4.813524573508701,248.51665008815553,51.98445950025002
666,-2.044110386855414,-178.97430225513673,172.409898975323,49.06264059396215,16.144923278943658,-4.9928141186443895,248.53061902314798,51.90763822789804
667,-2.0501697175309834,-178.88000520045614,172.52831439527142,48.97001797201905,16.122815279885245,-5.175363881552371,248.54521701332206,51.83291080388958
668,-2.058133476235247,-178.78740602400447,172.64613620419524,48.87940837753087,16.09766323765863,-5.360185859044908,248.5606612791083,51.76009492495926
669,-2.067563386249469,-178.69782652796226,172.7623660364508,48.79082896855945,16.068126292102118,-5.546360604595422,248.57720776959619,51.68875434185957
670,-2.078002268483524,-178.61255476707052,172.87607485874807,48.70396561978452,16.033032644306527,-5.733029101552066,248.59513585152132,51.618193832044575
671,-2.0889741520747758,-178.53282580961528,172.98639611508742,48.61817764769414,15.991404241268029,-5.919382814635979,248.6147295647089,51.54746755302587
672,-2.0999872829710666,-178.45980187247494,173.09251622969802,48.5325169834589,15.942477144498955,-6.104653508963966,248.6362566359564,51.47539981795915
673,-2.1105409008104186,-178.39455242305633,173.19366406416074,48.44576032398597,15.885716604335117,-6.288104060809063,248.65994680190775,51.40061678975014
674,-2.1201360331230927,-178.33803494070094,173.28910096991868,48.35645240828077,15.82082606950228,-6.469020975661084,248.68597108827834,51.32158724031207
675,-2.128289989520106,-178.29107697404785,173.37811277057125,48.26295838334811,15.74774963681573,-6.646708834467454,248.71442343238994,51.23667038231348
676,-2.134553827171484,-178.2543599605597,173.46000453820622,48.16352316790157,15.666667760440726,-6.820486582300778,248.74530558042989,51.144168790943326
677,-2.138531783554945,-178.22840514308382,173.53409861866697,48.05633571855133,15.577986343812784,-6.9896854911155035,248.77851580640535,51.04238451072322
678,-2.139901496728867,-178.21356193014012,173.5997360981171,47.93959614704968,15.482319583035181,-7.153648654390613,248.8138418212322,50.92967655551375
679,-2.1384337327603644,-178.2099991656702,173.65628172667354,47.81158374934337,15.380467091895163,-7.3117318691625055,248.8509581995153,50.804518154993595
680,-2.1340102797869336,-178.21769985956448,173.70313213859777,47.67072416485264,15.273385917030785,-7.463305708150608,248.8894285874207,50.66555225608059
681,-2.12663863315146,-178.23645986508168,173.7397270089948,47.5156540301363,15.162158079460673,-7.607758581704527,248.92871276693953,50.51164392318203
682,-2.1164621430049255,-178.26589076916682,173.76556257177046,47.345281576964936,15.047954302378354,-7.744500719077097,248.96817834316843,50.34192837708279
683,-2.1037645228909265,-178.3054269413546,173.78020671527975,47.158841627037006,14.93199464682459,-7.872969202915256,249.00711644918732,50.15585344987893
684,-2.0889680423688444,-178.35433633436412,173.78331474642815,46.95594334859358,14.81550691824942,-7.992634326589732,249.04476053038914,49.95321519882536
685,-2.072625209929785,-178.4117343980383,173.77464494692387,46.73660898987735,14.699683969330833,-8.103007534248288,249.08030713686384,49.73418534127733
686,-2.0554041289933607,-178.47660052180163,173.75407323064917,46.50130167439258,14.585641410304184,-8.203651074720847,249.11293782725014,49.499329129868705
687,-2.0380679923177403,-178.54779667754312,173.7216064925582,46.250940342202036,14.474377674540195,-8.294189292530184,249.14184167173815,49.24961236736463
688,-2.021449500450389,-178.6240881057615,173.67739453016924,45.986900092888874,14.366738749291713,-8.3743211955704,249.16623817054065,48.98639646640897
689,-2.0064213425449497,-178.70416584909228,173.62174054931202,45.71099649266034,14.263390048494456,-8.443833594763879,249.18540047147022,48.7114207235354
690,-1.9938641057751303,-178.78667083633368,173.5551100788454,45.425452842977734,14.164797784370208,-8.502613781960923,249.19867857058756,48.42677128187313
691,-1.9846330238316938,-178.87021919133903,173.47813769407037,45.13285005163199,14.07122173483629,-8.550660503843895,249.20552186438013,48.13483668687551
692,-1.9795249456997184,-178.95342846508777,173.3916305931049,44.836059664685315,13.982720520735812,-8.588091955571858,249.2055001918092,47.83825057342164
693,-1.979246865769209,-179.03494453651712,173.2965680022326,44.53816174577726,13.899169494798526,-8.615149625518983,249.19832249030554,47.53982282188605
694,-1.9843872264014915,-179.11346900032615,173.19409554008308,44.242350468071265,13.820290236719119,-8.6321970139037,249.18385234619979,47.24246135858374
695,-1.9953909566312578,-179.1877868648329,173.08551387365284,43.95183135423892,13.74568958675513,-8.639712525903821,249.16211986011513,46.94908753818338
696,-2.0125389781508893,-179.25679415828282,172.97226120217275,43.66971494067954,13.674905286502902,-8.638276259475633,249.13332922285545,46.66254866904039
697,-2.035932799243255,-179.31952455895296,172.85588938590027,43.39891216571481,13.607454781274832,-8.628550979293436,249.09786124216768,46.38553168890094
698,-2.0654847459598162,-179.37517360952302,172.7380339620863,43.14203692517211,13.542883653009735,-8.61125819022616,249.05626995460975,46.120482216468
699,-2.100914198246037,-179.42311872774985,172.62037879123775,42.901320962349665,13.480810435438618,-8.587150730856786,249.00927255097025,45.86953311252989
700,-2.1417499031755187,-179.46293327825217,172.50461646079987,42.67854555680486,13.420965042131964,-8.556983572073735,248.9577321447874,45.63444620614524
701,-2.187338168457636,-179.4943934264918,172.39240569446994,42.47499339508732,13.36321856020141,-8.521484517575532,248.9026333232087,45.41656997622811
702,-2.2368566080171304,-179.51747718327317,172.2853269344172,42.29142263554575,13.307602713460007,-8.481326363687273,248.84505085687329,45.216814829637734
703,-2.289333100845675,-179.53235575715263,172.18483720289746,42.12806360989336,13.254317974923461,-8.437101893732034,248.7861124137208,45.03564632528012
704,-2.3436696427408426,-179.53937793651718,172.09222549828831,41.98463693719307,13.203730157340642,-8.389302889063394,248.7269566591543,44.87309537675907
705,-2.398670733823861,-179.53904867137064,172.00857037244842,41.86039024708972,13.156356217790444,-8.338304130888766,248.66868871761991,44.728783253387874
706,-2.453075792563495,-179.5320032951163,171.9347018445232,41.754149506985705,13.112840765458074,-8.28435316511653,248.61233551508684,44.6019582854981
707,-2.5055947830364094,-179.51897894395427,171.87117017088434,41.66438037405548,13.073925219738735,-8.227566418516085,248.5588038566912,44.49154075209096
708,-2.55494582834431,-179.50078476358152,171.8182239483823,41.58925509023113,13.040411757176411,-8.167932054553653,248.5088440854899,44.396172532842805
709,-2.5998932049751304,-179.47827247332688,171.77579950899926,41.526721044950264,13.013124246057094,-8.105319702869972,248.4630217935629,44.31426863320547
710,-2.63928394141329,-179.45230877296984,171.74352270014063,41.474568036767806,12.992868396809513,-8.039496881300355,248.42169939840537,44.244068479941355
711,-2.672081384683874,-179.4237509192079,171.72072311345454,41.43049230730795,12.98039333530403,-7.970151566493816,248.38502857382494,44.18368578209408
712,-2.697394525440051,-179.39342654984551,171.70645980339236,41.392156465984876,12.976356650212692,-7.896919987648685,248.35295364494525,44.131156615372696
713,-2.7145024033153358,-179.36211845027438,171.69955673281936,41.35724536373375,12.981294643023686,-7.819418380626148,248.3252252306461,44.08448611529735
714,-2.7228733234711697,-179.33055444883166,171.69864574179803,41.32351873414168,12.995599063091161,-7.737277225979018,248.30142274848336,44.04169471011089
715,-2.7221788019740516,-179.29940212273308,171.7022147110466,41.28886190656438,13.019501088864502,-7.650176429137384,248.28098394635867,44.00086511685267
716,-2.7123021628608477,-179.26926766442568,171.7086586096497,41.251335964586545,13.053062762673079,-7.557879909058999,248.2632393956824,43.96019122693533
717,-2.693341642492669,-179.24069816602022,171.71633117310918,41.209228280485576,13.096175580712568,-7.460268049011601,248.24744985044163,43.91802943929686
718,-2.665607861573882,-179.21418662108573,171.7235950917772,41.161103485593166,13.148565572917637,-7.357366449198937,248.2328444980754,43.872952068320465
719,-2.6296157039763606,-179.1901789196829,171.7288688686364,41.105853885177964,13.209803996265805,-7.249369512013246,248.21865830565056,43.82380141727228
720,-2.586070952011318,-179.16908191038232,171.73066890761092,41.04274735768539,13.279322644343289,-7.136657612258936,248.20416680055854,43.76974219809377
721,-2.535852345321751,-179.15127130990118,171.7276458376867,40.971470046566495,13.356432681830912,-7.01980686154958,248.1887167238198,43.71030930337668
722,-2.4799899832911882,-179.13709805631643,171.71861451123456,40.89216069744684,13.440345844442609,-6.8995907083447525,248.17175116241907,43.64544752126016
723,-2.4196411332474663,-179.12689175122694,171.70257750245673,40.80543330185448,13.53019683922932,-6.776972890850135,248.15282807177852,43.57553964047821
724,-2.356064450308047,-179.1209601348464,171.67874222502863,40.712384791306114,13.625065861938241,-6.6530916619112785,248.13163151755197,43.50141955264735
725,-2.290593333958268,-179.11958406692364,171.64653198265358,40.61458493666888,13.724000321827543,-6.5292357095528715,248.1079754804462,43.42436746980194
726,-2.224608774452318,-179.1230081883122,171.60559140432366,40.51404638113019,13.826035112726666,-6.406812719779674,248.0818006667432,43.346085248074914
727,-2.1595117424381907,-179.1314281745769,171.555786785429,40.41317382044852,13.930211045828727,-6.287312016043201,248.05316534334273,43.26865097308541
728,-2.0966950167272045,-179.14497609336348,171.49720181812532,40.31469263765348,14.035591309838756,-6.17226313190053,248.02223162045857,43.1944533018911
729,-2.0375143653488577,-179.1637057278054,171.43012912916797,40.22155870108219,14.14127600935511,-6.063192479750856,247.98924881160008,43.12610745933552
730,-1.9832592309359387,-179.18757980512754,171.35505813499665,40.1368524439061,14.246414929483235,-5.961580402326634,247.95453562034163,43.066356143908436
731,-1.93512346828203,-179.2164609033575,171.27266006378096,40.06366163060169,14.350218681384106,-5.868820774848102,247.9184630216766,43.01795978129918
732,-1.8941771018734757,-179.25010742572917,171.18377143992657,40.004958237390305,14.451968330186274,-5.78618495097123,247.88143974090985,42.98358144640597
733,-1.8613403966967341,-179.288175450652,171.08937757369588,39.96347551265039,14.551023535991867,-5.714791293587692,247.84390198638678,42.96567226981037
734,-1.8373616647516746,-179.33022656112865,170.99059737481957,39.941591464389624,14.646829177260056,-5.655580945109159,247.80630843037108,42.96636320797519
735,-1.822800058642435,-179.37574106627258,170.88867002129203,39.941224701018335,14.738920377076575,-5.609299989963298,247.76914038889228,42.98736866364172
736,-1.818014145907586,-179.42413545626502,170.784942853744,39.963747723520044,14.826925799797499,-5.576487798290618,247.73290593630145,43.02990659298383
737,-1.8231565032155295,-179.4747825364707,170.68085883433676,40.00992149890648,14.91056901602549,-5.55747111450544,247.69814569173587,43.0946384908898
738,-1.8381741327607266,-179.52703251654967,170.57794154144852,40.07985359273864,14.989667672578188,-5.552363324683529,247.66543763835995,43.18163115615493
739,-1.8628142601594895,-179.5802334247161,170.47777607464917,40.17298050359439,15.064130203921923,-5.561068238993501,247.63539868318864,43.290340602623765
740,-1.8966349540193022,-179.63374954088462,170.38198502623268,40.28807330319825,15.133949931073671,-5.583287629581126,247.60868143790188,43.41961707979451
741,-1.9390198995593009,-179.68697696199672,170.29219938855098,40.42326438543507,15.199196633963268,-5.618531706539497,247.58596549328828,43.567729041284956
742,-1.9891965158606604,-179.73935579085236,170.21002482326233,40.576092190885696,15.260006017105995,-5.666131742679062,247.5679431126899,43.732403158661754
743,-2.0462564617661614,-179.79037876119511,170.1370043067263,40.74356027036663,15.316567816317933,-5.725254154845637,247.55529990275838,43.91087714435229
744,-2.1091774860813284,-179.83959644566653,170.0745788276494,40.92220694227879,15.369113511858554,-5.794915457513599,247.5486917136739,44.099962138146964
745,-2.176845619868425,-179.8866195264008,170.02404827857433,41.10818198135001,15.417904675404936,-5.873997599330515,247.54871958129522,44.29611161426131
746,-2.248076966225405,-179.93111879505756,169.98653468118763,41.29732717496631,15.46322289513266,-5.961263286805432,247.55590465921856,44.4954941187979
747,-2.3216387943193593,-179.9728234683124,169.96294947215614,41.4852581526472,15.505362024450577,-6.05537100184952,247.57066474830472,44.69406762332625
748,-2.3962701019670103,-180.01151813343904,169.95396602848635,41.66744556549908,15.544623219493063,-6.1548895451369985,247.59329345951355,44.88765382953833
749,-2.470702052178692,-180.04703842322925,169.959998122045,41.83929437766587,15.58131291093399,-6.25831210677341,247.62394255345123,45.07201131749211
750,-2.543678641832469,-180.0792655715197,169.9811846144651,41.99622067090001,15.615743548398708,-6.364070076493155,247.6626077771779,45.242906955807854
751,-2.6139777404328948,-180.10812032841594,170.01738047665566,42.13372593483674,15.648236701649754,-6.47054702116117,247.7091185999626,45.39618547420766
752,-2.6804323964101218,-180.13355711444973,170.06815415673663,42.24746930683896,15.679127899946813,-6.576093444804918,247.7631324968835,45.52783752018391
753,-2.7419520800812984,-180.15555948983987,170.13279134875913,42.33333860054027,15.70877240811663,-6.679043085170231,247.82413458851394,45.63406683630775
754,-2.797543293212913,-180.1741378716177,170.21030524401004,42.38752115491891,15.737550991952439,-6.777731550275053,247.89144335750262,45.71135734186685
755,-2.8463288246941882,-180.18933004308715,170.2994533317546,42.406575481021314,15.765874702688924,-6.870518003910452,247.96422286953813,45.756540844002124
756,-2.887565023181628,-180.20120454187102,170.39876069120402,42.38750436075093,15.794187862579582,-6.9558103517305145,248.0415015106908,45.766865835230675
757,-2.920656752785667,-180.20986655805757,170.5065494526358,42.327829490969926,15.822968704095828,-7.03209399578454,248.12219674740854,45.740067368302626
758,-2.945169996012552,-180.21546554311902,170.62097381593617,42.22566701954143,15.852727393894892,-7.0979637843789884,248.2051449082345,45.67443735529548
759,-2.960842254011906,-180.21820339965524,170.74005982460622,42.079802445092405,15.884001374256616,-7.15215836769981,248.2891346171531,45.56889384902581
760,-2.9675909705018118,-180.21834196792435,170.86174896045296,41.889762426663644,15.917348045306039,-7.193595845234934,248.3729423045407,45.42304699926364
761,-2.965520147591427,-180.21620853991905,170.98394442053294,41.65588021027598,15.953334818796774,-7.221409373839871,248.45536809055355,45.237258572106455
762,-2.9549250748606792,-180.21219826946756,171.10455865067135,41.37935081769159,15.992526571745676,-7.234981263831012,248.53527023597164,45.01269137618408
763,-2.9362946946045967,-180.206772599707,171.22156046831617,41.06227202019202,16.035470584382377,-7.233973990833934,248.61159637035885,44.75134482328827
764,-2.9103107442495233,-180.20045321296615,171.33302001367235,40.707667501944854,16.08267919330508,-7.218356462658764,248.68340991852133,44.45607323003729
765,-2.8778426476679897,-180.19381147780956,171.43714979088975,40.31948948730464,16.134610627894794,-7.188423774408191,248.74991050072484,44.130584322061296
766,-2.839937244248167,-180.18745376839618,171.5323401628555,39.902599398969095,16.191648818845948,-7.144808585741902,248.81044744300246,43.77941667376491
767,-2.7978027774741623,-180.18200320541538,171.6171879379218,39.462726698505676,16.254083350114932,-7.0884822613035166,248.86452585313097,43.407896391488734
768,-2.7527870145858593,-180.17807837928999,171.6905172603549,39.00640772155478,16.322091072411176,-7.020744135705723,248.91180512814228,43.02207500976973
769,-2.7063498452601267,-180.17626973159878,171.75139283076896,38.54090778965858,16.39572104242701,-6.943197740231782,248.95209041248697,42.62865202410555
770,-2.6600310620457837,-180.17711459563358,171.79912625164317,38.074130901769635,16.474884315952327,-6.8577135248354715,248.9853182980064,42.234886461477885
771,-2.615414131980624,-180.1810722076017,171.83327670650897,37.61452167305288,16.55934980147276,-6.766378440989952,249.0115385691038,41.848502223650875
772,-2.574086709417732,-180.18850005867552,171.8536471525346,37.17096375975993,16.64874702482891,-6.671433618132575,249.03089381772307,41.477591541434556
773,-2.5375986564850868,-180.1996327905966,171.86027690005824,36.75267776050738,16.742576314467847,-6.575202182689422,249.0435984188435,41.130519732037705
