time,ax,ay,az,gx,gy,gz,accmagnitude,gccmagnitude
0,19.02363401839175,-254.98383048425225,-4.014296197573746,-12.286285751074328,57.99804622897833,-5.873000757234185,255.7236352330547,59.56017186875463
1,19.031669719533827,-255.06480205838213,-4.067476317458614,-12.212459408621429,58.29452716001794,-5.759971030797435,255.80778293147,59.82536132498094
2,19.036820202405075,-255.14146118461906,-4.116900554893243,-12.141351366340038,58.58666050737885,-5.648119370677084,255.88732813308778,60.086856008543855
3,19.040257979265604,-255.21376130109024,-4.163079261530966,-12.07301151518354,58.872164413827385,-5.537542044688477,255.96229683401674,60.342518051218
4,19.043127455619317,-255.2816909114793,-4.206552362588985,-12.007163826757361,59.14889569914176,-5.428352157473547,256.0327498796691,60.5903029732592
5,19.046505738490286,-255.34525988013493,-4.247867068092269,-11.943183399372758,59.4148951563957,-5.320688738236504,256.09876655418344,60.828300453552096
6,19.05136719649659,-255.40448779275067,-4.287556191212379,-11.88008813613423,59.66842489753962,-5.214719915681058,256.16043044991926,61.0547689744503
7,19.058553266560793,-255.45939510960812,-4.326118066542421,-11.816546454519244,59.907996090872835,-5.110639317927147,256.2178184531831,61.26816286287287
8,19.06874862652924,-255.5099973747366,-4.363999181367577,-11.750901599301725,60.13238616836568,-5.008655270786389,256.27099319593304,61.46715087308619
9,19.08246433152457,-255.55630229795585,-4.401580590255192,-11.681212289271548,60.34064542116978,-4.908972945441717,256.3199988416059,61.65062619676441
10,19.100028005925488,-255.59830915961885,-4.439168938483549,-11.605308622850915,60.532093688275104,-4.811770325660545,256.36485967100737,61.81770849461526
11,19.12158079466834,-255.63600969422765,-4.476992423353974,-11.520861463456148,60.70630843116154,-4.7171695860994465,256.40558061249857,61.96773907500292
12,19.147080489836508,-255.6693894141321,-4.515201304004962,-11.42546298943242,60.86310578051133,-4.625206035808506,256.44214864134676,62.10027059884684
13,19.17631000552788,-255.69842833994838,-4.553871871498609,-11.316715711016839,61.00251614115665,-4.5357971073209375,256.474533953969,62.215052658267396
14,19.208890187634424,-255.7231004089206,-4.593012398722343,-11.192326924486535,61.12475576506564,-4.448713965220872,256.50269010682916,62.31201435754388
15,19.2442958713994,-255.74337140101875,-4.632569583464575,-11.050205222548303,61.230195501439894,-4.363558207612582,256.5265528693184,62.39124476187174
16,19.281874157621942,-255.75919586835303,-4.672434298282283,-10.88855535104389,61.319327785039754,-4.279745878259048,256.5460381920071,62.452971860136344
17,19.320864043260105,-255.77051406175588,-4.712445979020197,-10.705967482595694,61.392732823378765,-4.196500616014771,256.56104022033804,62.49754052581757
18,19.360416759747114,-255.77725008832115,-4.752395577138847,-10.501496938482516,61.45104487918289,-4.112857243677479,256.57143055109265,62.525389858591865
19,19.39961635472292,-255.77931247015792,-4.792027442556536,-10.27473059626012,61.49491952572354,-4.027676441340037,256.57705988689577,62.53703027068363
20,19.437500149272836,-255.77659795934105,-4.8310406786050715,-10.025836714966665,61.52500277658568,-3.9396703931556663,256.57776293742893,62.53302075322789
21,19.47307879361131,-255.76899903855244,-4.869090542542113,-9.755595641019003,61.54190304783743,-3.8474385381366294,256.57336699532897,62.51394690146259
22,19.505355863206546,-255.75641516337507,-4.9057905319930555,-9.465409697274925,61.54616701393756,-3.7495119234567946,256.5637042562932,62.48040048670035
23,19.533347278873855,-255.73876753684988,-4.940715907208637,-9.157291420664798,61.53826057596508,-3.6444042328374384,256.54862771324076,62.43296163121787
24,19.556101107533518,-255.7160169499746,-4.973409395350968,-8.83383020839352,61.518556296139074,-3.5306673396534376,256.52803021749577,62.37218489728486
25,19.572718288164996,-255.688183823547,-5.003389565238078,-8.498138366792864,61.4873286239177,-3.406949151258007,256.501865898002,62.29859070351672
26,19.58237448266098,-255.65536904458736,-5.030161905539792,-8.15377846268727,61.444757950926395,-3.2720514785832435,256.47017255641543,62.21266331997351
27,19.584342750548505,-255.61777372130402,-5.053232231338805,-7.804674665493184,61.39094399654545,-3.124985613899868,256.4330931433632,62.114856258814775
28,19.578016339130066,-255.5757158215921,-5.072121866613393,-7.455011409464614,61.32592833450917,-2.965023229984243,256.3908942268714,62.00560525396828
29,19.56293068212427,-255.52964182209504,-5.0863840427702245,-7.10912321279838,61.2497251645936,-2.791740184006974,256.3439795072116,61.88534835716511
30,19.53878366583897,-255.48013181931978,-5.095620928664561,-6.771379863909119,61.16235885358583,-2.6050508748752077,256.2928967504555,61.75455211372538
31,19.505453277132087,-255.42789697522437,-5.099500588969831,-6.446071414992412,61.06390636612097,-2.405231001871367,256.2383369345534,61.61374237254709
32,19.46301184346247,-255.37376874466187,-5.097773073141196,-6.137297510640964,60.95454242694068,-2.1929269453058007,256.18112498211826,61.463537986696544
33,19.41173614921019,-255.31868003161827,-5.0902849139996675,-5.848865520384307,60.834585048478836,-1.9691505561518414,256.1222021599339,61.304685427437335
34,19.352112711568004,-255.26363908319541,-5.076991509082124,-5.584201689918931,60.70453892854363,-1.7352588782105263,256.0626008885715,61.138092172377696
35,19.28483745355508,-255.20969744682338,-5.057966953507306,-5.346278958533255,60.56513420287697,-1.4929191953841223,256.0034132173124,60.96485666309637
36,19.210809017165275,-255.15791372912716,-5.033410796603004,-5.1375640756345105,60.417358129115854,-1.2440607452876895,255.94575462797502,60.786292656110355
37,19.131115115258947,-255.1093152649082,-5.0036510478839915,-4.959985197491642,60.26247744928301,-0.9908153595559704,255.89072520740942,60.60394587816063
38,19.047011685537825,-255.06486006702823,-4.9691427487642015,-4.814919513942546,60.10204940167343,-0.7354500446765103,255.8393705161126,60.41960102157508
39,18.95989514687398,-255.02540144824863,-4.930461609730614,-4.7031990122610985,59.93791967158127,-0.48029501830029797,255.79264454416042,60.235277331250515
40,18.871268624154645,-254.99165744079377,-4.888292549424322,-4.6251314563352715,59.772206089808456,-0.22767092886050136,255.75137693022916,60.05321145940706
41,18.78270346636971,-254.96418667424015,-4.8434134243388405,-4.580533042548285,59.60726768889283,0.020181112451247856,255.71624619856388,59.875826985270514
42,18.695797707551698,-254.94337182645455,-4.79667474263864,-4.568768900694644,59.44565977761892,0.26116346649611044,255.68776025734607,59.70569098748695
43,18.612133333081392,-254.92941118687196,-4.748976562850045,-4.5887976044550625,59.290076844320176,0.4933773013249612,255.66624484963933,59.545459174094134
44,18.533234274126645,-254.9223182392979,-4.701243928726627,-4.639216165699506,59.14328614613437,0.7151675405288835,255.65184002222557,59.39781212314347
45,18.460526894319795,-254.92192849064844,-4.6544020805486985,-4.71830263159716,59.008055618047514,0.9251564112734882,255.64450398191065,59.26538600482897
46,18.395304382546907,-254.92791218293394,-4.609352481902007,-4.824054348889145,58.887080157053,1.1222652663918298,255.64402308916925,59.15070165663526
47,18.338696055189253,-254.93979122012553,-4.566950561550475,-4.954221073186551,58.78291037132596,1.3057249485760667,255.65002639949196,59.056096021387205
48,18.291642233978042,-254.95695869333505,-4.527985933509196,-5.106333166871171,58.69788751835348,1.47507549445293,255.66200318642674,58.98365969615932
49,18.25487514367034,-254.97869968560053,-4.49316556260286,-5.277725950946228,58.63408762488047,1.6301564553194714,255.67932215654142,58.93518369029401
50,18.228906096561435,-255.00421237751289,-4.4630999164407825,-5.465561773405387,58.59327681689597,1.7710894957194419,255.70125138733636,58.91211757437283
51,18.21401899368096,-255.03262872082726,-4.438291825324357,-5.6668515599850995,58.57687888656082,1.8982551434594208,255.72697824465595,58.915540217015035
52,18.210269851248327,-255.06303409123416,-4.419127709465567,-5.8784775938239395,58.58595524858703,2.0122655690893168,255.75562865827123,58.94614342282577
53,18.217491731275175,-255.09448542933728,-4.405870948500872,-6.097219090552037,58.62119673917131,2.113935106956866,255.78628521176947,59.00422805774355
54,18.23530422792146,-255.12602749101654,-4.3986572950309855,-6.3197818400509,58.68292612316608,2.2042499607433266,255.818003601037,59.08971162043159
55,18.26312663233525,-255.15670699341302,-4.397492271250217,-6.542832794087567,58.77110963768771,2.2843382160985497,255.8498271789669,59.20214563103506
56,18.30019407589553,-255.1855846511858,-4.402250461534303,-6.763039970190052,58.88537546223055,2.355440948880335,255.88079952494172,59.34074070962462
57,18.345576174959113,-255.2117453211056,-4.412676651480639,-6.9771174035360275,59.02503677607486,2.418884897700781,255.90997521923165,59.504396914271624
58,18.398197753520208,-255.2343067114318,-4.428388932289676,-7.181874179498172,59.18911707324307,2.47605687704744,255.9364292506554,59.69173683885044
59,18.456861080787313,-255.25242734263486,-4.448884064144812,-7.374265965358736,59.37637560683106,2.5283798474619217,255.9592657135942,59.901139099955614
60,18.52026892237759,-255.26531456551882,-4.473545412243586,-7.551447052320889,59.58533122145654,2.5772903457796286,255.97762656624016,60.130770176095524
61,18.587047734283473,-255.2722333643632,-4.501653669064341,-7.710820739713203,59.81428343804626,2.624216834730857,255.99070115066664,60.37861313790584
62,18.655770514995147,-255.27251644478076,-4.532400479483187,-7.8500858867875785,60.06133043627661,2.6705584787595424,255.99773696590887,60.6424925800131
63,18.724979053175822,-255.26557585976178,-4.564904955873032,-7.9672775591562655,60.3243843823265,2.7176638935532993,255.99805195902616,60.920095874713084
64,18.79320545540641,-255.25091622661068,-4.598232819946921,-8.06079987259745,60.601185200255365,2.76680952234831,255.9910484098262,61.208991539149785
65,18.85899286091984,-255.22814939319272,-4.631417644505707,-8.12944939180883,60.88931427967894,2.819177422120913,255.976228291561,61.506645937808926
66,18.920915185481448,-255.19701018240553,-4.663483587680052,-8.17242781112165,61.18620971135306,2.875832376937562,255.95320975683856,61.810439697949256
67,18.977595687493082,-255.157372602371,-4.693469115548544,-8.189343165821139,61.48918444865467,2.9376984025769297,255.92174415593328,62.11768510762757
68,19.02772418996486,-255.10926569763885,-4.720451298636494,-8.180199492078497,61.79544837230042,3.0055348756324416,255.88173278656183,62.425645459548974
69,19.070072917230124,-255.05288804996474,-4.74357018779154,-8.145375590020782,62.102134717692394,3.079912692817902,255.83324241342896,62.73155691297284
70,19.103511073929248,-254.98861983084726,-4.762052563977728,-8.085594213425086,62.40633084118484,3.161191018492647,255.77651849552268,63.03265307750063
71,19.127018450403583,-254.91703126070797,-4.775234177305475,-8.001883496957214,62.705112927610486,3.249495336560051,255.71199501690165,63.32619223425215
72,19.13969841648123,-254.83888629740605,-4.782579548732661,-7.895532698889468,62.99558398126677,3.3446977479864772,255.64029978499383,63.60948690516527
73,19.140790651405915,-254.75514035390844,-4.783698465014367,-7.768044409566047,63.27491425635696,3.446400753682948,255.56225403107757,63.879935325346466
74,19.129683907662702,-254.66693093585474,-4.778358364095041,-7.6210853040401325,63.54038313033969,3.553926047979227,255.47886522736118,64.13505422885034
75,19.105929030272627,-254.5755604045903,-4.766491872929506,-7.456437348471845,63.78942129648735,3.6663100074560417,255.3913123348876,64.3725122171907
76,19.06925226206221,-254.48247056971263,-4.748198877820971,-7.275951136051572,64.01965206359986,3.7823075306402427,255.30092317141424,64.59016285771348
77,19.01956851372957,-254.3892093433023,-4.72374269283754,-7.081502747604711,64.22893050542156,3.900405660721503,255.20914408184515,64.78607656384756
78,18.956993874265248,-254.29739016793607,-4.693540095569966,-6.874955222237697,64.41537919031272,4.0188480157052355,255.11750253402468,64.95857023612484
79,18.881856337275142,-254.2086454193709,-4.658145198797629,-6.65812541459018,64.57741923158969,4.135670456548687,255.0275637161226,65.10623358411186
80,18.794703570949316,-254.12457555223594,-4.6182273945480485,-6.432756751691184,64.71379540970301,4.248747664651694,254.94088275282914,65.22795098853273
81,18.69630651713356,-254.04669640027026,-4.574544051808524,-6.200498229083749,64.82359410742862,4.35584946761763,254.85895478303513,65.32291768496655
82,18.587657597902343,-253.97638765507014,-4.527909255228622,-5.962889916189873,64.90625280495844,4.454704989183326,254.78316574079685,65.39064899844318
83,18.46996227167543,-253.91484585404822,-4.479160464826807,-5.721355221333368,64.96156002560652,4.543072119643909,254.71474697196578,65.43098145447269
84,18.344622646203426,-253.86304487792341,-4.429125400163968,-5.477200094698924,64.98964503503066,4.618809439328749,254.65473647127055,65.44406495976817
85,18.213212096179102,-253.82170599121676,-4.378591644777561,-5.231619144464017,64.99095730348266,4.6799475540184385,254.60394856586495,65.43034590521466
86,18.077440761778686,-253.7912783638864,-4.328281281797637,-4.985708293264282,64.96623662957123,4.7247567986476415,254.56295285032843,65.39054188395453
87,17.939113437682835,-253.77193037833794,-4.278832064585613,-4.740483138531271,64.9164757038823,4.751808439600982,254.5320626935467,65.32560955377328
88,17.800082950756227,-253.76355193980672,-4.2307852695695845,-4.4969016609776995,64.84287758917549,4.760026840466977,254.51133371845873,65.23670783811635
89,17.66220274058455,-253.76576797701705,-4.184579161249075,-4.25588943507043,64.74681103390286,4.748730493389116,254.50057272947896,65.12515907908563
90,17.52728185048215,-253.77796279842315,-4.1405466898768815,-4.018365111889259,64.62976673454943,4.717660300893186,254.4993570615179,64.99241094665724
91,17.397044507394565,-253.7993139575668,-4.098916587319397,-3.785263734317773,64.49331764973793,4.666993998397747,254.50706328473723,64.84000190483619
92,17.27309545482877,-253.8288333035248,-4.059817608664299,-3.557555487397535,64.33908622318168,4.597346121873702,254.52290317587014,64.6695328219179
93,17.156891378287174,-253.86541237789035,-4.023285717484714,-3.3362578481681817,64.1687208591459,4.509753412820438,254.54596429710998,64.48264685644567
94,17.049718219303895,-253.9078692601412,-3.9892737306777053,-3.122439753071819,63.98388324303828,4.405645979945683,254.5752524105107,64.28101907579874
95,16.952673979541387,-253.95499418299335,-3.957662791662987,-2.9172172217034276,63.78624719345272,4.286804910895276,254.6097331393449,64.06635644103707
96,16.866656671043476,-254.00559165149375,-3.9282751570616163,-2.721740708215108,63.57750873747317,4.155307387454151,254.6483706812832,63.84040787657715
97,16.79235717992959,-254.0585173470763,-3.900887928280511,-2.5371751625996466,63.35940606411846,4.013460736940177,254.69016191177857,63.60498317507016
98,16.730256857471165,-254.11270867535524,-3.875247311057987,-2.3646742778245518,63.13374700168698,3.8637272600741723,254.73416477463664,63.36197853143733
99,16.680629607322558,-254.16720831337858,-3.8510828024426926,-2.2053506367854174,62.90244078392412,3.7086421050989795,254.77952032897008,63.11340565394991
100,16.643548120158002,-254.22118049028737,-3.828120630867003,-2.0602434854735763,62.66753021428325,3.550726900774533,254.82546817393657,62.861420763913536
101,16.61889376721606,-254.27392006162034,-3.8060959323601495,-1.9302857209827033,62.431219990063745,3.3924022914989456,254.8713552766997,62.60834945601549
102,16.60636957429201,-254.32485481144542,-3.784763394045692,-1.8162714714357264,62.195896985291775,3.235902856717167,254.91663858773262,62.35670342603588
103,16.605515708854032,-254.3735418393957,-3.763906212073118,-1.7188254061755135,61.964138757623445,3.083198023834299,254.9608822426493,62.10918552353522
104,16.615727010232032,-254.41965923511123,-3.743343166622594,-1.6383746565604884,61.7387074180435,2.9359224177287975,255.00375049300786,61.8686804309447
105,16.636272217163008,-254.46299439761444,-3.7229336011075356,-1.5751239388957647,61.5225271992692,2.795318644132022,255.04499766534403,61.63822942747728
106,16.66631465706731,-254.50343035185077,-3.7025802560426144,-1.5290341690176579,61.31864545546871,2.6621948678006593,255.0844564473048,61.42098904898278
107,16.70493424115819,-254.54093134400557,-3.6822301735148204,-1.4998046029003218,61.13017825884779,2.53689882717131,255.12202573507713,61.220174845950964
108,16.751150635596066,-254.57552888279986,-3.661874043715404,-1.486858367203679,60.960243047308396,2.41930919968982,255.1576591645471,61.03899269384533
109,16.80394742251259,-254.60730920587147,-3.641544297151987,-1.4893311382952097,60.81188178573755,2.308844523336845,255.19135525645422,60.88056108701339
110,16.862296920828644,-254.63640287638268,-3.621312068260234,-1.506062681586368,60.68797878420208,2.204489199153276,255.2231498218417,60.747828502059185
111,16.925185149266074,-254.662976851822,-3.601283059500406,-1.5355910320689905,60.591177690091094,2.104835469051337,255.2531108997616,60.64349027111307
112,16.991636277100017,-254.6872289392116,-3.5815923387771305,-1.5761493404532296,60.52380226201906,2.0081397169436355,255.28133606488493,60.56990948668728
113,17.060735903439664,-254.7093841597248,-3.5623980776106965,-1.6256658230693597,60.4877853227055,1.9123910076193569,255.30795155268342,60.529046251554576
114,17.13165260162483,-254.7296923171684,-3.543874140180987,-1.6817677794540615,60.484609740462346,1.8153894561598272,255.33311242743503,60.52239905349471
115,17.203657220130783,-254.74842602337912,-3.5262013774081806,-1.7417911774458086,60.51526442663677,1.7148317696271793,255.35700298032745,60.55096120371841
116,17.276139339315048,-254.76587847863078,-3.5095576067924226,-1.8027976945461484,60.58021728237398,1.6084010800519648,255.3798365864262,60.61519424422745
117,17.348620089017107,-254.78236035941245,-3.4941066044119498,-1.8616011899253224,60.67940596502199,1.4938580019328487,255.401854297708,60.71501917911505
118,17.420760377484623,-254.7981952757413,-3.4799868484167975,-1.9148053260639066,60.81224642358597,1.3691297432109448,255.42332155932706,60.84982546827638
119,17.49236358464463,-254.81371347466998,-3.4673009624072693,-1.958853564283221,60.97765843047908,1.2323941053035719,255.44452266057274,61.01849699997011
120,17.56337198070833,-254.82924373038387,-3.4561067029511063,-1.990092138854324,61.17410677418947,1.0821553274612568,255.46575281496175,61.21945369630235
121,17.63385653708291,-254.84510360249624,-3.446410112019312,-2.004845898861886,61.39965627778533,0.9173089693861926,255.4873080341204,61.45070690884169
122,17.70400033146011,-254.8615884454206,-3.438161335545652,-1.9995060977034553,61.6520382941548,0.7371934139584312,255.50947319828236,61.709926254285705
123,17.774076286328164,-254.87895969548308,-3.431253534240058,-1.9706283738023986,61.92872582668877,0.541626134067208,255.53250890691422,61.994515048783526
124,17.844420390662158,-254.89743301488238,-3.4255250491109885,-1.9150383930063657,62.22701403702587,0.3309235691405185,255.5566377727517,62.30169112503888
125,17.915401769165246,-254.91716683112435,-3.4207645033669287,-1.8299419297207915,62.54410268193742,0.105904197370309,255.58203079628595,62.62856960596188
126,17.987391010220076,-254.93825173432973,-3.416718125683907,-1.7130355163842172,62.87717693440274,-0.1321249359725657,255.6087943874199,62.97224412269728
127,18.060728158948024,-254.96070118849974,-3.413098561135889,-1.5626132188022697,63.223483062655504,-0.38139741711697306,255.63695860076788,63.32986297605951
128,18.135691838684114,-254.9844441481492,-3.40959471695224,-1.3776647125455956,63.58039560594009,-0.6397311205232955,255.66646729708313,63.698696892556256
129,18.21247107368671,-255.00932036875398,-3.405882430337417,-1.1579597364430292,63.94547306489122,-0.9045846367554555,255.69717115097563,64.07619539100473
130,18.29114141370297,-255.03507924577448,-3.4016357311829455,-0.9041141831518988,64.31649976183888,-1.1731243154463027,255.72882447147038,64.46002939920605
131,18.371646778564898,-255.06138275463508,-3.3965382608720986,-0.617633525018584,64.6915124169115,-1.4422992493199742,255.76108652214756,64.84811863868269
132,18.453788038885598,-255.08781256315896,-3.390294192301279,-0.3009299904474625,65.06881106073673,-1.708921080119383,255.79352749432564,65.23864336349315
133,18.53721882807874,-255.11388092195563,-3.382637946536646,0.04268905600642664,65.44695502819208,-1.9697452769424282,255.82563878244508,65.63004116509971
134,18.621448568726198,-255.13904473644402,-3.3733421448816308,0.40906274924009667,65.82474576371655,-2.2215505765406327,255.85684697303543,66.02099055400734
135,18.70585227455627,-255.1627222481279,-3.362223418787858,0.793248101039695,66.20119883157662,-2.4612135554251413,255.88653095195386,66.41038371106653
136,18.78968636918065,-255.18431178308754,-3.3491457639843984,1.1896193386203378,66.57550776313735,-2.6857757746248967,255.914041538644,66.79729105958737
137,18.872109505571544,-255.20321193893045,-3.3340211082150657,1.5919920286648053,66.94700222990143,-2.8925015429515133,255.93872294614008,67.1809201802287
138,18.952207137520176,-255.21884244424535,-3.316806832456898,1.9937676349068982,67.3151026839948,-3.0789250045819614,255.95993520819496,67.56057124783197
139,19.029018396286318,-255.23066485966035,-3.297500186799037,2.3880933137136333,67.67927328694991,-3.242885889346963,255.97707663459227,67.93559084159776
140,19.101563730282976,-255.23820235216607,-3.2761297425409834,2.768031334047754,68.03897478187697,-3.3825538263454367,255.9896054107915,68.30532579972292
141,19.168871845622153,-255.24105792421682,-3.252744138379961,3.1267325194183018,68.3936188867395,-3.4964416097109345,255.99705961246576,68.66907869712558
142,19.230004740098156,-255.23893061592798,-3.2273985087159187,3.4576084501836775,68.74252564417856,-3.583408225599318,255.99907506054018,69.02606637259893
143,19.284079961221384,-255.23162925909273,-3.2001392681872303,3.754497691980862,69.08488491201327,-3.642652814504767,255.99540053054784,69.37538267806615
144,19.330289528507315,-255.21908337971206,-3.1709883752183856,4.011821903034926,69.41972292291678,-3.6737010633412543,255.98590987740582,69.71596637118988
145,19.36791520506485,-255.2013508862889,-3.1399286356877973,4.224728218639967,69.74587471182207,-3.676385761305299,255.97061070236543,70.04657494705336
146,19.39634005068444,-255.17862225789113,-3.106891806937506,4.389214746039646,70.06196325171484,-3.6508233355389557,255.94964928772924,70.36576524235265
147,19.415056499606607,-255.15122102110263,-3.071751165573685,4.502236322198445,70.36638629627619,-3.5973880761502786,255.92331162287573,70.67188178680675
148,19.423671501460834,-255.11960032003958,-3.0343199621785275,4.561787952281042,70.6573120688364,-3.516685519887827,255.8920203798824,70.96305399438697
149,19.42190939509583,-255.0843353037156,-2.9943569059399917,4.566963627453494,70.93268491892923,-3.4095261586341086,255.85632762380556,71.23720324676131
150,19.409613124691674,-255.04611093354427,-2.9515794015122387,4.517988543604843,71.19024184128007,-3.276900302561292,255.81690291170784,71.49206067681295
151,19.38674425493997,-255.00570478485503,-2.905684563075717,4.41622310615861,71.42754039245408,-3.1199545789995615,255.77451638641278,71.72519608620503
152,19.35338209810628,-254.96396458748472,-2.8563770868918965,4.2641375241500485,71.64199814258313,-2.939970238213866,255.7300166214174,71.93405802474051
153,19.30972217111259,-254.9217806363747,-2.8034020615412976,4.065256317219523,71.83094336657862,-2.738343220425991,255.68430334156798,72.11602462926025
154,19.256074123995823,-254.8800537591029,-2.7465799637036348,3.8240727462519994,71.99167613095669,-2.5165658240925337,255.6382956848073,72.26846429224942
155,19.192859167275635,-254.83966016442548,-2.6858406266609145,3.5459340854080805,72.1215382088331,-2.276209787746279,255.59289729284046,72.38880454994971
156,19.120606875867413,-254.80141505277038,-2.621252997699147,3.236899795867444,72.21798941693983,-2.0189106667381265,255.54896006416212,72.47460680768586
157,19.039951103310756,-254.76603716681274,-2.553047976449162,2.9035759701714166,72.27868719650851,-1.7463535615694363,255.5072486956568,72.52364382850126
158,18.95162466043097,-254.73411642695442,-2.481632359006037,2.552930720772276,72.30156574915506,-1.4602604819239955,255.4684081099982,72.53397647224095
159,18.85645248162884,-254.70608652056143,-2.407592719839152,2.1920963110594993,72.28491089233084,-1.1623798198266762,255.4329356066708,72.50402606706784
160,18.75534323052812,-254.68220396514675,-2.3316888537124134,1.8281646889752958,72.22742701574494,-0.8544785040622931,255.40115925352754,72.4326390174461
161,18.64927955094454,-254.66253485221162,-2.254837128746658,1.4679836427990842,72.12829304018437,-0.5383374041555598,255.3732237498447,72.31914074878334
162,18.53930731357389,-254.64695015624403,-2.178084763157619,1.1179609562633086,71.98720502181092,-0.21575043326888454,255.3490846864513,72.16337678655015
163,18.4265242165403,-254.63513004621234,-2.102576653624428,0.7838835760774052,71.80440392589044,0.11147245526883,255.32851168663345,71.96573959297726
164,18.31206799623057,-254.62657703974293,-2.029516907701724,0.4707579160250872,71.5806880261891,0.44149857113406565,255.31110031079288,71.72718066017838
165,18.19710436763137,-254.62063721221264,-1.9601275487413563,0.18267617313563028,71.31741024415021,0.772462752987602,255.29629197188984,71.4492081679939
166,18.082814764303613,-254.61652818054318,-1.8956069046010404,-0.07728782300472024,71.01646137767312,1.10245573291116,255.28340061177545,71.13387111237812
167,17.970384017653206,-254.61337229827527,-1.837089975215251,-0.30715095923450364,70.68024052182199,1.4295121570127396,255.27164460662468,70.78373113160005
168,17.860988174384357,-254.61023336593917,-1.7856126141495332,-0.5060602152966155,70.31161414337446,1.7516001595345203,255.26018223573763,70.40182339111207
169,17.755782591216878,-254.6061551028326,-1.7420807115824237,-0.6742989286026996,69.91386539231233,2.066614575467417,255.2481489794198,69.99160798963156
170,17.655890309541142,-254.60019966301005,-1.7072449453147844,-0.8132608469421143,69.49063540670099,2.372375817108439,255.23469493352638,69.55691351004866
171,17.56239057551481,-254.59148466370812,-1.68168136748939,-0.9253938596445619,69.04585857510821,2.6666361034123756,255.21902080224103,69.10187453824737
172,17.476307237925763,-254.57921748294672,-1.6657781887038323,-1.0141161354924753,68.58369386591121,2.947094184049808,255.2004112114956,68.63086511032601
173,17.398596645995312,-254.56272584401304,-1.6597293049169646,-1.0837080400306218,68.10845429831829,3.211419036738147,255.17826434092697,68.14843000650195
174,17.330134659671046,-254.54148386356363,-1.6635349971380962,-1.1391836664743487,67.6245363545305,3.4572823005195525,255.15211703013654,67.65921552825182
175,17.27170249996546,-254.51513283645875,-1.6770097246683204,-1.1861461132246223,67.13635068162571,3.682398495087698,255.1216646152841,67.16790094025929
176,17.22397134930655,-254.48349613610503,-1.699796217411589,-1.2306308105787254,66.64825498269639,3.884571445819109,255.08677486392594,66.67913130962741
177,17.18748583647687,-254.44658776825526,-1.7313843715745016,-1.2789412700644756,66.16448970306682,4.061744856684117,255.0474955436865,66.19745218828969
178,17.162646818798184,-254.40461437036552,-1.7711329418538404,-1.3374816114375592,65.68911699998314,4.212054674771081,255.00405542773512,65.72724648443473
179,17.149694144628388,-254.35797081284272,-1.8182918941507977,-1.4125901207557496,65.22596348723461,4.33388077706689,254.95685892015493,65.27267390194022
180,17.148690242319546,-254.30722993908066,-1.872023675271729,-1.5103779118572223,64.7785673285242,4.42589560276404,254.9064748786616,64.83761345507449
181,17.159505443660137,-254.2531272166131,-1.931422473981366,-1.6365764985995315,64.35013036639496,4.487107660585392,254.85362045947574,64.42560974154969
182,17.18180601508287,-254.19654109025458,-1.9955314260488137,-1.79639774136182,63.943476044883774,4.5168983071719,254.79914084100176,64.0398238041909
183,17.21504599596812,-254.1384697065107,-2.0633582647052022,-1.994409217135739,63.561013897544264,4.515050706451241,254.7439855753095,63.6829895042711
184,17.258464071322674,-254.08000456255064,-2.133890021428935,-2.234427566682311,63.204711385535454,4.481770321205951,254.6891822095305,63.3573764142011
185,17.311086709420167,-254.02230164307753,-2.206107220587628,-2.5194317753696542,62.87607390407548,4.417696585830232,254.63580782726834,63.06476032704249
186,17.371738561957788,-253.96655076895146,-2.278997813047456,-2.851497651663875,62.57613373923263,4.3239055634193155,254.58495930265997,62.806402483438006
187,17.439060625849784,-253.9139440928511,-2.35157093208373,-3.23175404272227,62.30544851523666,4.201903452378506,254.53772323608035,62.583038401087805
188,17.51153597030795,-253.86564478370605,-2.4228703757865677,-3.6603607047507323,62.064109187591534,4.053610839396452,254.49514659850016,62.394876724971034
189,17.58752208120378,-253.8227568441804,-2.49198747738634,-4.1365073558387655,61.851757046197996,3.881337639248157,254.4582089609825,62.24160793782484
190,17.665288258197755,-253.78629673872575,-2.558072760948044,-4.658433285574899,61.66760871001289,3.6877487388176173,254.42779687437283,62.12242229361375
191,17.743056187041816,-253.7571672520433,-2.6203456140310637,-5.223466855100856,61.51048782443963,3.4758204863767563,254.40468068246423,62.036036061939186
192,17.819041822938235,-253.7361339360029,-2.6781012623375053,-5.828084156306187,61.37886205225586,3.248788354646808,254.38949398938948,61.9807250321397
193,17.89149693594379,-253.7238046071863,-2.7307146416757355,-6.4679859331631615,61.270883889667374,3.010086375235275,254.38271612153238,61.95436413041106
194,17.958748942716625,-253.72061240409508,-2.7776412440217477,-7.13819156423883,61.18443385998861,2.7632792829391124,254.38465799326983,61.954471966065235
195,18.019237893574967,-253.72680281165967,-2.8184154947956497,-7.83314844580108,61.11716481233704,2.511988667599539,254.39545170598274,61.978259212116654
196,18.071549674036213,-253.74242498317633,-2.8526475418649904,-8.546854535076722,61.066546367687536,2.2598147583716295,254.41504414936992,62.02267992664578
197,18.114444667078466,-253.76732779045142,-2.880019446273109,-9.272991214888277,61.02990888604858,2.010255764781439,254.4431949901805,62.08448512078186
198,18.146881378882817,-253.80116120976632,-2.900281699179521,-10.00506313358178,61.00448655356117,1.7666269870650124,254.47947962945412,62.1602779659859
199,18.168034831302087,-253.84338368004035,-2.913250839593289,-10.736541301689828,60.987459279220204,1.5319821410866445,254.52329775961425,62.24656998495496
200,18.17730976874492,-253.89327585847462,-2.918808777436419,-11.461005464543417,60.97599312093581,1.3090394385640498,254.5738879585579,62.339837459264096
201,18.174348880767813,-253.9499608284825,-2.9169042094139077,-12.172281594300411,60.96727904230865,1.1001148733687205,254.63034839709303,62.436577228916526
202,18.159036337730114,-254.0124303816422,-2.90755623313757,-12.864570294587082,60.958569992401515,0.907064900431039,254.69166330820786,62.5333611279785
203,18.131496967778247,-254.07957652314747,-2.8908600207633897,-13.532562067288854,60.947216547748795,0.7312403182366082,254.75673439573657,62.62688846729172
204,18.09209134119121,-254.15022686833004,-2.866994280474275,-14.171535797741441,60.930701534583754,0.5734527763535469,254.82441587372713,62.71403613395594
205,18.041406924360107,-254.22318220533367,-2.8362301048656926,-14.77743744264056,60.90667405863363,0.43395500466698755,254.89355142721934,62.79190593133784
206,17.98024540443551,-254.29725431154029,-2.7989405646957963,-15.346936689257287,60.87298319066053,0.31243560405519294,254.96301119049193,62.85786870760913
207,17.909606272948878,-254.37130220074334,-2.7556101249881686,-15.877460224471578,60.8277112406755,0.20802898542880088,255.03172692305557,62.90960465434342
208,17.83066675419946,-254.44426532682613,-2.7068427570694538,-16.367201127147503,60.769206192618334,0.11934073726699124,255.0987239074252,62.94513896816692
209,17.744758177537857,-254.51519272977683,-2.65336746938117,-16.81510470576523,60.69611256859271,0.04448834317192856,255.1631485482618,62.96287193956995
210,17.6533389728457,-254.58326747475422,-2.596039822422739,-17.220831834881146,60.6073998246221,-0.018843204829231314,255.22429101733616,62.96160253470398
211,17.557964676415573,-254.64782590744298,-2.535837934224623,-17.5847015545222,60.50238735261056,-0.07333174925633155,255.28160247234456,62.94054468732138
212,17.460255673147003,-254.70837129717964,-2.4738517141914014,-17.907615430558067,60.380765217338755,-0.12193558510699522,255.3347064509381,62.89933577425087
213,17.36186373618561,-254.7645814729299,-2.411264633821899,-18.190966904247773,60.24260981879124,-0.16780021353087998,255.38340410510443,62.838037027060786
214,17.264438571955214,-254.81631011396294,-2.349328124587808,-18.43653951874771,60.08839367694496,-0.21415664018064412,255.42767301778807,62.7571258517866
215,17.169595492803847,-254.86358144121385,-2.2893295414591197,-18.64639845460243,59.91898846197174,-0.26421411100385217,255.4676594317866,62.65748014557804
216,17.078885113329246,-254.90657820803176,-2.2325554398666916,-18.822780217985837,59.735660283474175,-0.32105059107019573,255.50366386690257,62.5403547500469
217,16.993765682550602,-254.9456231574808,-2.1802525063932556,-18.967985575322505,59.540056225829375,-0.3875046451615795,255.53612035696472,62.40735026800362
218,16.915578378031398,-254.98115448449641,-2.1335886322562123,-19.08428084760093,59.334181290723656,-0.466072627955548,255.56556989242935,62.26037468408937
219,16.845525676893544,-255.01369624450157,-2.093616275858782,-19.17381238049668,59.120365317537406,-0.5588151529344694,255.59262904046565,62.101598578568435
220,16.78465283827667,-255.0438250149923,-2.061239638563508,-19.23853834165126,58.90122004066791,-0.6672766330887144,255.6179550672389,61.933405139592516
221,16.73383256835002,-255.0721343915662,-2.0371865705768335,-19.28018098763563,58.67958711603429,-0.7924212886899651,255.642209156891,61.75833657999421
222,16.693753031042718,-255.09919901406363,-2.0219857309915725,-19.30020127626823,58.458478625273415,-0.9345884508919796,255.66601943614404,61.57903889495899
223,16.66490942978896,-255.125539705318,-2.0159493966652633,-19.299796292655675,58.24101218216134,-1.093469293678315,255.68994540164726,61.39820712605388
224,16.647599327553028,-255.15159101394462,-2.019162360551115,-19.27991854412298,58.03034323371827,-1.268106297956391,255.7144450525433,61.218533374759474
225,16.641921672822992,-255.17767216389768,-2.031477417847193,-19.24131488517081,57.82959733079367,-1.4569157931723782,255.7398457307023,61.04265963409256
226,16.647779260142446,-255.20396228517595,-2.0525178633330583,-19.184581739106033,57.641804942301334,-1.6577329084721721,255.76631952828356,60.8731370063256
227,16.664884221058855,-255.23048083824787,-2.0816871871308256,-19.110232434093408,57.46984087441628,-1.867877308854238,255.79386415097323,60.712392129041596
228,16.692766177068275,-255.2570742245406,-2.118185852605107,-19.01877189903285,57.31636973594249,-2.0842372451215354,255.82229020462705,60.562700849160834
229,16.73078284765073,-255.2834095510184,-2.1610347527003873,-18.910773661271257,57.183798329275376,-2.303368694314712,255.85121585609164,60.426168525670974
230,16.77813309828666,-255.30897634576075,-2.209104670914808,-18.786954013470904,57.07423537783198,-2.521605700948837,255.88006965795017,60.30471583271209
231,16.833872510558592,-255.33309678741287,-2.261150837945028,-18.648238358484427,56.98945858723958,-2.735177496942903,255.9081020978139,60.20006854095127
232,16.89693145498907,-255.35494477922427,-2.31585154423516,-18.495815131745466,56.93088866472726,-2.9403276686634903,255.93440619335075,60.11374948041403
233,16.966135375768175,-255.3735738976265,-2.3718497443024638,-18.331173383449684,56.89956964605368,-3.1334306315214246,255.95794713545632,60.047070807468096
234,17.040226729616148,-255.38795376000175,-2.4277965658373906,-18.156121118882986,56.896154778752326,-3.3111009870455126,255.97760047862002,60.001124906649295
235,17.117887918973352,-255.3970136664522,-2.4823955106842424,-17.972782869302723,56.92089727527654,-3.470291924547456,255.9921976794622,59.97677275947502
236,17.197764637455407,-255.39969159759127,-2.534445884307597,-17.78357662925392,56.973645377317325,-3.6083795924238053,256.00057701397776,59.97462928589268
237,17.27848922864858,-255.39498602844424,-2.582883673621978,-17.59117202397887,57.0538412838491,-3.7232312012891495,256.001637290444,59.995045850431005
238,17.358703893043188,-255.38200775808826,-2.6268178293302626,-17.398433030872184,57.16052361381977,-3.8132554572355843,255.99439152646823,60.038090727796884
239,17.43708380789156,-255.36002906504288,-2.6655598590874217,-17.208349471550395,57.29233328652873,-3.8774347050255904,255.97801788334672,60.10352882432579
240,17.51236032509211,-255.328527800978,-2.698644926427911,-17.023961685695227,57.447523062993085,-3.9153388486177505,255.95190546376847,60.19080236863703
241,17.583344260353048,-255.2872243738205,-2.7258432537424464,-16.84828239708527,57.623971445639896,-3.9271217009886352,255.91569291503276,60.29901460567222
242,17.648948931629896,-255.2361099312011,-2.7471613839057842,-16.684219068833684,57.81920202740664,-3.9135009147223094,255.86929812526918,60.42691869588256
243,17.70821226319726,-255.1754644691468,-2.7628335941047624,-16.53449934159429,58.030409570046785,-3.8757230776421143,255.81293769943727,60.57291399151532
244,17.760317125888292,-255.10586403451893,-2.773304348042012,-16.401601668144455,58.254494029656385,-3.815515932068607,255.74713534165625,60.735051650517605
245,17.804609131178243,-255.02817661500697,-2.7792030151503777,-16.28769302207986,58.48810345672102,-3.7350299826004747,255.672718701631,60.911051181666856
246,17.84061120788412,-254.94354671226208,-2.7813121798772844,-16.19457544088801,58.72768620228489,-3.6367719652656976,255.5908046515565,61.09832897915947
247,17.868034382266764,-254.85336901669453,-2.7805308773872226,-16.12364301043173,58.969552203828265,-3.5235327340756535,255.5027733869092,61.29403919940197
248,17.886784304991128,-254.7592521145903,-2.777834204173139,-16.07585061433585,59.20994240532181,-3.3983120730096914,255.41023226395004,61.495126530324846
249,17.896963299669157,-254.66297376835647,-2.7742309676733377,-16.05169534502289,59.445104716133564,-3.26424276829767,255.31497091320162,61.69838962851806
250,17.89886799469898,-254.56642988157682,-2.7707212151995546,-16.051210957324226,59.67137442058126,-3.124516000333761,255.21890975898495,61.90055335272135
251,17.892982782605106,-254.47157959398578,-2.7682554893573283,-16.073975217874917,59.88525662636146,-2.982309777537945,255.12404441948212,62.098347438092574
252,17.879969335127385,-254.38038897968826,-2.7676974659529945,-16.119129533345,60.08350815696194,-2.840721771355941,255.03238848546698,62.28858892594587
253,17.860652244046083,-254.29477563405544,-2.7697913165433543,-16.18540989871495,60.26321623474984,-2.7027075448000906,254.94591697301416,62.468265491726385
254,17.836000698571613,-254.21655614558716,-2.7751348381622414,-16.271188038979073,60.42187138720226,-2.571024829528538,254.8665124421789,62.63461683071868
255,17.807106075104755,-254.14739812572483,-2.7841591938326884,-16.374521576991317,60.55743226241672,-2.4481842406144554,254.79591544604975,62.785211478072334
256,17.77515545548464,-254.08877814755255,-2.7971159526379745,-16.493212023561394,60.66838042910193,-2.3364066354658357,254.73568066126245,62.91801679438058
257,17.741401385729873,-254.04194663914345,-2.8140718827963758,-16.624869266059072,60.7537636630387,-2.2375871901651516,254.6871397656593,63.031460222210676
258,17.707128556810385,-254.00790046859518,-2.834911591515636,-16.766981045011686,60.81322660154481,-2.153266140772558,254.65137184483322,63.12448023282876
259,17.673618398314005,-253.9873635892239,-2.859347655398812,-16.9169857333341,60.84702796767725,-2.084606008293394,254.62918176060933,63.19656564319114
260,17.642112721615845,-253.98077566192998,-2.8869373640264415,-17.072346624543776,60.85604384759713,-2.032375019441404,254.6210864700481,63.24778222513916
261,17.61377753493192,-253.9882881272606,-2.9171046527118016,-17.230625872083323,60.84175674534224,-1.9969363963275206,254.62730883348368,63.278785744357116
262,17.589668053703853,-254.00976690759424,-2.9491653991272093,-17.38955612712768,60.806230336961974,-1.9782432600207853,254.64777814705658,63.29082073578496
263,17.570695840046987,-254.0448008502401,-2.9823542190711203,-17.547107754268524,60.75207005122018,-1.9758390830566563,254.68213655859591,63.28570448282518
264,17.557599020917262,-254.09271516257277,-3.015851267993745,-17.701549305346173,60.68236989662722,-1.988863888629008,254.72975067070402,63.265795905927384
265,17.550916693328364,-254.15258938830368,-3.048808122669246,-17.851498801835632,60.60064635623298,-2.016066667290339,254.78972794942123,63.23394942730191
266,17.55096883211286,-254.22327979494338,-3.0803722615139213,-17.995963422702044,60.510760623964046,-2.055824728434384,254.86093789616496,63.19345433534499
267,17.557843092872435,-254.30344619449008,-3.1097098511001335,-18.13436549005253,60.41683089550999,-2.1061708808627695,254.94203809957403,63.147960684785694
268,17.57138972854063,-254.39158311373504,-3.136026651038328,-18.266553182908293,60.32313683058688,-2.1648293547780004,255.03150516799946,63.10139331251344
269,17.591225412995268,-254.48605493647418,-3.158587090582013,-18.392795100294418,60.23401865415504,-2.229261156329489,255.127670224412,63.05785607975021
270,17.6167461590778,-254.58513425933035,-3.176731898527091,-18.51375853747558,60.15377362066591,-2.2967190925403647,255.22875822910828,63.021528900534875
271,17.647148836168565,-254.68704230296635,-3.1898948058658174,-18.630472092995213,60.086552689382756,-2.3643120814204788,255.332929952195,62.9965604396271
272,17.681460181834638,-254.7899898939187,-3.197618617123024,-18.74427398991757,60.03626024131819,-2.4290776163350944,255.4383250475003,62.98695955495737
273,17.718571793192574,-254.8922173915626,-3.1995704863730596,-18.85674823320589,60.00645952384287,-2.488060440554387,255.5431045045847,62.996488623485085
274,17.75727939799371,-254.99203200902465,-3.195555823312295,-18.96965133384676,60.00028624897193,-2.5383947240195557,255.6454908099798,63.02856180414517
275,17.79632466178678,-255.08784120330495,-3.1855300704343894,-19.084832719380312,60.02037239238713,-2.577386455115418,255.74380436693409,63.08615102746991
276,17.834437791690615,-255.1781811365413,-3.169607577451233,-19.204152112092995,60.06878176706057,-2.602592437349374,255.8364950461988,63.17170208169218
277,17.870379221805035,-255.26173962277042,-3.1480667938376192,-19.329397139282005,60.14695847779633,-2.6118922252791106,255.92216815050526,63.287062703345505
278,17.902978768395133,-255.3373734264871,-3.1213509539565045,-19.46220428278148,60.255689016022515,-2.6035495504727715,255.99960452982532,63.43342420220757
279,17.931170895230494,-255.4041201839198,-3.090063445409745,-19.603985969127994,60.395078522482166,-2.5762602750183943,256.0677750035298,63.611277851894435
280,17.954025103220875,-255.4612055168895,-3.054957267630396,-19.755866117838533,60.564541486176104,-2.529184628042087,256.1258495718717,63.820386913430546
281,17.9707708382776,-255.5080461078312,-3.016918425477106,-19.918625820236166,60.762806751418005,-2.461962370934469,256.17320213089613,64.05977462757843
282,17.980816618883914,-255.5442496280335,-2.976943598748438,-20.092660107992508,60.987936249698414,-2.3747105559653905,256.2094115580452,64.32772791229382
283,17.983763330620114,-255.5696124405888,-2.9361127801804834,-20.277946109426445,61.237356552517696,-2.268004643194761,256.23426008772435,64.62181605072767
284,17.979411841418223,-255.58411588111372,-2.895557777126923,-20.474022377543378,61.50790225475396,-2.1428448248360503,256.2477297942033,64.93892346863386
285,17.967765222582795,-255.58792164206264,-2.856427696077313,-20.679978866154492,61.79587027158606,-2.00061032883667,256.24999773377226,65.27529571613063
286,17.949025873433314,-255.58136642500673,-2.819852881121037,-20.89445695011021,62.09708423491564,-1.8430050960660835,256.2414299436802,65.62659786277642
287,17.923587797387853,-255.564955689575,-2.7869091900078917,-21.11565901686567,62.40696823981853,-1.6719984758384994,256.22257416508484,65.98798461700159
288,17.892024292201796,-255.53935607339636,-2.758584755474109,-21.341367471820153,62.72062919238313,-1.4897644693541725,256.1941509115008,66.35418156462931
289,17.855071455505257,-255.50538586622596,-2.7357512457166364,-21.56897346172831,63.03294690712113,-1.2986226352091854,256.15704232491925,66.71957694533535
290,17.813608106586607,-255.46400280321294,-2.719141022940671,-21.795516122890426,63.338670876874865,-1.1009831611779752,256.11227815341846,67.07832330593386
291,17.76863286683822,-255.41628849924282,-2.7093307030878893,-22.01773348946356,63.63252234946663,-0.899297910020016,256.0610182431802,67.42444817560059
292,17.721239133932603,-255.36342913191302,-2.706730778539206,-22.23212611651407,63.90930007726902,-0.6960185153772391,256.0045312147375,67.75197260674723
293,17.67258854680052,-255.30669235530468,-2.711580421091415,-22.43503390081717,64.16398787958252,-0.4935618387616406,255.9441693515826,68.05503601145756
294,17.623883386299415,-255.24740070022725,-2.7239463973073867,-22.622725670544956,64.39186195213163,-0.29428233352422745,255.88133998771968,68.32802522417124
295,17.576338291465838,-255.18690188696908,-2.74372512634019,-22.79150011775235,64.58859569965705,-0.10045019521480691,255.81747384413956,68.56570523930023
296,17.53115171051642,-255.12653669140587,-2.770647159353954,-22.93779572105329,64.75035982467007,0.08576629088393321,255.75399098051543,68.76334871879406
297,17.489477601184205,-255.06760533081064,-2.8042836598217122,-23.058306448542524,64.87391548616134,0.26231603441281587,255.6922653599046,68.91686114662943
298,17.452397970029164,-255.01133368597857,-2.8440547889544336,-23.150099211785463,64.95669846364498,0.42727992547806565,255.6335893797688,69.02289833867422
299,17.420896828377327,-254.9588409414009,-2.8892402284405505,-23.210728341238415,64.99689234318922,0.578886852378793,255.57913998760307,69.0789728488697
300,17.395836019100535,-254.91111034775065,-2.9389922993597817,-23.23834194499854,64.99348878863259,0.7155323509191879,255.52994811366284,69.083545710488
301,17.37793317052009,-254.86896473149505,-2.9923521325235813,-23.231775025115276,64.94633303867035,0.835800733924289,255.48687305865835,69.0361000222548
302,17.367741865584062,-254.83304802046504,-3.0482690960812033,-23.19062466798952,64.85615293227099,0.9384908254408438,255.45058310371655,68.93719318916287
303,17.36563409329569,-254.8038134424002,-3.105623317076392,-23.11530342673834,64.7245700428851,1.0226446537462488,255.42154299354908,68.78848516242815
304,17.371785205168006,-254.78151837839664,-3.163250803501046,-23.007068077076593,64.55409192254714,1.087577771384758,255.40000827716355,68.59274078167773
305,17.386161842770772,-254.76622537477883,-3.2199704486501792,-22.868022143219296,64.34808499960629,1.132909333966091,255.3860260271444,68.35380524558927
306,17.408513489081606,-254.7578086653823,-3.274612046917915,-22.701091841213398,64.11072824099655,1.158589693344573,255.379441318215,68.07655269328652
307,17.438368321821773,-254.75596564670406,-3.3260443558149464,-22.509976282022393,63.84694818213237,1.1649230637035506,255.37990893686134,67.76680874442889
308,17.47503390821442,-254.760232878135,-3.3732022587687416,-22.29907384527351,63.56233633842094,1.1525828552286406,255.38690991443588,67.43124859395289
309,17.51760305116923,-254.77000618847055,-3.41511222930184,-22.073387496880887,63.26305040514664,1.1226175805795133,255.39977247138643,67.07727292205516
310,17.56496484008459,-254.78456432319845,-3.4509154716231176,-21.83841240610144,62.95570104746897,1.0764457873791902,255.4176967980392,66.71286445566153
311,17.615820691656054,-254.80309534175058,-3.479888207777252,-21.600009518512138,62.647226417069675,1.0158391477775908,255.43978285454466,66.3464284435734
312,17.668704906880805,-254.82472479430805,-3.50145858266437,-21.364268849101876,62.34475674357574,0.9428935300143604,255.46506017484757,65.98662055136515
313,17.722009095712515,-254.8485446542654,-3.5152196351063885,-21.137366279623812,62.05547145440713,0.85998850205148,255.49251859350863,65.64216579223476
314,17.77400981565558,-254.87364202829352,-3.520937818902877,-20.925417612299405,61.7864513497188,0.7697362193969212,255.52113886007865,65.32167216570139
315,17.822898923434323,-254.89912671689538,-3.5185566976891507,-20.73433350936905,61.54452844854994,0.6749210276276382,255.54992216919388,65.03344271159123
316,17.866816351876196,-254.92415671646563,-3.508195698829252,-20.569678705845362,61.33613621704818,0.5784314297346449,255.577917671389,64.78528968487639
317,17.903885223599243,-254.94796082075533,-3.490144195952501,-20.43653857082372,61.16716295680634,0.48318639326838464,255.60424711648497,64.58435450462781
318,17.932249356830656,-254.96985769047876,-3.46485162202914,-20.33939581714614,61.042811172223054,0.39205827415416994,255.62812600944412,64.43693706304468
319,17.950113225472,-254.9892710673262,-3.4329146067197467,-20.282020010981846,60.967465790360386,0.3077947954335172,255.64888097244236,64.3483379638606
320,17.955784227764767,-255.00574105403925,-3.3950621079700563,-20.26737253311197,60.94457419349939,0.23294244795901847,255.66596324052009,64.32271731677203
321,17.947716739382905,-255.01893149819077,-3.3521392169239217,-20.297529730692673,60.97654108915428,0.1697734066862775,255.67895830804315,64.3629737756098
322,17.924557044122206,-255.0286336031829,-3.3050900542421213,-20.373627054219476,61.06464119459357,0.12021769396872789,255.68759180356554,64.47064745194422
323,17.885187999676113,-255.0347660422987,-3.2549402019333367,-20.4958268624777,61.208952506853706,0.08580195744344019,255.69173181155057,64.64585007758649
324,17.828772222125234,-255.0373720155484,-3.2027793475857282,-20.663312160503143,61.40831257782356,0.06759590099562462,255.6913880257406,64.88722530039284
325,17.75479257162785,-255.03661374209014,-3.149744954626713,-20.87430769684639,61.660299745551505,0.06616715131676544,255.68670817767136,65.19194127289008
326,17.663088734215638,-255.0327647994213,-3.097007652551756,-21.126128559482968,61.961240710933126,0.08154520773533597,255.67797210411268,65.55571675002656
327,17.553888741294724,-255.02620058658107,-3.045758736744614,-21.415254801777984,62.306245233007886,0.11319511554112438,255.66558368319602,65.97288082645547
328,17.427834368976427,-255.01738706538538,-2.9971998014673247,-21.73742896247735,62.68926811721236,0.16000157139604268,255.6500607468707,66.43646535630862
329,17.285999468683748,-255.0068678195082,-2.9525341875138844,-22.087771896551107,63.10319815364037,0.22026424863025668,255.63202296384023,66.93832815051955
330,17.129900341840504,-254.99524937746287,-2.912959660764744,-22.460911294905724,63.53997322043177,0.29170517440010246,255.6121775908157,67.46930429008196
331,16.961497310422313,-254.98318473797406,-2.8796615474131073,-22.851116701796325,63.99072033169038,0.37148896153795075,255.5913029788026,68.01938228583386
332,16.783186738874978,-254.97135516572465,-2.8538054202253456,-23.252434696077096,64.44591892615125,0.4562565605240059,255.5702298526332,68.57790129750624
333,16.597782944526227,-254.96045056025648,-2.836528382875539,-23.658818111036236,64.89558515530088,0.5421729435577332,255.54982062561984,69.13376517312503
334,16.408489605611738,-254.95114895739314,-2.828928047491577,-24.064243707241495,65.32947434568736,0.624988791579756,255.53094727646769,69.67566869399433
335,16.218860378115778,-254.9440959304468,-2.832048431406893,-24.462813611080573,65.73729818501954,0.700115863086246,255.51446852651873,70.19233113228225
336,16.032748465424625,-254.9398847616471,-2.8468622599787228,-24.84883706964882,66.10895252561556,0.7627152922334434,255.5012071571971,70.67273205454393
337,15.8542448199249,-254.93903819641037,-2.8742495912060684,-25.21689055272661,66.4347510301924,0.807797592771329,255.4919282439439,71.10634421839619
338,15.687604459159068,-254.94199236630197,-2.9149731504385765,-25.56185583295093,66.70565920984927,0.8303326748076195,255.4873188423687,71.48335837077829
339,15.537160152552124,-254.9490831627343,-2.969651110848062,-25.878937286564977,66.9135226806248,0.825367800173436,255.48796934068585,71.79489468312127
340,15.407222773953793,-254.96053511903406,-3.0387283040763577,-26.16366117650856,67.05128264926805,0.7881511728913034,255.49435646721602,72.03319536989791
341,15.301968291230713,-254.9764528241351,-3.1224471336559176,-26.411861001886614,67.11317084650663,0.7142587684709921,255.50682795258405,72.19179279748492
342,15.225312850493548,-254.99681500713749,-3.22081978498089,-26.619654028572167,67.09487571012068,0.5997219666883016,255.52558906607172,72.26564738813137
343,15.1807794720764,-255.0214715290162,-3.333603552427226,-26.78341481079111,66.99367199834782,0.4411534699746154,255.5506914847673,72.25125022832208
344,15.17136196907613,-255.05014346473266,-3.46028117098402,-26.89975189243667,66.80850741119032,0.23586881082700425,255.58202504016248,72.14668672128198
345,15.19939331157799,-255.08242628223275,-3.60004793956214,-26.96549395469899,66.54004214544229,-0.017999499308841885,255.6193128091825,71.9516598311836
346,15.266426491524644,-255.11779593307145,-3.7518071284857912,-26.977691355162722,66.190640310095,-0.32139837351197253,255.66210986635903,71.66747415135694
347,15.373135861928978,-255.1556175273482,-3.9141746677484504,-26.933638034386437,65.76431534182541,-0.6742644683912524,255.70980585452648,71.29698470856867
348,15.519245877061651,-255.19515618799534,-4.0854934824207785,-26.830916903448646,65.26663446751203,-1.0754518466092184,255.76163138406812,70.84451653164295
349,15.703492248349246,-255.23558969730115,-4.263857185646373,-26.66746910813927,64.70458934978264,-1.5226804017993714,255.81666817714665,70.31576208715083
350,15.923618112015797,-255.27602270637232,-4.4471422727622,-26.441684409880935,64.08644094906326,-2.012508450271183,255.87386289617146,69.7176634758052
351,16.176405375135992,-255.31550253836807,-4.633047571067174,-26.152506903121363,63.42154622857281,-2.540332899970879,255.9320447194066,69.05828484947001
352,16.457739326122056,-255.35303682949308,-4.819139455916876,-25.799547880625802,62.72017280103625,-3.1004203438881417,255.98994681674483,68.3466781845637
353,16.76270295129749,-255.38761329397164,-5.002901098326561,-25.383196184792254,61.993305407892386,-3.685972125422589,256.0462318148048,67.5927428830083
354,17.08569613968848,-255.41822177497713,-5.181783761802057,-24.90471603146964,61.25244583851546,-4.289225733173953,256.0995211293206,66.80707733056705
355,17.420574099480454,-255.4438785120113,-5.353258186577321,-24.36632309377502,60.509406150366175,-4.901593680852853,256.14842775358005,66.00081912854249
356,17.76079895609233,-255.46365227171157,-5.514864571764468,-23.77123144302786,59.77609426516809,-5.513839232114092,256.19159179008403,65.18547057397478
357,18.0995987140437,-255.47669173263978,-5.664260362865168,-23.123666460420463,59.06429130802988,-6.1162859926734905,256.2277177769512,64.372707076053
358,18.43012846549017,-255.48225332944108,-5.799265573658674,-22.42884166293685,58.38542126767975,-6.699055786375759,256.25561272353826,63.57416824183923
359,18.745629699725004,-255.4797285790482,-5.917905554114331,-21.692900140394865,57.750315382753136,-7.2523267786426056,256.274223646348,62.80123389617906
360,19.039584537337987,-255.46866966877445,-6.018451064909444,-20.9228236568284,57.168975760699,-7.766601906091481,256.2826732077788,62.06478989008366
361,19.30586249813621,-255.44881188135244,-6.0994553860952925,-20.12631419793401,56.65034478056199,-8.232976576421047,256.28029189479105,61.37499084362093
362,19.53885798259715,-255.4200914225532,-6.159788038137491,-19.311653720195533,56.20208852239687,-8.643394431276695,256.26664518867256,60.74102870188709
363,19.733617022834228,-255.38265741624926,-6.198664522261072,-18.487548081449315,55.83040355711483,-8.990880698293674,256.2415543860719,60.170916988104736
364,19.885952006098194,-255.33687712064747,-6.215671282805128,-17.66296076389992,55.539856699637284,-9.269744158262831,256.2051100142893,59.67130080143309
365,19.992542965149642,-255.28333371137,-6.210784899706384,-16.846941325398774,55.33326659322821,-9.475740788359019,256.1576770533096,59.24730185555796
366,20.0510237704445,-255.22281628713733,-6.1843844243704265,-16.048452863652113,55.21163423518135,-9.606194444807317,256.09989145779303,58.90240624505692
367,20.060051317643595,-255.1563021367268,-6.1372558232683705,-15.27620239725255,55.174127032427414,-9.660072267701649,256.03264783174177,58.638400425767905
368,20.01935565061007,-255.0849317838401,-6.07058765013778,-14.53847800280836,55.21811813412357,-9.63801460497574,255.95707857275937,58.45535846737411
369,19.929768892539105,-255.00997784937582,-5.985957290668279,-13.842996626513463,55.33928000511863,-9.542320956072142,255.87452532063264,58.3516812184954
370,19.793230904221808,-254.9328092069848,-5.885307415081477,-13.196766458944586,55.53172865703117,-9.376894584302894,255.78650398769398,58.32418566827922
371,19.61276976691168,-254.8548521230011,-5.770912599046961,-12.60596747118707,55.788212708647826,-9.147149044924838,255.6946648820214,58.3682405208002
372,19.392455479364827,-254.77755005736566,-5.645336374365796,-12.075853141365648,56.100339586233986,-8.859880059004336,255.60074944750295,58.47794194212378
373,19.137325726528722,-254.7023236932517,-5.511379263263383,-11.610675593569834,56.45882980553558,-8.523106071702461,255.50654507806138,58.64632176052947
374,18.853283403194656,-254.63053270628762,-5.3720186840337005,-11.213635393135668,56.853789481836266,-8.14588058316871,255.41383947999665,58.86557922635634
375,18.54696686270933,-254.56344080045187,-5.23034198446321,-10.886856191958378,57.274991021702085,-7.738079109055756,255.32437618558055,59.1273268524269
376,18.225595421568634,-254.50218550595483,-5.089474209656811,-10.631383379918994,57.712152339363406,-7.310163656288593,255.2398129239644,59.42284089714385
377,17.89679409489287,-254.44775399794054,-4.952502482391288,-10.44720491871526,58.155205832991314,-6.872928056537665,255.16168444007863,59.74330767963477
378,17.568402574291518,-254.40096570381178,-4.82239904096339,-10.333291671018529,58.59454961269726,-6.437228377714789,255.09137094333474,60.08005800075003
379,17.248274051016214,-254.36246184478648,-4.7019450866955,-10.287653892916376,59.021274915260676,-6.013703782128369,255.03007278767976,60.42478329968521
380,16.944069749485724,-254.3327015137404,-4.593657686149733,-10.307410223795177,59.42736507293167,-5.612494431868227,254.97879145464736,60.76972859226822
381,16.66305509560521,-254.31196353289315,-4.499722011987545,-10.388865511672687,59.80586263731532,-5.2429641976510215,254.93831654848682,61.10785850896719
382,16.411903386003605,-254.30035308504165,-4.421931138736007,-10.527594109729426,60.151002182127655,-4.913436866419167,254.90921824747315,61.43299374423153
383,16.196512690965072,-254.2978118662239,-4.36163545549679,-10.718525803333025,60.45830694260446,-4.630955124164164,254.8918443880924,61.73991594394849
384,16.021841505164875,-254.3041303009477,-4.319703540365007,-10.956032231260577,60.72464792409162,-4.401071665792428,254.88632112449264,62.02443961196487
385,15.891768297776395,-254.31896032552442,-4.29649602778519,-11.23401250504877,60.948264564384296,-4.227681229957114,254.8925560320468,62.28345014044589
386,15.808979582884234,-254.34182748467356,-4.29185358139892,-11.545977601204964,61.12874655528174,-4.1129011561041215,254.9102427128756,62.51490764262319
387,15.774890506135353,-254.37214161718563,-4.305099626842713,-11.885133837218138,61.26697711476526,-4.057006342069783,254.93886643410013,62.71781696729583
388,15.78960128725568,-254.40920611289812,-4.335058043277718,-12.244466177885446,61.36503897897669,-4.058422439115276,254.97771097737206,62.89216520812094
389,15.851892077555478,-254.45222637278283,-4.3800855169879,-12.61682215883194,61.4260857139964,-4.113778908874224,255.0258674642816,63.03882923624522
390,15.959257689930457,-254.50031848750734,-4.438117699233599,-12.994996895129448,61.45418250282155,-4.21802126201484,255.08224622688428,63.15945716242536
391,16.107982137323543,-254.55251920872902,-4.5067277227668505,-13.371819128135185,61.45412202575323,-4.36457946681784,255.14559275174247,63.25632888766596
392,16.293251116683606,-254.60779809269042,-4.583195047677448,-13.74023775747202,61.43122208998831,-4.545587289495405,255.21450841815684,63.332201732517774
393,16.509298832000685,-254.66507237325192,-4.664582100033157,-14.093407936513898,61.39111214446931,-4.7521454021216405,255.2874763209222,63.390147433100495
394,16.749584153102642,-254.723224796025,-4.747815932986612,-14.424775579560283,61.33951584237334,-4.974619606674257,255.36289205702295,63.43338665936563
395,17.006990101737745,-254.78112436822008,-4.829772309710329,-14.72815896542479,61.28203655834048,-5.202964457966336,255.43909901809653,63.46512680963708
396,17.274039904515757,-254.83764971814693,-4.907360036509715,-14.99782597258293,61.22395233481446,-5.4270618011884935,255.51442742346092,63.4884082628893
397,17.543122284824772,-254.89171450296064,-4.977603793066092,-15.228565343599094,61.17002617082635,-5.63706316783096,255.5872360346417,63.50596357919798
398,17.806718384355168,-254.94229409411722,-5.037723961225294,-15.415750294684337,61.12433692130949,-5.823724589595747,255.65595525917556,63.52009339035368
399,18.05762282666707,-254.98845260424227,-5.085212006272344,-15.555392840950665,61.09013538472524,-5.978722281140933,255.71913018526703,63.53256198940908
400,18.289151949390916,-255.02936915012089,-5.1178998212377875,-15.64418747502416,61.06972944095621,-6.094937932788257,255.77546194396575,63.544514967613146
401,18.495333009298335,-255.06436207961355,-5.134021192057709,-15.679543327664161,61.064401351417445,-6.166703129711534,255.8238456703172,63.55642067360112
402,18.67106903683503,-255.09290978564232,-5.1322633390902395,-15.659604596486663,61.07435950660624,-6.189993693362267,255.8634032798377,63.56803674132243
403,18.812274892684798,-255.11466674700168,-5.111806456544112,-15.58325975860254,61.098725957671185,-6.162566494249799,255.89350934645657,63.57840238809212
404,18.915981022973824,-255.1294735991008,-5.072349353910835,-15.450140768433995,61.1355600035145,-6.084033454628267,255.91380859595574,63.585856593372036
405,18.98040251789315,-255.13736031174605,-5.014119751268995,-15.26061394847839,61.181916982931,-5.95586995531322,255.9242238891093,63.588081640144324
406,19.0049722839002,-255.13854187626245,-4.937868494012798,-15.015764475827766,61.23394031792969,-5.781357545812684,255.92495399629735,63.582170846365585
407,18.990338241429747,-255.13340630226122,-4.844847782980018,-14.71737617171165,61.28698384560001,-5.565463553870792,255.9164609605983,63.56471865100936
408,18.938325330588885,-255.12249527721065,-4.736774284622285,-14.367907756933505,61.335760639776026,-5.314662728078052,255.89944747502685,63.53193059785559
409,18.851863796303164,-255.10647851540747,-4.615778679045286,-13.970466025708786,61.3745139174152,-5.0367082991853875,255.87482543091514,63.47975025559174
410,18.734885871495496,-255.08612340306811,-4.484343883983335,-13.528775765753677,61.397205235901254,-4.7403617141997865,255.8436774284227,63.403999759181346
411,18.59219367593073,-255.06226182785034,-4.345234798500959,-13.047145896816657,61.39771491616708,-4.435091680990692,255.80721337870116,63.30053039289499
412,18.42930190565979,-255.0357560618919,-4.201422804178536,-12.53043122630617,61.370049341927626,-4.130753969643468,255.76672436554682,63.165379336478935
413,18.252259673470483,-255.0074653935444,-4.056008370467296,-11.983989308733836,61.30854942358886,-3.8372636099712696,255.72353581480485,62.99492828451446
414,18.067456653190042,-254.9782149908034,-3.912144891519013,-11.413632013157132,61.20809413709824,-3.5642707311841484,255.67896185753222,62.786059174134316
415,17.881419442411147,-254.94876826562864,-3.7729662809899844,-10.825571455593336,61.06429283217389,-3.3208504041885094,255.6342626022088,62.53630189503703
416,17.700604689192453,-254.9198037939032,-3.641519920854779,-10.226359869149881,60.87366018668236,-3.115215614693428,255.59060584655467,62.24396884393233
417,17.531195898309004,-254.89189760636563,-3.520705531811576,-9.622822742024645,60.6337684182787,-2.954461087397391,255.54903452932703,61.90827168263429
418,17.37891085478514,-254.86551138565463,-3.4132196987447023,-9.021984224725303,60.34337255773276,-2.8443442656637834,255.5104409284281,61.529416592392515
419,17.248826238954877,-254.84098684114062,-3.3215053139360133,-8.430983534796574,60.00250589750126,-2.789108457744148,255.47554831185056,61.10867537479582
420,17.145225254823586,-254.81854637023716,-3.2477050815951443,-7.8569810227878225,59.61254379156897,-2.7913520407161942,255.44490052740497,60.648430598770815
421,17.071473017104285,-254.79830002112217,-3.1936183837568204,-7.30705282644799,59.17623463692579,-2.851946612186805,255.41885984963807,60.15219349236493
422,17.029923185889846,-254.7802585730401,-3.1606612435754142,-6.788073699320057,58.69769714654063,-2.9700059759207025,255.39761312513895,59.62459347037476
423,17.02185807299868,-254.76435208992953,-3.1498298670279103,-6.306588671916161,58.182383060189125,-3.142906739873114,255.38118572645664,59.07133820766846
424,17.04746330225903,-254.7504526214912,-3.1616691339037395,-5.868675643846576,57.637004451153594,-3.3663600534803964,255.3694620852202,58.49914322030535
425,17.105837122133817,-254.73839906357986,-3.196248080233766,-5.479802695738002,57.069425051114955,-3.6345326074113835,255.36221086098362,57.91563025274071
426,17.195033575467153,-254.7280218125783,-3.253144617798121,-5.144685669706138,56.48851573189837,-3.940213479095812,255.35911236922112,57.3291945524823
427,17.31213783900874,-254.71916487316275,-3.3314415080420754,-4.86715314709203,55.90397546303162,-4.275021806853217,255.35978585206192,56.74884231803899
428,17.453371135101786,-254.71170345774865,-3.4297350746696194,-4.650027019488147,55.32612057498365,-4.629648753364858,255.36381448348143,56.18400106610622
429,17.61422172170183,-254.70555573489156,-3.5461573710007435,-4.4950270647019845,54.76564682494731,-4.994125931435824,255.3707665470043,55.644307192252356
430,17.78959759260965,-254.700688123147,-3.67841164058744,-4.4027071125707264,54.233370404372764,-5.358111540559946,255.3802118903988,55.13937643707029
431,17.973995669032057,-254.6971142533162,-3.8238201575634942,-4.372428558418903,53.73995543875016,-5.71118497646638,255.3917334171606,54.67856415852472
432,18.161681518768304,-254.694888307023,-3.9793830701309294,-4.402374389671343,53.29563650165978,-6.043140633618975,255.4049338969916,54.27072308842414
433,18.34687315813185,-254.6940938237956,-4.141846626499423,-4.489603880163267,52.90994506515173,-6.344271986604312,255.41943871773168,53.92396651043166
434,18.52392239100451,-254.69482929003468,-4.307778919719506,-4.630145076284308,52.591448629462214,-6.605637775371414,255.43489540357857,53.64544453709458
435,18.687487408509597,-254.6971919633591,-4.473650926542546,-4.819119550216697,52.347510605470326,-6.819303175060533,255.45097087022123,53.44114046503737
436,18.83269092656493,-254.70126149730228,-4.635920252663221,-5.050891948854075,52.18407800534583,-6.978550059847751,255.46734752654982,53.315693175944155
437,18.955258933769844,-254.70708499744833,-4.7911148536457295,-5.319235786773021,52.105502804565475,-7.078051665327692,255.48371944982048,53.27225038449805
438,19.05163614398408,-254.71466507049306,-4.935914154242468,-5.6175067172589666,52.114401636885525,-7.114007985822605,255.4997898668921,53.312356380192796
439,19.11907539108872,-254.7239521099099,-5.06722531654466,-5.938815032616277,52.21155737638502,-7.084239139466024,255.5152709454733,53.435876890654306
440,19.155699284601475,-254.7348414643665,-5.182252757714137,-6.276190165962962,52.395865177945154,-6.988234798846425,255.52988638716303,53.640962853409164
441,19.160533370752546,-254.74717538222947,-5.278559339083708,-6.622731258490679,52.6643246552355,-6.827158691869711,255.5433766341652,53.924054182914084
442,19.13351088570074,-254.7607489669956,-5.354117949900142,-6.971739282467283,53.01207898081459,-6.603808159951672,255.5555059089538,54.27992396282091
443,19.075450057921895,-254.7753190212062,-5.407352484114965,-7.316827730042653,53.43250070047906,-6.322529829578566,255.56607001620458,54.70176278341332
444,18.988005829652334,-254.79061458798378,-5.437167442799908,-7.6520104483140425,53.91732293432395,-5.989093590324139,255.5749038375708,55.18130213920666
445,18.873598748889833,-254.80634805880547,-5.442965618426951,-7.9717667155562415,54.45681342385526,-5.610528254394484,255.5818875767905,55.7089749076516
446,18.735324539541665,-254.82222583828934,-5.424653580741768,-8.271084978510757,55.03998763701853,-5.194923490193636,255.58695099415627,56.27410997501441
447,18.57684837855262,-254.83795779570642,-5.382634983731129,-8.545487722117208,55.65485593743741,-4.751203820021568,255.59007515142855,56.86515710765147
448,18.40228809711218,-254.85326506335545,-5.317792024024758,-8.791040705484612,56.288698744220675,-4.2888815115240675,255.59129153804966,57.46993724353127
449,18.216090398539656,-254.86788602827414,-5.231455728032446,-9.004350266560682,56.928362722577106,-3.817795943331793,255.59067873387363,58.07591255078337
450,18.022903921810123,-254.88158053383145,-5.1253661238499815,-9.182552546512442,57.56057038860454,-3.3478474628293764,255.58835692235414,58.67046990259602
451,17.82745275067801,-254.89413241753383,-5.001623648116687,-9.32329831216327,58.17223506790672,-2.888733917996701,255.58448066592737,59.24121085185716
452,17.634413778444113,-254.90535064198912,-4.862633254445678,-9.424736614292755,58.750772860107595,-2.449697938234824,255.57923047116816,59.776240721652385
453,17.44830107856955,-254.91506944384858,-4.711042698540247,-9.485499876134533,59.28440310565094,-2.039292614263047,255.57280381602968,60.26444905584569
454,17.273360062958442,-254.92314805743786,-4.54967651396201,-9.504692203947926,59.76242889499576,-1.6651724577038374,255.5654064128601,60.69577348123899
455,17.113473783724313,-254.92947054099736,-4.381467312422726,-9.481881805230199,60.17548952138738,-1.3339154529889887,255.55724441956457,61.06143915345333
456,16.972083265964574,-254.9339460032694,-4.209386194627024,-9.417097495862885,60.51577753521864,-1.050880750805808,255.54851804733988,61.35416649028592
457,16.85212321212996,-254.93650923255382,-4.03637416435362,-9.310828496371503,60.777214199146236,-0.8201051801465925,255.53941667941277,61.568340845364226
458,16.755973809522484,-254.93712155685216,-3.865276434092466,-9.164026117696462,60.95557857571196,-0.6442403045411703,255.53011539900444,61.70013905767505
459,16.685428791450583,-254.93577175860563,-3.6987813697526537,-8.978105519357705,61.04858708436425,-0.5245302501157914,255.52077277833473,61.74760931036607
460,16.64167940759577,-254.93247693729518,-3.539365591819032,-8.754945504760814,61.05592205445211,-0.46082908733323646,255.5115298144403,61.710702355538814
461,16.625313524670293,-254.9272832643207,-3.389246515147955,-8.49688433128591,60.97920952009055,-0.45165526350735213,255.50250991698005,61.59125385412691
462,16.636328679526247,-254.9202665828132,-3.2503433922413256,-8.20670974679934,60.821948195513706,-0.49427949963181794,255.49381983166015,61.39291928067773
463,16.67415757824668,-254.91153279905507,-3.1242476471298093,-7.887641875022132,60.589393150787636,-0.5848416885710113,255.48555135060283,61.121064461314816
464,16.737704316581503,-254.9012180368648,-3.012202858046655,-7.543308107403483,60.288399058974065,-0.7184916975562037,255.477783665471,60.78261622411821
465,16.825389488119008,-254.88948858382452,-2.915094219422636,-7.177709730204565,59.92722889080111,-0.8895486132332918,255.47058626421938,60.385878715205855
466,16.93520232345493,-254.87654068596896,-2.8334469070023203,-6.795180497451268,59.51533453740407,-1.0916728369332511,255.46402229597834,59.940321598115716
467,17.064758043182408,-254.8626001858098,-2.7674326560020597,-6.400337671270173,59.06311606469109,-1.31804549278129,255.45815226990086,59.456346616507496
468,17.21135868849394,-254.84792185380536,-2.7168839801085243,-5.998026203204488,58.58166619023245,-1.5615498490478552,255.45303781597775,58.945038910327185
469,17.372055802210966,-254.83278810236217,-2.681315607499447,-5.593256791651198,58.08250617840699,-1.8149498790608534,255.44874508251706,58.417909097618974
470,17.543713476659455,-254.81750668293108,-2.6599527434328434,-5.191138594075915,57.577318773048155,-2.071061656664449,255.44534726443592,57.8866315778896
471,17.723070476276185,-254.80240700114354,-2.6517656697585235,-4.796807455690358,57.077683197026005,-2.3229139026478256,255.4429258003562,57.36278394927233
472,17.90680038466272,-254.78783482483297,-2.655510032257288,-4.415350665121764,56.59481680900892,-2.5638945898301198,255.44156992865032,56.85759202301333
473,18.091569031896846,-254.77414537444616,-2.669772015066569,-4.051729449906519,56.139327780141656,-2.7878810556378344,255.44137452429953,56.381684724033825
474,18.27408885067511,-254.76169505127572,-2.6930174170238086,-3.7107006470119215,55.72098308834813,-2.989351612464339,255.4424364277458,55.94486313751426
475,18.45117025109415,-254.7508322877463,-2.7236432960842007,-3.3967391760145036,55.348496160169766,-3.163477240845414,255.44484973216004,55.555888034260434
476,18.619770465356478,-254.7418880556329,-2.7600303041211696,-3.1139630295868157,55.0293385957298,-3.306192587716027,255.44870056787505,55.222290352871006
477,18.777040452226668,-254.7351664142801,-2.8005932990135505,-2.8660624194076036,54.76958054918673,-3.414246110204773,255.45406177508426,54.95020928381776
478,18.920370313018292,-254.73093527571362,-2.843827582036492,-2.656234506846689,54.5737643838571,-3.485229752452519,255.46098763990568,54.744262667128595
479,19.0474333215449,-254.72941747419011,-2.8883482973703902,-2.487124921830556,54.44481601846059,-3.5175890170544357,255.4695087570813,54.60745422997669
480,19.156228229222044,-254.73078227263903,-2.932921102156035,-2.360777137799818,54.38399780165,-3.510614733417266,255.47962710230738,54.5411216363189
481,19.245119067325785,-254.73513754761203,-2.9764830697355618,-2.27859075093801,54.39090574047095,-3.464418255645144,255.49131148522983,54.54492834505925
482,19.312871276183227,-254.74252300944303,-3.0181537934796956,-2.241289746643142,54.46351248973262,-3.379892206122451,255.50449365392672,54.616900893762505
483,19.3586826679905,-254.75290487840442,-3.0572376073085006,-2.248901822099044,54.598255758973856,-3.2586591554507542,255.51906537466823,54.75351150575135
484,19.382207501903867,-254.76617241432953,-3.093218497553181,-2.300749691620284,54.7901698103675,-3.103010759288608,255.53487677871362,54.94980395110037
485,19.38357184645795,-254.7821366383509,-3.1257495361588266,-2.395455023636525,55.03305566064669,-2.915839835627169,255.55173620316577,55.19955853180259
486,19.363378453640955,-254.80053157532754,-3.154638615180608,-2.5309552840289364,55.31968369341248,-2.700567621820493,255.5694117432847,55.49549013926235
487,19.32269959833122,-254.8210183610257,-3.1798321037471013,-2.704533323417234,55.64202086085214,-2.461067980475751,255.58763476134342,55.829471774366425
488,19.26305676479702,-254.84319247595292,-3.2013978779325,-2.912859088390591,55.991473654144905,-2.201589685465789,255.60610554276073,56.19277487788682
489,19.18638668497942,-254.86659412511642,-3.219508933661012,-3.1520424471899884,56.359137623564905,-1.9266772300371462,255.6245010912009,56.57631737289322
490,19.09499400333231,-254.89072145406197,-3.2344283826220797,-3.417695889832408,56.73604442368721,-1.6410899878917844,255.64248478015722,56.970910470481584
491,18.99149164841398,-254.91504598891999,-3.2464960540227112,-3.705005813797327,57.11339803282917,-1.3497191563744468,255.65971733248819,57.36749592787037
492,18.87873067582257,-254.93902945832457,-3.2561163543805764,-4.008811193908438,57.48279279898703,-1.057501821589029,255.6758684166053,57.75736642596862
493,18.75972178425307,-254.96214100636533,-3.2637467308438115,-4.323688581262677,57.83640720926746,-0.7693317347378609,255.6906280291718,58.13236296202531
494,18.637550894499558,-254.9838737717693,-3.2698861772973724,-4.644042490216444,58.16716872287803,-0.48996692526888647,255.7037168142122,58.4850445826658
495,18.51529125707718,-255.00375991571445,-3.2750635956652103,-4.96420024174238,58.46888656345042,-0.2239350030736482,255.7148945834231,58.80882732043804
496,18.395914680186273,-255.02138340120715,-3.2798261853399757,-5.278510220970398,58.73635090808099,0.024562202826801674,255.7239665336638,59.09809071057054
497,18.282204696884843,-255.03639011550746,-3.284728161519161,-5.581442315000888,58.965398342093984,0.25174228746778876,255.73078696129676,59.348251655801555
498,18.176674741761747,-255.04849523852798,-3.2903199989490863,-5.867689079494368,59.15294471074021,0.4543312434653133,255.73526059866637,59.55580661844918
499,18.08149456984776,-255.05748799947767,-3.297138216079144,-6.13226598773835,59.29698752735187,0.6296444656514292,255.73734194418793,59.71834409208615
500,17.998428125805017,-255.0632340202322,-3.305695625328364,-6.370608960745063,59.39658084846611,0.7756563803234184,255.73703300834197,59.83453000284093
501,17.92878576630568,-255.0656753194192,-3.3164720677982977,-6.578667227377539,59.45178602595603,0.8910554144709182,255.73437975087973,59.90406913952407
502,17.873393108780967,-255.06482787807735,-3.3299058647285107,-6.752989381545646,59.463602053658015,0.9752813509458493,255.72946726898098,59.927645972079695
503,17.832577902596782,-255.06077658253574,-3.346386349710529,-6.890800320715551,59.43387937207378,1.028542651664287,255.72241365210422,59.90684832685924
504,17.80617535464666,-255.0536674302964,-3.366247720827805,-6.990066658453858,59.36522098699715,1.0518120833515237,255.7133624228158,59.844077365612115
505,17.793551417938342,-255.0436971158226,-3.3897641123370117,-7.049548280902743,59.26087461568528,1.0467999367660867,255.7024736474721,59.74244719315847
506,17.793642728565437,-255.03110043874196,-3.4171454481054573,-7.0688339754133755,59.12461933262874,1.0159052168556708,255.68991406517034,59.60567723158216
507,17.805011187931076,-255.0161362716737,-3.4485334704378223,-7.048359446297243,58.96064988057641,0.9621462591584681,255.6758468265978,59.43798026775448
508,17.825910638273776,-254.99907298089263,-3.48399732366444,-6.9894064795899595,58.77346145567038,0.8890731446144486,255.660421549444,59.2439488040043
509,17.854362633022813,-254.9801741834524,-3.5235281178412983,-6.8940825155190675,58.56773735509484,0.8006649555202894,255.64376535436273,59.02844200083892
510,17.888237947270575,-254.95968561347465,-3.567031992395086,-6.765280479765134,58.34824138133125,0.7012153580019789,255.62597540885696,58.79647509270463
511,17.925340265377052,-254.93782376051718,-3.6143214087593454,-6.6066194140227985,58.11971637164861,0.5952102710235877,255.60711338288544,58.55311272680983
512,17.963488483675278,-254.91476687185568,-3.6651047632247358,-6.422367124829593,57.88678976477919,0.487201506020076,255.58720215178226,58.30336730551798
513,18.00059427363661,-254.89064882438845,-3.7189749057329773,-6.21734659158326,57.653886827043344,0.38168022862211654,255.5662250159319,58.05210318280506
514,18.034731915563114,-254.86555623009286,-3.775397710955778,-5.996828199468789,57.4251520721284,0.2829539499330095,255.54412759840037,57.803947505387804
515,18.064197896882856,-254.8395289818066,-3.8337023614668824,-5.766410110592546,57.204379483054765,0.1950305842926139,255.52082246719354,57.563208578281255
516,18.08755836758914,-254.81256431230673,-3.8930753368666915,-5.53188941801219,56.99495229647005,0.12151294363581454,255.49619644381275,57.33380281048865
517,18.103683243900324,-254.78462428253218,-3.952560151735579,-5.299127169350709,56.79979324419444,0.0655068039039331,255.47012045466144,57.11919146981812
518,18.111766490512597,-254.7556463729081,-4.01106459243155,-5.07391077253877,56.62132620163864,0.029545273959703494,255.44246159020634,56.922328568173654
519,18.111332828771303,-254.7255565637172,-4.067376574713672,-4.861817566825164,56.46145015417963,0.01553159903565967,255.4130967931439,56.74562118088485
520,18.10223178250377,-254.69428407002914,-4.120188879231076,-4.668083411952357,56.321526275840185,0.024701816094356798,255.38192741412428,56.59090338659085
521,18.0846205538911,-254.66177681192096,-4.168132123195968,-4.497480034340632,56.202378732148986,0.0576079516027913,255.34889381980625,56.459424814122556
522,18.058937662639796,-254.62801671814813,-4.209814628500631,-4.354204577326377,56.104309566236765,0.11412177645476965,255.31398927798986,56.351854498339144
523,18.025869543250497,-254.5930340049331,-4.243867463338707,-4.24178432961238,56.02712767958303,0.19345852217056553,255.27727240065624,56.268300354825
524,17.98631238346504,-254.55691960035008,-4.268992789381445,-4.162998996881722,55.970191455804105,0.29421940858210943,255.23887745723042,56.208344066241025
525,17.941331408050505,-254.51983488464077,-4.284013572315887,-4.119822239363848,55.93246401338112,0.4144513199245328,255.19902186209785,56.17109055312759
526,17.892119548291568,-254.48201789992078,-4.287922594673598,-4.113383614534222,55.912579456497454,0.5517214672878645,255.15801010208145,56.155230530853956
527,17.839957026940287,-254.44378526437487,-4.279928535966472,-4.14395154244919,55.908917873359925,0.7032043794215106,255.1162334184338,56.15911398539828
528,17.786172959878225,-254.40552935672872,-4.259496747831757,-4.210937386104596,55.91968626285604,0.8657781160507307,255.07416485426285,56.180831784046745
529,17.732109737350996,-254.36771088888932,-4.226382421238426,-4.3129201798955155,55.94300210196672,1.036126285201438,255.03234980530524,56.21830211703073
530,17.679090692069295,-254.33084753910958,-4.18065425245328,-4.447690995514579,55.97697593259446,1.2108423388018201,254.9913927535485,56.26935807805393
531,17.628391314760727,-254.29549966449918,-4.122707396674994,-4.612315473787237,56.01978918990495,1.3865327329264863,254.95194120346346,56.331832483628844
532,17.58121399635169,-254.26225418098156,-4.053265189713674,-4.803212697861479,56.06976357574697,1.559915810433427,254.91466790219545,56.40363606784172
533,17.53866599823956,-254.23170758048244,-3.9733695997584255,-5.016248326426157,56.12541864700346,1.727913581129561,254.88025229521153,56.482825516170635
534,17.50174019104132,-254.20444893872843,-3.884360669845613,-5.2468397243114335,56.18551494903896,1.887733861270844,254.84936204472942,56.56765842542369
535,17.47129815112908,-254.18104375498325,-3.787845511167578,-5.49007069914459,56.24908094445665,2.0369405206591122,254.8226354323046,56.65663316241699
536,17.44805540890614,-254.1620194285074,-3.6856578106747557,-5.7408133390359035,56.3154230584127,2.173509956531334,254.8006654495089,56.74851263461635
537,17.432568830699665,-254.1478529290187,-3.5798092655321767,-5.993854296693719,56.384119206376155,2.295872407567984,254.78398615282725,56.84233200334615
538,17.425226196965102,-254.13896079847194,-3.472434753669116,-6.244022655762239,56.45499706011315,2.402937318074803,254.773061450508,56.93739123429608
539,17.426238091778544,-254.13569124104708,-3.3657333701583103,-6.486316283541126,56.52809906201211,2.4941026272932043,254.76827611589428,57.03323411312346
540,17.435632341242865,-254.13831784670518,-3.2619077217406263,-6.7160234178722025,56.60363690381917,2.5692485478898974,254.76992861999565,57.12961605184225
541,17.453251402098807,-254.14703445217046,-3.1631040351213855,-6.928836273206275,56.68193883655229,2.6287170410747756,254.77822534500592,57.226463677724524
542,17.478753185760073,-254.1619507476935,-3.071355588865492,-7.120953746002603,56.76339362130387,2.673278725485904,254.7932758471422,57.3238296831074
543,17.51161573933987,-254.18308844071834,-2.9885316440733467,-7.289170804008006,56.848394967692116,2.704089337560096,254.8150890289285,57.42184651841918
544,17.55114606450992,-254.2103779789792,-2.916293468621977,-7.430952726790625,56.93728985596505,2.722638070475247,254.84357025413627,57.520682135298415
545,17.59649327991814,-254.2436559058801,-2.8560583895499425,-7.544492895456659,57.03033331982941,2.7306901302721123,254.87851949487708,57.62050023354894
546,17.64666638524788,-254.2826628753183,-2.8089722510100903,-7.628753231435253,57.12765132458242,2.7302256669115144,254.91963055034103,57.72142656684736
547,17.700556969391148,-254.32704232744885,-2.775890281722825,-7.6834866545574725,57.229212522643586,2.723376941976905,254.96649135017282,57.82352203115222
548,17.75696713519221,-254.3763399426046,-2.75736615711433,-7.7092411291129235,57.33480901507376,2.7123653013435876,255.01858546111515,57.926762617434974
549,17.8146425571303,-254.4300042057274,-2.7536489154939177,-7.707345072675024,57.44404583429814,2.6994393152326994,255.07529510281768,58.03102591214905
550,17.8723100003083,-254.48738857155834,-2.7646872983503883,-7.679874166721373,57.556338691410346,2.686815348992715,255.13590609481037,58.136083684221354
551,17.92871804038711,-254.54775573117783,-2.790140991639432,-7.62959992507705,57.67091952894184,2.676621802750484,255.19961512632298,58.24160013289799
552,17.98267934861981,-254.6102843959255,-2.8293981718586787,-7.5599207080319655,57.78684944113945,2.6708482376552554,255.26553963063841,58.34713543439798
553,18.03311276403154,-254.67407893668158,-2.8815987788348547,-7.474776219408738,57.90303843483219,2.671300519413463,255.33273045915087,58.4521541827157
554,18.079083342416723,-254.73818217450443,-2.9456630130608774,-7.378546953249922,58.018271265535006,2.6795629340196574,255.40018750792242,58.55603814045141
555,18.119838553963227,-254.8015915409448,-3.020324501275995,-7.275940587757918,58.131238255080646,2.6969679975470116,255.46687837115732,58.65810246146925
556,18.154838801788646,-254.86327860476402,-3.1041672507294966,-7.171867869567261,58.24056968872875,2.7245744311847346,255.53175987265175,58.75761431389572
557,18.183780502334702,-254.92221156196229,-3.1956650228605974,-7.071310992516479,58.34487221318737,2.7631535286299456,255.5938019285771,58.85381271458652
558,18.206610158540848,-254.97737982121095,-3.2932213718054157,-6.979187857342205,58.44276569217261,2.8131839246871393,255.65201274264575,58.94592846445176
559,18.22352823760031,-255.02781950214384,-3.3952085187487313,-6.900215966288276,58.532919234205465,2.8748545914032833,255.70546404997864,59.03320336918309
560,18.234982275768942,-255.0726386488077,-3.5000034691991493,-6.838780052673902,58.61408549842538,2.9480757257590042,255.75331516144075,59.11490835336494
561,18.241649353172992,-255.1110411782234,-3.60602017379152,-6.798807756833983,58.685132737964516,3.032497023270703,255.7948348396273,59.19036044556376
562,18.244408663835227,-255.14234880625582,-3.7117369332791506,-6.7836575950715226,58.74507420031114,3.127532634437222,255.82942031363172,59.25893875689495
563,18.244305243426204,-255.16602025820697,-3.815718581177422,-6.796023053337169,58.79309443912467,3.232391853843267,255.85661284163592,59.320099457610056
564,18.242506169014117,-255.18166703774523,-3.916633219910451,-6.837855915881079,58.828571923244354,3.346114289183158,255.87610922620718,59.37338950073418
565,18.240250891159103,-255.1890650960454,-4.01326346135962,-6.910311054836173,58.85109721593541,3.4676079645389617,255.88776878922639,59.41845862430307
566,18.238797765162285,-255.1881620307657,-4.104512305564348,-7.013714025638382,58.860485994905915,3.5956886501236496,255.89161563576283,59.45506905897205
567,18.239369166037243,-255.17907983827143,-4.189404037056741,-7.147552044499509,58.85678624126407,3.729118755226308,255.8878364553198,59.48310233958917
568,18.24309772489657,-255.162113512736,-4.2670807897669984,-7.31048828939724,58.840279003860516,3.866644335129032,255.87677439061073,59.50256262881809
569,18.2509762042724,-255.13772583094763,-4.336795634513001,-7.500398906904817,58.811472263887495,4.007029028603696,255.85891954701802,59.513576015957184
570,18.263813296387394,-255.10653856142733,-4.397903131195942,-7.714431522516585,58.771087632206815,4.14908395621978,255.83489659798778,59.516385388407244
571,18.282197138147737,-255.06932020864093,-4.449848306000086,-7.949083371899061,58.720039959125124,4.291692766148998,255.80544977868743,59.51134073095204
572,18.30646768270472,-255.02697032564427,-4.4921550222195155,-8.20029642230856,58.65941042208068,4.433831203146078,255.77142543575562,59.49888509730125
573,18.336698497079524,-254.980500448324,-4.52441471624185,-8.463566151011605,58.59041417511591,4.574580877776784,255.73375227604572,59.47953693067966
574,18.372688265484285,-254.93101181222391,-4.546276444423873,-8.734060108658797,58.51436404188246,4.713137312851153,255.69341953462376,59.453869744717025
575,18.413962226862736,-254.87967014476317,-4.557439114912968,-9.006742089172308,58.43263193426342,4.8488127597341055,255.65145339564907,59.422490340457166
576,18.45978376052072,-254.8276779406692,-4.557646655676133,-9.276497697782334,58.34660970861104,4.981034622043952,255.60889209537083,59.38601676196194
577,18.509176217963503,-254.77624475025857,-4.5466867278246,-9.53825737746229,58.25767108277624,5.109340536874029,255.56676022907143,59.34505713686834
578,18.56095487277556,-254.72655615905302,-4.524393493068922,-9.787113467004925,58.16713606014981,5.233371221316611,255.52604289391823,59.300190431999354
579,18.613768527562744,-254.6797422593407,-4.490654882461387,-10.01842850280655,58.07623908666224,5.352862117852193,255.48766037423496,59.25195000607721
580,18.666149848036476,-254.63684644957948,-4.445424640042917,-10.227932640610938,57.98610197684534,5.467634718867387,255.45244405089127,59.2008107235343
581,18.71657288504234,-254.59879539730272,-4.38873892332078,-10.41180870119837,57.89771253680591,5.577588275549249,255.42111414087353,59.14718035076711
582,18.763515541984003,-254.5663710781306,-4.3207364104170525,-10.566763892950405,57.811909765327755,5.682692435101508,255.3942598626155,59.09139596494331
583,18.805524032689565,-254.54018598746495,-4.2416799943252945,-10.69008773643429,57.729376447054676,5.782981188126398,255.37232271770628,59.03372608434839
584,18.841275755055626,-254.52066285803897,-4.151977701520186,-10.779696165310497,57.65063977232082,5.878548305650118,255.35558374186908,58.97437909571687
585,18.86963659874312,-254.50802042297417,-4.052200655220047,-10.834162248759007,57.57608026720716,5.969544222092305,255.34415574642168,58.91351826058003
586,18.889708734328416,-254.50226678229183,-3.943096400667819,-10.852734451543185,57.505948774762096,6.056174171021576,255.3379816191659,58.851283114387584
587,18.900865623642236,-254.50320155847993,-3.825596289305876,-10.835343730380947,57.44039053112541,6.138697369882861,255.33683950327335,58.78781645387187
588,18.90277217810673,-254.51042722155023,-3.700815899343301,-10.782600951235205,57.37947463902392,6.217427134157275,255.34035505613838,58.72329542187015
589,18.895389155358828,-254.52336894577567,-3.5700479544738006,-10.695786042335886,57.32322659259567,6.2927318822351115,255.34802015418376,58.657964556736765
590,18.878961853666937,-254.54130146940733,-3.434747929169567,-10.57683000313571,57.27166105167725,6.365037012396601,255.35921665337733,58.592168173556104
591,18.853994268617196,-254.56338092467809,-3.2965132523982734,-10.428290456871576,57.22481186804013,6.434827592758395,255.37324342200495,58.526379169726916
592,18.82121119276417,-254.58867954782176,-3.157057486884894,-10.253320938841421,57.18275649214419,6.50265171556791,255.38934491262495,58.461221374302234
593,18.78151175464433,-254.61622141691618,-3.018180921702788,-10.055633609191462,57.145632355642356,6.569124228609942,255.40673985445622,58.39748291744486
594,18.73591815282445,-254.64501766028386,-2.88173873255969,-9.839454659298141,57.113643550866215,6.63493038014096,255.4246489528853,58.33611872040125
595,18.68552297616227,-254.67409978123817,-2.7496074835108373,-9.609471477812594,57.0870569663413,6.700828741822881,255.44232064040034,58.27824097891191
596,18.631437947335264,-254.70254986525254,-2.6236504562841017,-9.370770730625376,57.06618788068891,6.7676526485182436,255.45905397810967,58.22509734542327
597,18.57474641659037,-254.72952657829114,-2.5056821281396844,-9.128766823178864,57.05137583622405,6.836309317959346,255.47421788627526,58.178037366808375
598,18.51646145258702,-254.75428614292696,-2.3974320576218378,-8.889120616255015,57.0429523841185,6.90777577419163,255.4872661008456,58.13846855603293
599,18.457490895095482,-254.77619791688377,-2.300508463354225,-8.657648675808122,57.04120295718136,6.9830907183322575,255.497747634068,58.10780420075092
600,18.39861026923555,-254.79475467039947,-2.216361868325716,-8.440223756758659,57.04632563926979,7.063341621189835,255.50531293574812,58.08740560274839
601,18.340444008017,-254.8095779749658,-2.1462493397066598,-8.242667684921608,57.05838995096984,7.149646581910248,255.5097162184953,58.07852189863465
602,18.283454972149386,-254.82041920228,-2.091200113835964,-8.070638328599456,57.077298926182344,7.243130883358808,255.51081445069934,58.08223090314384
603,18.227941823169285,-254.82715658240735,-2.0519837048460094,-7.929512912232276,57.10275762870481,7.344898635739951,255.5085634301636,58.099384449389596
604,18.174043442066374,-254.82978873995935,-2.0290818191781965,-7.824270448829155,57.134250781568745,7.456000393380935,255.50301128601188,58.13056138970738
605,18.12174931264483,-254.82842520768438,-2.02266546996503,-7.759376495294609,57.17103139490375,7.577398110697792,255.4942898081656,58.176030789310296
606,18.070914637359877,-254.8232745743784,-2.032578646436872,-7.738673730675946,57.21212135163153,7.709929217907361,255.4826041413012,58.235727047794185
607,18.02127895226215,-254.81463103778106,-2.0583297721479443,-7.765281986747511,57.25632406568466,7.854271890432227,255.4682214862223,58.3092379252953
608,17.972487141693122,-254.80286011338143,-2.099091931719203,-7.841511296640607,57.30224872294252,8.01091372230071,255.45145943557338,58.395805877980266
609,17.924111995454783,-254.78838411447444,-2.153712420494249,-7.968791277531561,57.34834528115664,8.180125980507643,255.4326744484273,58.49434275218162
610,17.875677789044545,-254.7716678615079,-2.220731667586824,-8.147619743715708,57.39294925046956,8.361945408666026,255.4122508326695,58.60345766171401
611,17.826684725719254,-254.75320499228482,-2.2984111813510966,-8.377532848029128,57.43433515095593,8.556165158493425,255.39059054257737,58.72149763102507
612,17.776634274826215,-254.73350523892987,-2.384769938331969,-8.65709825563652,57.47077733400523,8.762335856601853,255.36810410875398,58.84660021380323
613,17.725055325215084,-254.71308301065753,-2.4776284858878737,-8.983931881119803,57.50061654852529,8.979777080596435,255.3452029858794,58.976756784317004
614,17.671530711888067,-254.69244745785224,-2.574659851738835,-9.354737639770196,57.522330302108735,9.207598695986276,255.32229341869518,59.109884632439545
615,17.61572330259685,-254.67209390521023,-2.6734460996511813,-9.765368595004638,57.53460478186138,9.444730733532573,255.29977161543513,59.243905469688215
616,17.557400630282462,-254.65249627735568,-2.7715389640084513,-10.210906962089402,57.536405873154386,9.689959897871695,255.27801974006687,59.37682751661431
617,17.49645705265633,-254.6341000527763,-2.8665224273819523,-10.685759785049655,57.52704663043309,9.941970438429843,255.25740214629863,59.50682800055918
618,17.432932546306223,-254.61731541389625,-2.956074581872833,-11.18376682849833,57.506248427152194,10.19938696717145,255.23826141735654,59.63233267989167
619,17.367027413458732,-254.60251053009745,-3.03802591448624,-11.698317305884796,57.474193007180766,10.460816863781417,255.22091405873627,59.75208899502938
620,17.299112311944178,-254.5900051690446,-3.1104113559041844,-12.222472374108118,57.431562849154915,10.72489015562766,255.2056459638991,59.86522968118042
621,17.229733056520043,-254.5800649571664,-3.17151394357092,-12.749090707955157,57.37956765260605,10.990295140292822,255.1927079101301,59.97132414511562
622,17.159609601090363,-254.5728965784471,-3.2198987171075437,-13.270954829541894,57.31995529521858,11.255808440787582,255.1823113221946,60.070415515000825
623,17.08962861362342,-254.56864408024464,-3.254436412981465,-13.780896179668561,57.255006193823874,11.52031858442321,255.17462443985985,60.1630419070003
624,17.020829224520924,-254.56738632136384,-3.274317427026134,-14.271917196808724,57.187510563799655,11.78284258207037,255.16976892041419,60.25024106027045
625,16.954381856483923,-254.5691354766223,-3.2790570937977344,-14.737308932102923,57.120728612798814,12.042535395843052,255.16781681853766,60.333538085877855
626,16.891560387000453,-254.57383642177177,-3.268493501346239,-15.170762946082517,57.058334255817854,12.298692620038883,255.16878782057907,60.41491667793235
627,16.833708144417216,-254.58136681625973,-3.242778957807932,-15.566476363709445,57.00434351018479,12.550747108310999,255.17264661727893,60.49677473733973
628,16.782198443231565,-254.59153780727038,-3.2023660475694395,-15.919249028950771,56.96302928067129,12.798260608723487,255.17930041353287,60.58186591705487
629,16.738390653823206,-254.6040954338438,-3.1479890181818138,-16.22457175953658,56.938824698181975,13.040911693544816,255.1885967439274,60.673229047693134
630,16.703583214687036,-254.6187229031615,-3.080640971490646,-16.47870478186732,56.93621747410485,13.278481371564554,255.20032187994215,60.774107691666465
631,16.678965419054773,-254.63504388385562,-3.001547040403675,-16.678745524518565,56.95963788935044,13.51083774298858,255.21420011293608,60.88786221433641
632,16.66557007536862,-254.65262686694257,-2.9121336013434798,-16.822685111795728,57.01334312553675,13.73792093609726,255.22989411930868,61.017876842483275
633,16.664229134709334,-254.6709905990999,-2.8139937010947773,-16.90945320425723,57.10130075342701,13.959729386487002,255.24700656864317,61.1674643165014
634,16.67553408874567,-254.6896106565573,-2.7088491642787287,-16.938951267644175,57.22707434633485,14.176308282796109,255.2650831819648,61.33977095286327
635,16.699802500694723,-254.70792737816942,-2.59851013062638,-16.912074743930816,57.393714278362395,14.387740707806133,255.2836175697789,61.537685068362364
636,16.737051623410466,-254.72535555541157,-2.4848329562617644,-16.830724739415647,57.60365662729345,14.594141687999942,255.30205833112316,61.7637515635517
637,16.786979749248843,-254.7412963744262,-2.3696774903353033,-16.69780965746984,57.858632691949325,14.795655072701434,255.31981896917895,62.020094972117505
638,16.848955678444664,-254.75515196179714,-2.254864769051586,-16.517236754582456,58.15959113700433,14.992452924269115,255.33629101542894,62.308352653649514
639,16.922016490437,-254.7663424471068,-2.1421362377777835,-16.293893002755684,58.50663442675942,15.18473694630282,255.35086030038966,62.62961929636299
640,17.00487371588655,-254.77432487348162,-2.03311573005948,-16.0336140193436,58.89897108427748,15.372741440243965,255.36292572051008,62.984403617760954
641,17.09592799164531,-254.77861280567194,-1.9292755196274745,-15.743139302125599,59.33488536306276,15.55673734774482,255.37191936719788,63.372598084579565
642,17.193292205667735,-254.77879528262204,-1.8319077353271174,-15.43005167541633,59.81172608395474,15.73703704375401,255.37732667425786,63.79346256889756
643,17.294822979132174,-254.77455390518907,-1.7421022797681438,-15.10269874870504,60.325916604499405,15.91399965094571,255.3787053695904,64.2456230523713
644,17.39816016330596,-254.765677286395,-1.6607321573058267,-14.770094336570674,60.87298802464753,16.088036757394942,255.37570243785382,64.72708667512583
645,17.500773840067883,-254.7520726313595,-1.588446799726197,-14.441798241181953,61.4476376205905,16.259618534821954,255.36806882314676,65.23527445713472
646,17.600018040453488,-254.7337745919695,-1.5256735513333426,-14.127773613371485,62.04381398591962,16.429280331513525,255.35567195593083,65.7670727650659
647,17.693190070418883,-254.71095158533362,-1.4726269759973765,-13.838222276950074,62.65482936169339,16.597629813674867,255.33850620686835,66.3189039684458
648,17.777594044923053,-254.68390951070725,-1.429325191772835,-13.583399813514534,63.273498189439344,16.765354646665276,255.31670109329778,66.8868157242728
649,17.8506069866103,-254.65309243109925,-1.395612103023847,-13.373413684573645,63.89229918864437,16.933230561887054,255.2905266764881,67.46658705298965
650,17.909745623045264,-254.6190795065547,-1.3711841820894743,-13.218009045528309,64.50355645286275,17.102129483523502,255.26039529208228,68.05384797645142
651,17.95273184392032,-254.58257739849344,-1.3556203532139235,-13.126348068150726,65.0996333371107,17.273027229119474,255.22685867699215,68.64420811120544
652,17.977554664610697,-254.54440749529502,-1.348413601604704,-13.106789468697116,65.67313139606975,17.44701015820046,255.19059968093495,69.23338835483769
653,17.98252646853024,-254.505487554557,-1.3490031650374394,-13.166675489992627,66.21708548528649,17.62528002216852,255.1524179942212,69.81734881521334
654,17.96633132166259,-254.46680769619536,-1.356806400509093,-13.312133774152091,66.72514555903737,17.809156188249382,255.11320966670033,70.39240561144928
655,17.928063359765535,-254.42940115049646,-1.3712494387929979,-13.547901387878959,67.19173586666427,18.000074400409442,255.0739406784287,70.9553293061305
656,17.867253669398956,-254.39431073899317,-1.3917955113311178,-13.877177759548974,67.612183260639,18.19958129970912,255.0356154252768,71.50341861661646
657,17.783884673935137,-254.36255261877517,-1.4179695701488826,-14.301512508008036,67.98280818351215,18.409324021468763,254.99924157632626,72.0345447043472
658,17.678391701336867,-254.3350792170292,-1.4493777963886307,-14.820733137896779,68.30097446770719,18.631034285302412,254.96579320421156,72.54716363279451
659,17.551652048024934,-254.31274346435814,-1.4857209056736929,-15.4329163751945,68.5650970842222,18.866506486468715,254.93617431948462,73.04029725108408
660,17.404962416468255,-254.29626643279187,-1.5268006769886127,-16.134405518787005,68.7746100362519,19.117569388655344,254.91118498106025,73.51348543599303
661,17.240006079469936,-254.28621034030542,-1.5725196405185633,-16.91987458494111,68.92989931191288,19.386051133331335,254.8914920469874,73.9667149261222
662,17.058811462259303,-254.28295860093456,-1.622874227400055,-17.78243825274748,69.03220783216315,19.67373745732305,254.87760637140062,74.40033157764307
663,16.863703984879212,-254.28670418223288,-1.6779418939801338,-18.713804760298398,69.08352041805874,19.98232326664688,254.86986784511518,74.81494354852133
664,16.657252976408344,-254.29744700124212,-1.7378628405440464,-19.70446707364527,69.08643689642507,20.3133580435199,254.8684391418789,75.21132264140337
665,16.442215289584155,-254.31500044400124,-1.8028170758229798,-20.743925988693107,69.044040705646,20.668185977456314,254.8733083718086,75.59030997286492
666,16.221476940422694,-254.33900635148038,-1.872997882289557,-21.82093745027099,68.95976906617746,21.047882256229375,254.88430008199737,75.95273062995611
667,15.997993742380643,-254.36895709482613,-1.9485832173778976,-22.9237753837788,68.8372893217008,21.453187646909942,254.90109330447098,76.29932042051111
668,15.774731627786615,-254.40422282133687,-2.0297070461955053,-24.040500850908227,68.68038472394996,21.884444269511913,254.9232447955837,76.63066651881762
669,15.55460727603591,-254.44408168576837,-2.1164328311174,-25.159228496937338,68.49285184567685,22.34153615551408,254.95021533966906,76.9471628769213
670,15.34042981965231,-254.48775090909996,-2.2087313331985516,-26.268382099381395,68.2784109599881,22.8238386092323,254.9813970235456,77.2489806940383
671,15.134844650220037,-254.53441676034262,-2.3064645355544173,-27.356932402452337,68.04063006998332,23.330180437681776,255.01613965206016,77.536053900922
672,14.940280506441368,-254.58326190484772,-2.4093769203648603,-28.414612015960536,67.78286274226129,23.858822773117577,255.05377482632102,77.80807936631622
673,14.758900999365826,-254.63348894429757,-2.51709458605571,-29.432103663965044,67.5081994397106,24.40745752678707,255.09363658025327,78.06453123611091
674,14.59256158510824,-254.68433944510477,-2.629131929048748,-30.401199308533766,67.21943167179148,24.973227532150204,255.13507792871988,78.30468843129205
675,14.442772893347598,-254.73510832985212,-2.7449050260570154,-31.314928598961263,66.9190280431594,25.552769235973155,255.17748324801445,78.5276739105828
676,14.310671353667109,-254.78515405884272,-2.863750499621002,-32.16765573564985,66.60912122251912,26.1422775123303,255.2202769597937,78.73250392681778
677,14.196998152911439,-254.8339053668655,-2.984948420743693,-32.95514426566628,66.29150494712528,26.73759096518083,255.2629293278871,78.9181452206331
678,14.102087540698012,-254.8808653391568,-3.107747608184289,-33.67458965571519,65.96764036503332,27.33429504805398,255.30496018994702,79.08357792115503
679,14.025865300278777,-254.92561335883306,-3.231391562574166,-34.32461985014921,65.63867124268887,27.927839478589686,255.34594117829744,79.22786187477375
680,13.967857846915114,-254.96780512443064,-3.355143276875504,-34.905264537742696,65.3054477627788,28.513665739953172,255.38549662788614,79.35020419345074
681,13.92721195641306,-255.00717074774596,-3.4783072875224863,-35.41789457772044,64.9685587123406,29.08733992954753,255.42330315395068,79.45002595109443
682,13.902724633561236,-255.04351102615013,-3.6002475766816153,-35.86513391416043,64.62837173545553,29.64468583015351,255.45908793932858,79.52702606986531
683,13.892882197115037,-255.07669228777726,-3.7204003242506234,-36.2507471785546,64.28508097544689,30.18191283199277,255.49262605504404,79.58124043809978
684,13.895907316224857,-255.10664051996275,-3.8382809810256164,-36.57950685817872,63.93876089980921,30.69573326589742,255.52373743705712,79.6130941569036
685,13.909812420470562,-255.1333355589157,-3.9534855684650974,-36.85704426507467,63.5894245048487,31.183463925289857,255.55228419982774,79.62344460378937
686,13.932457564450534,-255.15680583698614,-4.065686461945547,-37.08968856871654,63.23708359649128,31.643107155297315,255.57816867436546,79.61361289254226
687,13.961610513108777,-255.17712368814077,-4.174623259046827,-37.28429797627579,62.88180854610032,32.073407857833246,255.60133205288864,79.58540143440493
688,13.995006665142506,-255.19440074645226,-4.28008971720983,-37.448086933468666,62.523784850157966,32.47388398535667,255.62175305573524,79.54109571828029
689,14.030406525826121,-255.20878269081717,-4.381918072853282,-37.588453104218964,62.163363984380666,32.8448294489056,255.63944576566647,79.483449135222
690,14.065648722641537,-255.22044251944038,-4.479962182112095,-37.71280790318086,61.80110643148558,33.187289761054885,255.654455722763,79.4156506476168
691,14.0986969408822,-255.22957166778383,-4.574080808819425,-37.82841445097444,61.43781531664332,33.50301209412779,255.66685352235743,79.34127623904074
692,14.127679615269209,-255.23636860745168,-4.664122111917583,-37.94223689452777,61.07455970947333,33.79437268240306,255.67672550260139,79.26422621807862
693,14.150921746799282,-255.2410250525114,-4.7499100683184095,-38.060804981149694,60.712687283797656,34.06428557293025,255.68416162097614,79.1886514621062
694,14.166968789167631,-255.24371046968366,-4.8312333201570725,-38.19009753914642,60.35382663007006,34.31609756094232,255.68924121627305,79.11887248618515
695,14.174603090401874,-255.244556109627,-4.9078368707401445,-38.335448091572616,59.99988001713817,34.5534746307133,255.69201790226256,79.05929569883018
696,14.172853779761432,-255.24364011807788,-4.979417183127795,-38.50147522274048,59.65300770840278,34.780285275829094,255.69250520604626,79.01433125363795
697,14.161001188930872,-255.2409753530282,-5.045621379784812,-38.69203953664424,59.31560505041226,35.000485696252184,255.69066464619087,78.98831652355443
698,14.138576932429018,-255.23650129285946,-5.10605115109237,-38.910228091636064,58.99027359187403,35.21801117152821,255.6863977064514,78.98544855208044
699,14.105360754021797,-255.23008094324405,-5.160271544665003,-39.15836607250236,58.67978759733064,35.43667705432856,255.6795426770777,79.00972805271827
700,14.061375206644776,-255.22150311939598,-5.20782414749827,-39.43805421354275,58.38705752637987,35.660091954138046,255.66987679286171,79.0649167388288
701,14.006879108917696,-255.21049007221927,-5.248243579513344,-39.750229211366744,58.11509227466109,35.8915848339339,255.65712367370193,79.1545089716891
702,13.942360461198206,-255.19671019870222,-5.281075973383854,-40.09524319801284,57.86696210187965,36.134146887416,255.6409658283845,79.28171787406377
703,13.86852912108209,-255.17979545865228,-5.305898297569913,-40.4729574227791,57.645764138905015,36.39038817830658,255.62106184833107,79.44947517885734
704,13.786309096628697,-255.1593629813979,-5.32233779988636,-40.88284471799953,57.4545921710886,36.66250816804533,255.59706776552107,79.66044325044946
705,13.696829922278784,-255.13504009119012,-5.330091216003534,-41.32409512026438,57.29651206293766,36.95227852808857,255.56866178111173,79.91703700742818
706,13.601416329443666,-255.1064916303869,-5.32894353312821,-41.7957191146729,57.17454373029443,37.261036079881464,255.53557121082287,80.22145289366486
707,13.501575326282854,-255.07344813991568,-5.318786051760947,-42.29664327985278,57.09164999066418,37.58968335237412,255.49760016578585,80.5757015734931
708,13.39897981670774,-255.03573328753035,-5.299633343735157,-42.82579361336351,57.05073197199472,37.93869411583869,255.45465631390408,80.981640703467
709,13.295447962409694,-254.99328895425705,-5.271638495390185,-43.38216253135266,57.05463009323183,38.30812133522721,255.4067750835699,81.44100401383609
710,13.192917592027129,-254.94619655409826,-5.235105751085849,-43.964856450072496,57.10612897840158,38.697605245543656,255.35413983362938,81.9554230192596
711,13.093415109178252,-254.89469338487928,-5.190499406856404,-44.57312191636541,57.20796403570628,39.10637965922196,255.29709673674122,82.52643793717431
712,12.999018588191081,-254.83918302750612,-5.138447694409946,-45.20634942528372,57.36282686136108,39.533275175563475,255.23616335101724,83.15549483536802
713,12.91181507621191,-254.78023904477595,-5.079740571762019,-45.86405533974109,57.573366222885255,39.97671867471646,255.1720301076573,83.84392672953295
714,12.83385251164867,-254.71860153244958,-5.015320841447939,-46.54584366567741,57.842181274928116,40.4347293110494,255.10555427313753,84.59291736021092
715,12.76708708806505,-254.6551664314456,-4.946268778402435,-47.25135073276911,58.17180395242147,40.90491209825757,255.03774633757362,85.403447664249
716,12.713327300961732,-254.5909678427081,-4.873781269796847,-47.98017698305392,58.56466817891403,41.38445099291185,254.96974915201486,86.27622641618973
717,12.674176278757724,-254.52715386880328,-4.799147078536136,-48.73181101572057,59.023064536633335,41.870104041488844,254.9028104523017,87.21160801353356
718,12.650974325573918,-254.46495679991972,-4.7237200353064495,-49.50555171513989,59.54908020296349,42.35820362196875,254.83824972289906,88.20950175295344
719,12.644743901206407,-254.40565879968696,-4.6488917353714605,-50.300434594916794,60.14452509556047,42.84466506864961,254.77742070361413,89.26927801058072
720,12.656139460428928,-254.35055455179932,-4.576064856875357,-51.115168286524806,60.810846183467184,43.32500695419009,254.7216711484831,90.38967732449989
721,12.685404563987982,-254.3009124897945,-4.50662776792337,-51.94808630041327,61.54903277058989,43.794385924128854,254.6723015965457,91.5687283614397
722,12.732338454404186,-254.25793621059248,-4.441930818256293,-52.79711784393932,62.35951623010126,44.24764822516732,254.63052487345283,92.80368014823145
723,12.796273953327855,-254.2227275326899,-4.383264673615024,-53.659779811424116,63.24206819806771,44.679399074049265,254.59742788264407,94.09095296476782
724,12.876068150821967,-254.19625251399228,-4.33184115195543,-54.533190365877466,64.1957016792242,45.08408998301517,254.57393707947406,95.42611122354518
725,12.970106922825291,-254.17931162838264,-4.288777064970863,-55.414103052992786,65.21857989021053,45.45612321696038,254.56078888414694,96.80386070009259
726,13.076323811452076,-254.17251512790628,-4.255081458473188,-56.29895925096522,66.30793790783568,45.789971693613275,254.55850608975882,98.21807165217086
727,13.19223322895504,-254.17626432713863,-4.231646456839933,-57.183956012527624,67.46002221483354,46.08031176964667,254.56738099851123,99.6618286055664
728,13.314977331112686,-254.1907392391758,-4.219241725271071,-58.06512599883333,68.67005297690893,46.32216543839758,254.58746567609674,101.1275068282367
729,13.441385310535882,-254.21589281682552,-4.218512354129317,-58.938426165078226,69.93221330954175,46.51104754345407,254.61856950249177,102.6068747205077
730,13.568043343780346,-254.2514519909896,-4.229979774001213,-59.79983199676875,71.23966889841886,46.64311281736306,254.66026410376372,104.09122049620103
731,13.691373039147434,-254.29692558070127,-4.254045246658551,-60.645434280843475,72.58462017678244,46.71529705398654,254.71189560892753,105.57150065304678
732,13.807716023712043,-254.3516188761869,-4.290995563789217,-61.471535549432936,73.95838794891374,46.72544661856652,254.77260389221541,107.03850690445347
733,13.913422271256232,-254.41465435203042,-4.341010654471372,-62.27474342647226,75.35153196959605,46.67243075219662,254.8413481156431,108.48304748864398
734,14.004939794042011,-254.4849976762475,-4.404172715392882,-63.052058151932606,76.75400053684365,46.55623161989779,254.91693759495234,109.89613803031793
735,14.078903260709644,-254.56148795388353,-4.480476338984207,-63.800951615445854,78.15530758620453,46.37800770452181,254.99806677916047,111.26919637170934
736,14.132218933230513,-254.6428709360146,-4.569839141376976,-64.51943536078524,79.54473212018195,46.140126921958995,255.08335291800535,112.59423504999137
737,14.162143152138386,-254.72783376899588,-4.672112619276791,-65.20611519524121,80.91153320588519,45.846166673454114,255.17137483137165,113.86404442829908
738,14.16635158778703,-254.81503985037727,-4.787093205013199,-65.86023013345358,82.24517246448002,45.50087894628042,255.26071119025792,115.07235897313879
739,14.142996677108354,-254.90316251983106,-4.914533556237734,-66.48167336358343,83.53553524343072,45.11011962845834,255.349976892766,116.21399902044736
740,14.090751067316491,-254.9909165482171,-5.0541539707616066,-67.070992878236,84.77314171745736,44.680742550525366,255.43785637330552,117.28498087170553
741,14.00883550918054,-255.07708659853776,-5.205653508945324,-67.62936962082993,85.94934001060676,44.22046040176554,255.52313292555203,118.28258936461317
742,13.89703051887782,-255.1605520181541,-5.368720012055351,-68.15857163997025,87.05647485846342,43.73767640265626,255.604713353036,119.20540905126317
743,13.755672150010211,-255.24030752016097,-5.543037857290345,-68.66088380834059,88.08802701973327,43.24129219699522,255.68164751830233,120.05331246166928
744,13.585633115670555,-255.31547953366228,-5.728292175514858,-69.13901398834159,89.03872031952359,42.7404986835338,255.75314263819646,120.82740627747619
745,13.388291079391482,-255.38533823958514,-5.9241684879289975,-69.5959778945246,89.90459470875838,42.24455739930893,255.81857245022894,121.52993834602087
746,13.165486238304222,-255.4493055218507,-6.130347225300773,-70.03496609987698,90.68304501614773,41.762580606470436,255.8774816161804,122.16417019148513
747,12.919470502643703,-255.50695918535834,-6.346493195656675,-70.45919752199593,91.37282615396435,41.303318362972085,255.92958587255157,122.73422093944896
748,12.65285067880222,-255.55803380928836,-6.572240597438016,-70.87176430189278,91.97402642152703,40.87496047068984,255.97476847019496,123.24488933581698
749,12.368528019090167,-255.6024185789812,-6.807174550132508,-71.2754733517668,92.48801123276493,40.48496027438793,256.0130734247668,123.70146086913509
750,12.069636269604825,-255.64015241106523,-7.050810344125628,-71.67269009659861,92.91734007217511,40.139885933791085,256.0446960630427,124.10950698985997
751,11.759479989737418,-255.67141663335292,-7.302571770250838,-72.06519010435497,93.26565976772228,39.84530315650932,256.06997128138994,124.47468314292439
752,11.441474512640106,-255.69652538953432,-7.56177000603398,-72.45402440283243,93.53757733093406,39.605691626953906,256.0893598222739,124.80253190483576
753,11.119088473482472,-255.7159138422451,-7.82758454467102,-72.83940434327604,93.73851577728955,39.424395692035716,256.10343275436134,125.09829711075852
754,10.795789343730036,-255.7301241976956,-8.099047520195784,-73.22061188425678,93.87455658552028,39.303608441666455,256.1128542611482,125.36675457797689
755,10.474991952771548,-255.73978958488146,-8.375032605153804,-73.59594102994852,93.95227274215392,39.24438722058276,256.1183628220251,125.61206480753505
756,10.160009682526493,-255.7456158535178,-8.654249559228811,-73.962675692923,93.97855653471623,39.24669780013222,256.12075087821023,125.83765268070562
757,9.854007946705218,-255.7483613710918,-8.935245477400114,-74.31710831439698,93.96044634753706,39.30948386605823,256.1208430801798,126.04611851505726
758,9.559959680681708,-255.74881492186913,-9.216413666253388,-74.65460210758204,93.90495673031755,39.430758089184046,256.1194732282537,126.23918389781136
759,9.280602823939939,-255.7477719042868,-9.496010715248852,-74.96969785386972,93.8189160219367,39.60771080271529,256.11746010227193,126.41767454886963
760,9.018400154970891,-255.7460092423417,-9.772181738158942,-75.25626394696177,93.70881578968579,39.83683218249309,256.1155825836791,126.5815411442899
761,8.775502283501021,-255.74425975335052,-10.042993116006663,-75.50768607690453,93.58067616854223,40.114043774834265,256.1145547895924,126.72991757760282
762,8.553714956588868,-255.74318703486668,-10.30647157388363,-75.71709080619252,93.43993077765408,40.43483521444492,256.1150022510339,126.861214613215
763,8.354471890769675,-255.74336210686965,-10.5606481250959,-75.87759549603796,93.29133426795485,40.79440205161627,256.1174403309967,126.97324542068665
764,8.17881405302713,-255.7452430159382,-10.803605221351592,-75.98257568002683,93.13889475444329,41.18778081176932,256.12225603122613,127.06337817035734
765,8.027375857238901,-255.749158426057,-11.033525291494211,-76.02594004006666,92.98583242204904,41.60997774258441,256.12969413261084,127.12870972584683
766,7.900378341677007,-255.7552959578795,-11.248738789348103,-76.00240256096134,92.83456449518282,42.05608814223573,256.13984833421273,127.16625347426604
767,7.797629141829356,-255.763695741353,-11.447769930613376,-75.90774121695591,92.68671561517651,42.52140371712173,256.1526577510666,127.17313355681601
768,7.71852897870096,-255.77424936358568,-11.62937840560683,-75.73903274105812,92.54315159928761,43.00150609681851,256.1679088462392,127.14677733394568
769,7.662084425106066,-255.78670416224966,-11.7925954696935,-75.49485371882234,92.40403366481074,43.492345373906275,256.18524264413355,127.08509793947754
770,7.626926792436545,-255.80067261475463,-11.936752981700128,-75.17543941470188,92.26888954471585,43.990303223242705,256.2041668798529,126.98665923460636
771,7.611336947702123,-255.8156463599391,-12.061504223782096,-74.7827932425029,92.13669751671654,44.49224070235616,256.2240725372178,126.85081626345381
772,7.613275709161726,-255.83101418048886,-12.166835675570594,-74.32074145465536,92.00597924237883,44.995531208231654,256.24425403322317,126.67782533396448
773,7.630419348304003,-255.84608314509978,-12.253069247989929,-73.79492933300263,91.87489747714697,45.49807926607295,256.26393219366685,126.4689190368541
774,7.660199757621856,-255.86010207964296,-12.320854722239401,-73.21275688394276,91.7413550925744,45.99832587333508,256.2822791507262,126.22634280451086
